File: XRD/Ni3Fe_FD0729.xy
TT I
1.27165 7.05241
1.31627 6.63279
1.36089 6.44107
1.40551 6.38772
1.45013 6.06763
1.49476 6.26884
1.53938 6.04399
1.584 5.30317
1.62863 4.84913
1.67325 4.71615
1.71787 4.81948
1.7625 5.13008
1.80712 5.3102
1.85174 5.04328
1.89636 4.41337
1.94099 4.50682
1.98562 4.88467
2.03025 5.15008
2.07487 4.61743
2.11949 5.33856
2.16411 4.5931
2.20874 13.1538
2.25338 19.9635
2.298 6.25212
2.34263 5.16323
2.38725 5.63888
2.43188 6.08176
2.4765 7.70694
2.52115 7.36712
2.56577 7.10786
2.6104 8.50832
2.65503 7.74239
2.69965 7.54517
2.7443 8.36863
2.78893 8.29013
2.83356 8.17264
2.87818 8.66229
2.92281 8.6962
2.96744 9.48126
3.01209 10.1101
3.05672 10.9136
3.10135 12.1559
3.14599 13.2202
3.19062 14.7907
3.23527 15.3632
3.2799 15.9057
3.32454 16.4069
3.36917 17.6493
3.4138 19.0783
3.45844 19.8111
3.50309 20.9782
3.54773 21.641
3.59237 23.649
3.637 83.36
3.68164 54.6641
3.7263 25.8065
3.77094 26.3988
3.81558 27.0419
3.86022 27.3226
3.90486 28.5568
3.9495 29.7111
3.99416 30.9439
4.0388 32.1214
4.08344 33.5425
4.12809 34.9087
4.17273 36.8851
4.21738 42.2859
4.26204 219.317
4.30669 195.75
4.35133 48.2394
4.39598 44.2451
4.44063 52.7425
4.4853 62.7008
4.52995 49.8553
4.5746 51.0614
4.61925 53.4074
4.6639 55.4744
4.70855 57.6687
4.75322 60.8691
4.79788 63.9506
4.84253 66.649
4.88719 71.0869
4.93184 74.6564
4.97652 79.9365
5.02118 86.4087
5.06583 93.4954
5.11049 104.388
5.15515 163.725
5.19981 325.639
5.24449 2816.35
5.28916 12569.5
5.33382 2903.94
5.37848 185.871
5.42315 128.029
5.46783 112.834
5.5125 106.123
5.55716 101.7
5.60183 98.2122
5.6465 96.363
5.69117 93.7769
5.73586 91.9943
5.78053 90.9194
5.8252 90.5379
5.86988 91.1286
5.91455 92.69
5.95924 100.355
6.00392 194.544
6.0486 923.073
6.09328 4504.98
6.13795 3230.08
6.18263 237.265
6.22733 92.0865
6.27201 81.9059
6.3167 97.8138
6.36138 79.1109
6.40606 68.8212
6.45075 67.0787
6.49545 65.1277
6.54014 63.6926
6.58483 62.2029
6.62952 62.447
6.67421 89.0004
6.71892 132.841
6.76361 67.4036
6.8083 58.4829
6.853 57.2577
6.89769 56.2714
6.94239 56.4223
6.98711 55.4406
7.03181 55.5772
7.07651 54.9797
7.12121 55.1087
7.16591 55.254
7.21063 55.4214
7.25533 67.9781
7.30004 161.694
7.34475 86.6883
7.38945 56.5935
7.43416 54.4309
7.47889 53.9069
7.5236 54.6508
7.56831 55.0037
7.61303 56.7143
7.65774 57.0024
7.70247 55.6061
7.74719 55.964
7.79191 56.5824
7.83663 56.3394
7.88135 57.8382
7.92607 58.261
7.97081 59.6886
8.01553 60.424
8.06026 61.7591
8.10498 63.6916
8.14971 71.7587
8.19446 71.4085
8.23919 69.1908
8.28392 71.714
8.32865 73.8502
8.37339 77.7408
8.41812 83.9046
8.46288 109.79
8.50761 155.979
8.55235 368.361
8.59709 1177.17
8.64183 2168.21
8.68658 988.758
8.73134 167.422
8.77609 98.3419
8.82083 92.1608
8.86558 88.9417
8.91033 88.9857
8.9551 90.1972
8.99985 84.9913
9.04461 83.6394
9.08936 82.4137
9.13412 81.8034
9.17888 81.4388
9.22365 82.19
9.26841 81.3151
9.31318 82.1833
9.35794 82.6126
9.4027 82.6263
9.44749 83.3468
9.49226 83.9366
9.53703 84.9622
9.5818 86.8304
9.62657 91.2053
9.67134 97.0366
9.71614 92.9161
9.76091 93.5191
9.80569 95.8805
9.85047 99.1652
9.89525 120.277
9.94005 131.441
9.98484 169.141
10.0296 332.401
10.0744 815.556
10.1192 1768.93
10.164 1606.06
10.2088 416.12
10.2536 126.93
10.2984 111.964
10.3432 112.968
10.388 104.077
10.4328 115.745
10.4776 156.777
10.5224 283.611
10.5672 515.796
10.612 513.135
10.6568 208.949
10.7017 97.0959
10.7465 86.1015
10.7913 82.8762
10.8361 80.8217
10.8809 78.5654
10.9257 77.9032
10.9706 78.1552
11.0154 74.5083
11.0602 72.3815
11.105 71.1111
11.1499 75.0589
11.1947 81.3752
11.2395 73.4216
11.2844 69.7837
11.3292 66.7867
11.374 65.6517
11.4189 65.2287
11.4637 64.8323
11.5086 65.1563
11.5534 67.2208
11.5983 64.8943
11.6431 63.2381
11.688 62.4925
11.7328 62.6582
11.7777 62.53
11.8225 62.3608
11.8674 61.9591
11.9122 62.3267
11.9571 62.6131
12.002 63.094
12.0468 66.6411
12.0917 77.5952
12.1366 102.231
12.1814 154.508
12.2263 199.126
12.2712 162.509
12.3161 96.8069
12.3609 69.9327
12.4058 64.3115
12.4507 63.8916
12.4956 64.1777
12.5405 64.17
12.5853 65.4022
12.6302 71.8881
12.6751 76.4514
12.72 69.2826
12.7649 67.5111
12.8098 67.9615
12.8547 69.2216
12.8996 70.7767
12.9445 71.7895
12.9894 73.7621
13.0343 75.2491
13.0792 78.4384
13.1242 86.6009
13.1691 109.127
13.214 146.293
13.2589 240.265
13.3038 370.968
13.3487 413.546
13.3937 265.282
13.4386 126.598
13.4835 104.048
13.5285 117.995
13.5734 157.511
13.6183 248.93
13.6633 346.72
13.7082 335.785
13.7531 186.747
13.7981 97.6274
13.843 81.6057
13.888 79.2164
13.9329 76.5563
13.9779 75.6363
14.0228 74.0175
14.0678 72.7533
14.1127 72.1445
14.1577 72.0395
14.2027 71.0265
14.2476 70.0092
14.2926 70.1893
14.3376 70.9661
14.3825 69.6044
14.4275 68.4682
14.4725 68.2978
14.5175 68.524
14.5624 68.743
14.6074 70.7179
14.6524 71.1683
14.6974 69.7613
14.7424 71.1238
14.7874 77.5104
14.8324 87.7955
14.8774 110.421
14.9224 154.566
14.9674 208.445
15.0124 215.476
15.0574 149.571
15.1024 91.3813
15.1474 72.2867
15.1924 70.3511
15.2374 70.2927
15.2824 69.7657
15.3274 67.6771
15.3725 66.6178
15.4175 66.1439
15.4625 65.8003
15.5076 66.0289
15.5526 65.9098
15.5976 65.3716
15.6426 66.0262
15.6877 71.2626
15.7327 78.8164
15.7778 93.9919
15.8228 127.521
15.8679 172.731
15.9129 191.828
15.958 154.116
16.003 98.7941
16.0481 68.2357
16.0931 64.24
16.1382 62.2215
16.1833 60.3302
16.2283 58.8618
16.2734 58.2521
16.3185 58.3337
16.3636 58.7203
16.4086 57.3507
16.4537 55.8364
16.4988 55.3957
16.5439 55.2125
16.589 55.0349
16.6341 54.6017
16.6792 54.1821
16.7243 54.7012
16.7694 54.6797
16.8145 54.4992
16.8596 54.9386
16.9047 56.1776
16.9498 56.5374
16.9949 55.411
17.04 55.3911
17.0851 56.6759
17.1302 58.1347
17.1754 61.3441
17.2205 66.3832
17.2656 74.7569
17.3108 82.5726
17.3559 81.7032
17.401 70.8016
17.4462 62.0409
17.4913 59.0635
17.5365 58.7679
17.5815 58.8647
17.6268 59.1553
17.6718 59.9906
17.7171 60.4456
17.7622 61.0879
17.8074 61.5392
17.8525 63.5691
17.8977 67.6164
17.9428 73.0374
17.9881 82.2806
18.0331 100.359
18.0784 122.307
18.1237 139.324
18.1688 130.538
18.214 103.445
18.2591 87.0242
18.3044 90.9605
18.3495 100.151
18.3948 104.958
18.4399 95.8998
18.4852 77.6713
18.5303 66.1052
18.5756 62.0804
18.6207 61.0255
18.666 60.1036
18.7112 59.4143
18.7565 58.8215
18.8016 58.3736
18.8469 57.6607
18.892 57.4521
18.9374 57.0396
18.9825 56.7562
19.0278 56.5452
19.073 56.5412
19.1183 57.1067
19.1635 57.7977
19.2088 59.3866
19.254 62.1121
19.2993 66.7224
19.3447 72.7132
19.3898 75.871
19.4352 71.5508
19.4804 63.2563
19.5257 56.6938
19.5709 53.9928
19.6163 53.7359
19.6615 53.5802
19.7068 53.0224
19.752 53.1519
19.7974 53.2848
19.8426 54.0899
19.888 54.5743
19.9332 55.8211
19.9786 58.5691
20.0238 62.5854
20.0692 67.326
20.1144 69.6173
20.1598 67.8545
20.205 63.4979
20.2504 62.2421
20.2957 63.9046
20.3411 65.2736
20.3863 63.498
20.4318 58.3025
20.477 53.7323
20.5224 51.3288
20.5677 50.8194
20.6131 50.133
20.6586 49.6267
20.7038 49.304
20.7493 48.9348
20.7945 48.8274
20.84 48.7131
20.8853 48.4491
20.9307 48.3174
20.976 48.46
21.0215 48.3867
21.0668 48.7643
21.1122 49.2281
21.1575 49.9745
21.203 50.8087
21.2483 51.3041
21.2938 51.1944
21.3391 50.0134
21.3846 48.6987
21.4299 48.3159
21.4754 48.2732
21.5207 48.3993
21.5662 48.5741
21.6116 48.8997
21.6571 49.6616
21.7024 50.5587
21.7479 52.5237
21.7933 55.3044
21.8388 58.8129
21.8843 62.703
21.9297 64.4377
21.9752 63.2253
22.0206 59.4487
22.0661 56.5303
22.1115 55.9629
22.157 55.8335
22.2024 54.0169
22.248 51.3989
22.2933 49.7362
22.3389 49.0471
22.3843 48.7735
22.4299 48.7637
22.4753 48.6945
22.5208 48.4058
22.5662 48.3112
22.6118 48.4399
22.6572 48.6433
22.7028 48.8215
22.7483 49.487
22.7939 50.149
22.8393 51.9963
22.8849 54.0245
22.9303 56.1496
22.9759 57.4649
23.0214 57.002
23.067 54.4925
23.1126 51.2382
23.1581 49.1852
23.2037 48.5284
23.2492 48.6037
23.2948 48.6314
23.3403 48.8512
23.3859 49.4784
23.4314 50.6488
23.477 52.5624
23.5225 54.7976
23.5682 56.891
23.6137 57.4841
23.6593 55.1739
23.7048 51.4423
23.7505 48.3558
23.796 46.4057
23.8417 45.9878
23.8872 45.4807
23.9329 45.0126
23.9784 44.7093
24.0241 44.5
24.0697 44.1531
24.1154 44.0023
24.1609 43.8443
24.2066 43.7621
24.2522 43.5254
24.2979 43.3094
24.3434 43.1794
24.3892 43.0633
24.4349 43.0246
24.4805 42.8603
24.5262 42.8952
24.5718 42.8154
24.6175 42.705
24.6631 42.6948
24.7089 42.3564
24.7545 42.2931
24.8002 42.0635
24.8458 42.0433
24.8916 41.9016
24.9372 42.0302
24.983 42.2959
25.0286 42.6502
25.0744 43.0674
25.12 43.6814
25.1658 44.2557
25.2114 44.5001
25.2572 44.9177
25.3029 44.767
25.3487 44.6661
25.3943 44.3412
25.4402 43.2576
25.4858 42.4124
25.5316 41.3788
25.5773 40.8344
25.6231 40.6101
25.669 40.4229
25.7147 40.4668
25.7605 40.3533
25.8062 40.4086
25.8521 40.5876
25.8977 40.4687
25.9436 40.8089
25.9893 41.0148
26.0352 41.3065
26.0809 41.4915
26.1268 41.5383
26.1725 41.1731
26.2184 40.6184
26.2641 40.1967
26.31 39.8242
26.3557 40.0533
26.4017 39.968
26.4474 40.2781
26.4933 40.6253
26.5391 41.1686
26.585 41.6317
26.6308 41.9451
26.6767 41.9617
26.7225 41.8469
26.7684 41.3145
26.8142 40.8114
26.8601 40.3594
26.9059 39.7279
26.9519 39.3318
26.9979 39.0606
27.0437 38.7375
27.0896 38.6487
27.1354 38.6149
27.1814 38.5528
27.2272 38.4286
27.2732 38.4555
27.3191 38.2159
27.3651 38.3788
27.4109 38.2577
27.4569 38.5247
27.5027 38.4186
27.5488 38.4282
27.5946 38.177
27.6407 37.9831
27.6865 38.1022
27.7326 37.6274
27.7784 37.915
27.8245 37.8162
27.8703 37.8738
27.9164 38.0127
27.9623 38.3571
28.0084 38.6213
28.0543 39.0302
28.1003 38.9325
28.1462 38.6521
28.1923 38.2684
28.2384 37.9111
28.2843 37.5279
28.3304 37.0931
28.3764 36.554
28.4225 36.3361
28.4684 36.1045
28.5145 35.8124
28.5605 35.7237
28.6066 35.513
28.6526 35.5913
28.6987 35.5409
28.7447 35.5904
28.7908 35.2695
28.8368 35.3032
28.8829 35.3329
28.9289 35.2047
28.9751 34.9866
29.0211 34.8551
29.0673 34.6503
29.1133 34.4739
29.1595 34.2535
29.2055 34.279
29.2517 34.2781
29.2977 34.0734
29.3439 34.2069
29.3899 34.1398
29.4361 34.1373
29.4824 33.9265
29.5284 33.6706
29.5746 33.3898
29.6207 33.2194
29.6669 33.0152
29.713 32.7724
29.7593 32.7635
29.8053 32.7756
29.8516 32.6801
29.8977 32.7471
29.9439 32.4905
29.99 32.5718
30.0363 32.4204
30.0824 32.5858
30.1287 32.3544
30.1748 32.3641
30.2211 32.287
30.2673 32.23
30.3136 32.3366
30.3597 32.2279
30.406 32.2067
30.4522 32.037
30.4985 31.935
30.5447 32.1493
30.591 32.0413
30.6372 32.1344
30.6835 32.1213
30.7297 32.1697
30.7761 32.1146
30.8224 31.9969
30.8686 31.7529
30.915 31.4549
30.9612 31.4482
31.0076 31.252
31.0538 31.1529
31.1002 31.0806
31.1464 30.8573
31.1928 30.9558
31.2391 31.0314
31.2855 30.7104
31.3317 30.7132
31.3781 30.7713
31.4244 30.8345
31.4708 30.8308
31.5171 30.7948
31.5636 30.7155
31.6098 30.4657
31.6563 30.2285
31.7026 30.2017
31.7491 30.0116
31.7953 30.1857
31.8418 30.1674
31.8881 30.0104
31.9346 29.9639
31.9809 30.0536
32.0275 29.856
32.074 29.8507
32.1203 29.5016
32.1668 29.387
32.2132 29.3262
32.2597 29.1495
32.306 29.1744
32.3526 28.927
32.399 28.8932
32.4455 28.6912
32.4919 28.6346
32.5385 28.5048
32.5848 28.4186
32.6314 28.3914
32.6778 28.3531
32.7244 28.0532
32.7708 28.0595
32.8174 28.0271
32.8638 27.9347
32.9104 28.0104
32.9569 27.9653
33.0035 27.7387
33.0499 27.805
33.0966 27.7532
33.143 27.8544
33.1897 27.5881
33.2361 27.5493
33.2828 27.4088
33.3293 27.3822
33.3759 27.3179
33.4226 27.185
33.4691 27.0538
33.5158 26.9063
33.5623 26.8043
33.609 26.6359
33.6555 26.5744
33.7022 26.4492
33.7487 26.4007
33.7954 26.4721
33.842 26.2784
33.8887 26.2034
33.9353 26.175
33.982 26.0858
34.0286 25.9443
34.0753 26.014
34.1219 25.8346
34.1687 25.7904
34.2152 25.6924
34.262 25.6189
34.3086 25.4244
34.3554 25.4938
34.402 25.2631
34.4488 25.2829
34.4954 25.1132
34.5422 25.1039
34.5889 25.0008
34.6357 24.9959
34.6825 24.9049
34.7292 24.8127
34.776 24.5876
34.8227 24.6586
34.8695 24.5655
34.9162 24.5486
34.9631 24.4581
35.0098 24.4352
35.0566 24.3331
35.1033 24.2183
35.1502 24.2764
35.1969 24.1021
35.2438 24.1073
35.2906 23.9912
35.3375 23.9795
35.3842 23.93
35.4311 23.9447
35.4779 23.848
35.5248 23.8042
35.5716 23.6572
35.6185 23.696
35.6653 23.5377
35.7123 23.499
35.759 23.4221
35.806 23.2943
35.8528 23.2014
35.8998 23.1701
35.9468 23.0133
35.9936 22.9961
36.0406 22.9669
36.0874 22.8744
36.1345 22.7898
36.1813 22.7678
36.2283 22.699
36.2752 22.5815
36.3222 22.5988
36.3691 22.4975
36.4161 22.3792
36.463 22.3822
36.5101 22.3501
36.557 22.26
36.6041 22.0691
36.651 22.1209
36.6981 22.072
36.745 22.0142
36.7921 21.9324
36.839 21.8233
36.8861 21.8302
36.9331 21.6907
36.9802 21.6551
37.0272 21.5491
37.0743 21.4375
37.1213 21.4015
37.1684 21.3722
37.2154 21.3327
37.2626 21.1937
37.3098 21.2203
37.3568 21.1123
37.404 21.0346
37.451 20.9502
37.4982 20.8983
37.5452 20.8367
37.5924 20.7356
37.6395 20.7237
37.6867 20.6842
37.7337 20.5461
37.781 20.4129
37.8281 20.4247
37.8753 20.3276
37.9224 20.2578
37.9697 20.1937
38.0168 20.1459
38.064 20.1241
38.1111 20.0485
38.1584 19.9846
38.2056 19.9135
38.2529 19.874
38.3 19.8047
38.3473 19.7931
38.3945 19.6895
38.4418 19.6877
38.489 19.6506
38.5363 19.4402
38.5837 19.4232
38.6309 19.3941
38.6782 19.3622
38.7254 19.2213
38.7728 19.1289
38.82 19.085
38.8674 19.0919
38.9146 19.0018
38.9621 18.8664
39.0093 18.9568
39.0567 18.7879
39.104 18.6684
39.1514 18.6564
39.1987 18.6648
39.2461 18.5942
39.2934 18.5656
39.3409 18.4224
39.3882 18.377
39.4356 18.3327
39.483 18.2654
39.5304 18.1962
39.5778 18.2073
39.6253 18.1075
39.6726 18.0385
39.7201 18.0429
39.7675 17.9412
39.815 17.9295
39.8624 17.8418
39.9099 17.8335
39.9575 17.6733
40.0049 17.6652
40.0525 17.6113
40.0999 17.5181
40.1474 17.4753
40.1949 17.4466
40.2425 17.3531
40.2899 17.3465
40.3375 17.2818
40.385 17.2485
40.4326 17.113
40.48 17.0977
40.5277 17.0977
40.5752 17.0141
40.6228 16.9385
40.6703 16.9231
40.718 16.7731
40.7655 16.7746
40.8132 16.7032
40.8607 16.7474
40.9084 16.6986
40.9559 16.6012
41.0036 16.5166
41.0512 16.4595
41.0989 16.4637
41.1465 16.3503
41.1942 16.2913
41.242 16.2188
41.2896 16.1765
41.3373 16.0988
41.3849 16.0952
41.4327 16.0168
41.4803 15.9539
41.5281 15.8555
41.5758 15.8375
41.6236 15.7613
41.6712 15.7631
41.7191 15.7012
41.7667 15.6573
41.8146 15.6796
41.8622 15.5157
41.9101 15.5233
41.9578 15.4336
42.0057 15.3556
42.0534 15.3206
42.1013 15.3179
42.149 15.2196
42.1969 15.1595
42.2446 15.1157
42.2925 15.1022
42.3403 15.0472
42.3882 14.9891
42.436 14.9729
42.4839 14.8812
42.5319 14.7975
42.5797 14.7412
42.6277 14.7404
42.6755 14.6612
42.7235 14.5969
42.7713 14.6293
42.8193 14.5766
42.8671 14.4715
42.9152 14.4143
42.963 14.3549
43.0111 14.3471
43.0589 14.291
43.107 14.2743
43.1549 14.2159
43.2029 14.1078
43.2508 14.1481
43.2989 14.0306
43.3468 13.9586
43.3949 13.9524
43.4429 13.8797
43.491 13.8405
43.5389 13.8589
43.5871 13.8023
43.635 13.7525
43.6832 13.6319
43.7312 13.6094
43.7793 13.5753
43.8273 13.5264
43.8755 13.475
43.9237 13.421
43.9717 13.4108
44.0199 13.336
44.068 13.2948
44.1162 13.2121
44.1642 13.1947
44.2125 13.1599
44.2606 13.092
44.3088 13.0308
44.3569 13.0209
44.4052 12.984
44.4533 12.907
44.5016 12.8627
44.5497 12.8192
44.598 12.8021
44.6461 12.7606
44.6945 12.7193
44.7426 12.6702
44.791 12.6278
44.8391 12.578
44.8875 12.5451
44.9357 12.4721
44.984 12.4284
45.0322 12.3774
45.0806 12.3351
45.1288 12.2486
45.1773 12.2636
45.2257 12.1823
45.2739 12.1847
45.3224 12.1263
45.3706 12.0685
45.4191 11.9779
45.4673 12.005
45.5158 11.9673
45.5641 11.9346
45.6126 11.8682
45.6609 11.8353
45.7094 11.8026
45.7577 11.7634
45.8063 11.7025
45.8546 11.6829
45.9031 11.6384
45.9515 11.5856
46.0001 11.495
46.0484 11.513
46.097 11.4815
46.1454 11.4357
46.194 11.4039
46.2424 11.3446
46.291 11.2655
46.3395 11.2687
46.3881 11.1868
46.4365 11.2025
46.4852 11.1469
46.5337 11.088
46.5823 11.0781
46.631 10.9552
46.6795 10.9246
46.7282 10.9509
46.7767 10.9101
46.8254 10.8168
46.8739 10.7795
46.9226 10.773
46.9712 10.7105
47.0199 10.7071
47.0685 10.6846
47.1173 10.5747
47.1658 10.5366
47.2146 10.5656
47.2632 10.474
47.312 10.4929
47.3606 10.426
47.4095 10.3578
47.4581 10.3351
47.5069 10.3003
47.5556 10.2661
47.6044 10.2077
47.6531 10.1752
47.702 10.1248
47.7507 10.0976
47.7996 10.041
47.8483 10.0236
47.8972 10.0334
47.9461 9.95478
47.9948 9.9277
48.0438 9.84791
48.0925 9.82727
48.1415 9.83374
48.1902 9.81427
48.2392 9.76197
48.288 9.75098
48.337 9.7125
48.3858 9.66331
48.4348 9.61681
48.4837 9.55683
48.5327 9.56194
48.5815 9.49724
48.6306 9.50827
48.6795 9.42174
48.7285 9.38182
48.7774 9.3889
48.8265 9.32966
48.8754 9.27079
48.9245 9.28044
48.9734 9.21347
49.0226 9.21643
49.0715 9.12753
49.1206 9.11451
49.1696 9.0905
49.2188 9.08584
49.2679 8.97811
49.3169 8.98084
49.3661 8.96486
49.4151 8.90199
49.4643 8.85819
49.5134 8.86133
49.5626 8.78505
49.6117 8.78418
49.6609 8.74197
49.71 8.69627
49.7592 8.66121
49.8083 8.63671
49.8576 8.64765
49.9067 8.57369
49.956 8.54191
50.0052 8.47931
50.0545 8.4995
50.1036 8.45104
50.153 8.40554
50.2022 8.39161
50.2515 8.35784
50.3007 8.2968
50.3501 8.28644
50.3993 8.23321
50.4487 8.22592
50.498 8.21315
50.5474 8.16601
50.5966 8.0769
50.6461 8.12168
50.6955 8.07085
50.7448 8.01648
50.7943 8.02078
50.8436 7.96367
50.8931 7.96444
50.9424 7.92759
50.9919 7.86033
51.0413 7.86959
51.0908 7.83987
51.1402 7.78847
51.1897 7.75835
51.2391 7.71024
51.2887 7.67759
51.3381 7.64206
51.3877 7.67618
51.4371 7.59442
51.4867 7.54419
51.5362 7.54605
51.5858 7.52736
51.6353 7.44237
51.6849 7.47033
51.7344 7.44337
51.7841 7.41151
51.8336 7.32823
51.8833 7.34281
51.9328 7.32288
51.9826 7.24758
52.0323 7.25436
52.0818 7.20874
52.1316 7.17988
52.1812 7.13341
52.231 7.11267
52.2806 7.09428
52.3304 7.03539
52.38 7.03592
52.4298 6.96601
52.4794 6.98851
52.5293 6.91611
52.5789 6.89708
52.6288 6.85932
52.6785 6.86346
52.7284 6.83855
52.7781 6.81694
52.828 6.76534
52.8777 6.71882
52.9276 6.71467
52.9774 6.62834
53.0273 6.67058
53.0771 6.66686
53.1271 6.58902
53.1769 6.59541
53.2269 6.53331
53.2767 6.5492
53.3267 6.50547
53.3765 6.4665
53.4266 6.4115
53.4766 6.37268
53.5265 6.34945
53.5765 6.35735
53.6264 6.30289
53.6765 6.31281
53.7264 6.29342
53.7765 6.25026
53.8265 6.18196
53.8766 6.1981
53.9266 6.13378
53.9767 6.1128
54.0267 6.10034
54.0769 6.06353
54.1269 6.02108
54.1771 6.00946
54.2271 6.02643
54.2773 5.92505
54.3274 5.90816
54.3776 5.90756
54.4277 5.8221
54.478 5.83278
54.528 5.80378
54.5783 5.77481
54.6285 5.68569
54.6788 5.70899
54.7289 5.60182
54.7792 5.52477
54.8296 5.54293
54.8798 5.4764
54.9301 5.45231
54.9803 5.44108
55.0307 5.3864
55.0809 5.34381
55.1314 5.33657
55.1816 5.24647
55.232 5.20893
55.2823 5.19859
55.3328 5.10151
55.383 5.10626
55.4335 5.06376
55.4838 4.92349
55.5344 4.95886
55.5847 4.93025
55.6352 4.89181
55.6856 4.87537
55.7361 4.88562