File: XRD/Ni3Fe_FD0923.xy
TT I
1.27165 7.31892
1.31627 6.22203
1.36089 7.15098
1.40551 5.81467
1.45013 6.4745
1.49476 5.52273
1.53938 5.55545
1.584 5.47988
1.62863 5.46198
1.67325 5.04835
1.71787 5.06947
1.7625 5.0117
1.80712 5.26077
1.85174 4.72778
1.89636 4.65558
1.94099 4.91433
1.98562 4.66662
2.03025 4.57218
2.07487 4.64473
2.11949 5.02985
2.16411 4.81577
2.20874 9.86646
2.25338 11.9256
2.298 5.50345
2.34263 5.80845
2.38725 6.39131
2.43188 6.99058
2.4765 7.61927
2.52115 7.8097
2.56577 8.00087
2.6104 9.08253
2.65503 9.00645
2.69965 9.15101
2.7443 8.75668
2.78893 8.48051
2.83356 9.19303
2.87818 8.93747
2.92281 8.9762
2.96744 9.85803
3.01209 10.3738
3.05672 11.5661
3.10135 12.2583
3.14599 13.5249
3.19062 14.8553
3.23527 15.3487
3.2799 15.7936
3.32454 16.7158
3.36917 17.7741
3.4138 18.316
3.45844 19.3482
3.50309 20.3301
3.54773 21.3722
3.59237 23.2924
3.637 51.0368
3.68164 37.0881
3.7263 25.5234
3.77094 26.0095
3.81558 26.2486
3.86022 27.2697
3.90486 28.9674
3.9495 29.4322
3.99416 30.3679
4.0388 31.3911
4.08344 33.0688
4.12809 33.7112
4.17273 35.8655
4.21738 39.1077
4.26204 121.616
4.30669 104.608
4.35133 43.7151
4.39598 43.3178
4.44063 48.541
4.4853 53.5151
4.52995 57.0149
4.5746 58.1007
4.61925 53.2949
4.6639 54.9406
4.70855 57.6087
4.75322 60.8465
4.79788 67.8679
4.84253 68.1743
4.88719 74.8773
4.93184 76.5154
4.97652 80.0112
5.02118 86.225
5.06583 93.5787
5.11049 104.281
5.15515 154.404
5.19981 369.753
5.24449 2769.94
5.28916 13502.2
5.33382 2646.82
5.37848 191.415
5.42315 129.002
5.46783 118.322
5.5125 111.924
5.55716 101.21
5.60183 96.9401
5.6465 94.9836
5.69117 93.1228
5.73586 91.736
5.78053 97.5329
5.8252 97.2623
5.86988 100.65
5.91455 94.1128
5.95924 102.194
6.00392 226.397
6.0486 937.069
6.09328 4689.14
6.13795 2981.62
6.18263 189.453
6.22733 87.9776
6.27201 78.7859
6.3167 83.9367
6.36138 73.3826
6.40606 69.3526
6.45075 69.0545
6.49545 64.5886
6.54014 62.6437
6.58483 62.1709
6.62952 62.1982
6.67421 72.8237
6.71892 89.8782
6.76361 61.4911
6.8083 58.7578
6.853 59.4259
6.89769 56.1913
6.94239 55.2314
6.98711 55.0465
7.03181 55.1721
7.07651 53.9365
7.12121 54.2942
7.16591 55.7652
7.21063 54.7874
7.25533 60.4785
7.30004 100.092
7.34475 67.0521
7.38945 54.2999
7.43416 53.1602
7.47889 53.0878
7.5236 53.5201
7.56831 54.2509
7.61303 54.6886
7.65774 55.4702
7.70247 56.3436
7.74719 55.8682
7.79191 55.8411
7.83663 55.8264
7.88135 56.9253
7.92607 57.7738
7.97081 59.0494
8.01553 60.0738
8.06026 61.9146
8.10498 63.5814
8.14971 70.7703
8.19446 70.0429
8.23919 68.4431
8.28392 70.8165
8.32865 73.4523
8.37339 77.5882
8.41812 82.5711
8.46288 101.288
8.50761 170.256
8.55235 365.943
8.59709 1204.36
8.64183 2270.44
8.68658 844.618
8.73134 141.602
8.77609 95.6719
8.82083 91.1182
8.86558 91.3078
8.91033 91.4739
8.9551 89.2282
8.99985 84.6285
9.04461 83.0561
9.08936 83.0977
9.13412 82.096
9.17888 80.9347
9.22365 80.9278
9.26841 81.3166
9.31318 83.8234
9.35794 85.6835
9.4027 85.0348
9.44749 84.9777
9.49226 83.7342
9.53703 84.7516
9.5818 88.6748
9.62657 93.7536
9.67134 94.5579
9.71614 92.0844
9.76091 93.8028
9.80569 98.1709
9.85047 100.157
9.89525 111.388
9.94005 124.7
9.98484 184.809
10.0296 331.431
10.0744 833.035
10.1192 1876.1
10.164 1468.54
10.2088 322.107
10.2536 118.385
10.2984 107.623
10.3432 106.661
10.388 103.31
10.4328 119.186
10.4776 157.198
10.5224 290.443
10.5672 549.11
10.612 487.099
10.6568 176.447
10.7017 91.7454
10.7465 84.7348
10.7913 82.0067
10.8361 79.7595
10.8809 78.0043
10.9257 76.9728
10.9706 77.2334
11.0154 74.4159
11.0602 71.9206
11.105 70.456
11.1499 71.4446
11.1947 73.1806
11.2395 69.1484
11.2844 67.7202
11.3292 65.7785
11.374 65.1282
11.4189 64.6406
11.4637 63.8527
11.5086 63.7444
11.5534 64.5433
11.5983 63.1379
11.6431 62.3476
11.688 61.8748
11.7328 61.766
11.7777 61.8705
11.8225 61.7808
11.8674 61.555
11.9122 62.0226
11.9571 62.226
12.002 63.3496
12.0468 67.4228
12.0917 77.1657
12.1366 101.698
12.1814 158.681
12.2263 210.976
12.2712 153.146
12.3161 84.9862
12.3609 65.7964
12.4058 63.1018
12.4507 63.1176
12.4956 63.7588
12.5405 63.9451
12.5853 64.1549
12.6302 67.1234
12.6751 69.4493
12.72 67.0156
12.7649 66.6897
12.8098 67.488
12.8547 69.0556
12.8996 70.4883
12.9445 71.8814
12.9894 73.3751
13.0343 74.8524
13.0792 79.2892
13.1242 90.8512
13.1691 109.431
13.214 145.57
13.2589 246.102
13.3038 390.652
13.3487 420.176
13.3937 228.525
13.4386 114.292
13.4835 104.532
13.5285 117.924
13.5734 157.514
13.6183 258.564
13.6633 379.165
13.7082 325.935
13.7531 166.259
13.7981 91.4639
13.843 80.1315
13.888 78.1413
13.9329 76.0434
13.9779 74.6236
14.0228 73.1634
14.0678 71.7216
14.1127 71.2087
14.1577 70.7464
14.2027 70.1131
14.2476 69.2641
14.2926 68.9716
14.3376 69.1808
14.3825 68.5663
14.4275 67.9128
14.4725 67.8388
14.5175 67.7396
14.5624 67.9496
14.6074 68.8796
14.6524 69.4368
14.6974 69.5404
14.7424 72.4981
14.7874 78.1753
14.8324 87.292
14.8774 110.135
14.9224 158.742
14.9674 217.398
15.0124 214.414
15.0574 136.947
15.1024 83.8912
15.1474 70.4845
15.1924 68.8187
15.2374 68.4781
15.2824 67.6499
15.3274 66.3796
15.3725 65.4985
15.4175 65.3605
15.4625 64.7381
15.5076 64.7509
15.5526 64.814
15.5976 64.8783
15.6426 66.978
15.6877 71.5728
15.7327 78.9042
15.7778 94.3783
15.8228 129.08
15.8679 177.906
15.9129 195.377
15.958 144.649
16.003 86.6145
16.0481 64.3887
16.0931 61.9961
16.1382 60.3851
16.1833 59.0922
16.2283 57.6917
16.2734 57.1086
16.3185 56.9918
16.3636 56.7444
16.4086 56.0488
16.4537 55.0558
16.4988 54.4932
16.5439 54.5776
16.589 54.2462
16.6341 53.6859
16.6792 53.525
16.7243 53.7164
16.7694 53.6912
16.8145 53.5916
16.8596 53.9777
16.9047 54.7068
16.9498 54.8156
16.9949 54.4585
17.04 54.9815
17.0851 56.1637
17.1302 57.7286
17.1754 60.4645
17.2205 65.858
17.2656 74.4584
17.3108 83.0841
17.3559 79.7539
17.401 67.3405
17.4462 60.1343
17.4913 58.1511
17.5365 58.0345
17.5815 58.3465
17.6268 58.5711
17.6718 59.2033
17.7171 59.819
17.7622 60.6448
17.8074 61.4026
17.8525 64.1548
17.8977 67.2173
17.9428 72.3593
17.9881 81.739
18.0331 101.143
18.0784 125.591
18.1237 139.836
18.1688 125.069
18.214 95.9217
18.2591 83.725
18.3044 90.8268
18.3495 102.153
18.3948 105.474
18.4399 90.5934
18.4852 73.0966
18.5303 63.9012
18.5756 60.9708
18.6207 60.1462
18.666 59.234
18.7112 58.4517
18.7565 58.0842
18.8016 57.7535
18.8469 57.0505
18.892 56.8978
18.9374 56.3241
18.9825 55.9482
19.0278 55.8134
19.073 56.086
19.1183 56.5052
19.1635 56.7623
19.2088 58.2268
19.254 61.3903
19.2993 66.2927
19.3447 72.355
19.3898 74.8618
19.4352 69.2849
19.4804 60.7311
19.5257 55.0046
19.5709 53.1651
19.6163 52.9202
19.6615 52.7868
19.7068 52.534
19.752 52.3112
19.7974 52.6979
19.8426 53.4435
19.888 54.0083
19.9332 55.2771
19.9786 58.0552
20.0238 62.5872
20.0692 67.4855
20.1144 69.2919
20.1598 66.2912
20.205 61.5872
20.2504 61.5027
20.2957 64.0789
20.3411 65.1885
20.3863 62.1219
20.4318 55.9507
20.477 51.8771
20.5224 50.0891
20.5677 49.6729
20.6131 49.2425
20.6586 48.7937
20.7038 48.7094
20.7493 48.1282
20.7945 48.0873
20.84 48.0575
20.8853 47.9614
20.9307 47.8278
20.976 47.8796
21.0215 47.9403
21.0668 48.1502
21.1122 48.846
21.1575 49.3723
21.203 50.1239
21.2483 50.8666
21.2938 50.4826
21.3391 49.082
21.3846 47.9554
21.4299 47.5362
21.4754 47.6292
21.5207 47.8078
21.5662 48.2002
21.6116 48.436
21.6571 49.1088
21.7024 49.944
21.7479 51.9138
21.7933 54.9535
21.8388 59.005
21.8843 63.0158
21.9297 64.0565
21.9752 61.2657
22.0206 57.6043
22.0661 55.3004
22.1115 55.5558
22.157 55.0151
22.2024 52.5407
22.248 50.0548
22.2933 48.562
22.3389 48.3355
22.3843 48.0035
22.4299 47.6824
22.4753 47.8639
22.5208 47.6376
22.5662 47.7222
22.6118 47.7886
22.6572 48.1135
22.7028 48.3145
22.7483 48.8343
22.7939 49.5593
22.8393 51.3299
22.8849 53.6136
22.9303 55.9485
22.9759 57.3534
23.0214 55.8957
23.067 52.6951
23.1126 49.683
23.1581 48.1589
23.2037 48.0667
23.2492 48.1386
23.2948 48.113
23.3403 48.2515
23.3859 48.8491
23.4314 50.0668
23.477 52.192
23.5225 54.7326
23.5682 57.0903
23.6137 57.3775
23.6593 53.9895
23.7048 49.7365
23.7505 46.7608
23.796 45.7231
23.8417 45.3114
23.8872 44.8671
23.9329 44.4846
23.9784 44.0078
24.0241 43.9124
24.0697 43.6149
24.1154 43.3902
24.1609 43.1135
24.2066 43.1138
24.2522 42.9004
24.2979 42.6309
24.3434 42.4225
24.3892 42.3834
24.4349 42.3903
24.4805 42.3061
24.5262 42.4242
24.5718 42.2887
24.6175 42.2779
24.6631 42.0192
24.7089 41.7836
24.7545 41.777
24.8002 41.5006
24.8458 41.6056
24.8916 41.4234
24.9372 41.6286
24.983 41.9277
25.0286 42.184
25.0744 42.6272
25.12 43.2467
25.1658 43.8007
25.2114 44.0081
25.2572 44.1201
25.3029 44.4014
25.3487 44.36
25.3943 43.6718
25.4402 42.4309
25.4858 41.4026
25.5316 40.6175
25.5773 40.178
25.6231 40.1645
25.669 39.7967
25.7147 39.7302
25.7605 39.6965
25.8062 39.726
25.8521 39.8483
25.8977 39.8091
25.9436 40.2646
25.9893 40.4413
26.0352 40.9681
26.0809 41.0446
26.1268 40.9906
26.1725 40.5796
26.2184 40.092
26.2641 39.6401
26.31 39.3427
26.3557 39.4936
26.4017 39.414
26.4474 39.7606
26.4933 40.1526
26.5391 40.6056
26.585 41.2061
26.6308 41.6226
26.6767 41.4586
26.7225 41.2383
26.7684 40.6544
26.8142 40.1239
26.8601 39.7313
26.9059 39.3807
26.9519 38.6535
26.9979 38.4388
27.0437 38.2885
27.0896 38.1876
27.1354 38.0212
27.1814 37.9702
27.2272 37.8538
27.2732 37.8549
27.3191 37.6779
27.3651 37.914
27.4109 37.75
27.4569 37.911
27.5027 37.912
27.5488 37.9947
27.5946 37.824
27.6407 37.3688
27.6865 37.3205
27.7326 37.2035
27.7784 37.3039
27.8245 37.1863
27.8703 37.3753
27.9164 37.7055
27.9623 37.8835
28.0084 38.2091
28.0543 38.6259
28.1003 38.4106
28.1462 38.055
28.1923 37.7419
28.2384 37.314
28.2843 36.9942
28.3304 36.4832
28.3764 36.0386
28.4225 35.7551
28.4684 35.5686
28.5145 35.3809
28.5605 35.2479
28.6066 35.1183
28.6526 34.9334
28.6987 34.9415
28.7447 35.0738
28.7908 34.8669
28.8368 34.9176
28.8829 34.8369
28.9289 34.7078
28.9751 34.5147
29.0211 34.352
29.0673 34.0259
29.1133 33.9967
29.1595 33.841
29.2055 33.8295
29.2517 33.7626
29.2977 33.713
29.3439 33.6752
29.3899 33.7627
29.4361 33.4528
29.4824 33.356
29.5284 33.1683
29.5746 32.8722
29.6207 32.5491
29.6669 32.5866
29.713 32.5048
29.7593 32.2951
29.8053 32.3598
29.8516 32.2346
29.8977 32.1629
29.9439 31.9508
29.99 32.1205
30.0363 31.8393
30.0824 32.0518
30.1287 31.8834
30.1748 31.9558
30.2211 31.8411
30.2673 31.7501
30.3136 31.8566
30.3597 31.5874
30.406 31.5263
30.4522 31.4857
30.4985 31.5455
30.5447 31.6558
30.591 31.5659
30.6372 31.7073
30.6835 31.6574
30.7297 31.7764
30.7761 31.6474
30.8224 31.4268
30.8686 31.2382
30.915 31.0481
30.9612 30.9545
31.0076 30.7694
31.0538 30.6049
31.1002 30.5778
31.1464 30.4311
31.1928 30.4318
31.2391 30.475
31.2855 30.3606
31.3317 30.379
31.3781 30.441
31.4244 30.3676
31.4708 30.3649
31.5171 30.2862
31.5636 30.1561
31.6098 30.0589
31.6563 29.7353
31.7026 29.7124
31.7491 29.6483
31.7953 29.6883
31.8418 29.6593
31.8881 29.6679
31.9346 29.6405
31.9809 29.5154
32.0275 29.3703
32.074 29.2967
32.1203 29.0727
32.1668 28.9775
32.2132 28.7568
32.2597 28.7934
32.306 28.7341
32.3526 28.4636
32.399 28.4227
32.4455 28.2474
32.4919 28.2634
32.5385 28.1486
32.5848 28.0884
32.6314 28.0131
32.6778 27.9831
32.7244 27.7794
32.7708 27.7075
32.8174 27.6606
32.8638 27.5428
32.9104 27.5418
32.9569 27.5678
33.0035 27.4221
33.0499 27.4147
33.0966 27.3107
33.143 27.3225
33.1897 27.2814
33.2361 27.1611
33.2828 27.0747
33.3293 26.9168
33.3759 26.9001
33.4226 26.679
33.4691 26.7223
33.5158 26.5635
33.5623 26.4271
33.609 26.2827
33.6555 26.2125
33.7022 26.1384
33.7487 26.1245
33.7954 26.0135
33.842 25.8186
33.8887 25.9249
33.9353 25.8041
33.982 25.7773
34.0286 25.5876
34.0753 25.6197
34.1219 25.4513
34.1687 25.3781
34.2152 25.3186
34.262 25.1925
34.3086 25.1167
34.3554 25.1109
34.402 24.9281
34.4488 24.8767
34.4954 24.8809
34.5422 24.8134
34.5889 24.6338
34.6357 24.5992
34.6825 24.4934
34.7292 24.4579
34.776 24.2995
34.8227 24.3206
34.8695 24.2298
34.9162 24.1545
34.9631 24.0951
35.0098 24.0558
35.0566 23.9236
35.1033 23.9072
35.1502 23.8498
35.1969 23.781
35.2438 23.7542
35.2906 23.7291
35.3375 23.6218
35.3842 23.593
35.4311 23.5998
35.4779 23.6102
35.5248 23.5638
35.5716 23.3717
35.6185 23.2578
35.6653 23.1893
35.7123 23.1281
35.759 23.0514
35.806 22.9642
35.8528 22.8237
35.8998 22.8339
35.9468 22.682
35.9936 22.7276
36.0406 22.6382
36.0874 22.5608
36.1345 22.4573
36.1813 22.4048
36.2283 22.2446
36.2752 22.2838
36.3222 22.2429
36.3691 22.1495
36.4161 22.0614
36.463 22.0232
36.5101 22.0811
36.557 22.0222
36.6041 21.7967
36.651 21.7471
36.6981 21.776
36.745 21.7432
36.7921 21.6092
36.839 21.5485
36.8861 21.4256
36.9331 21.3795
36.9802 21.2977
37.0272 21.1692
37.0743 21.1177
37.1213 21.1296
37.1684 21.1119
37.2154 20.9986
37.2626 20.8683
37.3098 20.8819
37.3568 20.7974
37.404 20.7686
37.451 20.6549
37.4982 20.5851
37.5452 20.496
37.5924 20.4244
37.6395 20.4252
37.6867 20.3398
37.7337 20.2836
37.781 20.1688
37.8281 20.1224
37.8753 20.0442
37.9224 20.0313
37.9697 19.9525
38.0168 19.8664
38.064 19.7699
38.1111 19.7855
38.1584 19.7187
38.2056 19.6367
38.2529 19.5742
38.3 19.4964
38.3473 19.5074
38.3945 19.3823
38.4418 19.2986
38.489 19.2413
38.5363 19.1846
38.5837 19.1479
38.6309 19.0214
38.6782 19.0592
38.7254 18.9018
38.7728 18.8507
38.82 18.7898
38.8674 18.7609
38.9146 18.7066
38.9621 18.6804
39.0093 18.6038
39.0567 18.5915
39.104 18.5505
39.1514 18.4
39.1987 18.3493
39.2461 18.3083
39.2934 18.2213
39.3409 18.1314
39.3882 18.1232
39.4356 18.0462
39.483 18.0125
39.5304 17.8889
39.5778 17.9124
39.6253 17.8677
39.6726 17.83
39.7201 17.747
39.7675 17.7016
39.815 17.6665
39.8624 17.5565
39.9099 17.6006
39.9575 17.4557
40.0049 17.385
40.0525 17.3575
40.0999 17.3363
40.1474 17.2629
40.1949 17.1797
40.2425 17.1137
40.2899 17.0668
40.3375 16.9587
40.385 16.9019
40.4326 16.8701
40.48 16.7983
40.5277 16.7591
40.5752 16.715
40.6228 16.6509
40.6703 16.6543
40.718 16.5513
40.7655 16.5239
40.8132 16.4413
40.8607 16.4291
40.9084 16.4318
40.9559 16.3511
41.0036 16.2888
41.0512 16.3142
41.0989 16.2257
41.1465 16.1278
41.1942 16.0576
41.242 15.9725
41.2896 15.9466
41.3373 15.9058
41.3849 15.8633
41.4327 15.7741
41.4803 15.7323
41.5281 15.6417
41.5758 15.6813
41.6236 15.5924
41.6712 15.5099
41.7191 15.3929
41.7667 15.3949
41.8146 15.3745
41.8622 15.349
41.9101 15.2491
41.9578 15.2453
42.0057 15.1534
42.0534 15.0702
42.1013 15.0852
42.149 15.0035
42.1969 14.9935
42.2446 14.9221
42.2925 14.8652
42.3403 14.8136
42.3882 14.8057
42.436 14.7765
42.4839 14.6306
42.5319 14.6195
42.5797 14.5423
42.6277 14.5229
42.6755 14.4885
42.7235 14.3824
42.7713 14.3777
42.8193 14.3328
42.8671 14.2629
42.9152 14.2727
42.963 14.1993
43.0111 14.1309
43.0589 14.0598
43.107 14.0166
43.1549 13.9694
43.2029 13.9203
43.2508 13.92
43.2989 13.8167
43.3468 13.7183
43.3949 13.7572
43.4429 13.6959
43.491 13.604
43.5389 13.6174
43.5871 13.5176
43.635 13.5494
43.6832 13.4392
43.7312 13.4066
43.7793 13.367
43.8273 13.3743
43.8755 13.2502
43.9237 13.1943
43.9717 13.1586
44.0199 13.0893
44.068 13.0878
44.1162 13.0246
44.1642 13.0484
44.2125 12.9636
44.2606 12.9683
44.3088 12.87
44.3569 12.8518
44.4052 12.7927
44.4533 12.7671
44.5016 12.683
44.5497 12.6338
44.598 12.5893
44.6461 12.5631
44.6945 12.4677
44.7426 12.4857
44.791 12.3796
44.8391 12.3878
44.8875 12.3223
44.9357 12.3155
44.984 12.215
45.0322 12.2166
45.0806 12.1434
45.1288 12.129
45.1773 12.0442
45.2257 12.0521
45.2739 11.9932
45.3224 11.9628
45.3706 11.9264
45.4191 11.8851
45.4673 11.8517
45.5158 11.7991
45.5641 11.6916
45.6126 11.7148
45.6609 11.6904
45.7094 11.6138
45.7577 11.5892
45.8063 11.5224
45.8546 11.4762
45.9031 11.4556
45.9515 11.4299
46.0001 11.3707
46.0484 11.3401
46.097 11.318
46.1454 11.2815
46.194 11.1899
46.2424 11.1637
46.291 11.125
46.3395 11.0619
46.3881 11.0278
46.4365 11.0289
46.4852 10.9005
46.5337 10.9493
46.5823 10.8993
46.631 10.8409
46.6795 10.7845
46.7282 10.7741
46.7767 10.7205
46.8254 10.6906
46.8739 10.6418
46.9226 10.6086
46.9712 10.5796
47.0199 10.5305
47.0685 10.4572
47.1173 10.4379
47.1658 10.4179
47.2146 10.3703
47.2632 10.3204
47.312 10.2921
47.3606 10.2304
47.4095 10.1952
47.4581 10.1908
47.5069 10.1435
47.5556 10.0902
47.6044 10.0457
47.6531 10.0397
47.702 9.99458
47.7507 9.95698
47.7996 9.90762
47.8483 9.89314
47.8972 9.85351
47.9461 9.80553
47.9948 9.76728
48.0438 9.74792
48.0925 9.69026
48.1415 9.67159
48.1902 9.61922
48.2392 9.63181
48.288 9.55407
48.337 9.55072
48.3858 9.51825
48.4348 9.50749
48.4837 9.46531
48.5327 9.39866
48.5815 9.37944
48.6306 9.37883
48.6795 9.27655
48.7285 9.25274
48.7774 9.25752
48.8265 9.21331
48.8754 9.14032
48.9245 9.11357
48.9734 9.11681
49.0226 9.06221
49.0715 9.02041
49.1206 8.95138
49.1696 8.94414
49.2188 8.93276
49.2679 8.90186
49.3169 8.8074
49.3661 8.80394
49.4151 8.80664
49.4643 8.72577
49.5134 8.73391
49.5626 8.67815
49.6117 8.6597
49.6609 8.62628
49.71 8.58601
49.7592 8.52794
49.8083 8.51688
49.8576 8.51518
49.9067 8.43043
49.956 8.38654
50.0052 8.33384
50.0545 8.34852
50.1036 8.27523
50.153 8.27557
50.2022 8.24308
50.2515 8.20298
50.3007 8.20176
50.3501 8.15132
50.3993 8.13474
50.4487 8.10214
50.498 8.07981
50.5474 8.04121
50.5966 8.02339
50.6461 7.94406
50.6955 7.93257
50.7448 7.92906
50.7943 7.88523
50.8436 7.84745
50.8931 7.77742
50.9424 7.8085
50.9919 7.76518
51.0413 7.75052
51.0908 7.70929
51.1402 7.66596
51.1897 7.6048
51.2391 7.64097
51.2887 7.59006
51.3381 7.53224
51.3877 7.50898
51.4371 7.44547
51.4867 7.42945
51.5362 7.4611
51.5858 7.41634
51.6353 7.35186
51.6849 7.31759
51.7344 7.28768
51.7841 7.29196
51.8336 7.22517
51.8833 7.22102
51.9328 7.18119
51.9826 7.14489
52.0323 7.13045
52.0818 7.06964
52.1316 7.02592
52.1812 7.04666
52.231 7.04946
52.2806 6.94769
52.3304 6.95925
52.38 6.89813
52.4298 6.8826
52.4794 6.85583
52.5293 6.86678
52.5789 6.81019
52.6288 6.76293
52.6785 6.76604
52.7284 6.71806
52.7781 6.69716
52.828 6.69278
52.8777 6.61999
52.9276 6.62537
52.9774 6.56385
53.0273 6.55948
53.0771 6.53426
53.1271 6.49434
53.1769 6.47148
53.2269 6.45868
53.2767 6.39885
53.3267 6.36142
53.3765 6.3803
53.4266 6.32905
53.4766 6.30135
53.5265 6.26649
53.5765 6.26847
53.6264 6.24202
53.6765 6.18869
53.7264 6.17457
53.7765 6.12717
53.8265 6.09765
53.8766 6.11783
53.9266 6.04337
53.9767 6.03897
54.0267 6.02227
54.0769 5.99929
54.1269 5.94889
54.1771 5.92595
54.2271 5.87934
54.2773 5.87993
54.3274 5.84258
54.3776 5.82692
54.4277 5.76979
54.478 5.7648
54.528 5.69602
54.5783 5.67709
54.6285 5.61503
54.6788 5.57897
54.7289 5.56817
54.7792 5.49106
54.8296 5.48394
54.8798 5.42041
54.9301 5.32784
54.9803 5.3583
55.0307 5.37118
55.0809 5.26558
55.1314 5.26794
55.1816 5.24224
55.232 5.15881
55.2823 5.17812
55.3328 5.09217
55.383 5.03587
55.4335 4.96744
55.4838 4.90756
55.5344 4.90471
55.5847 4.80905
55.6352 4.83082
55.6856 4.77447
55.7361 4.78166