File: XRD/Ni3Fe_FD0771.xy
TT I
1.27165 7.35517
1.31627 6.53081
1.36089 6.69915
1.40551 5.24324
1.45013 5.50896
1.49476 5.85345
1.53938 5.67334
1.584 5.67545
1.62863 5.76739
1.67325 5.16543
1.71787 4.98304
1.7625 4.65575
1.80712 4.7849
1.85174 4.98716
1.89636 4.93921
1.94099 4.72177
1.98562 4.68651
2.03025 4.45156
2.07487 3.91339
2.11949 5.03161
2.16411 5.04135
2.20874 17.1231
2.25338 29.3348
2.298 6.18938
2.34263 5.44353
2.38725 5.62341
2.43188 5.59908
2.4765 6.96197
2.52115 7.19175
2.56577 7.613
2.6104 8.55108
2.65503 8.24244
2.69965 8.31527
2.7443 7.93889
2.78893 8.48197
2.83356 8.71264
2.87818 8.43947
2.92281 9.58662
2.96744 9.68391
3.01209 10.1357
3.05672 11.2335
3.10135 11.6865
3.14599 13.0254
3.19062 14.7266
3.23527 14.9424
3.2799 15.9186
3.32454 16.2753
3.36917 17.8445
3.4138 19.0929
3.45844 19.7962
3.50309 20.8916
3.54773 21.6271
3.59237 24.3221
3.637 114.044
3.68164 72.1293
3.7263 26.9133
3.77094 26.182
3.81558 26.8964
3.86022 27.756
3.90486 28.8627
3.9495 29.9058
3.99416 31.0048
4.0388 32.0659
4.08344 33.9273
4.12809 34.9619
4.17273 37.4446
4.21738 43.891
4.26204 309.319
4.30669 284.124
4.35133 51.3532
4.39598 44.8807
4.44063 56.2162
4.4853 71.4981
4.52995 49.9712
4.5746 50.3667
4.61925 52.576
4.6639 54.7613
4.70855 56.893
4.75322 60.2465
4.79788 62.9435
4.84253 66.3081
4.88719 70.4346
4.93184 73.3384
4.97652 79.2093
5.02118 85.1053
5.06583 92.0777
5.11049 102.331
5.15515 181.403
5.19981 300.171
5.24449 2368.53
5.28916 12795.6
5.33382 3130.95
5.37848 188.759
5.42315 127.551
5.46783 111.322
5.5125 104.267
5.55716 100.802
5.60183 97.4162
5.6465 95.5822
5.69117 92.8038
5.73586 90.9069
5.78053 89.6563
5.8252 89.3183
5.86988 89.2472
5.91455 91.5528
5.95924 97.1845
6.00392 176.224
6.0486 813.301
6.09328 4176.99
6.13795 3338.87
6.18263 247.302
6.22733 92.5911
6.27201 82.9459
6.3167 110.299
6.36138 83.8154
6.40606 68.3945
6.45075 66.9831
6.49545 65.329
6.54014 63.801
6.58483 62.6404
6.62952 62.7713
6.67421 101.991
6.71892 173.158
6.76361 72.8164
6.8083 58.7932
6.853 57.3625
6.89769 56.6874
6.94239 56.3386
6.98711 55.8711
7.03181 55.2689
7.07651 55.6865
7.12121 55.0346
7.16591 55.5662
7.21063 56.2108
7.25533 73.6091
7.30004 223.287
7.34475 105.844
7.38945 57.3371
7.43416 54.801
7.47889 54.4291
7.5236 54.9428
7.56831 55.4188
7.61303 57.3236
7.65774 58.0082
7.70247 55.9256
7.74719 55.8012
7.79191 56.4625
7.83663 56.4431
7.88135 57.5146
7.92607 58.322
7.97081 59.9593
8.01553 60.1749
8.06026 61.8008
8.10498 63.3535
8.14971 74.8476
8.19446 73.9272
8.23919 68.8101
8.28392 70.7265
8.32865 72.9305
8.37339 76.801
8.41812 84.4663
8.46288 118.778
8.50761 149.541
8.55235 337.107
8.59709 1075.71
8.64183 2193.93
8.68658 1041.16
8.73134 172.414
8.77609 98.5623
8.82083 91.6845
8.86558 88.5445
8.91033 89.8135
8.9551 93.0054
8.99985 84.9928
9.04461 82.6529
9.08936 81.7471
9.13412 81.2141
9.17888 81.6814
9.22365 82.0339
9.26841 81.0145
9.31318 81.6246
9.35794 81.5779
9.4027 82.094
9.44749 82.7409
9.49226 83.1819
9.53703 84.3353
9.5818 86.1011
9.62657 91.4977
9.67134 100.733
9.71614 93.5341
9.76091 92.6336
9.80569 94.8882
9.85047 98.2762
9.89525 127.481
9.94005 142.55
9.98484 158.027
10.0296 296.579
10.0744 732.207
10.1192 1697.69
10.164 1664.47
10.2088 413.084
10.2536 127.074
10.2984 114.298
10.3432 117.111
10.388 104.307
10.4328 112.068
10.4776 147.793
10.5224 260.432
10.5672 507.91
10.612 522.749
10.6568 211.094
10.7017 96.6696
10.7465 86.0761
10.7913 82.6253
10.8361 80.3525
10.8809 78.2167
10.9257 78.3834
10.9706 79.5099
11.0154 74.5431
11.0602 72.5021
11.105 71.4146
11.1499 77.4795
11.1947 88.0227
11.2395 76.1559
11.2844 71.0119
11.3292 67.0957
11.374 65.7832
11.4189 65.3181
11.4637 64.6493
11.5086 65.1877
11.5534 69.5406
11.5983 65.7757
11.6431 63.2951
11.688 62.3082
11.7328 62.4857
11.7777 62.598
11.8225 61.8477
11.8674 61.7844
11.9122 62.2958
11.9571 62.3957
12.002 62.7179
12.0468 65.6563
12.0917 75.8004
12.1366 97.428
12.1814 146.301
12.2263 210.626
12.2712 177.367
12.3161 102.446
12.3609 72.3134
12.4058 64.5113
12.4507 64.0093
12.4956 63.8841
12.5405 64.066
12.5853 65.1361
12.6302 74.8045
12.6751 82.7024
12.72 70.9712
12.7649 67.2456
12.8098 67.4992
12.8547 68.9306
12.8996 70.3232
12.9445 71.3898
12.9894 73.1592
13.0343 74.6384
13.0792 77.42
13.1242 84.2476
13.1691 105.434
13.214 138.037
13.2589 222.155
13.3038 360.504
13.3487 438.745
13.3937 283.561
13.4386 128.093
13.4835 102.089
13.5285 113.57
13.5734 147.283
13.6183 232.385
13.6633 342.479
13.7082 348.818
13.7531 193.142
13.7981 99.0633
13.843 81.1014
13.888 78.827
13.9329 76.3869
13.9779 74.8901
14.0228 73.6762
14.0678 72.298
14.1127 72.1671
14.1577 71.9829
14.2027 70.9411
14.2476 70.1108
14.2926 70.3698
14.3376 71.8039
14.3825 70.0591
14.4275 68.0706
14.4725 67.9508
14.5175 68.135
14.5624 68.3872
14.6074 70.9943
14.6524 71.8551
14.6974 69.7764
14.7424 70.5806
14.7874 75.9488
14.8324 84.4928
14.8774 104.607
14.9224 145.148
14.9674 203.225
15.0124 222.382
15.0574 153.401
15.1024 92.6049
15.1474 72.3619
15.1924 70.131
15.2374 71.3526
15.2824 70.5938
15.3274 67.9234
15.3725 66.2667
15.4175 65.8695
15.4625 65.241
15.5076 66.0058
15.5526 65.9114
15.5976 64.9819
15.6426 65.5949
15.6877 69.6904
15.7327 76.4243
15.7778 90.1298
15.8228 119.297
15.8679 164.496
15.9129 195.473
15.958 161.728
16.003 99.2378
16.0481 68.7209
16.0931 65.0766
16.1382 63.09
16.1833 60.4663
16.2283 58.7741
16.2734 58.0752
16.3185 58.3733
16.3636 59.8673
16.4086 57.9791
16.4537 55.8369
16.4988 55.2985
16.5439 54.8339
16.589 54.6842
16.6341 54.4986
16.6792 54.0968
16.7243 54.6385
16.7694 54.7911
16.8145 54.4316
16.8596 54.9991
16.9047 56.9968
16.9498 57.3432
16.9949 55.4188
17.04 55.2636
17.0851 56.2658
17.1302 57.6224
17.1754 60.5302
17.2205 65.3313
17.2656 72.872
17.3108 82.4071
17.3559 82.8814
17.401 71.1931
17.4462 61.6491
17.4913 58.7816
17.5365 58.5338
17.5815 58.5136
17.6268 59.0833
17.6718 59.8804
17.7171 60.4373
17.7622 60.7871
17.8074 61.0009
17.8525 62.8553
17.8977 66.5855
17.9428 71.3281
17.9881 79.5717
18.0331 95.4894
18.0784 118.538
18.1237 139.051
18.1688 133.23
18.214 104.894
18.2591 85.99
18.3044 88.4797
18.3495 98.5751
18.3948 106.586
18.4399 97.6582
18.4852 78.884
18.5303 66.3451
18.5756 61.7393
18.6207 60.9094
18.666 60.1437
18.7112 59.27
18.7565 58.5005
18.8016 58.1285
18.8469 57.7326
18.892 57.403
18.9374 56.9032
18.9825 56.638
19.0278 56.4997
19.073 56.4788
19.1183 56.8124
19.1635 57.7425
19.2088 58.9385
19.254 61.1146
19.2993 65.1712
19.3447 71.8052
19.3898 76.8225
19.4352 73.0268
19.4804 63.47
19.5257 56.6634
19.5709 53.857
19.6163 53.3059
19.6615 53.3972
19.7068 52.8526
19.752 52.962
19.7974 53.15
19.8426 53.7858
19.888 54.384
19.9332 55.4346
19.9786 57.8129
20.0238 61.0876
20.0692 66.0911
20.1144 69.4141
20.1598 68.2729
20.205 63.0336
20.2504 61.2447
20.2957 63.0328
20.3411 65.6803
20.3863 64.4294
20.4318 58.6445
20.477 53.6921
20.5224 51.6476
20.5677 50.9943
20.6131 50.0219
20.6586 49.3834
20.7038 49.1845
20.7493 48.6704
20.7945 48.5764
20.84 48.4695
20.8853 48.3416
20.9307 48.0154
20.976 48.3483
21.0215 48.2232
21.0668 48.4789
21.1122 48.987
21.1575 49.5136
21.203 50.6131
21.2483 51.0038
21.2938 51.1583
21.3391 49.8241
21.3846 48.6223
21.4299 48.1243
21.4754 47.9899
21.5207 48.1043
21.5662 48.279
21.6116 48.5609
21.6571 49.1834
21.7024 50.133
21.7479 51.5913
21.7933 54.1889
21.8388 57.9518
21.8843 61.88
21.9297 64.2723
21.9752 63.3682
22.0206 59.5579
22.0661 56.3274
22.1115 55.6443
22.157 55.8073
22.2024 54.1674
22.248 51.1032
22.2933 49.5175
22.3389 48.854
22.3843 48.8995
22.4299 48.5483
22.4753 48.675
22.5208 48.3668
22.5662 48.0916
22.6118 48.253
22.6572 48.4414
22.7028 48.85
22.7483 49.1272
22.7939 49.7782
22.8393 51.1585
22.8849 53.2131
22.9303 55.351
22.9759 57.6388
23.0214 57.4739
23.067 54.5885
23.1126 51.0865
23.1581 48.9157
23.2037 48.4714
23.2492 48.3254
23.2948 48.2892
23.3403 48.5979
23.3859 49.1073
23.4314 50.0317
23.477 51.8437
23.5225 53.9898
23.5682 56.5279
23.6137 57.8783
23.6593 55.7755
23.7048 51.7586
23.7505 48.2179
23.796 46.4556
23.8417 45.6534
23.8872 45.1426
23.9329 44.9956
23.9784 44.6067
24.0241 44.2292
24.0697 44.1938
24.1154 43.8248
24.1609 43.8137
24.2066 43.5629
24.2522 43.4199
24.2979 43.2616
24.3434 43.0604
24.3892 42.9053
24.4349 42.8057
24.4805 42.5753
24.5262 42.8709
24.5718 42.4842
24.6175 42.8065
24.6631 42.4492
24.7089 42.2526
24.7545 42.1682
24.8002 41.988
24.8458 41.9594
24.8916 41.7003
24.9372 41.7907
24.983 42.1996
25.0286 42.4327
25.0744 42.759
25.12 43.3073
25.1658 43.8356
25.2114 44.1977
25.2572 44.5518
25.3029 44.6141
25.3487 44.7364
25.3943 44.624
25.4402 43.5412
25.4858 42.2748
25.5316 41.1767
25.5773 40.6778
25.6231 40.6147
25.669 40.1921
25.7147 40.0954
25.7605 40.1363
25.8062 40.3233
25.8521 40.4571
25.8977 40.3119
25.9436 40.5386
25.9893 40.8048
26.0352 41.1635
26.0809 41.214
26.1268 41.3473
26.1725 41.1991
26.2184 40.5379
26.2641 40.0578
26.31 39.8303
26.3557 39.9943
26.4017 39.7056
26.4474 40.0482
26.4933 40.4063
26.5391 40.8177
26.585 41.3052
26.6308 41.6995
26.6767 41.9022
26.7225 41.8079
26.7684 41.3347
26.8142 40.68
26.8601 40.2357
26.9059 39.8435
26.9519 39.2857
26.9979 39.0332
27.0437 38.5445
27.0896 38.414
27.1354 38.59
27.1814 38.3418
27.2272 38.2387
27.2732 38.2639
27.3191 38.0576
27.3651 38.2109
27.4109 38.1181
27.4569 38.1289
27.5027 38.3895
27.5488 38.3046
27.5946 38.1172
27.6407 37.9142
27.6865 37.936
27.7326 37.5531
27.7784 37.6592
27.8245 37.5702
27.8703 37.7648
27.9164 38.0507
27.9623 38.1663
28.0084 38.4871
28.0543 38.8761
28.1003 38.853
28.1462 38.6409
28.1923 38.3541
28.2384 37.8132
28.2843 37.4777
28.3304 36.9552
28.3764 36.4572
28.4225 36.2661
28.4684 36.164
28.5145 35.7781
28.5605 35.7314
28.6066 35.3684
28.6526 35.3886
28.6987 35.5542
28.7447 35.2696
28.7908 35.3013
28.8368 35.2035
28.8829 35.2664
28.9289 35.2642
28.9751 34.9263
29.0211 34.846
29.0673 34.4602
29.1133 34.3256
29.1595 34.2077
29.2055 34.086
29.2517 34.1567
29.2977 34.0782
29.3439 34.0285
29.3899 34.1207
29.4361 34.0506
29.4824 33.828
29.5284 33.648
29.5746 33.2566
29.6207 33.0141
29.6669 32.7214
29.713 32.846
29.7593 32.6654
29.8053 32.6646
29.8516 32.6155
29.8977 32.6217
29.9439 32.5223
29.99 32.397
30.0363 32.3279
30.0824 32.2821
30.1287 32.3024
30.1748 32.2848
30.2211 32.2422
30.2673 32.0664
30.3136 32.2535
30.3597 32.0699
30.406 31.985
30.4522 31.8611
30.4985 31.8465
30.5447 31.9578
30.591 32.0284
30.6372 31.9981
30.6835 31.966
30.7297 31.9187
30.7761 32.0873
30.8224 31.8193
30.8686 31.6969
30.915 31.4215
30.9612 31.3824
31.0076 31.1531
31.0538 30.9204
31.1002 30.9513
31.1464 30.8499
31.1928 30.7714
31.2391 30.8396
31.2855 30.7171
31.3317 30.6862
31.3781 30.6876
31.4244 30.7298
31.4708 30.6068
31.5171 30.6979
31.5636 30.614
31.6098 30.334
31.6563 30.144
31.7026 30.2006
31.7491 29.987
31.7953 29.99
31.8418 29.9841
31.8881 29.9603
31.9346 29.9599
31.9809 29.899
32.0275 29.7968
32.074 29.6579
32.1203 29.4974
32.1668 29.3871
32.2132 29.2159
32.2597 29.0165
32.306 29.0036
32.3526 28.9259
32.399 28.7428
32.4455 28.6334
32.4919 28.5567
32.5385 28.4264
32.5848 28.3211
32.6314 28.2643
32.6778 28.3138
32.7244 28.1393
32.7708 27.9411
32.8174 27.9848
32.8638 27.8334
32.9104 27.8201
32.9569 27.9262
33.0035 27.6871
33.0499 27.6519
33.0966 27.6127
33.143 27.5506
33.1897 27.6058
33.2361 27.455
33.2828 27.4467
33.3293 27.2479
33.3759 27.183
33.4226 27.1235
33.4691 26.9568
33.5158 26.8509
33.5623 26.7912
33.609 26.5843
33.6555 26.5114
33.7022 26.3887
33.7487 26.4117
33.7954 26.3732
33.842 26.2202
33.8887 26.1527
33.9353 26.0726
33.982 26.0019
34.0286 25.8292
34.0753 25.7275
34.1219 25.8363
34.1687 25.7049
34.2152 25.6005
34.262 25.529
34.3086 25.4727
34.3554 25.4225
34.402 25.2669
34.4488 25.1798
34.4954 25.2019
34.5422 25.0961
34.5889 24.8839
34.6357 24.8751
34.6825 24.8011
34.7292 24.7392
34.776 24.5825
34.8227 24.5583
34.8695 24.475
34.9162 24.4678
34.9631 24.2697
35.0098 24.3183
35.0566 24.1907
35.1033 24.1965
35.1502 24.108
35.1969 24.0838
35.2438 24.0058
35.2906 23.9802
35.3375 23.8836
35.3842 23.8624
35.4311 23.8719
35.4779 23.8045
35.5248 23.7501
35.5716 23.661
35.6185 23.6436
35.6653 23.5314
35.7123 23.4175
35.759 23.4064
35.806 23.2032
35.8528 23.1976
35.8998 23.1032
35.9468 22.9457
35.9936 22.9607
36.0406 22.9183
36.0874 22.8749
36.1345 22.7695
36.1813 22.6849
36.2283 22.668
36.2752 22.5463
36.3222 22.603
36.3691 22.4629
36.4161 22.339
36.463 22.3344
36.5101 22.3486
36.557 22.2486
36.6041 22.0905
36.651 22.1224
36.6981 22.0083
36.745 21.9429
36.7921 21.8993
36.839 21.7986
36.8861 21.7057
36.9331 21.6333
36.9802 21.5637
37.0272 21.403
37.0743 21.3857
37.1213 21.3311
37.1684 21.3598
37.2154 21.2204
37.2626 21.1262
37.3098 21.1149
37.3568 21.0076
37.404 20.9738
37.451 20.9573
37.4982 20.8444
37.5452 20.7674
37.5924 20.6816
37.6395 20.7253
37.6867 20.6237
37.7337 20.4457
37.781 20.445
37.8281 20.3619
37.8753 20.2983
37.9224 20.2765
37.9697 20.1707
38.0168 20.121
38.064 20.0514
38.1111 19.9924
38.1584 19.8917
38.2056 19.7881
38.2529 19.8001
38.3 19.7389
38.3473 19.6319
38.3945 19.5969
38.4418 19.5452
38.489 19.5118
38.5363 19.3971
38.5837 19.4169
38.6309 19.2891
38.6782 19.2224
38.7254 19.2228
38.7728 19.0934
38.82 19.0258
38.8674 19.0572
38.9146 18.9322
38.9621 18.8454
39.0093 18.9046
39.0567 18.7618
39.104 18.7025
39.1514 18.6148
39.1987 18.5497
39.2461 18.5391
39.2934 18.5061
39.3409 18.3871
39.3882 18.2939
39.4356 18.2287
39.483 18.209
39.5304 18.1544
39.5778 18.1865
39.6253 18.0396
39.6726 17.9835
39.7201 17.97
39.7675 17.8785
39.815 17.8097
39.8624 17.8245
39.9099 17.741
39.9575 17.6981
40.0049 17.5972
40.0525 17.5795
40.0999 17.5156
40.1474 17.4204
40.1949 17.3909
40.2425 17.3402
40.2899 17.2218
40.3375 17.2374
40.385 17.2001
40.4326 17.1349
40.48 17.0415
40.5277 17.0745
40.5752 16.9338
40.6228 16.8358
40.6703 16.8249
40.718 16.8156
40.7655 16.762
40.8132 16.6684
40.8607 16.6915
40.9084 16.5772
40.9559 16.5551
41.0036 16.5109
41.0512 16.4292
41.0989 16.3573
41.1465 16.3019
41.1942 16.271
41.242 16.1907
41.2896 16.1489
41.3373 16.0413
41.3849 16.1189
41.4327 16.0334
41.4803 15.8784
41.5281 15.8939
41.5758 15.854
41.6236 15.8505
41.6712 15.7222
41.7191 15.6706
41.7667 15.6531
41.8146 15.5898
41.8622 15.5545
41.9101 15.4227
41.9578 15.3105
42.0057 15.3242
42.0534 15.3037
42.1013 15.2803
42.149 15.1579
42.1969 15.1217
42.2446 15.0875
42.2925 15.0736
42.3403 15.0236
42.3882 14.9452
42.436 14.9219
42.4839 14.8268
42.5319 14.7995
42.5797 14.8067
42.6277 14.6855
42.6755 14.6798
42.7235 14.5637
42.7713 14.5292
42.8193 14.5394
42.8671 14.4223
42.9152 14.4529
42.963 14.3381
43.0111 14.3255
43.0589 14.2675
43.107 14.2219
43.1549 14.1289
43.2029 14.125
43.2508 14.0817
43.2989 13.9912
43.3468 13.9834
43.3949 13.9114
43.4429 13.9175
43.491 13.846
43.5389 13.7646
43.5871 13.7605
43.635 13.6827
43.6832 13.643
43.7312 13.6066
43.7793 13.5173
43.8273 13.4749
43.8755 13.3946
43.9237 13.4093
43.9717 13.4257
44.0199 13.2982
44.068 13.2656
44.1162 13.2098
44.1642 13.2261
44.2125 13.1628
44.2606 13.0637
44.3088 13.0238
44.3569 12.9547
44.4052 12.9503
44.4533 12.8964
44.5016 12.8251
44.5497 12.8304
44.598 12.7716
44.6461 12.7177
44.6945 12.6908
44.7426 12.6627
44.791 12.5769
44.8391 12.5299
44.8875 12.5092
44.9357 12.4632
44.984 12.3591
45.0322 12.3001
45.0806 12.3338
45.1288 12.3153
45.1773 12.2478
45.2257 12.1811
45.2739 12.1555
45.3224 12.1111
45.3706 12.0925
45.4191 12.0229
45.4673 11.9772
45.5158 11.9435
45.5641 11.9036
45.6126 11.8499
45.6609 11.7876
45.7094 11.7712
45.7577 11.7123
45.8063 11.6535
45.8546 11.6674
45.9031 11.5708
45.9515 11.5586
46.0001 11.498
46.0484 11.4831
46.097 11.4844
46.1454 11.4075
46.194 11.3647
46.2424 11.3288
46.291 11.2617
46.3395 11.2275
46.3881 11.1705
46.4365 11.1798
46.4852 11.1467
46.5337 11.0869
46.5823 11.0419
46.631 10.9819
46.6795 10.974
46.7282 10.9013
46.7767 10.8862
46.8254 10.8531
46.8739 10.8012
46.9226 10.7234
46.9712 10.6881
47.0199 10.6532
47.0685 10.6352
47.1173 10.582
47.1658 10.5551
47.2146 10.4812
47.2632 10.4888
47.312 10.3853
47.3606 10.3478
47.4095 10.3696
47.4581 10.3215
47.5069 10.2819
47.5556 10.2348
47.6044 10.2248
47.6531 10.1595
47.702 10.117
47.7507 10.0869
47.7996 10.0288
47.8483 9.97728
47.8972 10.0184
47.9461 9.96274
47.9948 9.89314
48.0438 9.86455
48.0925 9.82874
48.1415 9.85595
48.1902 9.77626
48.2392 9.7553
48.288 9.66667
48.337 9.62157
48.3858 9.65838
48.4348 9.58822
48.4837 9.59149
48.5327 9.52104
48.5815 9.49168
48.6306 9.45672
48.6795 9.44956
48.7285 9.35397
48.7774 9.37867
48.8265 9.32542
48.8754 9.29027
48.9245 9.2396
48.9734 9.21703
49.0226 9.18398
49.0715 9.14182
49.1206 9.10409
49.1696 9.02622
49.2188 9.02178
49.2679 9.00145
49.3169 8.95315
49.3661 8.91661
49.4151 8.88468
49.4643 8.90525
49.5134 8.7944
49.5626 8.77397
49.6117 8.75802
49.6609 8.69978
49.71 8.66788
49.7592 8.6483
49.8083 8.63893
49.8576 8.63666
49.9067 8.56638
49.956 8.54341
50.0052 8.50856
50.0545 8.47617
50.1036 8.43757
50.153 8.43205
50.2022 8.36345
50.2515 8.35271
50.3007 8.27739
50.3501 8.25504
50.3993 8.18999
50.4487 8.21276
50.498 8.18994
50.5474 8.14249
50.5966 8.0994
50.6461 8.08919
50.6955 8.04128
50.7448 8.02219
50.7943 8.00998
50.8436 7.96751
50.8931 7.92804
50.9424 7.87505
50.9919 7.86448
51.0413 7.82471
51.0908 7.81307
51.1402 7.76988
51.1897 7.74611
51.2391 7.7101
51.2887 7.71555
51.3381 7.64232
51.3877 7.63432
51.4371 7.5899
51.4867 7.52657
51.5362 7.53423
51.5858 7.50173
51.6353 7.44977
51.6849 7.4189
51.7344 7.41624
51.7841 7.36072
51.8336 7.31667
51.8833 7.31085
51.9328 7.29569
51.9826 7.22339
52.0323 7.21698
52.0818 7.20967
52.1316 7.13836
52.1812 7.13552
52.231 7.08012
52.2806 7.08367
52.3304 7.03732
52.38 6.99845
52.4298 6.98425
52.4794 6.94047
52.5293 6.94328
52.5789 6.94157
52.6288 6.86593
52.6785 6.83343
52.7284 6.79313
52.7781 6.77942
52.828 6.74318
52.8777 6.71047
52.9276 6.70371
52.9774 6.67037
53.0273 6.67643
53.0771 6.61799
53.1271 6.61969
53.1769 6.57004
53.2269 6.52373
53.2767 6.51209
53.3267 6.5086
53.3765 6.48123
53.4266 6.43533
53.4766 6.36261
53.5265 6.33749
53.5765 6.34585
53.6264 6.28496
53.6765 6.27068
53.7264 6.26032
53.7765 6.21804
53.8265 6.17876
53.8766 6.12293
53.9266 6.11129
53.9767 6.11019
54.0267 6.08869
54.0769 6.07186
54.1269 6.06432
54.1771 6.00586
54.2271 6.01597
54.2773 5.92621
54.3274 5.92918
54.3776 5.89253
54.4277 5.86115
54.478 5.79385
54.528 5.75498
54.5783 5.76461
54.6285 5.66516
54.6788 5.69738
54.7289 5.6684
54.7792 5.59159
54.8296 5.53868
54.8798 5.49425
54.9301 5.44397
54.9803 5.45038
55.0307 5.38414
55.0809 5.31494
55.1314 5.33154
55.1816 5.21169
55.232 5.18859
55.2823 5.22428
55.3328 5.08271
55.383 5.1157
55.4335 5.01607
55.4838 4.97519
55.5344 4.98475
55.5847 4.88226
55.6352 4.862
55.6856 4.85397
55.7361 4.79961