File: XRD/Ni3Fe_FD0599.xy
TT I
1.27165 7.74257
1.31627 6.31717
1.36089 6.82684
1.40551 6.6503
1.45013 6.54929
1.49476 6.65593
1.53938 6.27432
1.584 5.71172
1.62863 5.17439
1.67325 5.13772
1.71787 5.20959
1.7625 4.74098
1.80712 4.76173
1.85174 5.062
1.89636 4.90605
1.94099 4.67247
1.98562 4.99485
2.03025 5.00517
2.07487 4.67589
2.11949 5.09645
2.16411 4.28898
2.20874 8.05945
2.25338 11.3347
2.298 5.24464
2.34263 5.61504
2.38725 5.72807
2.43188 5.93116
2.4765 6.73906
2.52115 6.67606
2.56577 7.08812
2.6104 8.15453
2.65503 7.14979
2.69965 7.65567
2.7443 7.60634
2.78893 7.64594
2.83356 8.10894
2.87818 8.72035
2.92281 9.06986
2.96744 9.57928
3.01209 10.1113
3.05672 10.7261
3.10135 12.0835
3.14599 13.0074
3.19062 14.2835
3.23527 15.3777
3.2799 15.871
3.32454 16.8829
3.36917 17.5357
3.4138 18.9836
3.45844 19.7314
3.50309 20.6697
3.54773 21.2989
3.59237 22.8046
3.637 48.8081
3.68164 36.4412
3.7263 25.7153
3.77094 26.0282
3.81558 26.8536
3.86022 27.1876
3.90486 28.8716
3.9495 29.4834
3.99416 30.5464
4.0388 32.1965
4.08344 33.3531
4.12809 34.2247
4.17273 36.1972
4.21738 39.6169
4.26204 117.415
4.30669 102.712
4.35133 44.8298
4.39598 43.9131
4.44063 48.9873
4.4853 54.1855
4.52995 55.8304
4.5746 56.8921
4.61925 54.1561
4.6639 56.0927
4.70855 58.9882
4.75322 62.236
4.79788 68.0151
4.84253 68.8409
4.88719 75.047
4.93184 77.1816
4.97652 82.1392
5.02118 88.4913
5.06583 97.083
5.11049 109.82
5.15515 159.705
5.19981 482.771
5.24449 3261.59
5.28916 12214.8
5.33382 2724.36
5.37848 203.779
5.42315 133.31
5.46783 120.661
5.5125 112.212
5.55716 103.938
5.60183 99.4538
5.6465 97.1033
5.69117 96.4212
5.73586 94.4571
5.78053 98.6064
5.8252 97.8806
5.86988 100.695
5.91455 97.7118
5.95924 109.263
6.00392 279.23
6.0486 1109.43
6.09328 4402.52
6.13795 3284.17
6.18263 232.879
6.22733 93.0452
6.27201 81.7494
6.3167 85.0541
6.36138 75.0711
6.40606 70.3513
6.45075 69.6688
6.49545 66.1027
6.54014 63.966
6.58483 63.2773
6.62952 63.1306
6.67421 73.8413
6.71892 90.8654
6.76361 62.6682
6.8083 59.5446
6.853 59.3724
6.89769 56.839
6.94239 56.6128
6.98711 55.9753
7.03181 55.8392
7.07651 55.445
7.12121 54.7848
7.16591 56.1097
7.21063 55.2604
7.25533 60.728
7.30004 99.7902
7.34475 67.5389
7.38945 55.4157
7.43416 53.9995
7.47889 53.9421
7.5236 54.948
7.56831 55.4861
7.61303 56.1112
7.65774 56.4141
7.70247 57.0734
7.74719 56.8108
7.79191 56.8987
7.83663 57.1465
7.88135 58.0946
7.92607 59.1176
7.97081 59.9186
8.01553 61.4507
8.06026 63.0399
8.10498 64.5456
8.14971 70.8641
8.19446 70.7951
8.23919 70.0747
8.28392 72.7092
8.32865 74.9131
8.37339 79.5722
8.41812 85.1045
8.46288 106.43
8.50761 198.915
8.55235 438.64
8.59709 1259.98
8.64183 2200.6
8.68658 920.267
8.73134 155.047
8.77609 99.6469
8.82083 93.5478
8.86558 92.604
8.91033 92.1387
8.9551 90.0156
8.99985 86.1686
9.04461 84.4993
9.08936 84.8231
9.13412 83.956
9.17888 83.1714
9.22365 82.9953
9.26841 82.6013
9.31318 85.3838
9.35794 86.8758
9.4027 86.2693
9.44749 85.6818
9.49226 85.5715
9.53703 86.8511
9.5818 89.9644
9.62657 94.0983
9.67134 95.5834
9.71614 93.7258
9.76091 96.0713
9.80569 100.531
9.85047 102.387
9.89525 113.466
9.94005 132.136
9.98484 211.744
10.0296 384.085
10.0744 880.379
10.1192 1719.11
10.164 1493.01
10.2088 359.265
10.2536 124.396
10.2984 110.916
10.3432 109.449
10.388 107.47
10.4328 128.091
10.4776 172.336
10.5224 303.076
10.5672 518.495
10.612 477.954
10.6568 188.16
10.7017 95.3367
10.7465 87.1382
10.7913 84.0161
10.8361 81.6369
10.8809 79.5054
10.9257 78.4237
10.9706 78.4984
11.0154 75.8127
11.0602 73.3535
11.105 71.8143
11.1499 72.6497
11.1947 74.9855
11.2395 70.868
11.2844 68.8135
11.3292 67.4439
11.374 66.6762
11.4189 66.1094
11.4637 65.2964
11.5086 65.0366
11.5534 65.9714
11.5983 64.6333
11.6431 63.9172
11.688 63.2315
11.7328 63.1447
11.7777 63.1797
11.8225 63.3561
11.8674 63.0813
11.9122 63.1333
11.9571 63.7144
12.002 65.2387
12.0468 70.9797
12.0917 82.2101
12.1366 107.384
12.1814 157.804
12.2263 206.047
12.2712 161.69
12.3161 89.582
12.3609 67.3504
12.4058 64.4764
12.4507 64.7187
12.4956 65.2591
12.5405 65.523
12.5853 65.6126
12.6302 68.6653
12.6751 71.3823
12.72 68.5025
12.7649 68.0838
12.8098 69.0109
12.8547 70.4626
12.8996 72.0472
12.9445 73.5832
12.9894 75.2847
13.0343 77.1133
13.0792 81.7056
13.1242 96.287
13.1691 117.746
13.214 159.122
13.2589 254.543
13.3038 379.706
13.3487 419.99
13.3937 249.741
13.4386 121.763
13.4835 111.118
13.5285 126.886
13.5734 168.851
13.6183 256.783
13.6633 349.452
13.7082 327.039
13.7531 178.295
13.7981 96.6318
13.843 82.4835
13.888 80.387
13.9329 77.7667
13.9779 76.3543
14.0228 74.9154
14.0678 73.8705
14.1127 73.0638
14.1577 72.5057
14.2027 71.6729
14.2476 71.0141
14.2926 70.6722
14.3376 70.8631
14.3825 70.2187
14.4275 69.6405
14.4725 69.4345
14.5175 69.6519
14.5624 69.4882
14.6074 70.6889
14.6524 71.3389
14.6974 71.3366
14.7424 75.358
14.7874 82.3365
14.8324 92.9009
14.8774 117.037
14.9224 160.084
14.9674 212.112
15.0124 212.807
15.0574 143.041
15.1024 88.123
15.1474 72.7007
15.1924 70.84
15.2374 70.2097
15.2824 69.2327
15.3274 67.9867
15.3725 67.2169
15.4175 66.7889
15.4625 66.561
15.5076 66.3591
15.5526 66.5779
15.5976 66.8193
15.6426 69.6479
15.6877 75.1262
15.7327 82.9155
15.7778 99.9824
15.8228 132.311
15.8679 173.447
15.9129 192.385
15.958 148.399
16.003 91.9539
16.0481 66.9905
16.0931 63.5756
16.1382 61.7304
16.1833 60.762
16.2283 59.1601
16.2734 58.6421
16.3185 58.4205
16.3636 58.1126
16.4086 57.0896
16.4537 56.4017
16.4988 55.7149
16.5439 55.7712
16.589 55.4779
16.6341 55.3546
16.6792 54.9179
16.7243 55.3095
16.7694 55.2982
16.8145 55.0724
16.8596 55.3869
16.9047 55.8813
16.9498 56.3405
16.9949 55.8736
17.04 56.6156
17.0851 57.9911
17.1302 59.558
17.1754 62.9028
17.2205 68.3619
17.2656 75.4422
17.3108 82.837
17.3559 82.1515
17.401 70.862
17.4462 62.1885
17.4913 59.7925
17.5365 59.5181
17.5815 59.7295
17.6268 60.1784
17.6718 60.9083
17.7171 61.0772
17.7622 62.0325
17.8074 63.246
17.8525 66.3492
17.8977 69.9631
17.9428 75.8969
17.9881 85.9254
18.0331 103.502
18.0784 124.365
18.1237 141.365
18.1688 131.027
18.214 102.013
18.2591 87.1127
18.3044 92.3346
18.3495 100.956
18.3948 105.778
18.4399 94.5092
18.4852 76.3709
18.5303 65.6077
18.5756 62.4316
18.6207 61.6851
18.666 60.7616
18.7112 60.1965
18.7565 59.3547
18.8016 58.9731
18.8469 58.5858
18.892 58.2691
18.9374 57.7571
18.9825 57.2437
19.0278 57.2402
19.073 57.7336
19.1183 57.9202
19.1635 58.468
19.2088 60.031
19.254 62.9944
19.2993 67.6771
19.3447 72.8163
19.3898 75.9134
19.4352 71.6436
19.4804 62.8062
19.5257 56.8948
19.5709 54.4339
19.6163 54.1588
19.6615 54.1519
19.7068 53.5055
19.752 53.6754
19.7974 54.139
19.8426 54.9059
19.888 55.7029
19.9332 56.7024
19.9786 59.8547
20.0238 63.6004
20.0692 67.9113
20.1144 70.056
20.1598 67.9926
20.205 63.7943
20.2504 62.6159
20.2957 64.2005
20.3411 65.4963
20.3863 63.8627
20.4318 58.1879
20.477 53.5634
20.5224 51.608
20.5677 50.8503
20.6131 50.4375
20.6586 50.0534
20.7038 49.8221
20.7493 49.443
20.7945 49.3259
20.84 49.0488
20.8853 48.9984
20.9307 48.909
20.976 49.3193
21.0215 49.0211
21.0668 49.5273
21.1122 50.0633
21.1575 50.518
21.203 51.2281
21.2483 51.667
21.2938 51.8486
21.3391 50.281
21.3846 49.1469
21.4299 48.8151
21.4754 48.6943
21.5207 49.1106
21.5662 49.3738
21.6116 50.0462
21.6571 50.5347
21.7024 51.4563
21.7479 53.4528
21.7933 56.4218
21.8388 59.6514
21.8843 63.2481
21.9297 64.9416
21.9752 63.0784
22.0206 59.3906
22.0661 56.58
22.1115 56.3027
22.157 56.2278
22.2024 54.2729
22.248 51.4497
22.2933 50.0075
22.3389 49.3029
22.3843 49.2541
22.4299 49.0735
22.4753 49.1815
22.5208 48.849
22.5662 48.9131
22.6118 49.3036
22.6572 49.3221
22.7028 49.7426
22.7483 50.3313
22.7939 50.9509
22.8393 52.656
22.8849 54.714
22.9303 56.5758
22.9759 58.1021
23.0214 57.177
23.067 54.3811
23.1126 51.0393
23.1581 49.4056
23.2037 49.1043
23.2492 49.3923
23.2948 49.3488
23.3403 49.5443
23.3859 50.3755
23.4314 51.5188
23.477 53.4505
23.5225 55.3015
23.5682 57.3962
23.6137 58.142
23.6593 55.5226
23.7048 51.31
23.7505 48.2961
23.796 46.6537
23.8417 46.2669
23.8872 45.7837
23.9329 45.391
23.9784 45.2558
24.0241 44.8663
24.0697 44.6565
24.1154 44.3818
24.1609 44.1576
24.2066 43.9942
24.2522 43.9287
24.2979 43.674
24.3434 43.6655
24.3892 43.3707
24.4349 43.2868
24.4805 43.1307
24.5262 43.2974
24.5718 43.1531
24.6175 43.0436
24.6631 43.003
24.7089 42.8422
24.7545 42.6322
24.8002 42.4695
24.8458 42.465
24.8916 42.4012
24.9372 42.5866
24.983 43.0233
25.0286 43.3023
25.0744 43.7923
25.12 44.0911
25.1658 44.7075
25.2114 45.1154
25.2572 45.1444
25.3029 45.1791
25.3487 45.1364
25.3943 44.6498
25.4402 43.5412
25.4858 42.5121
25.5316 41.6557
25.5773 41.1077
25.6231 41.1872
25.669 40.7489
25.7147 40.9162
25.7605 40.675
25.8062 40.7508
25.8521 40.8497
25.8977 40.8115
25.9436 41.0915
25.9893 41.3478
26.0352 41.8215
26.0809 41.7375
26.1268 42.0095
26.1725 41.5557
26.2184 41.0436
26.2641 40.5302
26.31 40.2387
26.3557 40.3322
26.4017 40.3672
26.4474 40.7493
26.4933 41.0595
26.5391 41.5492
26.585 42.0257
26.6308 42.3175
26.6767 42.4431
26.7225 42.2515
26.7684 41.5849
26.8142 41.0265
26.8601 40.5402
26.9059 40.2389
26.9519 39.6975
26.9979 39.4821
27.0437 39.1811
27.0896 38.987
27.1354 39.0647
27.1814 38.8288
27.2272 38.9385
27.2732 38.7317
27.3191 38.6017
27.3651 38.7497
27.4109 38.7874
27.4569 38.8358
27.5027 38.864
27.5488 38.856
27.5946 38.6478
27.6407 38.3724
27.6865 38.3713
27.7326 38.2519
27.7784 38.203
27.8245 38.1547
27.8703 38.292
27.9164 38.6768
27.9623 38.7132
28.0084 38.9657
28.0543 39.3385
28.1003 39.2134
28.1462 39.1229
28.1923 38.6539
28.2384 38.154
28.2843 37.8735
28.3304 37.2928
28.3764 36.8813
28.4225 36.5355
28.4684 36.5037
28.5145 36.239
28.5605 36.0396
28.6066 35.9009
28.6526 35.7936
28.6987 35.7898
28.7447 35.6566
28.7908 35.6001
28.8368 35.6951
28.8829 35.5865
28.9289 35.5203
28.9751 35.437
29.0211 35.1664
29.0673 34.8348
29.1133 34.7405
29.1595 34.6806
29.2055 34.5423
29.2517 34.5941
29.2977 34.4993
29.3439 34.4431
29.3899 34.4537
29.4361 34.2861
29.4824 34.0801
29.5284 33.983
29.5746 33.4972
29.6207 33.2569
29.6669 33.3159
29.713 33.1953
29.7593 33.0094
29.8053 33.0889
29.8516 32.9726
29.8977 33.0017
29.9439 32.7976
29.99 32.7211
30.0363 32.6219
30.0824 32.6868
30.1287 32.5419
30.1748 32.6654
30.2211 32.5984
30.2673 32.4923
30.3136 32.5978
30.3597 32.4912
30.406 32.4152
30.4522 32.3048
30.4985 32.2431
30.5447 32.3809
30.591 32.3208
30.6372 32.3965
30.6835 32.3107
30.7297 32.3022
30.7761 32.4391
30.8224 32.1352
30.8686 31.9836
30.915 31.7976
30.9612 31.6212
31.0076 31.5815
31.0538 31.3287
31.1002 31.2728
31.1464 31.1303
31.1928 31.0937
31.2391 31.1682
31.2855 30.9712
31.3317 30.9956
31.3781 31.138
31.4244 31.0526
31.4708 30.9288
31.5171 31.0177
31.5636 30.9252
31.6098 30.6986
31.6563 30.4759
31.7026 30.5055
31.7491 30.3488
31.7953 30.3576
31.8418 30.2893
31.8881 30.3936
31.9346 30.3048
31.9809 30.1724
32.0275 30.1799
32.074 29.9944
32.1203 29.7992
32.1668 29.7022
32.2132 29.4898
32.2597 29.4282
32.306 29.3297
32.3526 29.1456
32.399 29.0974
32.4455 28.9542
32.4919 28.8461
32.5385 28.7903
32.5848 28.5694
32.6314 28.6368
32.6778 28.6159
32.7244 28.2902
32.7708 28.3164
32.8174 28.4154
32.8638 28.1241
32.9104 28.2453
32.9569 28.186
33.0035 28.0647
33.0499 28.0254
33.0966 27.9814
33.143 27.994
33.1897 27.8986
33.2361 27.7891
33.2828 27.7862
33.3293 27.5217
33.3759 27.611
33.4226 27.37
33.4691 27.3128
33.5158 27.166
33.5623 27.0478
33.609 26.8928
33.6555 27.0063
33.7022 26.7283
33.7487 26.7764
33.7954 26.5891
33.842 26.5627
33.8887 26.4189
33.9353 26.4365
33.982 26.2876
34.0286 26.2269
34.0753 26.1511
34.1219 26.1072
34.1687 26.0294
34.2152 25.8508
34.262 25.8657
34.3086 25.698
34.3554 25.6551
34.402 25.5758
34.4488 25.4662
34.4954 25.3595
34.5422 25.25
34.5889 25.2578
34.6357 25.1776
34.6825 25.047
34.7292 24.9894
34.776 24.8553
34.8227 24.7812
34.8695 24.714
34.9162 24.7051
34.9631 24.6198
35.0098 24.6786
35.0566 24.4123
35.1033 24.452
35.1502 24.3803
35.1969 24.4688
35.2438 24.3002
35.2906 24.1816
35.3375 24.2352
35.3842 24.1329
35.4311 24.1314
35.4779 24.116
35.5248 24.0784
35.5716 23.9349
35.6185 23.8349
35.6653 23.8256
35.7123 23.6098
35.759 23.6089
35.806 23.5133
35.8528 23.388
35.8998 23.3714
35.9468 23.2282
35.9936 23.193
36.0406 23.1571
36.0874 23.1277
36.1345 23.0224
36.1813 23.0131
36.2283 22.7736
36.2752 22.7504
36.3222 22.7665
36.3691 22.6693
36.4161 22.5155
36.463 22.6098
36.5101 22.5684
36.557 22.4961
36.6041 22.3909
36.651 22.2975
36.6981 22.2703
36.745 22.189
36.7921 22.0745
36.839 21.9512
36.8861 21.8841
36.9331 21.8175
36.9802 21.8001
37.0272 21.6935
37.0743 21.5929
37.1213 21.5694
37.1684 21.5341
37.2154 21.4163
37.2626 21.3947
37.3098 21.2274
37.3568 21.2828
37.404 21.1629
37.451 21.0676
37.4982 21.0586
37.5452 20.939
37.5924 20.9171
37.6395 20.9546
37.6867 20.778
37.7337 20.7273
37.781 20.666
37.8281 20.591
37.8753 20.452
37.9224 20.4982
37.9697 20.3394
38.0168 20.3126
38.064 20.2004
38.1111 20.1611
38.1584 20.0834
38.2056 20.0351
38.2529 19.9982
38.3 19.9114
38.3473 19.8937
38.3945 19.7453
38.4418 19.7977
38.489 19.7291
38.5363 19.6936
38.5837 19.5849
38.6309 19.494
38.6782 19.4055
38.7254 19.3018
38.7728 19.26
38.82 19.2568
38.8674 19.2357
38.9146 19.142
38.9621 19.0329
39.0093 19.0562
39.0567 18.9923
39.104 18.9128
39.1514 18.7882
39.1987 18.8425
39.2461 18.7464
39.2934 18.6893
39.3409 18.5496
39.3882 18.5203
39.4356 18.4658
39.483 18.411
39.5304 18.2963
39.5778 18.3247
39.6253 18.2298
39.6726 18.217
39.7201 18.1326
39.7675 18.1189
39.815 18.0072
39.8624 17.9162
39.9099 17.9198
39.9575 17.8137
40.0049 17.7863
40.0525 17.6694
40.0999 17.7215
40.1474 17.6355
40.1949 17.5746
40.2425 17.4156
40.2899 17.4412
40.3375 17.4027
40.385 17.355
40.4326 17.2629
40.48 17.1897
40.5277 17.1915
40.5752 17.1019
40.6228 17.0444
40.6703 16.9897
40.718 16.9227
40.7655 16.9192
40.8132 16.7988
40.8607 16.7957
40.9084 16.7964
40.9559 16.6758
41.0036 16.6811
41.0512 16.5978
41.0989 16.5942
41.1465 16.4887
41.1942 16.4762
41.242 16.3691
41.2896 16.2718
41.3373 16.2387
41.3849 16.2092
41.4327 16.1625
41.4803 16.0964
41.5281 16.0429
41.5758 15.9796
41.6236 15.919
41.6712 15.8351
41.7191 15.8309
41.7667 15.742
41.8146 15.7126
41.8622 15.6463
41.9101 15.6644
41.9578 15.5259
42.0057 15.498
42.0534 15.4217
42.1013 15.3797
42.149 15.3357
42.1969 15.286
42.2446 15.2004
42.2925 15.1989
42.3403 15.1175
42.3882 15.1442
42.436 15.0885
42.4839 15.012
42.5319 14.9139
42.5797 14.9175
42.6277 14.8307
42.6755 14.8467
42.7235 14.7294
42.7713 14.7311
42.8193 14.6345
42.8671 14.5805
42.9152 14.5303
42.963 14.4674
43.0111 14.3955
43.0589 14.3559
43.107 14.2981
43.1549 14.3256
43.2029 14.2791
43.2508 14.2557
43.2989 14.0943
43.3468 14.0517
43.3949 14.0631
43.4429 14.0011
43.491 13.9206
43.5389 13.8851
43.5871 13.8902
43.635 13.7915
43.6832 13.8002
43.7312 13.7133
43.7793 13.623
43.8273 13.5953
43.8755 13.5415
43.9237 13.5032
43.9717 13.4848
44.0199 13.4229
44.068 13.3883
44.1162 13.3699
44.1642 13.3539
44.2125 13.2138
44.2606 13.2223
44.3088 13.1731
44.3569 13.091
44.4052 13.1016
44.4533 13.039
44.5016 12.9557
44.5497 12.8843
44.598 12.8902
44.6461 12.8407
44.6945 12.7685
44.7426 12.7338
44.791 12.678
44.8391 12.6365
44.8875 12.6463
44.9357 12.5611
44.984 12.54
45.0322 12.4892
45.0806 12.4702
45.1288 12.3302
45.1773 12.3593
45.2257 12.326
45.2739 12.2622
45.3224 12.2467
45.3706 12.1782
45.4191 12.0924
45.4673 12.0553
45.5158 12.0298
45.5641 11.9634
45.6126 11.9639
45.6609 11.8964
45.7094 11.8676
45.7577 11.8215
45.8063 11.7487
45.8546 11.7115
45.9031 11.7094
45.9515 11.6381
46.0001 11.6296
46.0484 11.5871
46.097 11.53
46.1454 11.4771
46.194 11.4707
46.2424 11.4328
46.291 11.3645
46.3395 11.3765
46.3881 11.299
46.4365 11.203
46.4852 11.2036
46.5337 11.1762
46.5823 11.1129
46.631 11.0736
46.6795 11.0827
46.7282 11.0009
46.7767 10.9618
46.8254 10.9113
46.8739 10.8907
46.9226 10.8415
46.9712 10.851
47.0199 10.7575
47.0685 10.6812
47.1173 10.6643
47.1658 10.6494
47.2146 10.6598
47.2632 10.5425
47.312 10.5632
47.3606 10.4983
47.4095 10.4385
47.4581 10.4521
47.5069 10.3633
47.5556 10.3152
47.6044 10.2742
47.6531 10.259
47.702 10.1788
47.7507 10.1645
47.7996 10.1042
47.8483 10.1137
47.8972 10.0617
47.9461 10.0399
47.9948 9.96804
48.0438 9.95752
48.0925 9.92749
48.1415 9.91608
48.1902 9.81913
48.2392 9.80777
48.288 9.80618
48.337 9.74183
48.3858 9.70936
48.4348 9.68984
48.4837 9.66176
48.5327 9.61666
48.5815 9.55951
48.6306 9.56025
48.6795 9.51931
48.7285 9.47449
48.7774 9.42508
48.8265 9.37064
48.8754 9.39522
48.9245 9.31108
48.9734 9.26468
49.0226 9.29853
49.0715 9.21969
49.1206 9.20453
49.1696 9.15476
49.2188 9.15524
49.2679 9.09409
49.3169 9.03477
49.3661 9.02957
49.4151 8.95011
49.4643 8.91721
49.5134 8.86723
49.5626 8.86493
49.6117 8.83569
49.6609 8.79555
49.71 8.79169
49.7592 8.7432
49.8083 8.71183
49.8576 8.68095
49.9067 8.64136
49.956 8.58801
50.0052 8.54302
50.0545 8.55789
50.1036 8.50196
50.153 8.49113
50.2022 8.4438
50.2515 8.39153
50.3007 8.34049
50.3501 8.36057
50.3993 8.30336
50.4487 8.31075
50.498 8.22752
50.5474 8.23032
50.5966 8.20964
50.6461 8.16008
50.6955 8.14982
50.7448 8.07613
50.7943 8.0903
50.8436 8.00759
50.8931 7.99586
50.9424 7.98076
50.9919 7.94757
51.0413 7.91908
51.0908 7.90466
51.1402 7.8119
51.1897 7.78768
51.2391 7.77076
51.2887 7.73755
51.3381 7.7075
51.3877 7.73186
51.4371 7.63606
51.4867 7.59724
51.5362 7.58279
51.5858 7.55575
51.6353 7.53253
51.6849 7.48784
51.7344 7.43889
51.7841 7.4317
51.8336 7.35555
51.8833 7.36625
51.9328 7.31697
51.9826 7.29671
52.0323 7.25391
52.0818 7.23622
52.1316 7.18181
52.1812 7.18196
52.231 7.13629
52.2806 7.12924
52.3304 7.08037
52.38 7.06639
52.4298 7.02257
52.4794 7.03314
52.5293 7.03505
52.5789 6.94827
52.6288 6.88892
52.6785 6.85824
52.7284 6.85137
52.7781 6.86755
52.828 6.82752
52.8777 6.74108
52.9276 6.74584
52.9774 6.73198
53.0273 6.68597
53.0771 6.66619
53.1271 6.66689
53.1769 6.61485
53.2269 6.59742
53.2767 6.54898
53.3267 6.53658
53.3765 6.48263
53.4266 6.47426
53.4766 6.43812
53.5265 6.42562
53.5765 6.33808
53.6264 6.32568
53.6765 6.34245
53.7264 6.33443
53.7765 6.26399
53.8265 6.25655
53.8766 6.21829
53.9266 6.20567
53.9767 6.20705
54.0267 6.16629
54.0769 6.11419
54.1269 6.05038
54.1771 6.00844
54.2271 5.99926
54.2773 5.99108
54.3274 5.99119
54.3776 5.89895
54.4277 5.86293
54.478 5.81734
54.528 5.82966
54.5783 5.80949
54.6285 5.7494
54.6788 5.70515
54.7289 5.66915
54.7792 5.64671
54.8296 5.60921
54.8798 5.52079
54.9301 5.49465
54.9803 5.48808
55.0307 5.45363
55.0809 5.39812
55.1314 5.38825
55.1816 5.30499
55.232 5.27141
55.2823 5.26954
55.3328 5.17924
55.383 5.13467
55.4335 5.06857
55.4838 5.02247
55.5344 4.98594
55.5847 4.93386
55.6352 4.9806
55.6856 4.88812
55.7361 4.81857