File: XRD/Ni3Fe_FD0327.xy
TT I
1.27165 7.99034
1.31627 7.07223
1.36089 7.01616
1.40551 6.5076
1.45013 6.48515
1.49476 6.27237
1.53938 6.0684
1.584 6.06893
1.62863 5.18135
1.67325 5.67212
1.71787 5.46871
1.7625 4.83667
1.80712 4.6382
1.85174 4.97581
1.89636 5.3747
1.94099 5.37101
1.98562 5.30827
2.03025 4.89024
2.07487 4.4765
2.11949 5.09582
2.16411 5.42363
2.20874 12.6108
2.25338 19.3299
2.298 6.36368
2.34263 4.30241
2.38725 5.19341
2.43188 4.63203
2.4765 6.39709
2.52115 5.32217
2.56577 6.29308
2.6104 7.27553
2.65503 6.77162
2.69965 7.2265
2.7443 7.74334
2.78893 7.1957
2.83356 7.85185
2.87818 8.31348
2.92281 8.92804
2.96744 9.44547
3.01209 10.6576
3.05672 10.4911
3.10135 12.5386
3.14599 13.1926
3.19062 14.7241
3.23527 15.5854
3.2799 15.8434
3.32454 17.0554
3.36917 18.1212
3.4138 19.1779
3.45844 20.2606
3.50309 21.2901
3.54773 21.6489
3.59237 23.6084
3.637 80.6855
3.68164 53.0326
3.7263 26.5836
3.77094 26.4606
3.81558 27.3612
3.86022 28.1874
3.90486 29.2383
3.9495 30.5186
3.99416 31.1392
4.0388 32.5407
4.08344 34.1319
4.12809 35.3601
4.17273 37.8235
4.21738 42.8575
4.26204 212.585
4.30669 184.79
4.35133 48.5251
4.39598 45.5054
4.44063 53.5757
4.4853 63.1415
4.52995 52.5205
4.5746 52.7794
4.61925 54.5299
4.6639 56.8113
4.70855 59.6917
4.75322 62.6909
4.79788 65.7809
4.84253 69.4792
4.88719 74.4541
4.93184 77.7339
4.97652 84.0853
5.02118 91.6313
5.06583 100.49
5.11049 115.334
5.15515 186.415
5.19981 544.575
5.24449 3485.59
5.28916 11433.7
5.33382 3588.17
5.37848 231.015
5.42315 140.649
5.46783 121.405
5.5125 111.342
5.55716 106.678
5.60183 102.588
5.6465 100.655
5.69117 98.3968
5.73586 96.1577
5.78053 96.4259
5.8252 96.3203
5.86988 97.6654
5.91455 101.577
5.95924 114.808
6.00392 289.925
6.0486 1206.41
6.09328 4012.88
6.13795 3475.92
6.18263 301.165
6.22733 101.659
6.27201 86.3583
6.3167 100.493
6.36138 81.5398
6.40606 71.3026
6.45075 69.7779
6.49545 67.3466
6.54014 65.5924
6.58483 64.8528
6.62952 64.3272
6.67421 89.2276
6.71892 130.056
6.76361 68.6569
6.8083 60.1939
6.853 59.106
6.89769 58.3761
6.94239 58.0963
6.98711 57.0186
7.03181 56.6787
7.07651 56.5486
7.12121 56.73
7.16591 57.1946
7.21063 56.8193
7.25533 68.9511
7.30004 156.13
7.34475 86.5732
7.38945 57.6485
7.43416 55.4976
7.47889 55.3915
7.5236 56.1986
7.56831 56.6402
7.61303 58.1007
7.65774 58.716
7.70247 57.7673
7.74719 57.4628
7.79191 58.0475
7.83663 58.4364
7.88135 59.4754
7.92607 60.176
7.97081 61.6451
8.01553 62.3308
8.06026 64.1374
8.10498 65.6608
8.14971 74.0921
8.19446 73.3289
8.23919 71.5615
8.28392 74.1917
8.32865 76.8573
8.37339 81.3123
8.41812 88.7307
8.46288 117.588
8.50761 207.108
8.55235 474.195
8.59709 1150.51
8.64183 2120.83
8.68658 1103.97
8.73134 187.295
8.77609 105.088
8.82083 96.4937
8.86558 92.9697
8.91033 92.3546
8.9551 93.303
8.99985 87.8026
9.04461 86.0646
9.08936 85.6302
9.13412 84.4308
9.17888 84.5938
9.22365 85.1367
9.26841 84.1883
9.31318 85.5485
9.35794 85.8755
9.4027 85.9165
9.44749 86.6138
9.49226 87.0851
9.53703 87.9023
9.5818 90.1535
9.62657 94.4549
9.67134 100.169
9.71614 96.541
9.76091 97.3745
9.80569 99.9307
9.85047 103.768
9.89525 124.828
9.94005 141.18
9.98484 217.004
10.0296 415.997
10.0744 839.331
10.1192 1622.25
10.164 1706.25
10.2088 494.29
10.2536 139.972
10.2984 116.86
10.3432 116.912
10.388 109.616
10.4328 132.046
10.4776 181.026
10.5224 288.089
10.5672 479.462
10.612 523.751
10.6568 222.398
10.7017 100.569
10.7465 89.5224
10.7913 85.9474
10.8361 83.3637
10.8809 81.0761
10.9257 80.4227
10.9706 80.5771
11.0154 77.0827
11.0602 74.6392
11.105 74.0469
11.1499 77.1504
11.1947 82.7259
11.2395 75.0523
11.2844 71.8645
11.3292 69.2668
11.374 68.1062
11.4189 67.0798
11.4637 66.8988
11.5086 66.8991
11.5534 69.2083
11.5983 66.9634
11.6431 65.3342
11.688 64.6205
11.7328 64.981
11.7777 64.5856
11.8225 64.2324
11.8674 64.2268
11.9122 64.6777
11.9571 64.9167
12.002 65.9475
12.0468 72.5468
12.0917 85.6078
12.1366 108.34
12.1814 149.184
12.2263 200.554
12.2712 179.201
12.3161 101.825
12.3609 72.3132
12.4058 66.6106
12.4507 66.1053
12.4956 66.4694
12.5405 66.6458
12.5853 67.1362
12.6302 73.6815
12.6751 78.4475
12.72 71.231
12.7649 69.9512
12.8098 70.3001
12.8547 71.7955
12.8996 73.2713
12.9445 74.5641
12.9894 76.6702
13.0343 78.3383
13.0792 82.2342
13.1242 95.9643
13.1691 124.65
13.214 163.384
13.2589 240.265
13.3038 348.641
13.3487 429.004
13.3937 287.246
13.4386 134.147
13.4835 115.385
13.5285 133.477
13.5734 169.077
13.6183 238.679
13.6633 329.008
13.7082 344.963
13.7531 204.313
13.7981 103.536
13.843 84.5518
13.888 82.2386
13.9329 79.6812
13.9779 78.0486
14.0228 76.6727
14.0678 75.3976
14.1127 74.6857
14.1577 74.5355
14.2027 73.831
14.2476 72.4799
14.2926 72.7371
14.3376 73.3886
14.3825 72.1664
14.4275 70.9341
14.4725 70.8848
14.5175 70.8693
14.5624 71.0166
14.6074 72.9278
14.6524 73.8058
14.6974 72.8798
14.7424 75.5677
14.7874 84.7146
14.8324 96.4552
14.8774 117.367
14.9224 152.081
14.9674 198.582
15.0124 219.391
15.0574 157.83
15.1024 95.236
15.1474 74.8176
15.1924 72.6699
15.2374 73.0197
15.2824 71.9775
15.3274 69.9805
15.3725 69.0134
15.4175 68.3855
15.4625 68.1233
15.5076 68.3561
15.5526 68.2746
15.5976 68.1115
15.6426 70.1287
15.6877 77.545
15.7327 86.3095
15.7778 101.017
15.8228 126.861
15.8679 162.739
15.9129 193.428
15.958 167.546
16.003 104.358
16.0481 70.8956
16.0931 66.3749
16.1382 64.3727
16.1833 62.4771
16.2283 60.6855
16.2734 60.1186
16.3185 60.1489
16.3636 60.6781
16.4086 59.5264
16.4537 58.1607
16.4988 57.0464
16.5439 57.2464
16.589 56.9263
16.6341 56.6143
16.6792 56.3112
16.7243 56.5039
16.7694 56.6573
16.8145 56.4258
16.8596 56.7931
16.9047 58.0903
16.9498 58.5365
16.9949 57.3259
17.04 57.7414
17.0851 59.592
17.1302 61.4154
17.1754 64.3636
17.2205 68.8797
17.2656 74.7562
17.3108 83.155
17.3559 84.1761
17.401 74.4013
17.4462 64.5664
17.4913 61.0484
17.5365 60.9681
17.5815 61.0479
17.6268 61.4458
17.6718 62.082
17.7171 62.7515
17.7622 63.222
17.8074 64.1628
17.8525 67.4517
17.8977 72.5058
17.9428 78.1532
17.9881 86.585
18.0331 101.096
18.0784 119.068
18.1237 139.778
18.1688 139.031
18.214 112.166
18.2591 90.8313
18.3044 91.2325
18.3495 99.0436
18.3948 107.405
18.4399 100.107
18.4852 81.1542
18.5303 68.4081
18.5756 64.1894
18.6207 63.2502
18.666 62.3662
18.7112 61.6615
18.7565 60.8801
18.8016 60.4212
18.8469 59.7596
18.892 59.5995
18.9374 59.2197
18.9825 58.7436
19.0278 58.7074
19.073 58.8484
19.1183 59.4965
19.1635 60.5551
19.2088 61.8671
19.254 64.1853
19.2993 67.7732
19.3447 72.9679
19.3898 77.5523
19.4352 75.0974
19.4804 66.1384
19.5257 58.9458
19.5709 56.1901
19.6163 55.7866
19.6615 55.4262
19.7068 55.0716
19.752 54.9405
19.7974 55.5035
19.8426 56.5025
19.888 57.2682
19.9332 58.4232
19.9786 60.8276
20.0238 63.6805
20.0692 67.6672
20.1144 71.4953
20.1598 71.3772
20.205 66.1659
20.2504 63.6396
20.2957 64.4398
20.3411 66.733
20.3863 66.3589
20.4318 60.9282
20.477 55.654
20.5224 53.19
20.5677 52.5596
20.6131 51.8679
20.6586 51.2347
20.7038 51.0954
20.7493 50.5303
20.7945 50.6254
20.84 50.3393
20.8853 50.4128
20.9307 50.1285
20.976 50.2696
21.0215 50.1923
21.0668 50.4528
21.1122 51.2555
21.1575 51.416
21.203 52.1376
21.2483 52.6687
21.2938 53.2198
21.3391 51.7086
21.3846 50.5518
21.4299 49.9737
21.4754 49.8975
21.5207 50.1298
21.5662 50.3784
21.6116 51.2878
21.6571 51.9278
21.7024 52.8756
21.7479 54.6211
21.7933 57.034
21.8388 59.9938
21.8843 63.5066
21.9297 66.3309
21.9752 65.9414
22.0206 61.8737
22.0661 58.1124
22.1115 57.2809
22.157 57.5357
22.2024 56.1193
22.248 53.42
22.2933 51.4934
22.3389 50.6837
22.3843 50.5918
22.4299 50.3852
22.4753 50.4298
22.5208 50.1943
22.5662 50.0273
22.6118 50.2124
22.6572 50.3694
22.7028 50.9971
22.7483 51.5109
22.7939 52.2258
22.8393 53.5608
22.8849 55.206
22.9303 56.7726
22.9759 59.091
23.0214 59.0943
23.067 56.5877
23.1126 52.8961
23.1581 50.9766
23.2037 50.3821
23.2492 50.543
23.2948 50.6413
23.3403 50.9135
23.3859 51.6636
23.4314 52.5706
23.477 54.0076
23.5225 55.5929
23.5682 57.6267
23.6137 59.4187
23.6593 57.8996
23.7048 53.9162
23.7505 50.0827
23.796 48.2083
23.8417 47.5817
23.8872 47.0052
23.9329 46.6135
23.9784 46.3708
24.0241 46.1334
24.0697 46.0181
24.1154 45.4305
24.1609 45.3869
24.2066 45.2008
24.2522 45.1692
24.2979 44.8368
24.3434 44.7105
24.3892 44.5897
24.4349 44.3554
24.4805 44.3278
24.5262 44.38
24.5718 44.1797
24.6175 44.173
24.6631 44.2276
24.7089 43.8752
24.7545 43.8126
24.8002 43.5477
24.8458 43.5169
24.8916 43.4536
24.9372 43.6807
24.983 44.0109
25.0286 44.2105
25.0744 44.5991
25.12 44.9442
25.1658 45.6734
25.2114 46.0918
25.2572 46.1266
25.3029 45.9824
25.3487 46.0132
25.3943 46.0892
25.4402 45.1781
25.4858 43.9939
25.5316 42.7446
25.5773 42.1438
25.6231 42.0675
25.669 41.6963
25.7147 41.8221
25.7605 41.6897
25.8062 41.8751
25.8521 41.8764
25.8977 41.9591
25.9436 42.1546
25.9893 41.9356
26.0352 42.6682
26.0809 42.8167
26.1268 42.897
26.1725 42.7919
26.2184 42.2023
26.2641 41.7179
26.31 41.4515
26.3557 41.4617
26.4017 41.3948
26.4474 41.7773
26.4933 42.0014
26.5391 42.4142
26.585 42.8058
26.6308 43.1235
26.6767 43.3354
26.7225 43.3379
26.7684 42.8144
26.8142 42.257
26.8601 41.6927
26.9059 41.3806
26.9519 40.8437
26.9979 40.5115
27.0437 40.1241
27.0896 40.0182
27.1354 39.9605
27.1814 39.8643
27.2272 39.7476
27.2732 39.7699
27.3191 39.5722
27.3651 39.6479
27.4109 39.5508
27.4569 39.6638
27.5027 39.6395
27.5488 39.9103
27.5946 39.6258
27.6407 39.4362
27.6865 39.3318
27.7326 39.044
27.7784 39.1381
27.8245 38.9123
27.8703 39.2206
27.9164 39.4625
27.9623 39.3957
28.0084 39.7644
28.0543 40.3055
28.1003 40.2748
28.1462 40.0496
28.1923 39.6378
28.2384 39.0575
28.2843 38.7659
28.3304 38.4116
28.3764 37.9789
28.4225 37.582
28.4684 37.4047
28.5145 37.1048
28.5605 36.9637
28.6066 36.7829
28.6526 36.7126
28.6987 36.6569
28.7447 36.6934
28.7908 36.5306
28.8368 36.4698
28.8829 36.596
28.9289 36.4303
28.9751 36.2306
29.0211 36.0378
29.0673 35.7285
29.1133 35.5621
29.1595 35.4604
29.2055 35.2958
29.2517 35.3922
29.2977 35.3727
29.3439 35.2401
29.3899 35.2504
29.4361 35.2113
29.4824 35.0115
29.5284 34.8724
29.5746 34.5783
29.6207 34.2153
29.6669 34.0278
29.713 34.0007
29.7593 33.9054
29.8053 33.9852
29.8516 33.8561
29.8977 33.8426
29.9439 33.6976
29.99 33.5948
30.0363 33.4831
30.0824 33.5092
30.1287 33.4143
30.1748 33.4713
30.2211 33.4504
30.2673 33.1884
30.3136 33.4062
30.3597 33.271
30.406 33.2971
30.4522 33.1232
30.4985 33.0489
30.5447 33.1833
30.591 33.0758
30.6372 33.2339
30.6835 33.1842
30.7297 33.1519
30.7761 33.1673
30.8224 32.9192
30.8686 32.8686
30.915 32.632
30.9612 32.5507
31.0076 32.2781
31.0538 32.0881
31.1002 32.0881
31.1464 31.9233
31.1928 31.8321
31.2391 31.8372
31.2855 31.8265
31.3317 31.8056
31.3781 31.8726
31.4244 31.8036
31.4708 31.7277
31.5171 31.7271
31.5636 31.7905
31.6098 31.5472
31.6563 31.3939
31.7026 31.1937
31.7491 31.005
31.7953 31.0551
31.8418 31.064
31.8881 31.093
31.9346 31.0645
31.9809 30.9353
32.0275 30.7592
32.074 30.7339
32.1203 30.5488
32.1668 30.4142
32.2132 30.2595
32.2597 30.0625
32.306 30.0324
32.3526 29.9241
32.399 29.8353
32.4455 29.6356
32.4919 29.6535
32.5385 29.5375
32.5848 29.4383
32.6314 29.4113
32.6778 29.3418
32.7244 29.1276
32.7708 28.9979
32.8174 28.9678
32.8638 28.8888
32.9104 28.893
32.9569 28.8594
33.0035 28.7446
33.0499 28.5918
33.0966 28.6902
33.143 28.5259
33.1897 28.5403
33.2361 28.5033
33.2828 28.351
33.3293 28.2784
33.3759 28.2454
33.4226 28.0857
33.4691 28.0483
33.5158 27.8436
33.5623 27.778
33.609 27.6052
33.6555 27.5606
33.7022 27.4398
33.7487 27.2447
33.7954 27.2624
33.842 27.1568
33.8887 27.0967
33.9353 27.1276
33.982 26.9349
34.0286 26.7804
34.0753 26.824
34.1219 26.7135
34.1687 26.5774
34.2152 26.5821
34.262 26.447
34.3086 26.3821
34.3554 26.3115
34.402 26.1633
34.4488 26.1752
34.4954 26.0788
34.5422 25.9038
34.5889 25.8726
34.6357 25.7994
34.6825 25.6147
34.7292 25.5759
34.776 25.5213
34.8227 25.4912
34.8695 25.4502
34.9162 25.3527
34.9631 25.273
35.0098 25.1952
35.0566 25.1275
35.1033 24.9618
35.1502 25.0146
35.1969 24.9358
35.2438 24.8215
35.2906 24.7749
35.3375 24.7598
35.3842 24.7553
35.4311 24.7561
35.4779 24.5989
35.5248 24.6269
35.5716 24.5554
35.6185 24.4204
35.6653 24.3272
35.7123 24.2741
35.759 24.2071
35.806 24.1696
35.8528 23.9192
35.8998 23.952
35.9468 23.826
35.9936 23.7487
36.0406 23.6731
36.0874 23.6524
36.1345 23.5399
36.1813 23.5427
36.2283 23.4069
36.2752 23.3007
36.3222 23.3316
36.3691 23.2704
36.4161 23.0964
36.463 23.1072
36.5101 23.0804
36.557 23.0667
36.6041 22.9248
36.651 22.9004
36.6981 22.7728
36.745 22.6788
36.7921 22.6005
36.839 22.6039
36.8861 22.4816
36.9331 22.3112
36.9802 22.2902
37.0272 22.2689
37.0743 22.1668
37.1213 22.1419
37.1684 22.111
37.2154 22.0068
37.2626 21.9078
37.3098 21.8636
37.3568 21.731
37.404 21.7887
37.451 21.6194
37.4982 21.5364
37.5452 21.5255
37.5924 21.4429
37.6395 21.4897
37.6867 21.3576
37.7337 21.1966
37.781 21.1512
37.8281 21.1677
37.8753 20.9863
37.9224 20.959
37.9697 20.904
38.0168 20.8258
38.064 20.6942
38.1111 20.7007
38.1584 20.6605
38.2056 20.5392
38.2529 20.5214
38.3 20.4309
38.3473 20.4457
38.3945 20.308
38.4418 20.2082
38.489 20.2381
38.5363 20.0901
38.5837 20.0392
38.6309 19.9692
38.6782 19.9297
38.7254 19.8151
38.7728 19.7503
38.82 19.6956
38.8674 19.692
38.9146 19.6487
38.9621 19.5403
39.0093 19.4625
39.0567 19.4262
39.104 19.3994
39.1514 19.2488
39.1987 19.267
39.2461 19.2245
39.2934 19.1325
39.3409 19.0615
39.3882 18.9465
39.4356 18.92
39.483 18.8795
39.5304 18.8533
39.5778 18.7787
39.6253 18.6918
39.6726 18.5836
39.7201 18.5703
39.7675 18.5198
39.815 18.462
39.8624 18.3791
39.9099 18.3802
39.9575 18.3031
40.0049 18.2086
40.0525 18.185
40.0999 18.1093
40.1474 18.0887
40.1949 18.0115
40.2425 17.9154
40.2899 17.9212
40.3375 17.8529
40.385 17.7526
40.4326 17.6689
40.48 17.6634
40.5277 17.6364
40.5752 17.5023
40.6228 17.4626
40.6703 17.3968
40.718 17.4208
40.7655 17.3643
40.8132 17.2521
40.8607 17.2535
40.9084 17.1959
40.9559 17.1425
41.0036 17.0612
41.0512 17.0038
41.0989 16.9255
41.1465 16.8434
41.1942 16.8589
41.242 16.7119
41.2896 16.665
41.3373 16.6735
41.3849 16.6418
41.4327 16.5497
41.4803 16.437
41.5281 16.465
41.5758 16.3655
41.6236 16.2696
41.6712 16.234
41.7191 16.1838
41.7667 16.1104
41.8146 16.1269
41.8622 16.0364
41.9101 16.0151
41.9578 15.9254
42.0057 15.8749
42.0534 15.8225
42.1013 15.8275
42.149 15.7445
42.1969 15.6794
42.2446 15.5948
42.2925 15.538
42.3403 15.5794
42.3882 15.5271
42.436 15.433
42.4839 15.3715
42.5319 15.3426
42.5797 15.2563
42.6277 15.1895
42.6755 15.2079
42.7235 15.1026
42.7713 15.0934
42.8193 15.0335
42.8671 14.9476
42.9152 14.9082
42.963 14.8804
43.0111 14.7926
43.0589 14.7049
43.107 14.6846
43.1549 14.668
43.2029 14.6014
43.2508 14.5649
43.2989 14.4753
43.3468 14.4479
43.3949 14.3935
43.4429 14.3528
43.491 14.2329
43.5389 14.2426
43.5871 14.183
43.635 14.1593
43.6832 14.1139
43.7312 14.094
43.7793 13.9929
43.8273 13.9862
43.8755 13.923
43.9237 13.8521
43.9717 13.8373
44.0199 13.7966
44.068 13.7144
44.1162 13.6553
44.1642 13.6484
44.2125 13.6334
44.2606 13.5769
44.3088 13.448
44.3569 13.4416
44.4052 13.3672
44.4533 13.3025
44.5016 13.2805
44.5497 13.2504
44.598 13.2335
44.6461 13.1521
44.6945 13.141
44.7426 13.0686
44.791 12.9877
44.8391 12.9634
44.8875 12.9646
44.9357 12.8625
44.984 12.8399
45.0322 12.8036
45.0806 12.7788
45.1288 12.7264
45.1773 12.6688
45.2257 12.6345
45.2739 12.5523
45.3224 12.49
45.3706 12.4961
45.4191 12.44
45.4673 12.4461
45.5158 12.3572
45.5641 12.3267
45.6126 12.2702
45.6609 12.2306
45.7094 12.1677
45.7577 12.1471
45.8063 12.06
45.8546 12.0319
45.9031 11.9782
45.9515 11.9058
46.0001 11.9248
46.0484 11.8705
46.097 11.8193
46.1454 11.7899
46.194 11.7496
46.2424 11.7175
46.291 11.6253
46.3395 11.6134
46.3881 11.5681
46.4365 11.52
46.4852 11.4953
46.5337 11.4437
46.5823 11.4131
46.631 11.3443
46.6795 11.3441
46.7282 11.2871
46.7767 11.2233
46.8254 11.2189
46.8739 11.1283
46.9226 11.116
46.9712 11.0347
47.0199 11.0159
47.0685 10.9696
47.1173 10.9703
47.1658 10.9179
47.2146 10.8729
47.2632 10.7982
47.312 10.7939
47.3606 10.7428
47.4095 10.7053
47.4581 10.6878
47.5069 10.6258
47.5556 10.582
47.6044 10.5459
47.6531 10.4897
47.702 10.441
47.7507 10.416
47.7996 10.4025
47.8483 10.3344
47.8972 10.3481
47.9461 10.2615
47.9948 10.2436
48.0438 10.2019
48.0925 10.2163
48.1415 10.1555
48.1902 10.0712
48.2392 10.097
48.288 10.0592
48.337 10.0042
48.3858 9.97085
48.4348 9.89842
48.4837 9.89151
48.5327 9.83886
48.5815 9.77592
48.6306 9.7946
48.6795 9.74949
48.7285 9.70614
48.7774 9.65717
48.8265 9.6365
48.8754 9.61004
48.9245 9.56745
48.9734 9.53901
49.0226 9.50278
49.0715 9.46455
49.1206 9.42668
49.1696 9.38337
49.2188 9.35915
49.2679 9.2753
49.3169 9.25737
49.3661 9.24803
49.4151 9.17489
49.4643 9.17474
49.5134 9.16423
49.5626 9.06683
49.6117 9.06581
49.6609 9.0353
49.71 8.95036
49.7592 8.93544
49.8083 8.89758
49.8576 8.91916
49.9067 8.83334
49.956 8.83066
50.0052 8.79652
50.0545 8.7517
50.1036 8.72907
50.153 8.66546
50.2022 8.65706
50.2515 8.60132
50.3007 8.55323
50.3501 8.52408
50.3993 8.50186
50.4487 8.49559
50.498 8.50296
50.5474 8.41202
50.5966 8.37626
50.6461 8.33805
50.6955 8.33099
50.7448 8.29432
50.7943 8.29005
50.8436 8.27919
50.8931 8.22644
50.9424 8.16668
50.9919 8.12647
51.0413 8.10218
51.0908 8.05491
51.1402 8.01225
51.1897 7.98314
51.2391 7.99509
51.2887 7.93585
51.3381 7.90446
51.3877 7.90873
51.4371 7.8527
51.4867 7.80703
51.5362 7.74754
51.5858 7.73784
51.6353 7.68528
51.6849 7.67314
51.7344 7.68312
51.7841 7.63202
51.8336 7.61359
51.8833 7.54529
51.9328 7.51721
51.9826 7.45759
52.0323 7.46959
52.0818 7.40154
52.1316 7.38166
52.1812 7.35396
52.231 7.31314
52.2806 7.28917
52.3304 7.26139
52.38 7.26932
52.4298 7.21738
52.4794 7.1775
52.5293 7.14238
52.5789 7.16305
52.6288 7.10927
52.6785 7.08128
52.7284 7.07903
52.7781 7.04703
52.828 6.99552
52.8777 6.94566
52.9276 6.89655
52.9774 6.89797
53.0273 6.83612
53.0771 6.85729
53.1271 6.81105
53.1769 6.78019
53.2269 6.76082
53.2767 6.71266
53.3267 6.69321
53.3765 6.65436
53.4266 6.64701
53.4766 6.60071
53.5265 6.51756
53.5765 6.5712
53.6264 6.51805
53.6765 6.51853
53.7264 6.46786
53.7765 6.45953
53.8265 6.41882
53.8766 6.34386
53.9266 6.36467
53.9767 6.33813
54.0267 6.32448
54.0769 6.25207
54.1269 6.22867
54.1771 6.20361
54.2271 6.12322
54.2773 6.06734
54.3274 6.1166
54.3776 6.04853
54.4277 6.02646
54.478 5.9992
54.528 5.96905
54.5783 5.92492
54.6285 5.87414
54.6788 5.83784
54.7289 5.80863
54.7792 5.73363
54.8296 5.73566
54.8798 5.6861
54.9301 5.62784
54.9803 5.62174
55.0307 5.57558
55.0809 5.56167
55.1314 5.50284
55.1816 5.44955
55.232 5.4053
55.2823 5.36907
55.3328 5.31878
55.383 5.25593
55.4335 5.18806
55.4838 5.15459
55.5344 5.12817
55.5847 5.05108
55.6352 5.03497
55.6856 4.98548
55.7361 4.91398