File: XRD/Ni3Fe_FD0619.xy
TT I
1.27165 7.51509
1.31627 6.4015
1.36089 6.50186
1.40551 5.37166
1.45013 6.36506
1.49476 6.2727
1.53938 5.99239
1.584 4.91254
1.62863 5.46845
1.67325 5.3692
1.71787 4.97398
1.7625 4.8973
1.80712 5.93241
1.85174 5.15665
1.89636 5.07567
1.94099 5.36058
1.98562 4.36682
2.03025 4.57397
2.07487 4.71506
2.11949 5.04738
2.16411 5.35896
2.20874 14.2533
2.25338 22.3339
2.298 6.43153
2.34263 5.59417
2.38725 6.37148
2.43188 5.85499
2.4765 6.90636
2.52115 6.68051
2.56577 7.57405
2.6104 7.75641
2.65503 7.56116
2.69965 7.35428
2.7443 8.10988
2.78893 8.15807
2.83356 7.77969
2.87818 8.60557
2.92281 8.63294
2.96744 9.49468
3.01209 10.3877
3.05672 11.1601
3.10135 12.3465
3.14599 12.608
3.19062 14.3074
3.23527 15.191
3.2799 15.9117
3.32454 16.9392
3.36917 17.9613
3.4138 18.8485
3.45844 20.3013
3.50309 20.902
3.54773 21.9005
3.59237 24.5934
3.637 90.8288
3.68164 57.619
3.7263 26.2209
3.77094 25.9528
3.81558 26.8974
3.86022 27.8547
3.90486 29.0161
3.9495 30.3358
3.99416 31.0546
4.0388 32.4871
4.08344 33.5292
4.12809 34.8085
4.17273 37.3384
4.21738 43.7622
4.26204 242.404
4.30669 209.63
4.35133 48.8399
4.39598 44.6903
4.44063 54.1878
4.4853 65.0542
4.52995 50.6307
4.5746 51.4036
4.61925 53.6676
4.6639 55.8407
4.70855 58.6332
4.75322 61.1531
4.79788 64.4265
4.84253 67.6112
4.88719 71.8363
4.93184 75.5535
4.97652 80.5669
5.02118 87.4433
5.06583 94.4512
5.11049 106.629
5.15515 173.239
5.19981 353.921
5.24449 2934.11
5.28916 12621.1
5.33382 3001.59
5.37848 194.857
5.42315 130.967
5.46783 114.798
5.5125 106.862
5.55716 102.69
5.60183 98.8076
5.6465 97.3445
5.69117 95.0869
5.73586 92.8695
5.78053 92.4096
5.8252 91.5702
5.86988 92.543
5.91455 94.6149
5.95924 102.681
6.00392 205.14
6.0486 976.839
6.09328 4331.32
6.13795 3482.81
6.18263 252.733
6.22733 94.6042
6.27201 83.9729
6.3167 101.401
6.36138 80.7531
6.40606 69.4455
6.45075 68.0655
6.49545 66.4841
6.54014 64.3454
6.58483 63.3052
6.62952 63.1458
6.67421 93.8726
6.71892 141.701
6.76361 68.6812
6.8083 58.781
6.853 57.6626
6.89769 57.063
6.94239 57.1934
6.98711 56.1368
7.03181 55.8907
7.07651 55.876
7.12121 55.5881
7.16591 55.6144
7.21063 55.5883
7.25533 70.7452
7.30004 176.346
7.34475 90.1461
7.38945 56.9806
7.43416 54.7562
7.47889 54.8982
7.5236 55.2026
7.56831 55.7706
7.61303 57.5986
7.65774 57.4343
7.70247 56.4114
7.74719 56.4819
7.79191 56.906
7.83663 57.188
7.88135 58.1762
7.92607 58.8548
7.97081 60.4491
8.01553 61.1852
8.06026 62.787
8.10498 64.3935
8.14971 73.6956
8.19446 72.6841
8.23919 70.0876
8.28392 72.0497
8.32865 74.2951
8.37339 78.6943
8.41812 85.4277
8.46288 113.669
8.50761 162.836
8.55235 389.195
8.59709 1189.68
8.64183 2192.05
8.68658 993.205
8.73134 173.762
8.77609 100.4
8.82083 93.2941
8.86558 90.1956
8.91033 90.2577
8.9551 91.882
8.99985 85.9649
9.04461 83.5236
9.08936 83.4643
9.13412 82.8726
9.17888 82.5874
9.22365 83.1792
9.26841 82.3149
9.31318 83.0297
9.35794 83.2411
9.4027 83.716
9.44749 84.2766
9.49226 84.9946
9.53703 85.9229
9.5818 87.4897
9.62657 92.5204
9.67134 98.9792
9.71614 93.9175
9.76091 94.7628
9.80569 97.0256
9.85047 100.419
9.89525 124.151
9.94005 136.038
9.98484 174.696
10.0296 340.208
10.0744 824.111
10.1192 1724.51
10.164 1584.32
10.2088 419.356
10.2536 129.125
10.2984 113.97
10.3432 114.941
10.388 105.605
10.4328 117.533
10.4776 160.244
10.5224 283.096
10.5672 501.52
10.612 494.938
10.6568 205.195
10.7017 97.2517
10.7465 87.0984
10.7913 83.6237
10.8361 81.6912
10.8809 79.2575
10.9257 78.8637
10.9706 79.5234
11.0154 75.2673
11.0602 73.45
11.105 72.4738
11.1499 76.7406
11.1947 83.2867
11.2395 74.7229
11.2844 70.8712
11.3292 67.7163
11.374 66.5433
11.4189 66.146
11.4637 65.2944
11.5086 65.8879
11.5534 68.7594
11.5983 65.9558
11.6431 63.9712
11.688 63.3888
11.7328 63.3111
11.7777 63.2683
11.8225 62.9519
11.8674 62.7326
11.9122 63.092
11.9571 63.3022
12.002 63.859
12.0468 67.7139
12.0917 79.3693
12.1366 103.977
12.1814 154.46
12.2263 201.177
12.2712 167.783
12.3161 98.1249
12.3609 71.0138
12.4058 65.1886
12.4507 64.7375
12.4956 64.7085
12.5405 65.1278
12.5853 65.8852
12.6302 73.48
12.6751 78.536
12.72 70.1476
12.7649 68.078
12.8098 68.9364
12.8547 69.9169
12.8996 71.3347
12.9445 72.5008
12.9894 74.2007
13.0343 76.2865
13.0792 79.2346
13.1242 87.9103
13.1691 111.528
13.214 149.473
13.2589 239.54
13.3038 366.046
13.3487 419.369
13.3937 271.18
13.4386 127.95
13.4835 105.808
13.5285 120.982
13.5734 159.898
13.6183 249.652
13.6633 345.392
13.7082 339.358
13.7531 192.11
13.7981 99.9866
13.843 82.6707
13.888 80.3087
13.9329 77.7431
13.9779 76.3028
14.0228 74.7247
14.0678 73.5677
14.1127 73.1663
14.1577 72.9072
14.2027 72.0941
14.2476 70.6582
14.2926 71.055
14.3376 72.1504
14.3825 70.7104
14.4275 69.1978
14.4725 69.0577
14.5175 69.111
14.5624 69.2156
14.6074 71.47
14.6524 72.159
14.6974 71.0685
14.7424 72.0136
14.7874 78.7381
14.8324 88.9674
14.8774 111.365
14.9224 154.504
14.9674 205.39
15.0124 214.908
15.0574 151.092
15.1024 92.9835
15.1474 73.0673
15.1924 70.923
15.2374 71.6538
15.2824 70.6594
15.3274 68.5676
15.3725 67.1973
15.4175 66.6517
15.4625 66.2194
15.5076 66.6536
15.5526 66.4692
15.5976 66.3167
15.6426 67.1389
15.6877 72.1816
15.7327 79.8647
15.7778 95.4433
15.8228 126.541
15.8679 168.731
15.9129 191.02
15.958 155.572
16.003 98.3921
16.0481 69.0288
16.0931 65.0383
16.1382 63.0836
16.1833 61.1966
16.2283 59.5738
16.2734 58.9728
16.3185 59.0343
16.3636 59.7415
16.4086 58.1556
16.4537 56.6492
16.4988 55.7399
16.5439 55.7857
16.589 55.3536
16.6341 55.2926
16.6792 54.9364
16.7243 55.2361
16.7694 55.2238
16.8145 55.3223
16.8596 55.8131
16.9047 57.1764
16.9498 57.2675
16.9949 56.0224
17.04 56.2234
17.0851 57.3234
17.1302 58.7917
17.1754 62.1724
17.2205 67.3138
17.2656 74.6407
17.3108 82.2331
17.3559 82.6764
17.401 72.8353
17.4462 63.3201
17.4913 59.7298
17.5365 59.3796
17.5815 59.5344
17.6268 59.8863
17.6718 60.752
17.7171 61.234
17.7622 61.7131
17.8074 62.1933
17.8525 64.2944
17.8977 68.5829
17.9428 73.8935
17.9881 82.9779
18.0331 100.381
18.0784 121.462
18.1237 138.205
18.1688 131.093
18.214 105.036
18.2591 87.9881
18.3044 91.0147
18.3495 100.094
18.3948 105.615
18.4399 97.0052
18.4852 78.6413
18.5303 67.0347
18.5756 62.6636
18.6207 61.7229
18.666 60.9316
18.7112 60.0341
18.7565 59.2492
18.8016 58.9045
18.8469 58.3992
18.892 57.8781
18.9374 57.4862
18.9825 57.3441
19.0278 57.33
19.073 57.4136
19.1183 57.7928
19.1635 58.5393
19.2088 59.9422
19.254 62.3639
19.2993 67.1426
19.3447 73.0296
19.3898 76.364
19.4352 72.6796
19.4804 64.18
19.5257 57.3685
19.5709 54.5689
19.6163 54.3107
19.6615 54.0323
19.7068 53.6191
19.752 53.6196
19.7974 53.7239
19.8426 54.853
19.888 55.3874
19.9332 56.4778
19.9786 59.1421
20.0238 62.6783
20.0692 67.1775
20.1144 69.8609
20.1598 68.3171
20.205 64.0733
20.2504 62.6575
20.2957 64.3458
20.3411 66.0076
20.3863 64.3074
20.4318 58.946
20.477 54.2268
20.5224 52.1282
20.5677 51.2172
20.6131 50.6221
20.6586 50.0688
20.7038 49.8293
20.7493 49.3588
20.7945 49.2558
20.84 49.1669
20.8853 49.029
20.9307 48.8601
20.976 48.9423
21.0215 48.8781
21.0668 49.3112
21.1122 49.7569
21.1575 50.329
21.203 51.0872
21.2483 51.5537
21.2938 51.6266
21.3391 50.3346
21.3846 49.2943
21.4299 48.7417
21.4754 48.6947
21.5207 49.0045
21.5662 49.1456
21.6116 49.4397
21.6571 50.2141
21.7024 51.1901
21.7479 52.84
21.7933 55.6603
21.8388 59.4014
21.8843 62.7172
21.9297 64.7382
21.9752 63.6119
22.0206 60.0826
22.0661 57.0013
22.1115 56.4698
22.157 55.9634
22.2024 54.4034
22.248 51.9603
22.2933 50.2554
22.3389 49.3806
22.3843 49.3574
22.4299 49.2899
22.4753 49.2255
22.5208 48.9178
22.5662 48.7833
22.6118 48.7966
22.6572 49.0956
22.7028 49.4127
22.7483 50.0607
22.7939 50.8214
22.8393 52.3513
22.8849 54.3301
22.9303 56.3654
22.9759 57.8761
23.0214 57.6156
23.067 54.9175
23.1126 51.6692
23.1581 49.5787
23.2037 49.0471
23.2492 49.2274
23.2948 49.2052
23.3403 49.4933
23.3859 49.933
23.4314 51.1949
23.477 53.0351
23.5225 55.1156
23.5682 56.977
23.6137 57.9332
23.6593 55.7621
23.7048 52.0942
23.7505 48.6939
23.796 47.0114
23.8417 46.2039
23.8872 45.7917
23.9329 45.5091
23.9784 45.037
24.0241 45.0725
24.0697 44.6672
24.1154 44.3588
24.1609 44.2844
24.2066 44.2029
24.2522 43.8371
24.2979 43.7522
24.3434 43.6473
24.3892 43.487
24.4349 43.3433
24.4805 43.1354
24.5262 43.4286
24.5718 43.1521
24.6175 43.1097
24.6631 43.1115
24.7089 42.772
24.7545 42.7976
24.8002 42.5095
24.8458 42.531
24.8916 42.2416
24.9372 42.4514
24.983 42.7884
25.0286 43.036
25.0744 43.4846
25.12 44.0372
25.1658 44.5607
25.2114 44.8242
25.2572 45.105
25.3029 45.0542
25.3487 45.2012
25.3943 44.7861
25.4402 43.6898
25.4858 42.6432
25.5316 41.6386
25.5773 41.0781
25.6231 41.2249
25.669 40.8045
25.7147 40.8409
25.7605 40.5956
25.8062 40.7798
25.8521 40.9566
25.8977 40.7154
25.9436 41.0865
25.9893 41.2295
26.0352 41.6675
26.0809 41.6219
26.1268 41.8392
26.1725 41.5711
26.2184 41.1242
26.2641 40.4921
26.31 40.3499
26.3557 40.3564
26.4017 40.36
26.4474 40.6255
26.4933 40.8422
26.5391 41.5419
26.585 41.8163
26.6308 42.2028
26.6767 42.335
26.7225 42.0871
26.7684 41.6744
26.8142 41.1573
26.8601 40.6616
26.9059 40.2824
26.9519 39.7317
26.9979 39.5036
27.0437 39.1487
27.0896 38.8478
27.1354 38.9449
27.1814 38.8291
27.2272 38.7202
27.2732 38.9171
27.3191 38.5649
27.3651 38.6805
27.4109 38.7051
27.4569 38.8922
27.5027 38.7855
27.5488 38.8318
27.5946 38.6125
27.6407 38.3578
27.6865 38.1932
27.7326 38.1176
27.7784 38.2026
27.8245 37.9586
27.8703 38.2183
27.9164 38.3495
27.9623 38.5525
28.0084 38.9278
28.0543 39.2506
28.1003 39.1273
28.1462 39.0818
28.1923 38.7313
28.2384 38.1751
28.2843 37.8305
28.3304 37.2973
28.3764 36.9036
28.4225 36.5953
28.4684 36.4653
28.5145 36.2757
28.5605 35.9714
28.6066 35.911
28.6526 35.8204
28.6987 35.8159
28.7447 35.7216
28.7908 35.5801
28.8368 35.6658
28.8829 35.5719
28.9289 35.487
28.9751 35.311
29.0211 35.1918
29.0673 34.848
29.1133 34.6211
29.1595 34.6627
29.2055 34.5574
29.2517 34.5324
29.2977 34.4339
29.3439 34.5408
29.3899 34.4789
29.4361 34.366
29.4824 34.2379
29.5284 34.0115
29.5746 33.6197
29.6207 33.2513
29.6669 33.4096
29.713 33.2909
29.7593 33.1338
29.8053 33.0971
29.8516 32.9522
29.8977 32.9852
29.9439 32.8258
29.99 32.7435
30.0363 32.677
30.0824 32.6796
30.1287 32.5807
30.1748 32.5896
30.2211 32.6858
30.2673 32.4755
30.3136 32.5418
30.3597 32.3756
30.406 32.3273
30.4522 32.2383
30.4985 32.1669
30.5447 32.3301
30.591 32.2972
30.6372 32.3629
30.6835 32.2748
30.7297 32.4448
30.7761 32.3582
30.8224 32.1727
30.8686 31.9188
30.915 31.7522
30.9612 31.6546
31.0076 31.472
31.0538 31.2746
31.1002 31.2276
31.1464 31.0779
31.1928 31.114
31.2391 31.1717
31.2855 30.9901
31.3317 30.9809
31.3781 31.1487
31.4244 31.0148
31.4708 30.9217
31.5171 30.9784
31.5636 30.965
31.6098 30.7477
31.6563 30.5583
31.7026 30.4145
31.7491 30.3135
31.7953 30.3742
31.8418 30.3094
31.8881 30.2455
31.9346 30.2144
31.9809 30.1916
32.0275 30.1258
32.074 29.9498
32.1203 29.7366
32.1668 29.6416
32.2132 29.5158
32.2597 29.4062
32.306 29.3702
32.3526 29.1446
32.399 29.0522
32.4455 28.8881
32.4919 28.8188
32.5385 28.762
32.5848 28.6549
32.6314 28.6555
32.6778 28.5787
32.7244 28.4879
32.7708 28.285
32.8174 28.3259
32.8638 28.1687
32.9104 28.1942
32.9569 28.1021
33.0035 28.0156
33.0499 27.9907
33.0966 27.9382
33.143 27.9828
33.1897 27.8124
33.2361 27.7342
33.2828 27.8111
33.3293 27.5826
33.3759 27.5851
33.4226 27.4091
33.4691 27.2757
33.5158 27.2127
33.5623 27.1024
33.609 26.8908
33.6555 26.8844
33.7022 26.6985
33.7487 26.6879
33.7954 26.7143
33.842 26.502
33.8887 26.4607
33.9353 26.4301
33.982 26.2526
34.0286 26.2087
34.0753 26.072
34.1219 26.144
34.1687 25.9993
34.2152 25.9763
34.262 25.8517
34.3086 25.6484
34.3554 25.7365
34.402 25.5856
34.4488 25.4157
34.4954 25.3681
34.5422 25.3198
34.5889 25.2889
34.6357 25.1334
34.6825 25.0602
34.7292 24.994
34.776 24.8405
34.8227 24.8536
34.8695 24.7684
34.9162 24.7186
34.9631 24.5918
35.0098 24.5996
35.0566 24.5039
35.1033 24.3757
35.1502 24.3695
35.1969 24.3993
35.2438 24.2261
35.2906 24.2078
35.3375 24.1093
35.3842 24.1459
35.4311 24.1179
35.4779 24.064
35.5248 24.0659
35.5716 23.8574
35.6185 23.9225
35.6653 23.7408
35.7123 23.7577
35.759 23.6361
35.806 23.602
35.8528 23.385
35.8998 23.3401
35.9468 23.2512
35.9936 23.1959
36.0406 23.0797
36.0874 23.0923
36.1345 22.9802
36.1813 22.9725
36.2283 22.8433
36.2752 22.8077
36.3222 22.8098
36.3691 22.6823
36.4161 22.5964
36.463 22.6313
36.5101 22.5636
36.557 22.5235
36.6041 22.3456
36.651 22.321
36.6981 22.2404
36.745 22.1644
36.7921 22.0865
36.839 21.9655
36.8861 21.9533
36.9331 21.8568
36.9802 21.7649
37.0272 21.7712
37.0743 21.5959
37.1213 21.5475
37.1684 21.5091
37.2154 21.4025
37.2626 21.3492
37.3098 21.3971
37.3568 21.2887
37.404 21.2054
37.451 21.1004
37.4982 21.0617
37.5452 20.9523
37.5924 20.9389
37.6395 20.9259
37.6867 20.8194
37.7337 20.6776
37.781 20.6566
37.8281 20.579
37.8753 20.4749
37.9224 20.4053
37.9697 20.4359
38.0168 20.3472
38.064 20.25
38.1111 20.2848
38.1584 20.1299
38.2056 20.0392
38.2529 20.0097
38.3 20.0472
38.3473 19.9235
38.3945 19.7498
38.4418 19.7612
38.489 19.6928
38.5363 19.6169
38.5837 19.53
38.6309 19.5488
38.6782 19.4474
38.7254 19.3822
38.7728 19.327
38.82 19.2309
38.8674 19.1703
38.9146 19.165
38.9621 19.1019
39.0093 19.0314
39.0567 18.9636
39.104 18.9396
39.1514 18.8704
39.1987 18.7406
39.2461 18.7707
39.2934 18.6887
39.3409 18.5646
39.3882 18.4744
39.4356 18.4777
39.483 18.4411
39.5304 18.3215
39.5778 18.3184
39.6253 18.2869
39.6726 18.1921
39.7201 18.1713
39.7675 18.1205
39.815 18.0523
39.8624 17.9388
39.9099 17.9191
39.9575 17.8815
40.0049 17.7898
40.0525 17.6833
40.0999 17.6474
40.1474 17.6428
40.1949 17.5704
40.2425 17.4841
40.2899 17.4192
40.3375 17.4154
40.385 17.3661
40.4326 17.3443
40.48 17.2076
40.5277 17.2442
40.5752 17.1429
40.6228 17.0584
40.6703 17.0015
40.718 16.9541
40.7655 16.9165
40.8132 16.8117
40.8607 16.8347
40.9084 16.7524
40.9559 16.7132
41.0036 16.678
41.0512 16.6061
41.0989 16.5755
41.1465 16.4678
41.1942 16.4305
41.242 16.3439
41.2896 16.2832
41.3373 16.2371
41.3849 16.2097
41.4327 16.1556
41.4803 16.0688
41.5281 16.0416
41.5758 15.979
41.6236 15.9155
41.6712 15.8976
41.7191 15.8576
41.7667 15.8087
41.8146 15.752
41.8622 15.6929
41.9101 15.6339
41.9578 15.5176
42.0057 15.4977
42.0534 15.4652
42.1013 15.4521
42.149 15.3425
42.1969 15.2947
42.2446 15.2589
42.2925 15.2231
42.3403 15.1748
42.3882 15.0552
42.436 15.0856
42.4839 14.9874
42.5319 14.9719
42.5797 14.9158
42.6277 14.8418
42.6755 14.8203
42.7235 14.7709
42.7713 14.7473
42.8193 14.6593
42.8671 14.5506
42.9152 14.5373
42.963 14.574
43.0111 14.4648
43.0589 14.3973
43.107 14.3363
43.1549 14.3216
43.2029 14.2488
43.2508 14.2833
43.2989 14.1558
43.3468 14.1151
43.3949 14.1129
43.4429 14.0243
43.491 13.9867
43.5389 13.925
43.5871 13.8544
43.635 13.7959
43.6832 13.7971
43.7312 13.7052
43.7793 13.6555
43.8273 13.6508
43.8755 13.574
43.9237 13.4642
43.9717 13.4916
44.0199 13.4343
44.068 13.4422
44.1162 13.3365
44.1642 13.3695
44.2125 13.3014
44.2606 13.2368
44.3088 13.1694
44.3569 13.1102
44.4052 13.0898
44.4533 13.0149
44.5016 12.9579
44.5497 12.9793
44.598 12.9157
44.6461 12.8574
44.6945 12.8255
44.7426 12.8104
44.791 12.7344
44.8391 12.6963
44.8875 12.6146
44.9357 12.6065
44.984 12.5198
45.0322 12.5254
45.0806 12.4307
45.1288 12.4428
45.1773 12.3461
45.2257 12.2923
45.2739 12.2491
45.3224 12.2508
45.3706 12.1751
45.4191 12.1199
45.4673 12.0969
45.5158 12.0807
45.5641 12.0257
45.6126 11.9468
45.6609 11.9144
45.7094 11.8781
45.7577 11.8034
45.8063 11.7761
45.8546 11.8022
45.9031 11.759
45.9515 11.6887
46.0001 11.6505
46.0484 11.6018
46.097 11.5562
46.1454 11.4888
46.194 11.4997
46.2424 11.436
46.291 11.4175
46.3395 11.355
46.3881 11.2387
46.4365 11.322
46.4852 11.1917
46.5337 11.1864
46.5823 11.1598
46.631 11.075
46.6795 11.0426
46.7282 11.0401
46.7767 10.972
46.8254 10.9242
46.8739 10.8858
46.9226 10.8577
46.9712 10.8307
47.0199 10.7576
47.0685 10.7689
47.1173 10.6805
47.1658 10.6542
47.2146 10.6429
47.2632 10.5501
47.312 10.582
47.3606 10.4936
47.4095 10.467
47.4581 10.4267
47.5069 10.3655
47.5556 10.3458
47.6044 10.2946
47.6531 10.2921
47.702 10.1824
47.7507 10.1805
47.7996 10.119
47.8483 10.1493
47.8972 10.1148
47.9461 10.024
47.9948 9.98664
48.0438 9.94576
48.0925 9.92511
48.1415 9.89067
48.1902 9.84545
48.2392 9.87104
48.288 9.80954
48.337 9.77261
48.3858 9.72532
48.4348 9.70047
48.4837 9.67188
48.5327 9.62297
48.5815 9.58027
48.6306 9.53558
48.6795 9.51894
48.7285 9.45884
48.7774 9.43851
48.8265 9.45741
48.8754 9.34036
48.9245 9.35831
48.9734 9.29086
49.0226 9.25529
49.0715 9.24444
49.1206 9.21975
49.1696 9.17488
49.2188 9.17288
49.2679 9.09941
49.3169 9.04305
49.3661 9.03558
49.4151 8.95165
49.4643 8.96076
49.5134 8.93129
49.5626 8.82358
49.6117 8.86751
49.6609 8.83949
49.71 8.74593
49.7592 8.73186
49.8083 8.68157
49.8576 8.71331
49.9067 8.64428
49.956 8.62528
50.0052 8.60175
50.0545 8.60725
50.1036 8.52594
50.153 8.46254
50.2022 8.45261
50.2515 8.43301
50.3007 8.36292
50.3501 8.33195
50.3993 8.35058
50.4487 8.26691
50.498 8.25919
50.5474 8.213
50.5966 8.19568
50.6461 8.15873
50.6955 8.11506
50.7448 8.13778
50.7943 8.05304
50.8436 8.04948
50.8931 7.99162
50.9424 7.97554
50.9919 7.92444
51.0413 7.88465
51.0908 7.90112
51.1402 7.83627
51.1897 7.83133
51.2391 7.79064
51.2887 7.74622
51.3381 7.67259
51.3877 7.7119
51.4371 7.64664
51.4867 7.62037
51.5362 7.6107
51.5858 7.5725
51.6353 7.50762
51.6849 7.4744
51.7344 7.48468
51.7841 7.4334
51.8336 7.3975
51.8833 7.37815
51.9328 7.31789
51.9826 7.31304
52.0323 7.28851
52.0818 7.26704
52.1316 7.21868
52.1812 7.22563
52.231 7.15751
52.2806 7.09976
52.3304 7.12013
52.38 7.06102
52.4298 7.03291
52.4794 7.05243
52.5293 7.00722
52.5789 6.92537
52.6288 6.96763
52.6785 6.9017
52.7284 6.89532
52.7781 6.86543
52.828 6.83443
52.8777 6.77279
52.9276 6.74933
52.9774 6.74359
53.0273 6.71567
53.0771 6.71406
53.1271 6.65137
53.1769 6.6059
53.2269 6.64577
53.2767 6.54273
53.3267 6.52098
53.3765 6.50768
53.4266 6.49196
53.4766 6.43188
53.5265 6.42983
53.5765 6.40276
53.6264 6.40509
53.6765 6.33048
53.7264 6.31197
53.7765 6.29994
53.8265 6.23756
53.8766 6.23869
53.9266 6.17191
53.9767 6.20035
54.0267 6.15938
54.0769 6.12111
54.1269 6.08517
54.1771 6.07041
54.2271 6.04824
54.2773 6.00568
54.3274 5.99425
54.3776 5.94177
54.4277 5.88382
54.478 5.88907
54.528 5.83723
54.5783 5.80808
54.6285 5.73187
54.6788 5.72683
54.7289 5.71146
54.7792 5.64675
54.8296 5.55248
54.8798 5.54895
54.9301 5.50345
54.9803 5.49983
55.0307 5.47118
55.0809 5.38592
55.1314 5.38596
55.1816 5.34165
55.232 5.32076
55.2823 5.26977
55.3328 5.15943
55.383 5.16201
55.4335 5.13234
55.4838 5.04247
55.5344 4.98125
55.5847 4.9528
55.6352 4.90411
55.6856 4.89694
55.7361 4.83739