File: XRD/Ni3Fe_FD0499.xy
TT I
1.27165 7.52812
1.31627 7.12431
1.36089 7.27156
1.40551 6.77538
1.45013 6.28457
1.49476 5.84979
1.53938 5.80087
1.584 4.79877
1.62863 5.23083
1.67325 5.78522
1.71787 5.46774
1.7625 5.38894
1.80712 5.12253
1.85174 5.09085
1.89636 4.4506
1.94099 4.56667
1.98562 4.44194
2.03025 4.96535
2.07487 4.55897
2.11949 5.13749
2.16411 5.14455
2.20874 14.3143
2.25338 20.9591
2.298 5.94247
2.34263 4.81706
2.38725 5.72451
2.43188 6.04469
2.4765 6.91723
2.52115 6.71168
2.56577 6.60727
2.6104 7.89117
2.65503 7.06481
2.69965 7.07856
2.7443 7.63822
2.78893 7.83817
2.83356 8.16249
2.87818 9.2723
2.92281 8.84971
2.96744 9.47423
3.01209 11.0182
3.05672 11.2597
3.10135 12.227
3.14599 13.0967
3.19062 13.9611
3.23527 15.0865
3.2799 15.4249
3.32454 16.6821
3.36917 17.8067
3.4138 19.13
3.45844 20.208
3.50309 21.2132
3.54773 22.0697
3.59237 24.127
3.637 85.9544
3.68164 55.3147
3.7263 26.3875
3.77094 26.3023
3.81558 26.9676
3.86022 27.7407
3.90486 28.9207
3.9495 30.1491
3.99416 31.129
4.0388 32.5748
4.08344 34.0463
4.12809 35.7341
4.17273 37.7068
4.21738 42.9679
4.26204 228.274
4.30669 198.045
4.35133 48.5601
4.39598 45.4159
4.44063 53.9258
4.4853 64.2915
4.52995 51.1977
4.5746 51.8891
4.61925 53.9036
4.6639 56.2765
4.70855 59.075
4.75322 62.0683
4.79788 65.202
4.84253 68.2351
4.88719 72.2729
4.93184 76.0755
4.97652 81.7637
5.02118 88.5963
5.06583 97.0014
5.11049 108.79
5.15515 174.652
5.19981 401.741
5.24449 3075.83
5.28916 11839.7
5.33382 3224.55
5.37848 204.713
5.42315 134.155
5.46783 117.358
5.5125 108.369
5.55716 103.979
5.60183 100.247
5.6465 98.4322
5.69117 95.6654
5.73586 93.9546
5.78053 93.8488
5.8252 93.1705
5.86988 93.7203
5.91455 96.1825
5.95924 105.638
6.00392 226.075
6.0486 1047.61
6.09328 4152.1
6.13795 3457.7
6.18263 289.961
6.22733 97.2409
6.27201 84.8969
6.3167 101.489
6.36138 81.3246
6.40606 70.3667
6.45075 68.5949
6.49545 66.4132
6.54014 64.6197
6.58483 63.9689
6.62952 63.3618
6.67421 92.4485
6.71892 136.509
6.76361 68.6128
6.8083 59.0715
6.853 58.1577
6.89769 57.4419
6.94239 57.4169
6.98711 56.4881
7.03181 56.312
7.07651 56.0057
7.12121 55.6772
7.16591 55.979
7.21063 56.2136
7.25533 69.839
7.30004 165.0
7.34475 88.606
7.38945 57.2638
7.43416 55.2965
7.47889 54.8046
7.5236 55.6836
7.56831 55.908
7.61303 57.7661
7.65774 57.8226
7.70247 57.139
7.74719 56.8285
7.79191 57.7496
7.83663 57.7726
7.88135 58.8712
7.92607 59.4232
7.97081 60.599
8.01553 61.8593
8.06026 63.0201
8.10498 64.8169
8.14971 74.1193
8.19446 72.8843
8.23919 70.3817
8.28392 73.0616
8.32865 74.98
8.37339 79.4525
8.41812 86.3303
8.46288 113.777
8.50761 172.701
8.55235 413.256
8.59709 1191.66
8.64183 2120.12
8.68658 1053.93
8.73134 181.939
8.77609 101.751
8.82083 94.3249
8.86558 90.905
8.91033 90.9372
8.9551 92.4835
8.99985 86.7841
9.04461 84.7737
9.08936 83.9658
9.13412 83.4039
9.17888 83.1232
9.22365 83.7066
9.26841 83.2568
9.31318 84.0569
9.35794 84.0172
9.4027 84.3666
9.44749 85.175
9.49226 85.7207
9.53703 87.2259
9.5818 88.7687
9.62657 92.3788
9.67134 99.0132
9.71614 94.7327
9.76091 95.3233
9.80569 98.1511
9.85047 101.523
9.89525 123.757
9.94005 136.18
9.98484 185.45
10.0296 364.595
10.0744 828.108
10.1192 1655.68
10.164 1654.32
10.2088 449.846
10.2536 135.716
10.2984 114.911
10.3432 115.489
10.388 106.377
10.4328 121.38
10.4776 166.026
10.5224 288.258
10.5672 502.14
10.612 506.093
10.6568 228.286
10.7017 100.097
10.7465 88.2248
10.7913 84.0933
10.8361 82.1272
10.8809 79.7512
10.9257 79.459
10.9706 79.8316
11.0154 75.8388
11.0602 73.8143
11.105 72.7713
11.1499 76.7402
11.1947 82.6623
11.2395 74.4781
11.2844 70.8102
11.3292 68.2421
11.374 66.8217
11.4189 66.3582
11.4637 65.9312
11.5086 66.4642
11.5534 69.0224
11.5983 66.3259
11.6431 64.5727
11.688 63.5895
11.7328 63.5126
11.7777 63.672
11.8225 63.4055
11.8674 62.9852
11.9122 63.5603
11.9571 63.6419
12.002 64.4352
12.0468 69.2073
12.0917 81.2236
12.1366 106.265
12.1814 154.229
12.2263 198.353
12.2712 171.922
12.3161 103.632
12.3609 71.6437
12.4058 65.8445
12.4507 65.4539
12.4956 65.3023
12.5405 65.3267
12.5853 66.3375
12.6302 73.2956
12.6751 78.6743
12.72 70.2466
12.7649 68.5805
12.8098 69.294
12.8547 70.6419
12.8996 72.06
12.9445 73.4569
12.9894 74.9896
13.0343 76.7289
13.0792 80.1654
13.1242 89.9759
13.1691 115.238
13.214 153.358
13.2589 240.572
13.3038 358.416
13.3487 417.455
13.3937 280.05
13.4386 132.334
13.4835 108.558
13.5285 124.405
13.5734 162.936
13.6183 246.439
13.6633 332.539
13.7082 339.366
13.7531 200.829
13.7981 103.001
13.843 83.4703
13.888 80.718
13.9329 78.1935
13.9779 77.0952
14.0228 75.4151
14.0678 73.9264
14.1127 73.562
14.1577 73.4609
14.2027 72.3854
14.2476 71.5714
14.2926 71.4275
14.3376 72.4902
14.3825 71.2891
14.4275 69.8182
14.4725 69.7334
14.5175 69.8304
14.5624 70.0131
14.6074 71.8982
14.6524 72.6945
14.6974 71.4697
14.7424 73.158
14.7874 80.3165
14.8324 91.2226
14.8774 113.224
14.9224 153.876
14.9674 200.818
15.0124 214.136
15.0574 157.66
15.1024 96.1887
15.1474 73.8624
15.1924 71.5127
15.2374 71.8692
15.2824 71.205
15.3274 69.0279
15.3725 67.7496
15.4175 67.219
15.4625 66.7662
15.5076 67.3545
15.5526 67.174
15.5976 66.8282
15.6426 67.911
15.6877 73.4357
15.7327 81.7325
15.7778 97.3408
15.8228 127.854
15.8679 167.346
15.9129 189.219
15.958 160.769
16.003 102.983
16.0481 70.4025
16.0931 65.5247
16.1382 63.4853
16.1833 61.5256
16.2283 59.8898
16.2734 59.4753
16.3185 59.5067
16.3636 60.0893
16.4086 58.3175
16.4537 57.0435
16.4988 56.2234
16.5439 56.4164
16.589 56.0514
16.6341 55.4452
16.6792 55.4393
16.7243 55.6259
16.7694 55.7932
16.8145 55.6073
16.8596 55.9976
16.9047 57.5482
16.9498 57.4385
16.9949 56.3183
17.04 56.4709
17.0851 57.7464
17.1302 59.7996
17.1754 62.681
17.2205 67.5617
17.2656 74.7385
17.3108 81.3226
17.3559 82.2657
17.401 72.8218
17.4462 63.644
17.4913 60.0744
17.5365 59.9982
17.5815 60.1227
17.6268 60.3755
17.6718 61.1292
17.7171 61.7192
17.7622 62.1525
17.8074 62.7557
17.8525 65.3182
17.8977 69.7438
17.9428 75.2857
17.9881 84.1922
18.0331 100.886
18.0784 120.527
18.1237 136.897
18.1688 132.9
18.214 107.41
18.2591 89.4663
18.3044 91.5206
18.3495 99.7221
18.3948 105.264
18.4399 98.5016
18.4852 80.7383
18.5303 67.6682
18.5756 63.2169
18.6207 62.1167
18.666 61.2282
18.7112 60.6878
18.7565 59.7569
18.8016 59.3752
18.8469 58.7741
18.892 58.411
18.9374 58.0396
18.9825 57.8322
19.0278 57.4963
19.073 57.8903
19.1183 58.376
19.1635 59.2111
19.2088 60.5854
19.254 63.2031
19.2993 67.5635
19.3447 72.7351
19.3898 76.2494
19.4352 73.3357
19.4804 64.932
19.5257 58.063
19.5709 55.2077
19.6163 54.7315
19.6615 54.3583
19.7068 54.0488
19.752 54.0576
19.7974 54.3424
19.8426 55.0977
19.888 55.9917
19.9332 57.1438
19.9786 59.51
20.0238 63.0582
20.0692 67.3366
20.1144 69.9015
20.1598 69.2924
20.205 65.211
20.2504 63.0643
20.2957 64.289
20.3411 65.7061
20.3863 64.9036
20.4318 59.9238
20.477 55.111
20.5224 52.5402
20.5677 51.7096
20.6131 51.0277
20.6586 50.4602
20.7038 50.1628
20.7493 49.8844
20.7945 49.6343
20.84 49.4732
20.8853 49.4915
20.9307 49.328
20.976 49.4307
21.0215 49.3223
21.0668 49.7835
21.1122 50.1014
21.1575 50.7806
21.203 51.4627
21.2483 51.8599
21.2938 52.2097
21.3391 50.9814
21.3846 49.8382
21.4299 49.2343
21.4754 49.236
21.5207 49.2194
21.5662 49.6067
21.6116 49.9054
21.6571 50.6744
21.7024 51.6615
21.7479 53.5707
21.7933 56.0437
21.8388 59.5958
21.8843 62.67
21.9297 64.7405
21.9752 64.29
22.0206 61.0282
22.0661 57.7205
22.1115 56.5288
22.157 56.5313
22.2024 55.285
22.248 52.4829
22.2933 50.8141
22.3389 49.7572
22.3843 49.7959
22.4299 49.7265
22.4753 49.5911
22.5208 49.1784
22.5662 49.1983
22.6118 49.4331
22.6572 49.6432
22.7028 50.0574
22.7483 50.458
22.7939 51.244
22.8393 52.6236
22.8849 54.8379
22.9303 56.3442
22.9759 58.1152
23.0214 57.9407
23.067 55.6666
23.1126 52.2481
23.1581 50.1548
23.2037 49.5329
23.2492 49.6253
23.2948 49.6047
23.3403 49.8808
23.3859 50.6044
23.4314 51.61
23.477 53.1847
23.5225 55.354
23.5682 56.9343
23.6137 58.1829
23.6593 56.3233
23.7048 52.8816
23.7505 49.3733
23.796 47.4397
23.8417 46.8289
23.8872 46.2095
23.9329 45.931
23.9784 45.5099
24.0241 45.322
24.0697 45.0532
24.1154 44.9173
24.1609 44.6721
24.2066 44.5859
24.2522 44.3382
24.2979 44.0526
24.3434 44.0024
24.3892 43.7371
24.4349 43.8073
24.4805 43.5648
24.5262 43.6836
24.5718 43.534
24.6175 43.5464
24.6631 43.3556
24.7089 43.2965
24.7545 43.0583
24.8002 42.9564
24.8458 42.8793
24.8916 42.6529
24.9372 42.7433
24.983 43.199
25.0286 43.3793
25.0744 43.9421
25.12 44.3208
25.1658 45.0492
25.2114 45.1266
25.2572 45.4027
25.3029 45.4434
25.3487 45.2737
25.3943 45.1964
25.4402 44.2628
25.4858 43.3738
25.5316 42.1867
25.5773 41.5796
25.6231 41.6171
25.669 41.0799
25.7147 41.0265
25.7605 41.1016
25.8062 41.2498
25.8521 41.2258
25.8977 41.1455
25.9436 41.4059
25.9893 41.6623
26.0352 42.0991
26.0809 41.9918
26.1268 42.1959
26.1725 41.876
26.2184 41.4518
26.2641 41.0533
26.31 40.7807
26.3557 40.6924
26.4017 40.6376
26.4474 41.0759
26.4933 41.2066
26.5391 41.7716
26.585 42.2552
26.6308 42.5841
26.6767 42.6187
26.7225 42.6739
26.7684 41.9373
26.8142 41.3994
26.8601 41.081
26.9059 40.6559
26.9519 40.1044
26.9979 39.8834
27.0437 39.4477
27.0896 39.3566
27.1354 39.2712
27.1814 39.2365
27.2272 39.0882
27.2732 39.1971
27.3191 38.8221
27.3651 39.0339
27.4109 38.8364
27.4569 39.0945
27.5027 39.1402
27.5488 39.033
27.5946 38.9463
27.6407 38.7634
27.6865 38.7153
27.7326 38.2689
27.7784 38.468
27.8245 38.2555
27.8703 38.4491
27.9164 38.7714
27.9623 38.9379
28.0084 39.2007
28.0543 39.5681
28.1003 39.5056
28.1462 39.3997
28.1923 39.0363
28.2384 38.4905
28.2843 38.2495
28.3304 37.6913
28.3764 37.3468
28.4225 36.9507
28.4684 36.7862
28.5145 36.4239
28.5605 36.4464
28.6066 36.2465
28.6526 36.2024
28.6987 36.119
28.7447 36.0974
28.7908 35.9351
28.8368 35.9146
28.8829 35.8535
28.9289 35.9467
28.9751 35.6103
29.0211 35.5961
29.0673 35.1739
29.1133 35.1229
29.1595 34.954
29.2055 34.8238
29.2517 34.928
29.2977 34.7923
29.3439 34.7598
29.3899 34.6426
29.4361 34.7035
29.4824 34.4126
29.5284 34.3401
29.5746 33.9958
29.6207 33.6669
29.6669 33.5551
29.713 33.5097
29.7593 33.3795
29.8053 33.3108
29.8516 33.2262
29.8977 33.2742
29.9439 33.2102
29.99 32.985
30.0363 33.0343
30.0824 32.9706
30.1287 32.897
30.1748 32.9662
30.2211 32.7608
30.2673 32.7374
30.3136 32.8338
30.3597 32.842
30.406 32.705
30.4522 32.5576
30.4985 32.5371
30.5447 32.6364
30.591 32.6225
30.6372 32.5903
30.6835 32.6265
30.7297 32.6482
30.7761 32.6529
30.8224 32.5176
30.8686 32.3452
30.915 32.1959
30.9612 31.9167
31.0076 31.8046
31.0538 31.6011
31.1002 31.5941
31.1464 31.4558
31.1928 31.3701
31.2391 31.3921
31.2855 31.3118
31.3317 31.2571
31.3781 31.4754
31.4244 31.3659
31.4708 31.2801
31.5171 31.1913
31.5636 31.2565
31.6098 30.9332
31.6563 30.7443
31.7026 30.7991
31.7491 30.5582
31.7953 30.5915
31.8418 30.5588
31.8881 30.5974
31.9346 30.4989
31.9809 30.3855
32.0275 30.4465
32.074 30.3372
32.1203 30.0826
32.1668 30.0307
32.2132 29.8467
32.2597 29.7038
32.306 29.5448
32.3526 29.3716
32.399 29.3901
32.4455 29.2834
32.4919 29.0949
32.5385 29.0215
32.5848 28.8636
32.6314 28.8364
32.6778 28.8288
32.7244 28.7158
32.7708 28.5716
32.8174 28.6297
32.8638 28.4756
32.9104 28.5116
32.9569 28.4547
33.0035 28.2675
33.0499 28.2315
33.0966 28.2426
33.143 28.2694
33.1897 28.0484
33.2361 28.0519
33.2828 28.0252
33.3293 27.8484
33.3759 27.8216
33.4226 27.7013
33.4691 27.5172
33.5158 27.4466
33.5623 27.2451
33.609 27.1689
33.6555 27.1053
33.7022 26.9647
33.7487 26.8873
33.7954 26.9277
33.842 26.843
33.8887 26.6818
33.9353 26.6542
33.982 26.5368
34.0286 26.4611
34.0753 26.3521
34.1219 26.2768
34.1687 26.2036
34.2152 26.1359
34.262 25.939
34.3086 25.9567
34.3554 25.9757
34.402 25.694
34.4488 25.6716
34.4954 25.6978
34.5422 25.4712
34.5889 25.4378
34.6357 25.3073
34.6825 25.2456
34.7292 25.1363
34.776 25.1021
34.8227 25.0627
34.8695 24.9978
34.9162 24.964
34.9631 24.8104
35.0098 24.8187
35.0566 24.6663
35.1033 24.6747
35.1502 24.607
35.1969 24.544
35.2438 24.5667
35.2906 24.4241
35.3375 24.417
35.3842 24.3861
35.4311 24.2472
35.4779 24.3623
35.5248 24.1987
35.5716 24.0981
35.6185 24.044
35.6653 23.9763
35.7123 23.8812
35.759 23.8031
35.806 23.8071
35.8528 23.5606
35.8998 23.5049
35.9468 23.4566
35.9936 23.4266
36.0406 23.3736
36.0874 23.2293
36.1345 23.3141
36.1813 23.0822
36.2283 23.0416
36.2752 22.9638
36.3222 23.0
36.3691 22.9177
36.4161 22.7339
36.463 22.7448
36.5101 22.6886
36.557 22.6614
36.6041 22.495
36.651 22.4383
36.6981 22.4585
36.745 22.4196
36.7921 22.2429
36.839 22.1969
36.8861 22.1377
36.9331 22.0631
36.9802 21.9535
37.0272 21.8929
37.0743 21.7825
37.1213 21.7579
37.1684 21.6826
37.2154 21.6126
37.2626 21.5126
37.3098 21.494
37.3568 21.456
37.404 21.434
37.451 21.3531
37.4982 21.2458
37.5452 21.1578
37.5924 21.1955
37.6395 21.1253
37.6867 21.0294
37.7337 20.9156
37.781 20.848
37.8281 20.7756
37.8753 20.6308
37.9224 20.6269
37.9697 20.5667
38.0168 20.4677
38.064 20.428
38.1111 20.421
38.1584 20.3062
38.2056 20.2288
38.2529 20.2541
38.3 20.0173
38.3473 20.1402
38.3945 19.9916
38.4418 19.9261
38.489 19.9312
38.5363 19.7201
38.5837 19.6671
38.6309 19.7265
38.6782 19.5962
38.7254 19.5566
38.7728 19.4857
38.82 19.4615
38.8674 19.395
38.9146 19.3159
38.9621 19.2296
39.0093 19.1808
39.0567 19.149
39.104 19.0628
39.1514 18.9435
39.1987 18.9658
39.2461 18.9261
39.2934 18.8366
39.3409 18.7574
39.3882 18.6984
39.4356 18.6594
39.483 18.6059
39.5304 18.5
39.5778 18.5412
39.6253 18.4192
39.6726 18.3256
39.7201 18.327
39.7675 18.2104
39.815 18.2188
39.8624 18.0876
39.9099 18.0902
39.9575 18.0019
40.0049 17.9485
40.0525 17.8946
40.0999 17.8857
40.1474 17.8223
40.1949 17.7118
40.2425 17.6269
40.2899 17.5982
40.3375 17.5762
40.385 17.4914
40.4326 17.4176
40.48 17.3612
40.5277 17.3552
40.5752 17.2925
40.6228 17.2255
40.6703 17.1759
40.718 17.1228
40.7655 17.1014
40.8132 16.992
40.8607 17.0375
40.9084 16.9167
40.9559 16.8242
41.0036 16.7913
41.0512 16.7222
41.0989 16.668
41.1465 16.5854
41.1942 16.5021
41.242 16.4909
41.2896 16.4632
41.3373 16.3718
41.3849 16.3045
41.4327 16.2789
41.4803 16.2246
41.5281 16.2349
41.5758 16.0551
41.6236 16.0447
41.6712 16.0329
41.7191 15.9473
41.7667 15.9041
41.8146 15.8306
41.8622 15.779
41.9101 15.789
41.9578 15.6175
42.0057 15.6294
42.0534 15.5924
42.1013 15.5407
42.149 15.4486
42.1969 15.4269
42.2446 15.355
42.2925 15.3246
42.3403 15.2537
42.3882 15.2269
42.436 15.1888
42.4839 15.1032
42.5319 15.0915
42.5797 15.0516
42.6277 14.9488
42.6755 14.9854
42.7235 14.9026
42.7713 14.85
42.8193 14.7146
42.8671 14.7323
42.9152 14.7109
42.963 14.5987
43.0111 14.543
43.0589 14.4552
43.107 14.4471
43.1549 14.4717
43.2029 14.3621
43.2508 14.353
43.2989 14.3009
43.3468 14.1936
43.3949 14.1257
43.4429 14.143
43.491 14.0285
43.5389 14.0703
43.5871 14.0152
43.635 13.8976
43.6832 13.8724
43.7312 13.8263
43.7793 13.7867
43.8273 13.7396
43.8755 13.6901
43.9237 13.6206
43.9717 13.6032
44.0199 13.5609
44.068 13.5176
44.1162 13.4524
44.1642 13.4036
44.2125 13.4056
44.2606 13.3376
44.3088 13.2578
44.3569 13.1987
44.4052 13.1767
44.4533 13.083
44.5016 13.0253
44.5497 13.0413
44.598 13.0127
44.6461 12.9517
44.6945 12.9413
44.7426 12.8507
44.791 12.8087
44.8391 12.7217
44.8875 12.7034
44.9357 12.6984
44.984 12.6053
45.0322 12.606
45.0806 12.5321
45.1288 12.4692
45.1773 12.4392
45.2257 12.4257
45.2739 12.3564
45.3224 12.3127
45.3706 12.2789
45.4191 12.2372
45.4673 12.1882
45.5158 12.1784
45.5641 12.1184
45.6126 12.0586
45.6609 12.0319
45.7094 12.0002
45.7577 11.944
45.8063 11.8803
45.8546 11.8698
45.9031 11.7785
45.9515 11.7371
46.0001 11.7481
46.0484 11.672
46.097 11.6731
46.1454 11.5884
46.194 11.536
46.2424 11.5078
46.291 11.4614
46.3395 11.4317
46.3881 11.3744
46.4365 11.3218
46.4852 11.2976
46.5337 11.2398
46.5823 11.274
46.631 11.1795
46.6795 11.1373
46.7282 11.118
46.7767 11.0689
46.8254 11.0055
46.8739 10.9377
46.9226 10.929
46.9712 10.9146
47.0199 10.8241
47.0685 10.8161
47.1173 10.807
47.1658 10.7697
47.2146 10.7171
47.2632 10.6551
47.312 10.6367
47.3606 10.5968
47.4095 10.5588
47.4581 10.4621
47.5069 10.4767
47.5556 10.4279
47.6044 10.3816
47.6531 10.3595
47.702 10.2686
47.7507 10.276
47.7996 10.2596
47.8483 10.209
47.8972 10.1691
47.9461 10.1208
47.9948 10.0674
48.0438 10.0687
48.0925 10.0097
48.1415 9.97034
48.1902 9.94014
48.2392 9.89609
48.288 9.91525
48.337 9.84638
48.3858 9.75702
48.4348 9.80523
48.4837 9.72714
48.5327 9.73809
48.5815 9.66774
48.6306 9.64183
48.6795 9.58109
48.7285 9.54635
48.7774 9.53426
48.8265 9.49845
48.8754 9.45675
48.9245 9.43194
48.9734 9.35792
49.0226 9.38768
49.0715 9.31987
49.1206 9.3107
49.1696 9.24097
49.2188 9.22771
49.2679 9.19982
49.3169 9.11448
49.3661 9.08337
49.4151 9.05215
49.4643 9.04308
49.5134 8.99432
49.5626 8.943
49.6117 8.89158
49.6609 8.88179
49.71 8.86222
49.7592 8.81383
49.8083 8.76308
49.8576 8.7542
49.9067 8.70478
49.956 8.67468
50.0052 8.65797
50.0545 8.6534
50.1036 8.58704
50.153 8.52975
50.2022 8.53679
50.2515 8.46468
50.3007 8.43254
50.3501 8.41975
50.3993 8.3906
50.4487 8.36871
50.498 8.30939
50.5474 8.27394
50.5966 8.27212
50.6461 8.24283
50.6955 8.21666
50.7448 8.17987
50.7943 8.13137
50.8436 8.09349
50.8931 8.11199
50.9424 8.03319
50.9919 8.01159
51.0413 7.98295
51.0908 7.92893
51.1402 7.94662
51.1897 7.91054
51.2391 7.84967
51.2887 7.81317
51.3381 7.79474
51.3877 7.73933
51.4371 7.72858
51.4867 7.70193
51.5362 7.67643
51.5858 7.63032
51.6353 7.5969
51.6849 7.56193
51.7344 7.54087
51.7841 7.53607
51.8336 7.45256
51.8833 7.42574
51.9328 7.39569
51.9826 7.35126
52.0323 7.38211
52.0818 7.31767
52.1316 7.2635
52.1812 7.25868
52.231 7.24365
52.2806 7.18988
52.3304 7.13657
52.38 7.12038
52.4298 7.1221
52.4794 7.07116
52.5293 7.02078
52.5789 7.02597
52.6288 6.99352
52.6785 6.98276
52.7284 6.94327
52.7781 6.93099
52.828 6.89211
52.8777 6.79928
52.9276 6.82428
52.9774 6.82278
53.0273 6.80281
53.0771 6.73535
53.1271 6.70977
53.1769 6.70391
53.2269 6.63032
53.2767 6.63
53.3267 6.58789
53.3765 6.54837
53.4266 6.54114
53.4766 6.49264
53.5265 6.46136
53.5765 6.41604
53.6264 6.42874
53.6765 6.39314
53.7264 6.34054
53.7765 6.37756
53.8265 6.32283
53.8766 6.26149
53.9266 6.2572
53.9767 6.22134
54.0267 6.15797
54.0769 6.2367
54.1269 6.19003
54.1771 6.08991
54.2271 6.05424
54.2773 6.00738
54.3274 6.03228
54.3776 6.03038
54.4277 5.93878
54.478 5.92267
54.528 5.88434
54.5783 5.832
54.6285 5.79488
54.6788 5.77064
54.7289 5.70976
54.7792 5.65368
54.8296 5.62221
54.8798 5.60949
54.9301 5.57606
54.9803 5.52837
55.0307 5.50003
55.0809 5.46998
55.1314 5.45062
55.1816 5.35947
55.232 5.33722
55.2823 5.26124
55.3328 5.24589
55.383 5.16318
55.4335 5.16751
55.4838 5.05818
55.5344 5.03957
55.5847 5.00675
55.6352 4.99913
55.6856 4.91494
55.7361 4.86951