File: XRD/Ni3Fe_FD0104.xy
TT I
1.27165 8.67634
1.31627 7.47388
1.36089 7.21548
1.40551 7.14113
1.45013 7.58476
1.49476 6.78892
1.53938 6.79383
1.584 6.56453
1.62863 6.07927
1.67325 5.8403
1.71787 6.18324
1.7625 5.70121
1.80712 5.66694
1.85174 5.44846
1.89636 5.23584
1.94099 5.23567
1.98562 5.14396
2.03025 4.84965
2.07487 4.80082
2.11949 5.51323
2.16411 5.19471
2.20874 4.84254
2.25338 4.0975
2.298 4.30333
2.34263 4.38353
2.38725 5.25804
2.43188 4.18133
2.4765 4.10865
2.52115 3.73803
2.56577 3.78249
2.6104 4.33454
2.65503 4.45189
2.69965 5.36652
2.7443 5.44795
2.78893 5.85169
2.83356 7.29685
2.87818 7.52508
2.92281 8.10296
2.96744 8.7506
3.01209 9.62854
3.05672 10.7859
3.10135 11.888
3.14599 13.2786
3.19062 12.9632
3.23527 14.7921
3.2799 15.8683
3.32454 16.6431
3.36917 17.2235
3.4138 18.6221
3.45844 19.3536
3.50309 20.6793
3.54773 20.9841
3.59237 21.6055
3.637 22.2463
3.68164 23.0932
3.7263 23.9616
3.77094 25.0308
3.81558 25.1581
3.86022 26.0684
3.90486 27.2472
3.9495 28.4019
3.99416 29.399
4.0388 30.1606
4.08344 31.0958
4.12809 32.529
4.17273 33.5751
4.21738 35.3026
4.26204 36.0194
4.30669 37.4485
4.35133 39.1096
4.39598 40.8351
4.44063 42.6562
4.4853 44.284
4.52995 46.5565
4.5746 48.6495
4.61925 51.0258
4.6639 53.0382
4.70855 55.905
4.75322 59.3095
4.79788 62.3551
4.84253 66.0342
4.88719 70.4231
4.93184 75.8411
4.97652 83.3306
5.02118 93.0848
5.06583 104.401
5.11049 123.544
5.15515 168.441
5.19981 656.312
5.24449 3796.62
5.28916 6870.64
5.33382 6880.57
5.37848 635.214
5.42315 184.812
5.46783 135.667
5.5125 118.914
5.55716 110.867
5.60183 103.888
5.6465 101.161
5.69117 99.6576
5.73586 97.2269
5.78053 97.0322
5.8252 98.0783
5.86988 101.56
5.91455 110.84
5.95924 134.159
6.00392 332.277
6.0486 1436.65
6.09328 2245.17
6.13795 3846.92
6.18263 864.394
6.22733 141.702
6.27201 94.3224
6.3167 80.8281
6.36138 73.1162
6.40606 68.7683
6.45075 66.4593
6.49545 63.8194
6.54014 62.2691
6.58483 60.4886
6.62952 59.0694
6.67421 58.0427
6.71892 57.0383
6.76361 56.0823
6.8083 55.1942
6.853 54.3728
6.89769 53.6706
6.94239 53.7729
6.98711 52.6606
7.03181 52.3842
7.07651 51.6147
7.12121 51.9355
7.16591 51.6279
7.21063 51.1156
7.25533 51.2888
7.30004 50.9293
7.34475 51.497
7.38945 51.8078
7.43416 51.4591
7.47889 51.4538
7.5236 58.2366
7.56831 73.1594
7.61303 57.8401
7.65774 52.8711
7.70247 53.2269
7.74719 53.6498
7.79191 54.2884
7.83663 54.4284
7.88135 55.5164
7.92607 56.6315
7.97081 57.3824
8.01553 58.5121
8.06026 59.7129
8.10498 61.1195
8.14971 62.8763
8.19446 64.4168
8.23919 67.2936
8.28392 70.3345
8.32865 72.8091
8.37339 78.071
8.41812 83.8755
8.46288 97.5651
8.50761 187.163
8.55235 644.506
8.59709 773.516
8.64183 1213.75
8.68658 1731.92
8.73134 534.606
8.77609 126.632
8.82083 99.7683
8.86558 91.2443
8.91033 87.5242
8.9551 85.1658
8.99985 83.5118
9.04461 82.7299
9.08936 81.8802
9.13412 80.8453
9.17888 80.9625
9.22365 91.2763
9.26841 113.498
9.31318 92.8948
9.35794 82.165
9.4027 81.4473
9.44749 82.0887
9.49226 82.4355
9.53703 83.9496
9.5818 85.101
9.62657 86.3874
9.67134 87.7831
9.71614 89.7697
9.76091 92.1079
9.80569 94.7855
9.85047 98.0911
9.89525 103.773
9.94005 116.053
9.98484 198.764
10.0296 585.303
10.0744 680.013
10.1192 814.251
10.164 1491.64
10.2088 1152.21
10.2536 259.335
10.2984 120.454
10.3432 109.187
10.388 105.175
10.4328 124.281
10.4776 226.412
10.5224 246.44
10.5672 271.923
10.612 441.934
10.6568 419.783
10.7017 155.494
10.7465 93.8442
10.7913 83.6436
10.8361 79.8425
10.8809 77.6048
10.9257 75.1057
10.9706 73.64
11.0154 72.1222
11.0602 70.5566
11.105 69.7028
11.1499 67.7049
11.1947 66.8768
11.2395 65.8407
11.2844 65.4086
11.3292 64.4891
11.374 63.5817
11.4189 63.3135
11.4637 62.6485
11.5086 61.8228
11.5534 61.546
11.5983 61.1833
11.6431 61.2479
11.688 60.962
11.7328 60.8346
11.7777 60.4251
11.8225 60.3438
11.8674 60.3805
11.9122 62.3569
11.9571 68.6973
12.002 68.4523
12.0468 68.8266
12.0917 92.8288
12.1366 106.612
12.1814 105.811
12.2263 129.677
12.2712 180.925
12.3161 154.341
12.3609 80.7094
12.4058 64.0621
12.4507 62.8682
12.4956 62.3748
12.5405 62.3188
12.5853 62.9194
12.6302 63.0726
12.6751 63.623
12.72 64.1554
12.7649 65.2936
12.8098 66.0073
12.8547 67.11
12.8996 68.7657
12.9445 70.2801
12.9894 72.1804
13.0343 74.0773
13.0792 78.7827
13.1242 87.5567
13.1691 138.294
13.214 193.21
13.2589 187.125
13.3038 204.684
13.3487 300.678
13.3937 387.592
13.4386 243.743
13.4835 127.75
13.5285 161.489
13.5734 182.642
13.6183 171.573
13.6633 199.017
13.7082 294.354
13.7531 326.233
13.7981 178.002
13.843 91.2532
13.888 80.468
13.9329 77.211
13.9779 75.0561
14.0228 73.61
14.0678 71.7539
14.1127 72.6168
14.1577 76.0928
14.2027 74.5329
14.2476 70.5196
14.2926 68.6658
14.3376 68.1318
14.3825 67.6836
14.4275 67.3952
14.4725 67.254
14.5175 67.3756
14.5624 67.4955
14.6074 67.7835
14.6524 68.3515
14.6974 68.9153
14.7424 70.5966
14.7874 81.0681
14.8324 109.786
14.8774 119.783
14.9224 115.324
14.9674 127.7
15.0124 168.783
15.0574 205.506
15.1024 154.38
15.1474 85.9984
15.1924 71.2963
15.2374 68.4355
15.2824 66.7637
15.3274 66.0455
15.3725 65.33
15.4175 65.2178
15.4625 64.8809
15.5076 64.2962
15.5526 64.6274
15.5976 64.8192
15.6426 65.6804
15.6877 74.0191
15.7327 97.423
15.7778 107.74
15.8228 102.602
15.8679 108.532
15.9129 133.815
15.958 176.842
16.003 165.187
16.0481 98.3077
16.0931 68.064
16.1382 61.6789
16.1833 59.87
16.2283 57.9993
16.2734 57.2428
16.3185 56.6795
16.3636 55.8524
16.4086 55.1047
16.4537 54.6285
16.4988 54.1812
16.5439 54.3327
16.589 53.9079
16.6341 53.6335
16.6792 53.2494
16.7243 53.6304
16.7694 53.1207
16.8145 53.2727
16.8596 53.1914
16.9047 54.1554
16.9498 54.5322
16.9949 54.3052
17.04 54.599
17.0851 56.159
17.1302 60.6416
17.1754 63.8809
17.2205 63.4121
17.2656 63.7137
17.3108 67.5625
17.3559 74.8643
17.401 80.7448
17.4462 73.5708
17.4913 61.9268
17.5365 58.392
17.5815 58.2817
17.6268 58.1456
17.6718 58.6831
17.7171 59.43
17.7622 60.5322
17.8074 61.371
17.8525 63.2038
17.8977 72.4039
17.9428 84.9433
17.9881 87.4201
18.0331 85.2959
18.0784 88.6168
18.1237 102.752
18.1688 131.43
18.214 146.993
18.2591 118.318
18.3044 87.118
18.3495 81.2527
18.3948 87.8105
18.4399 99.4861
18.4852 98.5474
18.5303 80.1379
18.5756 65.5598
18.6207 61.8334
18.666 60.168
18.7112 59.2209
18.7565 58.3873
18.8016 58.1513
18.8469 57.2513
18.892 56.9966
18.9374 56.53
18.9825 56.1307
19.0278 55.7826
19.073 55.864
19.1183 56.4098
19.1635 59.2161
19.2088 61.5482
19.254 61.1895
19.2993 60.9424
19.3447 62.3943
19.3898 65.2299
19.4352 70.6337
19.4804 72.9155
19.5257 65.8095
19.5709 56.5211
19.6163 53.7382
19.6615 53.0708
19.7068 52.603
19.752 52.4966
19.7974 52.8844
19.8426 53.9289
19.888 56.3424
19.9332 57.8129
19.9786 57.6558
20.0238 57.1163
20.0692 59.0895
20.1144 63.9164
20.1598 70.111
20.205 70.7462
20.2504 65.5382
20.2957 59.5562
20.3411 58.8197
20.3863 61.8022
20.4318 64.1556
20.477 60.3976
20.5224 53.7507
20.5677 50.6242
20.6131 49.5919
20.6586 49.1978
20.7038 48.863
20.7493 48.5475
20.7945 48.5689
20.84 48.4604
20.8853 48.2905
20.9307 47.9857
20.976 48.231
21.0215 48.4212
21.0668 48.7649
21.1122 48.5954
21.1575 48.3875
21.203 48.4683
21.2483 48.8847
21.2938 50.0506
21.3391 50.6153
21.3846 50.2167
21.4299 48.9435
21.4754 47.9931
21.5207 47.8887
21.5662 48.1788
21.6116 48.7055
21.6571 50.7929
21.7024 52.5499
21.7479 53.4074
21.7933 52.9758
21.8388 53.4363
21.8843 56.0776
21.9297 59.0308
21.9752 63.2481
22.0206 65.141
22.0661 61.2343
22.1115 55.6977
22.157 53.9199
22.2024 55.4491
22.248 54.9179
22.2933 52.5903
22.3389 49.909
22.3843 48.5577
22.4299 48.2286
22.4753 48.1478
22.5208 48.0663
22.5662 47.9521
22.6118 48.1528
22.6572 48.3377
22.7028 49.9014
22.7483 50.9967
22.7939 51.2752
22.8393 51.1369
22.8849 51.0615
22.9303 51.5334
22.9759 52.7133
23.0214 54.8229
23.067 57.4625
23.1126 56.3652
23.1581 52.7011
23.2037 49.3679
23.2492 48.602
23.2948 49.3016
23.3403 50.5468
23.3859 51.3157
23.4314 51.0584
23.477 50.4081
23.5225 50.5749
23.5682 51.4021
23.6137 53.2366
23.6593 55.6971
23.7048 56.94
23.7505 54.3378
23.796 49.3214
23.8417 46.5601
23.8872 45.4311
23.9329 45.1833
23.9784 44.7987
24.0241 44.3636
24.0697 44.1351
24.1154 43.7314
24.1609 43.5679
24.2066 43.3791
24.2522 43.322
24.2979 42.9494
24.3434 42.9439
24.3892 42.7884
24.4349 42.5842
24.4805 42.3397
24.5262 42.3352
24.5718 42.1303
24.6175 42.3274
24.6631 42.4864
24.7089 42.3507
24.7545 42.1677
24.8002 41.9592
24.8458 41.9166
24.8916 41.9882
24.9372 41.9524
24.983 42.2784
25.0286 42.2779
25.0744 42.7828
25.12 42.9722
25.1658 43.2639
25.2114 43.4096
25.2572 43.8657
25.3029 43.959
25.3487 43.874
25.3943 43.6564
25.4402 44.0608
25.4858 44.1194
25.5316 43.0495
25.5773 41.4715
25.6231 40.8258
25.669 40.2397
25.7147 40.1898
25.7605 40.1326
25.8062 40.3722
25.8521 40.664
25.8977 40.4128
25.9436 40.2669
25.9893 40.1968
26.0352 40.3583
26.0809 40.3352
26.1268 40.7143
26.1725 41.2384
26.2184 41.5118
26.2641 41.0238
26.31 40.6298
26.3557 40.4173
26.4017 40.2604
26.4474 40.4251
26.4933 40.2138
26.5391 40.3445
26.585 40.3464
26.6308 40.7409
26.6767 40.9588
26.7225 41.7019
26.7684 42.0783
26.8142 41.6908
26.8601 40.8589
26.9059 40.3685
26.9519 39.8514
26.9979 39.6079
27.0437 39.1008
27.0896 38.6273
27.1354 38.5076
27.1814 38.4437
27.2272 38.4431
27.2732 38.383
27.3191 38.0905
27.3651 38.1597
27.4109 38.0162
27.4569 38.0944
27.5027 38.0058
27.5488 38.0946
27.5946 38.0038
27.6407 38.1972
27.6865 38.2367
27.7326 38.1684
27.7784 37.988
27.8245 37.8802
27.8703 37.6913
27.9164 37.8447
27.9623 37.8572
28.0084 37.9201
28.0543 38.208
28.1003 38.2166
28.1462 38.5288
28.1923 38.7321
28.2384 38.3831
28.2843 37.9851
28.3304 37.4015
28.3764 37.1709
28.4225 36.6548
28.4684 36.3146
28.5145 35.8601
28.5605 35.7448
28.6066 35.5476
28.6526 35.4748
28.6987 35.3558
28.7447 35.0984
28.7908 34.9597
28.8368 34.9414
28.8829 34.9447
28.9289 34.9315
28.9751 34.9111
29.0211 34.8906
29.0673 34.8189
29.1133 34.5308
29.1595 34.3465
29.2055 34.083
29.2517 33.932
29.2977 33.9294
29.3439 33.6492
29.3899 33.5624
29.4361 33.6447
29.4824 33.6773
29.5284 33.6366
29.5746 33.5618
29.6207 33.1334
29.6669 32.9285
29.713 32.756
29.7593 32.5556
29.8053 32.5771
29.8516 32.4867
29.8977 32.5409
29.9439 32.3215
29.99 32.3371
30.0363 32.0806
30.0824 32.245
30.1287 31.9889
30.1748 32.006
30.2211 32.0102
30.2673 31.9379
30.3136 32.0709
30.3597 32.1972
30.406 32.1918
30.4522 31.8916
30.4985 31.718
30.5447 31.8341
30.591 31.7178
30.6372 31.671
30.6835 31.5491
30.7297 31.6696
30.7761 31.785
30.8224 31.8137
30.8686 31.751
30.915 31.694
30.9612 31.4065
31.0076 31.2372
31.0538 31.1654
31.1002 31.1031
31.1464 30.7978
31.1928 30.7913
31.2391 30.7945
31.2855 30.5687
31.3317 30.5412
31.3781 30.5801
31.4244 30.4958
31.4708 30.4358
31.5171 30.4982
31.5636 30.5988
31.6098 30.5225
31.6563 30.4114
31.7026 30.2337
31.7491 29.9589
31.7953 30.0042
31.8418 29.9137
31.8881 29.8269
31.9346 29.6793
31.9809 29.7434
32.0275 29.6847
32.074 29.6663
32.1203 29.5916
32.1668 29.5324
32.2132 29.279
32.2597 29.1489
32.306 29.1051
32.3526 28.8953
32.399 28.7272
32.4455 28.5138
32.4919 28.4596
32.5385 28.3756
32.5848 28.3853
32.6314 28.2229
32.6778 28.2193
32.7244 28.0235
32.7708 27.8132
32.8174 28.0158
32.8638 27.6846
32.9104 27.8521
32.9569 27.8205
33.0035 27.565
33.0499 27.5982
33.0966 27.5583
33.143 27.4435
33.1897 27.3598
33.2361 27.3337
33.2828 27.2968
33.3293 27.1908
33.3759 27.2141
33.4226 27.1018
33.4691 27.0412
33.5158 26.9326
33.5623 26.7001
33.609 26.5769
33.6555 26.4445
33.7022 26.3769
33.7487 26.2059
33.7954 26.2544
33.842 26.144
33.8887 26.02
33.9353 26.0367
33.982 25.9313
34.0286 25.8935
34.0753 25.8144
34.1219 25.6765
34.1687 25.5826
34.2152 25.5797
34.262 25.4225
34.3086 25.3578
34.3554 25.2314
34.402 25.1325
34.4488 25.0975
34.4954 25.0254
34.5422 25.038
34.5889 24.7841
34.6357 24.784
34.6825 24.7291
34.7292 24.5886
34.776 24.5594
34.8227 24.4869
34.8695 24.4627
34.9162 24.2668
34.9631 24.2258
35.0098 24.2237
35.0566 24.0702
35.1033 24.0397
35.1502 24.1128
35.1969 23.9871
35.2438 23.872
35.2906 23.8758
35.3375 23.8443
35.3842 23.6898
35.4311 23.743
35.4779 23.6407
35.5248 23.6529
35.5716 23.6145
35.6185 23.5207
35.6653 23.4407
35.7123 23.3734
35.759 23.3443
35.806 23.1994
35.8528 23.0243
35.8998 23.0221
35.9468 22.9248
35.9936 22.8797
36.0406 22.7685
36.0874 22.6825
36.1345 22.6644
36.1813 22.6966
36.2283 22.4757
36.2752 22.4236
36.3222 22.5251
36.3691 22.3801
36.4161 22.3057
36.463 22.1851
36.5101 22.2447
36.557 22.1333
36.6041 21.9971
36.651 21.9883
36.6981 21.9077
36.745 21.8609
36.7921 21.8332
36.839 21.7168
36.8861 21.6475
36.9331 21.5432
36.9802 21.4996
37.0272 21.4464
37.0743 21.3019
37.1213 21.3048
37.1684 21.2299
37.2154 21.1331
37.2626 20.9858
37.3098 21.0486
37.3568 20.9531
37.404 20.96
37.451 20.8237
37.4982 20.7472
37.5452 20.629
37.5924 20.634
37.6395 20.6238
37.6867 20.5255
37.7337 20.471
37.781 20.3148
37.8281 20.3065
37.8753 20.2649
37.9224 20.1551
37.9697 20.0739
38.0168 20.0635
38.064 19.9281
38.1111 19.8989
38.1584 19.8547
38.2056 19.8371
38.2529 19.7156
38.3 19.5582
38.3473 19.5678
38.3945 19.4835
38.4418 19.4699
38.489 19.389
38.5363 19.3309
38.5837 19.2727
38.6309 19.2448
38.6782 19.139
38.7254 19.0902
38.7728 19.0788
38.82 18.9727
38.8674 18.9099
38.9146 18.8226
38.9621 18.8037
39.0093 18.783
39.0567 18.7083
39.104 18.6788
39.1514 18.4685
39.1987 18.5368
39.2461 18.4782
39.2934 18.3744
39.3409 18.3417
39.3882 18.2012
39.4356 18.1989
39.483 18.1543
39.5304 18.0637
39.5778 18.0229
39.6253 18.0256
39.6726 17.93
39.7201 17.8647
39.7675 17.8161
39.815 17.6992
39.8624 17.6994
39.9099 17.7027
39.9575 17.5537
40.0049 17.5327
40.0525 17.5138
40.0999 17.4549
40.1474 17.4212
40.1949 17.2948
40.2425 17.197
40.2899 17.2405
40.3375 17.1337
40.385 17.0917
40.4326 17.025
40.48 16.9844
40.5277 16.9629
40.5752 16.919
40.6228 16.8378
40.6703 16.6908
40.718 16.7205
40.7655 16.6725
40.8132 16.5555
40.8607 16.5672
40.9084 16.5204
40.9559 16.4502
41.0036 16.4456
41.0512 16.3484
41.0989 16.3882
41.1465 16.2414
41.1942 16.1965
41.242 16.1142
41.2896 16.0462
41.3373 16.0589
41.3849 16.0167
41.4327 15.9166
41.4803 15.8274
41.5281 15.8404
41.5758 15.7784
41.6236 15.676
41.6712 15.6003
41.7191 15.5991
41.7667 15.5729
41.8146 15.4759
41.8622 15.4372
41.9101 15.4835
41.9578 15.3093
42.0057 15.3174
42.0534 15.2114
42.1013 15.2373
42.149 15.1241
42.1969 15.0959
42.2446 15.0458
42.2925 15.021
42.3403 14.9242
42.3882 14.9177
42.436 14.8014
42.4839 14.7862
42.5319 14.7662
42.5797 14.6419
42.6277 14.6314
42.6755 14.6212
42.7235 14.5331
42.7713 14.4639
42.8193 14.4106
42.8671 14.3907
42.9152 14.3759
42.963 14.2504
43.0111 14.2483
43.0589 14.1406
43.107 14.0984
43.1549 14.1025
43.2029 14.074
43.2508 14.0125
43.2989 13.9289
43.3468 13.9313
43.3949 13.8358
43.4429 13.7989
43.491 13.7425
43.5389 13.7021
43.5871 13.6753
43.635 13.5996
43.6832 13.5621
43.7312 13.516
43.7793 13.4885
43.8273 13.3758
43.8755 13.4158
43.9237 13.3618
43.9717 13.2803
44.0199 13.2101
44.068 13.2019
44.1162 13.1586
44.1642 13.075
44.2125 13.0695
44.2606 13.0041
44.3088 12.955
44.3569 12.9015
44.4052 12.8896
44.4533 12.8389
44.5016 12.7241
44.5497 12.7256
44.598 12.7182
44.6461 12.6435
44.6945 12.5738
44.7426 12.5487
44.791 12.4769
44.8391 12.4519
44.8875 12.4532
44.9357 12.3707
44.984 12.3034
45.0322 12.2917
45.0806 12.2415
45.1288 12.237
45.1773 12.1471
45.2257 12.1067
45.2739 12.1046
45.3224 12.052
45.3706 11.9969
45.4191 11.9495
45.4673 11.9098
45.5158 11.8951
45.5641 11.8197
45.6126 11.7667
45.6609 11.7747
45.7094 11.7226
45.7577 11.6669
45.8063 11.581
45.8546 11.5716
45.9031 11.5482
45.9515 11.4934
46.0001 11.4563
46.0484 11.4147
46.097 11.3783
46.1454 11.3075
46.194 11.3091
46.2424 11.2489
46.291 11.2019
46.3395 11.1517
46.3881 11.1024
46.4365 11.0917
46.4852 11.0658
46.5337 11.0335
46.5823 10.9699
46.631 10.9124
46.6795 10.9244
46.7282 10.8757
46.7767 10.8333
46.8254 10.7115
46.8739 10.7233
46.9226 10.7035
46.9712 10.626
47.0199 10.6075
47.0685 10.524
47.1173 10.514
47.1658 10.4884
47.2146 10.4572
47.2632 10.4016
47.312 10.3424
47.3606 10.3406
47.4095 10.2748
47.4581 10.2454
47.5069 10.1862
47.5556 10.173
47.6044 10.1209
47.6531 10.1081
47.702 10.0265
47.7507 10.0421
47.7996 9.93926
47.8483 9.98883
47.8972 9.92123
47.9461 9.84305
47.9948 9.83426
48.0438 9.79354
48.0925 9.78594
48.1415 9.75413
48.1902 9.70624
48.2392 9.68957
48.288 9.67039
48.337 9.62073
48.3858 9.55957
48.4348 9.50745
48.4837 9.57338
48.5327 9.49759
48.5815 9.40539
48.6306 9.43527
48.6795 9.36422
48.7285 9.31381
48.7774 9.36512
48.8265 9.26282
48.8754 9.22971
48.9245 9.18203
48.9734 9.17628
49.0226 9.13997
49.0715 9.12316
49.1206 9.05627
49.1696 9.03016
49.2188 8.99724
49.2679 8.97251
49.3169 8.92809
49.3661 8.8483
49.4151 8.8637
49.4643 8.86462
49.5134 8.80702
49.5626 8.73777
49.6117 8.70501
49.6609 8.7139
49.71 8.64402
49.7592 8.62621
49.8083 8.57422
49.8576 8.60098
49.9067 8.50883
49.956 8.52088
50.0052 8.4523
50.0545 8.42806
50.1036 8.40307
50.153 8.3801
50.2022 8.34598
50.2515 8.32488
50.3007 8.28183
50.3501 8.25328
50.3993 8.20474
50.4487 8.18109
50.498 8.12744
50.5474 8.10554
50.5966 8.09872
50.6461 8.07846
50.6955 8.04542
50.7448 8.00423
50.7943 7.94349
50.8436 7.94916
50.8931 7.90709
50.9424 7.86196
50.9919 7.86211
51.0413 7.79136
51.0908 7.79769
51.1402 7.75009
51.1897 7.70732
51.2391 7.69817
51.2887 7.6611
51.3381 7.60571
51.3877 7.61387
51.4371 7.54683
51.4867 7.51162
51.5362 7.52533
51.5858 7.45119
51.6353 7.43195
51.6849 7.39353
51.7344 7.40053
51.7841 7.35843
51.8336 7.29589
51.8833 7.28134
51.9328 7.2414
51.9826 7.19645
52.0323 7.1792
52.0818 7.13993
52.1316 7.13145
52.1812 7.1162
52.231 7.07926
52.2806 7.04757
52.3304 7.01863
52.38 6.96759
52.4298 6.96062
52.4794 6.93509
52.5293 6.90473
52.5789 6.89251
52.6288 6.8739
52.6785 6.8076
52.7284 6.78827
52.7781 6.7555
52.828 6.73957
52.8777 6.71877
52.9276 6.6461
52.9774 6.62253
53.0273 6.62183
53.0771 6.60929
53.1271 6.58372
53.1769 6.56343
53.2269 6.48042
53.2767 6.48563
53.3267 6.45578
53.3765 6.41191
53.4266 6.39788
53.4766 6.37495
53.5265 6.29883
53.5765 6.33626
53.6264 6.32173
53.6765 6.29207
53.7264 6.24541
53.7765 6.20202
53.8265 6.17032
53.8766 6.15037
53.9266 6.11261
53.9767 6.1021
54.0267 6.07163
54.0769 6.01321
54.1269 6.03062
54.1771 5.96508
54.2271 5.95047
54.2773 5.87376
54.3274 5.89121
54.3776 5.79888
54.4277 5.7395
54.478 5.75963
54.528 5.73183
54.5783 5.61432
54.6285 5.62463
54.6788 5.59877
54.7289 5.5001
54.7792 5.47626
54.8296 5.43129
54.8798 5.38618
54.9301 5.32762
54.9803 5.34905
55.0307 5.32561
55.0809 5.25862
55.1314 5.23443
55.1816 5.13053
55.232 5.06377
55.2823 5.04276
55.3328 4.98792
55.383 4.93091
55.4335 4.90307
55.4838 4.83944
55.5344 4.80882
55.5847 4.75826
55.6352 4.75445
55.6856 4.6949
55.7361 4.70791