File: XRD/Ni3Fe_FD0059.xy
TT I
1.27165 32.5376
1.31627 29.9696
1.36089 29.7986
1.40551 27.1729
1.45013 26.9451
1.49476 24.8344
1.53938 24.4037
1.584 23.2178
1.62863 23.065
1.67325 20.8962
1.71787 21.5217
1.7625 21.4835
1.80712 20.6705
1.85174 20.264
1.89636 20.6918
1.94099 20.5867
1.98562 20.3508
2.03025 20.7507
2.07487 20.1397
2.11949 20.533
2.16411 19.9198
2.20874 20.5774
2.25338 20.174
2.298 20.6756
2.34263 20.6632
2.38725 21.1272
2.43188 20.5536
2.4765 21.5433
2.52115 21.9241
2.56577 21.3551
2.6104 23.166
2.65503 23.7683
2.69965 25.6601
2.7443 26.9594
2.78893 29.6198
2.83356 32.2473
2.87818 36.1516
2.92281 40.2942
2.96744 45.8475
3.01209 54.9475
3.05672 63.9853
3.10135 73.0702
3.14599 75.9687
3.19062 72.6969
3.23527 63.6471
3.2799 53.768
3.32454 45.0148
3.36917 38.1321
3.4138 33.5973
3.45844 30.3805
3.50309 28.8815
3.54773 27.3629
3.59237 26.6199
3.637 26.6428
3.68164 25.3038
3.7263 25.6156
3.77094 25.7031
3.81558 25.6991
3.86022 25.797
3.90486 26.2672
3.9495 27.2708
3.99416 27.3828
4.0388 28.2406
4.08344 28.9001
4.12809 29.6597
4.17273 30.8351
4.21738 32.3129
4.26204 33.9878
4.30669 37.7012
4.35133 41.4372
4.39598 39.5523
4.44063 37.753
4.4853 37.8281
4.52995 39.0605
4.5746 40.1422
4.61925 42.2186
4.6639 43.6317
4.70855 45.8006
4.75322 48.8721
4.79788 51.7563
4.84253 55.9396
4.88719 62.1022
4.93184 69.8735
4.97652 84.3151
5.02118 106.175
5.06583 123.345
5.11049 144.265
5.15515 193.783
5.19981 331.819
5.24449 776.554
5.28916 1780.99
5.33382 4208.27
5.37848 2874.01
5.42315 715.818
5.46783 286.423
5.5125 188.888
5.55716 149.436
5.60183 125.863
5.6465 115.959
5.69117 110.91
5.73586 103.517
5.78053 101.808
5.8252 102.556
5.86988 109.052
5.91455 121.125
5.95924 146.28
6.00392 206.965
6.0486 353.31
6.09328 603.99
6.13795 1098.03
6.18263 1042.67
6.22733 443.833
6.27201 203.688
6.3167 124.401
6.36138 90.1145
6.40606 72.6121
6.45075 64.1685
6.49545 57.9854
6.54014 53.8229
6.58483 49.8505
6.62952 48.1799
6.67421 46.2761
6.71892 44.6612
6.76361 43.3964
6.8083 42.2517
6.853 41.6221
6.89769 41.4201
6.94239 41.8232
6.98711 41.4605
7.03181 42.9387
7.07651 45.639
7.12121 45.8011
7.16591 43.8235
7.21063 40.8804
7.25533 40.6008
7.30004 39.612
7.34475 39.8926
7.38945 40.4145
7.43416 40.8291
7.47889 43.7765
7.5236 64.2573
7.56831 181.438
7.61303 158.284
7.65774 59.9389
7.70247 44.1794
7.74719 40.8068
7.79191 40.0644
7.83663 39.4065
7.88135 39.4539
7.92607 40.0977
7.97081 40.5355
8.01553 40.8297
8.06026 41.4877
8.10498 42.5102
8.14971 43.7209
8.19446 45.265
8.23919 47.4592
8.28392 50.7676
8.32865 53.4984
8.37339 57.0776
8.41812 61.0369
8.46288 69.7481
8.50761 87.8951
8.55235 133.915
8.59709 194.874
8.64183 297.424
8.68658 620.548
8.73134 695.436
8.77609 317.163
8.82083 151.278
8.86558 100.359
8.91033 82.9127
8.9551 74.2243
8.99985 70.0536
9.04461 67.5633
9.08936 66.6709
9.13412 66.5594
9.17888 70.7869
9.22365 99.9105
9.26841 281.045
9.31318 304.843
9.35794 109.259
9.4027 69.9683
9.44749 63.0168
9.49226 60.3847
9.53703 58.8533
9.5818 58.9677
9.62657 58.8078
9.67134 59.1112
9.71614 60.087
9.76091 61.2925
9.80569 63.0739
9.85047 65.6903
9.89525 69.5134
9.94005 76.4594
9.98484 91.1671
10.0296 128.885
10.0744 173.447
10.1192 220.642
10.164 396.673
10.2088 703.377
10.2536 547.233
10.2984 235.772
10.3432 133.429
10.388 96.4439
10.4328 84.7587
10.4776 87.382
10.5224 94.3265
10.5672 101.353
10.612 141.19
10.6568 237.727
10.7017 255.872
10.7465 178.915
10.7913 91.3892
10.8361 63.5907
10.8809 55.8816
10.9257 52.7035
10.9706 50.6908
11.0154 48.4912
11.0602 47.1593
11.105 45.8298
11.1499 45.0994
11.1947 44.9432
11.2395 44.1385
11.2844 43.8625
11.3292 42.7449
11.374 42.0553
11.4189 41.5287
11.4637 40.9452
11.5086 40.4135
11.5534 40.3678
11.5983 40.2156
11.6431 40.2326
11.688 40.1379
11.7328 40.2799
11.7777 40.4168
11.8225 41.1769
11.8674 42.1068
11.9122 46.681
11.9571 73.6552
12.002 116.535
12.0468 83.9397
12.0917 53.3271
12.1366 49.9293
12.1814 51.4308
12.2263 56.2506
12.2712 69.0173
12.3161 86.5975
12.3609 80.4033
12.4058 60.7302
12.4507 49.7293
12.4956 45.3596
12.5405 42.6402
12.5853 41.8576
12.6302 40.9075
12.6751 40.7225
12.72 40.7963
12.7649 41.2521
12.8098 41.3755
12.8547 41.8448
12.8996 42.6428
12.9445 43.3798
12.9894 44.6139
13.0343 46.0016
13.0792 50.0094
13.1242 60.688
13.1691 68.6909
13.214 67.4594
13.2589 70.1118
13.3038 74.6228
13.3487 92.8295
13.3937 139.92
13.4386 188.58
13.4835 156.065
13.5285 103.295
13.5734 85.3133
13.6183 79.5678
13.6633 80.753
13.7082 99.9602
13.7531 147.461
13.7981 176.3
13.843 123.492
13.888 78.0872
13.9329 60.7892
13.9779 54.2113
14.0228 51.2432
14.0678 50.163
14.1127 52.4218
14.1577 70.1431
14.2027 103.45
14.2476 86.6385
14.2926 54.9396
14.3376 47.1277
14.3825 44.7967
14.4275 43.6726
14.4725 43.1275
14.5175 42.7651
14.5624 42.3274
14.6074 42.3947
14.6524 42.3037
14.6974 42.545
14.7424 43.2023
14.7874 44.0405
14.8324 46.936
14.8774 50.3007
14.9224 52.235
14.9674 54.4358
15.0124 62.2336
15.0574 82.191
15.1024 105.844
15.1474 98.1982
15.1924 73.8631
15.2374 57.0126
15.2824 48.4572
15.3274 44.7911
15.3725 43.2876
15.4175 42.4629
15.4625 41.9857
15.5076 41.7458
15.5526 41.5061
15.5976 41.5037
15.6426 41.7419
15.6877 42.2906
15.7327 44.239
15.7778 46.9829
15.8228 48.6529
15.8679 50.2081
15.9129 54.8936
15.958 67.9648
16.003 89.8335
16.0481 100.43
16.0931 89.1431
16.1382 72.9997
16.1833 54.4024
16.2283 43.9795
16.2734 40.4585
16.3185 38.5924
16.3636 37.3791
16.4086 36.5586
16.4537 36.1106
16.4988 35.423
16.5439 35.3661
16.589 35.0521
16.6341 34.808
16.6792 34.5551
16.7243 34.7821
16.7694 34.4752
16.8145 34.5184
16.8596 34.7754
16.9047 35.3518
16.9498 38.889
16.9949 43.0381
17.04 41.1249
17.0851 36.7412
17.1302 35.6978
17.1754 36.0876
17.2205 36.2184
17.2656 36.392
17.3108 37.292
17.3559 38.6818
17.401 42.1191
17.4462 46.9141
17.4913 47.0438
17.5365 42.3175
17.5815 38.8369
17.6268 37.7519
17.6718 37.2554
17.7171 37.5865
17.7622 39.1608
17.8074 43.4645
17.8525 45.196
17.8977 42.2222
17.9428 41.5147
17.9881 42.5975
18.0331 43.6713
18.0784 44.1951
18.1237 46.7565
18.1688 52.6972
18.214 65.2586
18.2591 78.6749
18.3044 75.2578
18.3495 60.6283
18.3948 52.3067
18.4399 51.7917
18.4852 57.0284
18.5303 62.1945
18.5756 58.6406
18.6207 52.3761
18.666 46.5687
18.7112 41.5345
18.7565 39.1338
18.8016 38.2904
18.8469 37.4326
18.892 37.0537
18.9374 36.6145
18.9825 36.2781
19.0278 35.9932
19.073 35.9537
19.1183 35.8109
19.1635 35.8603
19.2088 36.3921
19.254 36.9163
19.2993 37.9656
19.3447 41.9737
19.3898 47.6897
19.4352 47.8168
19.4804 44.6265
19.5257 44.5146
19.5709 43.0988
19.6163 39.6446
19.6615 36.8978
19.7068 35.1452
19.752 34.3828
19.7974 34.0248
19.8426 33.6669
19.888 33.6916
19.9332 33.9197
19.9786 34.2523
20.0238 33.8736
20.0692 34.1593
20.1144 34.8121
20.1598 36.3484
20.205 38.6946
20.2504 41.4699
20.2957 41.5862
20.3411 38.9649
20.3863 37.358
20.4318 37.6861
20.477 39.5789
20.5224 39.6462
20.5677 37.3496
20.6131 34.5407
20.6586 33.0931
20.7038 32.5413
20.7493 32.2012
20.7945 33.4889
20.84 35.1465
20.8853 34.7891
20.9307 32.6479
20.976 31.4391
21.0215 30.6714
21.0668 30.9144
21.1122 30.7504
21.1575 30.6669
21.203 30.5941
21.2483 30.517
21.2938 30.742
21.3391 31.0379
21.3846 31.7057
21.4299 32.3179
21.4754 32.1898
21.5207 31.8603
21.5662 31.6434
21.6116 31.0207
21.6571 30.7003
21.7024 30.9723
21.7479 31.4518
21.7933 31.6966
21.8388 31.6636
21.8843 32.1431
21.9297 32.7504
21.9752 34.0589
22.0206 36.2449
22.0661 38.763
22.1115 39.8899
22.157 38.8934
22.2024 38.1236
22.248 37.4402
22.2933 36.4681
22.3389 35.2937
22.3843 33.7662
22.4299 32.2842
22.4753 31.6116
22.5208 31.1021
22.5662 30.9293
22.6118 30.7747
22.6572 30.7965
22.7028 30.9953
22.7483 31.1059
22.7939 31.4378
22.8393 32.2744
22.8849 32.6005
22.9303 32.0084
22.9759 31.7336
23.0214 32.1057
23.067 33.154
23.1126 34.9006
23.1581 36.3499
23.2037 35.9294
23.2492 33.9896
23.2948 32.3163
23.3403 31.7518
23.3859 31.8442
23.4314 32.4223
23.477 33.4116
23.5225 33.6747
23.5682 32.7486
23.6137 32.2687
23.6593 32.6818
23.7048 33.925
23.7505 35.8052
23.796 36.5756
23.8417 34.9893
23.8872 32.634
23.9329 31.0855
23.9784 30.1764
24.0241 29.7071
24.0697 29.6771
24.1154 29.5173
24.1609 29.1265
24.2066 28.7532
24.2522 28.4129
24.2979 28.1489
24.3434 28.0085
24.3892 27.705
24.4349 27.6882
24.4805 27.5784
24.5262 27.6715
24.5718 27.5455
24.6175 27.5595
24.6631 28.0494
24.7089 28.3368
24.7545 28.3243
24.8002 27.9644
24.8458 27.4343
24.8916 27.1958
24.9372 27.0577
24.983 27.1657
25.0286 27.0117
25.0744 26.9366
25.12 26.9378
25.1658 27.1564
25.2114 27.3523
25.2572 27.5264
25.3029 27.998
25.3487 28.3826
25.3943 28.4598
25.4402 28.1298
25.4858 28.4065
25.5316 28.6958
25.5773 28.6169
25.6231 28.2122
25.669 27.2245
25.7147 26.7248
25.7605 26.546
25.8062 26.4414
25.8521 26.6878
25.8977 26.7385
25.9436 26.6128
25.9893 26.1025
26.0352 26.0581
26.0809 25.8969
26.1268 25.9969
26.1725 26.0975
26.2184 26.1677
26.2641 26.5457
26.31 26.8652
26.3557 26.7308
26.4017 26.3849
26.4474 26.1794
26.4933 26.0139
26.5391 25.9347
26.585 25.8676
26.6308 25.8129
26.6767 26.0303
26.7225 26.1221
26.7684 26.4088
26.8142 26.9337
26.8601 27.3165
26.9059 27.2621
26.9519 27.1895
26.9979 27.2564
27.0437 27.0179
27.0896 26.4067
27.1354 26.0412
27.1814 25.4327
27.2272 25.2816
27.2732 25.2197
27.3191 25.0559
27.3651 25.0301
27.4109 24.8847
27.4569 24.8711
27.5027 24.8296
27.5488 24.8916
27.5946 24.9151
27.6407 24.7919
27.6865 24.8673
27.7326 24.9173
27.7784 24.9844
27.8245 24.8021
27.8703 24.6684
27.9164 24.6059
27.9623 24.4794
28.0084 24.6014
28.0543 25.0566
28.1003 25.1725
28.1462 25.0783
28.1923 25.1312
28.2384 25.1402
28.2843 25.4168
28.3304 25.3176
28.3764 25.0367
28.4225 24.8482
28.4684 24.7486
28.5145 24.3644
28.5605 24.1263
28.6066 23.8496
28.6526 23.7923
28.6987 23.5517
28.7447 23.4256
28.7908 23.1507
28.8368 23.0099
28.8829 23.022
28.9289 22.943
28.9751 22.8149
29.0211 22.782
29.0673 22.8814
29.1133 22.8994
29.1595 22.8209
29.2055 22.7438
29.2517 22.5598
29.2977 22.3993
29.3439 22.257
29.3899 22.2056
29.4361 22.0167
29.4824 21.9855
29.5284 22.1071
29.5746 22.065
29.6207 22.0285
29.6669 22.0124
29.713 21.8669
29.7593 21.7094
29.8053 21.5959
29.8516 21.4248
29.8977 21.4896
29.9439 21.4033
29.99 21.3431
30.0363 21.2993
30.0824 21.4584
30.1287 21.4412
30.1748 21.3703
30.2211 21.2259
30.2673 21.0633
30.3136 21.1165
30.3597 21.0741
30.406 21.1453
30.4522 20.9576
30.4985 21.0221
30.5447 21.1152
30.591 20.8957
30.6372 20.8611
30.6835 20.7968
30.7297 20.7772
30.7761 20.7717
30.8224 20.8265
30.8686 21.0269
30.915 21.0808
30.9612 21.1521
31.0076 21.1067
31.0538 20.9033
31.1002 20.8904
31.1464 20.8829
31.1928 20.5542
31.2391 20.5503
31.2855 20.424
31.3317 20.4148
31.3781 20.2997
31.4244 20.2537
31.4708 20.2183
31.5171 20.2411
31.5636 20.2099
31.6098 20.1861
31.6563 20.2005
31.7026 20.2148
31.7491 20.1374
31.7953 20.105
31.8418 20.0682
31.8881 19.9794
31.9346 19.8753
31.9809 19.7176
32.0275 19.7468
32.074 19.7399
32.1203 19.7765
32.1668 19.7838
32.2132 19.6495
32.2597 19.6991
32.306 19.6189
32.3526 19.3681
32.399 19.4311
32.4455 19.3157
32.4919 19.1754
32.5385 19.1404
32.5848 19.0826
32.6314 19.0397
32.6778 19.0118
32.7244 18.7561
32.7708 18.626
32.8174 18.6704
32.8638 18.6452
32.9104 18.6809
32.9569 18.5915
33.0035 18.5693
33.0499 18.5185
33.0966 18.3867
33.143 18.4254
33.1897 18.3056
33.2361 18.3037
33.2828 18.2971
33.3293 18.2472
33.3759 18.1518
33.4226 18.2676
33.4691 18.2199
33.5158 18.2115
33.5623 18.1333
33.609 17.933
33.6555 17.9014
33.7022 17.8171
33.7487 17.644
33.7954 17.6445
33.842 17.5675
33.8887 17.5696
33.9353 17.491
33.982 17.4736
34.0286 17.3833
34.0753 17.2767
34.1219 17.3675
34.1687 17.3132
34.2152 17.2573
34.262 17.0677
34.3086 17.0217
34.3554 17.0424
34.402 16.8522
34.4488 16.8444
34.4954 16.8594
34.5422 16.7516
34.5889 16.7338
34.6357 16.7582
34.6825 16.6724
34.7292 16.6094
34.776 16.4865
34.8227 16.4906
34.8695 16.4746
34.9162 16.4149
34.9631 16.312
35.0098 16.3962
35.0566 16.2686
35.1033 16.2025
35.1502 16.176
35.1969 16.0986
35.2438 16.1482
35.2906 16.0605
35.3375 16.0447
35.3842 15.9314
35.4311 15.9241
35.4779 15.9494
35.5248 15.9987
35.5716 15.9271
35.6185 15.857
35.6653 15.9352
35.7123 15.8508
35.759 15.8418
35.806 15.8028
35.8528 15.6265
35.8998 15.6047
35.9468 15.6172
35.9936 15.5011
36.0406 15.4754
36.0874 15.4489
36.1345 15.3356
36.1813 15.2495
36.2283 15.2948
36.2752 15.1247
36.3222 15.2679
36.3691 15.1881
36.4161 15.1355
36.463 15.1434
36.5101 15.0792
36.557 15.0409
36.6041 14.9121
36.651 14.8947
36.6981 14.897
36.745 14.8739
36.7921 14.7629
36.839 14.7683
36.8861 14.6739
36.9331 14.6898
36.9802 14.6518
37.0272 14.5292
37.0743 14.4574
37.1213 14.4964
37.1684 14.4167
37.2154 14.3221
37.2626 14.3693
37.3098 14.2678
37.3568 14.2422
37.404 14.2165
37.451 14.1378
37.4982 14.1286
37.5452 14.0686
37.5924 14.0019
37.6395 14.0558
37.6867 13.9948
37.7337 13.9022
37.781 13.8922
37.8281 13.8279
37.8753 13.7973
37.9224 13.7482
37.9697 13.7216
38.0168 13.6635
38.064 13.6212
38.1111 13.5857
38.1584 13.5414
38.2056 13.5139
38.2529 13.4373
38.3 13.3205
38.3473 13.3769
38.3945 13.3247
38.4418 13.2868
38.489 13.2318
38.5363 13.2124
38.5837 13.0954
38.6309 13.0978
38.6782 13.1214
38.7254 13.0104
38.7728 12.9726
38.82 12.917
38.8674 12.9014
38.9146 12.8812
38.9621 12.8556
39.0093 12.8169
39.0567 12.796
39.104 12.7824
39.1514 12.6926
39.1987 12.66
39.2461 12.616
39.2934 12.5912
39.3409 12.4918
39.3882 12.4689
39.4356 12.4295
39.483 12.4195
39.5304 12.4279
39.5778 12.335
39.6253 12.2914
39.6726 12.3399
39.7201 12.2535
39.7675 12.2717
39.815 12.1657
39.8624 12.132
39.9099 12.08
39.9575 12.0419
40.0049 12.0222
40.0525 11.9955
40.0999 11.9464
40.1474 11.9023
40.1949 11.8584
40.2425 11.8937
40.2899 11.7898
40.3375 11.7843
40.385 11.7562
40.4326 11.7019
40.48 11.6446
40.5277 11.6318
40.5752 11.6461
40.6228 11.584
40.6703 11.5151
40.718 11.5423
40.7655 11.4849
40.8132 11.4108
40.8607 11.4011
40.9084 11.3563
40.9559 11.3281
41.0036 11.3585
41.0512 11.311
41.0989 11.2621
41.1465 11.2086
41.1942 11.1878
41.242 11.082
41.2896 11.0656
41.3373 11.0814
41.3849 11.0086
41.4327 10.9718
41.4803 10.9438
41.5281 10.8817
41.5758 10.8563
41.6236 10.8891
41.6712 10.7338
41.7191 10.8149
41.7667 10.694
41.8146 10.6788
41.8622 10.6313
41.9101 10.6525
41.9578 10.5478
42.0057 10.5889
42.0534 10.5165
42.1013 10.5053
42.149 10.4809
42.1969 10.4078
42.2446 10.3777
42.2925 10.3489
42.3403 10.3384
42.3882 10.2889
42.436 10.2862
42.4839 10.1928
42.5319 10.1816
42.5797 10.1385
42.6277 10.1611
42.6755 10.0933
42.7235 10.0187
42.7713 9.99054
42.8193 10.0311
42.8671 9.93672
42.9152 9.93968
42.963 9.86079
43.0111 9.81566
43.0589 9.8635
43.107 9.77165
43.1549 9.73618
43.2029 9.72566
43.2508 9.71449
43.2989 9.68182
43.3468 9.62288
43.3949 9.57816
43.4429 9.60141
43.491 9.51272
43.5389 9.50559
43.5871 9.48644
43.635 9.44909
43.6832 9.41774
43.7312 9.38699
43.7793 9.34007
43.8273 9.33416
43.8755 9.28086
43.9237 9.29321
43.9717 9.22827
44.0199 9.19025
44.068 9.14102
44.1162 9.0932
44.1642 9.11606
44.2125 9.09125
44.2606 9.05306
44.3088 9.03644
44.3569 8.98243
44.4052 8.98399
44.4533 8.92698
44.5016 8.90075
44.5497 8.84532
44.598 8.8637
44.6461 8.77996
44.6945 8.73556
44.7426 8.71989
44.791 8.71274
44.8391 8.71908
44.8875 8.67499
44.9357 8.59999
44.984 8.59294
45.0322 8.57631
45.0806 8.55545
45.1288 8.51049
45.1773 8.52827
45.2257 8.45513
45.2739 8.41644
45.3224 8.39047
45.3706 8.38161
45.4191 8.33998
45.4673 8.33995
45.5158 8.27909
45.5641 8.24413
45.6126 8.21422
45.6609 8.17988
45.7094 8.15846
45.7577 8.12977
45.8063 8.07629
45.8546 8.0745
45.9031 8.06704
45.9515 8.04387
46.0001 7.98978
46.0484 7.98104
46.097 7.96139
46.1454 7.90489
46.194 7.91416
46.2424 7.87207
46.291 7.81127
46.3395 7.77032
46.3881 7.8
46.4365 7.76266
46.4852 7.73676
46.5337 7.71371
46.5823 7.72928
46.631 7.65248
46.6795 7.64927
46.7282 7.61464
46.7767 7.54515
46.8254 7.56469
46.8739 7.5186
46.9226 7.45933
46.9712 7.45673
47.0199 7.4587
47.0685 7.42672
47.1173 7.38644
47.1658 7.37013
47.2146 7.35484
47.2632 7.28855
47.312 7.26854
47.3606 7.23425
47.4095 7.21416
47.4581 7.21398
47.5069 7.17678
47.5556 7.15912
47.6044 7.12814
47.6531 7.13284
47.702 7.06635
47.7507 7.03495
47.7996 7.00277
47.8483 7.0007
47.8972 6.99106
47.9461 6.95192
47.9948 6.94217
48.0438 6.91452
48.0925 6.91626
48.1415 6.82735
48.1902 6.82503
48.2392 6.83661
48.288 6.8063
48.337 6.7431
48.3858 6.7331
48.4348 6.69459
48.4837 6.6777
48.5327 6.69518
48.5815 6.65956
48.6306 6.61665
48.6795 6.60137
48.7285 6.56634
48.7774 6.53083
48.8265 6.53824
48.8754 6.47998
48.9245 6.48124
48.9734 6.43684
49.0226 6.44586
49.0715 6.45722
49.1206 6.3656
49.1696 6.35226
49.2188 6.3541
49.2679 6.30513
49.3169 6.27985
49.3661 6.26392
49.4151 6.27107
49.4643 6.23425
49.5134 6.22169
49.5626 6.15262
49.6117 6.17236
49.6609 6.15205
49.71 6.11305
49.7592 6.11178
49.8083 6.09122
49.8576 6.08943
49.9067 6.01327
49.956 6.01572
50.0052 5.97199
50.0545 5.94396
50.1036 5.93948
50.153 5.90648
50.2022 5.89825
50.2515 5.87361
50.3007 5.84118
50.3501 5.83067
50.3993 5.81326
50.4487 5.78692
50.498 5.7755
50.5474 5.77289
50.5966 5.72438
50.6461 5.71482
50.6955 5.68138
50.7448 5.66906
50.7943 5.65796
50.8436 5.61226
50.8931 5.6083
50.9424 5.59406
50.9919 5.54983
51.0413 5.54477
51.0908 5.51635
51.1402 5.50895
51.1897 5.52163
51.2391 5.44453
51.2887 5.4285
51.3381 5.39449
51.3877 5.41383
51.4371 5.38966
51.4867 5.33681
51.5362 5.31776
51.5858 5.31951
51.6353 5.27584
51.6849 5.27529
51.7344 5.25136
51.7841 5.22201
51.8336 5.21568
51.8833 5.192
51.9328 5.18751
51.9826 5.15332
52.0323 5.10938
52.0818 5.09465
52.1316 5.08415
52.1812 5.06397
52.231 5.0246
52.2806 5.00845
52.3304 5.02525
52.38 4.98637
52.4298 4.97241
52.4794 4.94391
52.5293 4.93225
52.5789 4.89838
52.6288 4.88536
52.6785 4.87065
52.7284 4.86233
52.7781 4.85439
52.828 4.83378
52.8777 4.76886
52.9276 4.76585
52.9774 4.76258
53.0273 4.75014
53.0771 4.74121
53.1271 4.72684
53.1769 4.65314
53.2269 4.68375
53.2767 4.64782
53.3267 4.63565
53.3765 4.58891
53.4266 4.59358
53.4766 4.57496
53.5265 4.56776
53.5765 4.51748
53.6264 4.50276
53.6765 4.5315
53.7264 4.44041
53.7765 4.44269
53.8265 4.43192
53.8766 4.41549
53.9266 4.38152
53.9767 4.35317
54.0267 4.33327
54.0769 4.34526
54.1269 4.27119
54.1771 4.25193
54.2271 4.2283
54.2773 4.23274
54.3274 4.19529
54.3776 4.1456
54.4277 4.15457
54.478 4.10817
54.528 4.05866
54.5783 4.02755
54.6285 4.01337
54.6788 3.9817
54.7289 3.96652
54.7792 3.90557
54.8296 3.8657
54.8798 3.87336
54.9301 3.85183
54.9803 3.79837
55.0307 3.76381
55.0809 3.75343
55.1314 3.7565
55.1816 3.62812
55.232 3.59803
55.2823 3.61582
55.3328 3.55122
55.383 3.49414
55.4335 3.47236
55.4838 3.45119
55.5344 3.45608
55.5847 3.40507
55.6352 3.38307
55.6856 3.37231
55.7361 3.35233