File: XRD/Ni3Fe_FD0705.xy
TT I
1.27165 7.66478
1.31627 6.29235
1.36089 6.73498
1.40551 6.38768
1.45013 6.65642
1.49476 6.22238
1.53938 6.28765
1.584 5.10561
1.62863 5.09832
1.67325 4.89093
1.71787 5.14297
1.7625 4.69184
1.80712 4.71634
1.85174 4.37043
1.89636 4.7103
1.94099 4.97762
1.98562 4.93738
2.03025 4.46605
2.07487 4.83307
2.11949 4.81402
2.16411 5.3759
2.20874 8.85476
2.25338 11.4303
2.298 5.45673
2.34263 5.30473
2.38725 5.40629
2.43188 5.86579
2.4765 7.02546
2.52115 6.86909
2.56577 7.61824
2.6104 7.61447
2.65503 7.55568
2.69965 8.46199
2.7443 8.47231
2.78893 8.42959
2.83356 8.40088
2.87818 8.83422
2.92281 8.76858
2.96744 9.00384
3.01209 10.4403
3.05672 10.6839
3.10135 12.5729
3.14599 13.2263
3.19062 14.1523
3.23527 14.9281
3.2799 15.8521
3.32454 16.5797
3.36917 17.5328
3.4138 18.8323
3.45844 19.4748
3.50309 20.5564
3.54773 21.5008
3.59237 23.1189
3.637 51.6161
3.68164 37.0118
3.7263 25.2419
3.77094 25.6915
3.81558 26.4476
3.86022 27.4162
3.90486 28.913
3.9495 29.1883
3.99416 30.3041
4.0388 31.5031
4.08344 33.4296
4.12809 34.4242
4.17273 35.4339
4.21738 39.0349
4.26204 123.072
4.30669 107.878
4.35133 44.3118
4.39598 43.2028
4.44063 48.7087
4.4853 53.9593
4.52995 56.0326
4.5746 56.5239
4.61925 53.7224
4.6639 55.3623
4.70855 58.131
4.75322 61.1519
4.79788 67.887
4.84253 68.9817
4.88719 74.522
4.93184 76.8846
4.97652 81.8374
5.02118 87.9254
5.06583 95.1154
5.11049 107.215
5.15515 158.16
5.19981 432.811
5.24449 3045.07
5.28916 12578.7
5.33382 2631.22
5.37848 195.968
5.42315 131.036
5.46783 119.317
5.5125 111.294
5.55716 102.636
5.60183 98.1562
5.6465 96.5746
5.69117 94.956
5.73586 93.3354
5.78053 97.7057
5.8252 97.9662
5.86988 100.313
5.91455 95.8333
5.95924 106.18
6.00392 256.17
6.0486 1036.71
6.09328 4584.0
6.13795 3108.26
6.18263 220.526
6.22733 91.0744
6.27201 81.0716
6.3167 84.8721
6.36138 74.5218
6.40606 69.6672
6.45075 69.2322
6.49545 65.2319
6.54014 63.3471
6.58483 62.8955
6.62952 62.7836
6.67421 74.4021
6.71892 91.9912
6.76361 62.0376
6.8083 59.285
6.853 59.5135
6.89769 56.7987
6.94239 55.9025
6.98711 55.7657
7.03181 55.6342
7.07651 54.7351
7.12121 54.7258
7.16591 55.9123
7.21063 55.4893
7.25533 60.9864
7.30004 101.727
7.34475 68.3103
7.38945 54.8661
7.43416 53.7693
7.47889 53.7286
7.5236 53.9391
7.56831 54.7466
7.61303 55.6654
7.65774 56.0664
7.70247 56.5931
7.74719 56.1617
7.79191 56.731
7.83663 56.5754
7.88135 57.7567
7.92607 58.4885
7.97081 59.9124
8.01553 60.7957
8.06026 62.1955
8.10498 63.9852
8.14971 71.0593
8.19446 70.3873
8.23919 69.5611
8.28392 71.69
8.32865 74.2231
8.37339 78.725
8.41812 84.2097
8.46288 104.668
8.50761 189.011
8.55235 411.216
8.59709 1256.25
8.64183 2173.34
8.68658 845.428
8.73134 148.939
8.77609 98.2464
8.82083 92.4228
8.86558 92.2629
8.91033 91.8234
8.9551 89.513
8.99985 85.1244
9.04461 83.5778
9.08936 84.1463
9.13412 82.6202
9.17888 82.0877
9.22365 81.9943
9.26841 82.2132
9.31318 84.6753
9.35794 86.4668
9.4027 85.5889
9.44749 85.2225
9.49226 84.8295
9.53703 85.7421
9.5818 89.2665
9.62657 93.7432
9.67134 95.6391
9.71614 92.8758
9.76091 95.0576
9.80569 99.4489
9.85047 101.69
9.89525 112.313
9.94005 129.854
9.98484 200.163
10.0296 366.445
10.0744 853.984
10.1192 1800.79
10.164 1536.36
10.2088 355.882
10.2536 121.827
10.2984 109.545
10.3432 108.67
10.388 105.856
10.4328 124.656
10.4776 166.484
10.5224 294.945
10.5672 514.028
10.612 492.488
10.6568 192.001
10.7017 94.0839
10.7465 86.1723
10.7913 83.2775
10.8361 81.2158
10.8809 78.8262
10.9257 77.9442
10.9706 77.8563
11.0154 75.275
11.0602 72.8863
11.105 71.244
11.1499 72.2386
11.1947 74.5648
11.2395 70.5884
11.2844 68.3768
11.3292 66.95
11.374 65.8717
11.4189 65.4273
11.4637 64.5081
11.5086 64.4462
11.5534 65.394
11.5983 64.1549
11.6431 63.4627
11.688 62.9455
11.7328 62.6193
11.7777 62.5695
11.8225 62.514
11.8674 62.4273
11.9122 62.6422
11.9571 62.9187
12.002 64.4553
12.0468 69.5346
12.0917 79.5169
12.1366 105.179
12.1814 155.389
12.2263 204.504
12.2712 155.781
12.3161 87.2534
12.3609 66.9517
12.4058 63.7239
12.4507 63.9006
12.4956 64.6747
12.5405 64.875
12.5853 65.0139
12.6302 68.4478
12.6751 70.6971
12.72 67.9488
12.7649 67.5134
12.8098 68.6892
12.8547 69.875
12.8996 71.6465
12.9445 72.937
12.9894 74.6497
13.0343 76.1665
13.0792 80.5088
13.1242 94.0837
13.1691 114.499
13.214 154.346
13.2589 250.253
13.3038 381.382
13.3487 415.106
13.3937 248.793
13.4386 120.752
13.4835 108.606
13.5285 123.509
13.5734 165.644
13.6183 260.705
13.6633 359.999
13.7082 328.708
13.7531 173.164
13.7981 93.9981
13.843 81.1654
13.888 79.525
13.9329 77.1614
13.9779 75.7892
14.0228 74.2203
14.0678 72.9126
14.1127 72.4697
14.1577 71.8015
14.2027 71.1924
14.2476 70.4468
14.2926 69.8855
14.3376 70.3439
14.3825 69.6869
14.4275 68.639
14.4725 68.5582
14.5175 68.9661
14.5624 69.0326
14.6074 69.9019
14.6524 70.5557
14.6974 70.6583
14.7424 74.2365
14.7874 80.7888
14.8324 90.7207
14.8774 114.462
14.9224 159.631
14.9674 213.027
15.0124 215.472
15.0574 139.454
15.1024 86.4078
15.1474 71.7109
15.1924 70.1693
15.2374 69.3141
15.2824 68.8433
15.3274 67.3469
15.3725 66.6443
15.4175 66.3662
15.4625 65.8414
15.5076 65.7846
15.5526 65.7632
15.5976 65.9231
15.6426 68.5557
15.6877 73.6442
15.7327 81.1396
15.7778 97.1957
15.8228 130.314
15.8679 174.384
15.9129 194.001
15.958 148.655
16.003 91.2582
16.0481 66.4136
16.0931 63.0026
16.1382 61.2086
16.1833 60.042
16.2283 58.7602
16.2734 57.932
16.3185 57.8046
16.3636 57.6864
16.4086 56.5119
16.4537 55.9957
16.4988 55.2029
16.5439 55.1422
16.589 54.9548
16.6341 54.7696
16.6792 54.3661
16.7243 54.5581
16.7694 54.6069
16.8145 54.4737
16.8596 54.9367
16.9047 55.436
16.9498 55.7613
16.9949 55.1489
17.04 56.0545
17.0851 57.2362
17.1302 58.8888
17.1754 62.0007
17.2205 67.6301
17.2656 75.1186
17.3108 83.09
17.3559 81.2257
17.401 69.4599
17.4462 61.3723
17.4913 59.3024
17.5365 58.9345
17.5815 59.0031
17.6268 59.7057
17.6718 60.0851
17.7171 60.6014
17.7622 61.4737
17.8074 62.4581
17.8525 65.5094
17.8977 69.0053
17.9428 74.4214
17.9881 84.1721
18.0331 102.701
18.0784 125.73
18.1237 141.96
18.1688 130.276
18.214 100.531
18.2591 86.0082
18.3044 91.4826
18.3495 101.248
18.3948 105.965
18.4399 93.7307
18.4852 74.9492
18.5303 65.0848
18.5756 61.9331
18.6207 60.8732
18.666 59.9184
18.7112 59.2439
18.7565 58.7053
18.8016 58.63
18.8469 57.8895
18.892 57.6492
18.9374 57.4389
18.9825 56.7673
19.0278 56.6252
19.073 56.9226
19.1183 57.2228
19.1635 57.7393
19.2088 59.3055
19.254 62.67
19.2993 67.2554
19.3447 73.2949
19.3898 75.9639
19.4352 70.9262
19.4804 61.7894
19.5257 55.8758
19.5709 54.0561
19.6163 53.91
19.6615 53.4383
19.7068 53.2486
19.752 53.2652
19.7974 53.7726
19.8426 54.3261
19.888 54.8025
19.9332 56.275
19.9786 59.1835
20.0238 62.9909
20.0692 67.805
20.1144 69.6747
20.1598 67.5607
20.205 63.203
20.2504 62.208
20.2957 64.0416
20.3411 65.4788
20.3863 62.9954
20.4318 57.198
20.477 52.6876
20.5224 51.1098
20.5677 50.5684
20.6131 50.0169
20.6586 49.3623
20.7038 49.5368
20.7493 49.0731
20.7945 48.7992
20.84 48.7782
20.8853 48.6022
20.9307 48.4706
20.976 48.6597
21.0215 48.582
21.0668 48.9277
21.1122 49.4618
21.1575 50.058
21.203 51.0311
21.2483 51.4559
21.2938 51.3109
21.3391 49.6926
21.3846 48.7856
21.4299 48.3663
21.4754 48.2949
21.5207 48.5385
21.5662 49.0213
21.6116 49.3335
21.6571 50.0689
21.7024 50.9917
21.7479 52.783
21.7933 55.7782
21.8388 59.5075
21.8843 63.3565
21.9297 64.8779
21.9752 62.8774
22.0206 58.8019
22.0661 56.1824
22.1115 55.7989
22.157 55.8471
22.2024 53.9515
22.248 51.1663
22.2933 49.5311
22.3389 48.9007
22.3843 48.7208
22.4299 48.5585
22.4753 48.7697
22.5208 48.3537
22.5662 48.4598
22.6118 48.6807
22.6572 48.867
22.7028 49.2456
22.7483 49.6977
22.7939 50.3741
22.8393 52.1143
22.8849 54.4178
22.9303 56.3495
22.9759 57.7724
23.0214 57.123
23.067 53.8348
23.1126 50.6431
23.1581 48.8595
23.2037 48.6534
23.2492 48.9711
23.2948 48.9268
23.3403 49.0831
23.3859 49.6302
23.4314 50.9998
23.477 52.922
23.5225 55.2319
23.5682 57.301
23.6137 57.7343
23.6593 54.8766
23.7048 50.8383
23.7505 47.8506
23.796 46.4829
23.8417 45.9613
23.8872 45.5195
23.9329 45.1538
23.9784 44.6653
24.0241 44.5323
24.0697 44.257
24.1154 44.0113
24.1609 43.8133
24.2066 43.6384
24.2522 43.4738
24.2979 43.2542
24.3434 43.1449
24.3892 42.9631
24.4349 42.947
24.4805 42.814
24.5262 43.064
24.5718 42.7306
24.6175 42.7765
24.6631 42.6476
24.7089 42.3186
24.7545 42.1606
24.8002 42.1301
24.8458 42.2706
24.8916 42.0063
24.9372 42.2644
24.983 42.5069
25.0286 42.8805
25.0744 43.2916
25.12 43.6648
25.1658 44.3576
25.2114 44.6293
25.2572 44.7587
25.3029 44.8019
25.3487 44.9365
25.3943 44.3966
25.4402 43.1614
25.4858 42.2517
25.5316 41.2186
25.5773 40.76
25.6231 40.8175
25.669 40.4438
25.7147 40.5581
25.7605 40.2484
25.8062 40.4806
25.8521 40.4338
25.8977 40.5436
25.9436 40.8421
25.9893 40.9496
26.0352 41.4426
26.0809 41.5087
26.1268 41.5362
26.1725 41.3006
26.2184 40.6498
26.2641 40.0443
26.31 40.0101
26.3557 40.0377
26.4017 39.9293
26.4474 40.278
26.4933 40.6272
26.5391 41.2407
26.585 41.7215
26.6308 42.0807
26.6767 42.0511
26.7225 41.8147
26.7684 41.3131
26.8142 40.8225
26.8601 40.2361
26.9059 39.7893
26.9519 39.3659
26.9979 39.0765
27.0437 38.8822
27.0896 38.7239
27.1354 38.6843
27.1814 38.5689
27.2272 38.4303
27.2732 38.4456
27.3191 38.2381
27.3651 38.4142
27.4109 38.5166
27.4569 38.4576
27.5027 38.5222
27.5488 38.4467
27.5946 38.3139
27.6407 38.1684
27.6865 38.0368
27.7326 37.8169
27.7784 37.886
27.8245 37.7947
27.8703 37.9399
27.9164 38.2909
27.9623 38.3499
28.0084 38.7323
28.0543 39.1429
28.1003 38.8975
28.1462 38.7174
28.1923 38.3468
28.2384 37.7578
28.2843 37.4324
28.3304 37.0858
28.3764 36.6028
28.4225 36.2864
28.4684 36.3102
28.5145 35.8368
28.5605 35.6986
28.6066 35.5863
28.6526 35.5695
28.6987 35.5307
28.7447 35.4389
28.7908 35.3151
28.8368 35.3578
28.8829 35.2946
28.9289 35.3584
28.9751 35.1044
29.0211 34.754
29.0673 34.647
29.1133 34.4593
29.1595 34.4052
29.2055 34.1459
29.2517 34.2711
29.2977 34.2058
29.3439 34.2345
29.3899 34.2092
29.4361 34.0078
29.4824 33.7922
29.5284 33.5664
29.5746 33.1959
29.6207 33.0613
29.6669 32.9562
29.713 32.9088
29.7593 32.837
29.8053 32.8673
29.8516 32.7195
29.8977 32.7768
29.9439 32.5007
29.99 32.4778
30.0363 32.3488
30.0824 32.4288
30.1287 32.3422
30.1748 32.3935
30.2211 32.2597
30.2673 32.289
30.3136 32.2971
30.3597 32.196
30.406 32.0847
30.4522 32.0618
30.4985 31.9731
30.5447 32.1726
30.591 32.0308
30.6372 32.1789
30.6835 32.1466
30.7297 32.2008
30.7761 32.0508
30.8224 31.8543
30.8686 31.8958
30.915 31.5702
30.9612 31.4632
31.0076 31.2032
31.0538 31.143
31.1002 31.0559
31.1464 30.8532
31.1928 30.8906
31.2391 30.9102
31.2855 30.8292
31.3317 30.6976
31.3781 30.8597
31.4244 30.8262
31.4708 30.7615
31.5171 30.6597
31.5636 30.7056
31.6098 30.4462
31.6563 30.2147
31.7026 30.1376
31.7491 30.0539
31.7953 30.1424
31.8418 30.0153
31.8881 30.0862
31.9346 30.0596
31.9809 29.9826
32.0275 29.8359
32.074 29.7073
32.1203 29.4721
32.1668 29.5099
32.2132 29.4336
32.2597 29.1191
32.306 29.0936
32.3526 28.9311
32.399 28.8698
32.4455 28.7531
32.4919 28.671
32.5385 28.6087
32.5848 28.3801
32.6314 28.4558
32.6778 28.3747
32.7244 28.1583
32.7708 28.1543
32.8174 28.1341
32.8638 27.9746
32.9104 28.0439
32.9569 27.9483
33.0035 27.8358
33.0499 27.8415
33.0966 27.7768
33.143 27.7324
33.1897 27.6272
33.2361 27.5987
33.2828 27.5794
33.3293 27.3237
33.3759 27.2948
33.4226 27.1435
33.4691 26.9632
33.5158 26.9928
33.5623 26.8181
33.609 26.7057
33.6555 26.5661
33.7022 26.5409
33.7487 26.3923
33.7954 26.4787
33.842 26.3074
33.8887 26.2581
33.9353 26.1882
33.982 26.1416
34.0286 26.0507
34.0753 25.9686
34.1219 25.8631
34.1687 25.7822
34.2152 25.7337
34.262 25.565
34.3086 25.5184
34.3554 25.4679
34.402 25.4022
34.4488 25.2585
34.4954 25.1898
34.5422 25.1341
34.5889 25.0469
34.6357 24.9132
34.6825 24.8986
34.7292 24.7813
34.776 24.6203
34.8227 24.6561
34.8695 24.6019
34.9162 24.5987
34.9631 24.3466
35.0098 24.4082
35.0566 24.3186
35.1033 24.1365
35.1502 24.2446
35.1969 24.1648
35.2438 24.0948
35.2906 24.0284
35.3375 24.0666
35.3842 23.897
35.4311 23.9635
35.4779 23.8151
35.5248 23.8551
35.5716 23.7124
35.6185 23.6234
35.6653 23.6457
35.7123 23.5197
35.759 23.3223
35.806 23.2805
35.8528 23.1466
35.8998 23.1187
35.9468 23.1128
35.9936 23.0474
36.0406 22.9022
36.0874 22.9292
36.1345 22.8543
36.1813 22.8197
36.2283 22.659
36.2752 22.5858
36.3222 22.6084
36.3691 22.4451
36.4161 22.3438
36.463 22.3177
36.5101 22.3899
36.557 22.26
36.6041 22.1326
36.651 22.1705
36.6981 22.0107
36.745 22.0181
36.7921 21.8817
36.839 21.8146
36.8861 21.7976
36.9331 21.718
36.9802 21.5691
37.0272 21.5538
37.0743 21.3958
37.1213 21.4385
37.1684 21.3559
37.2154 21.2687
37.2626 21.2047
37.3098 21.1351
37.3568 21.054
37.404 21.0808
37.451 20.9664
37.4982 20.8884
37.5452 20.7597
37.5924 20.758
37.6395 20.7603
37.6867 20.6653
37.7337 20.6147
37.781 20.4509
37.8281 20.4176
37.8753 20.3734
37.9224 20.2912
37.9697 20.2082
38.0168 20.1285
38.064 20.0919
38.1111 19.9974
38.1584 19.9412
38.2056 19.869
38.2529 19.7923
38.3 19.7685
38.3473 19.7197
38.3945 19.6574
38.4418 19.6062
38.489 19.5367
38.5363 19.44
38.5837 19.3921
38.6309 19.4043
38.6782 19.2765
38.7254 19.1699
38.7728 19.1246
38.82 19.0396
38.8674 19.0767
38.9146 19.0495
38.9621 18.9213
39.0093 18.8531
39.0567 18.8533
39.104 18.7075
39.1514 18.5695
39.1987 18.6347
39.2461 18.545
39.2934 18.5049
39.3409 18.3751
39.3882 18.3853
39.4356 18.3147
39.483 18.2294
39.5304 18.2075
39.5778 18.149
39.6253 18.0672
39.6726 18.0771
39.7201 18.0552
39.7675 17.8929
39.815 17.8284
39.8624 17.8091
39.9099 17.8407
39.9575 17.6448
40.0049 17.6439
40.0525 17.5813
40.0999 17.6136
40.1474 17.4588
40.1949 17.4052
40.2425 17.3863
40.2899 17.3128
40.3375 17.2603
40.385 17.2417
40.4326 17.1249
40.48 17.072
40.5277 17.0299
40.5752 16.9508
40.6228 16.8867
40.6703 16.8711
40.718 16.8376
40.7655 16.7834
40.8132 16.7184
40.8607 16.7086
40.9084 16.6375
40.9559 16.5772
41.0036 16.4464
41.0512 16.4744
41.0989 16.4747
41.1465 16.37
41.1942 16.2712
41.242 16.2028
41.2896 16.1831
41.3373 16.0658
41.3849 16.0751
41.4327 16.0222
41.4803 15.9305
41.5281 15.9873
41.5758 15.8637
41.6236 15.804
41.6712 15.7339
41.7191 15.6283
41.7667 15.6176
41.8146 15.5689
41.8622 15.4971
41.9101 15.5416
41.9578 15.4544
42.0057 15.3829
42.0534 15.3003
42.1013 15.2731
42.149 15.2136
42.1969 15.2002
42.2446 15.1435
42.2925 15.1505
42.3403 15.0288
42.3882 14.9763
42.436 14.936
42.4839 14.8997
42.5319 14.7747
42.5797 14.7624
42.6277 14.7359
42.6755 14.6576
42.7235 14.6007
42.7713 14.5469
42.8193 14.4829
42.8671 14.4627
42.9152 14.4381
42.963 14.3837
43.0111 14.3449
43.0589 14.2879
43.107 14.1859
43.1549 14.2012
43.2029 14.0925
43.2508 14.1103
43.2989 13.9998
43.3468 13.9744
43.3949 13.938
43.4429 13.8748
43.491 13.8307
43.5389 13.7748
43.5871 13.7184
43.635 13.7133
43.6832 13.6669
43.7312 13.5658
43.7793 13.5453
43.8273 13.4931
43.8755 13.4524
43.9237 13.4561
43.9717 13.3876
44.0199 13.294
44.068 13.2591
44.1162 13.242
44.1642 13.2097
44.2125 13.1739
44.2606 13.1384
44.3088 13.0677
44.3569 12.9936
44.4052 12.9805
44.4533 12.8721
44.5016 12.8314
44.5497 12.8018
44.598 12.7924
44.6461 12.719
44.6945 12.6789
44.7426 12.6659
44.791 12.5893
44.8391 12.6337
44.8875 12.5099
44.9357 12.4721
44.984 12.4336
45.0322 12.3859
45.0806 12.3679
45.1288 12.2342
45.1773 12.2513
45.2257 12.1989
45.2739 12.2224
45.3224 12.1266
45.3706 12.0898
45.4191 12.0623
45.4673 11.9773
45.5158 11.9835
45.5641 11.8817
45.6126 11.8625
45.6609 11.789
45.7094 11.7675
45.7577 11.6924
45.8063 11.6728
45.8546 11.6439
45.9031 11.5921
45.9515 11.613
46.0001 11.5154
46.0484 11.4634
46.097 11.4653
46.1454 11.4379
46.194 11.3889
46.2424 11.3637
46.291 11.2674
46.3395 11.2568
46.3881 11.1916
46.4365 11.1519
46.4852 11.146
46.5337 11.0561
46.5823 11.0767
46.631 11.0003
46.6795 10.9744
46.7282 10.9446
46.7767 10.8967
46.8254 10.8389
46.8739 10.7965
46.9226 10.778
46.9712 10.7108
47.0199 10.6834
47.0685 10.6041
47.1173 10.5942
47.1658 10.5584
47.2146 10.5258
47.2632 10.4873
47.312 10.4452
47.3606 10.4308
47.4095 10.34
47.4581 10.31
47.5069 10.2757
47.5556 10.2272
47.6044 10.2161
47.6531 10.1915
47.702 10.1088
47.7507 10.0678
47.7996 10.0856
47.8483 10.0302
47.8972 10.0308
47.9461 9.93982
47.9948 9.92042
48.0438 9.91663
48.0925 9.86801
48.1415 9.83426
48.1902 9.74318
48.2392 9.72982
48.288 9.69381
48.337 9.67107
48.3858 9.60223
48.4348 9.59214
48.4837 9.59588
48.5327 9.54024
48.5815 9.4984
48.6306 9.44041
48.6795 9.4402
48.7285 9.33102
48.7774 9.3657
48.8265 9.30905
48.8754 9.28603
48.9245 9.2465
48.9734 9.2602
49.0226 9.19864
49.0715 9.15507
49.1206 9.13453
49.1696 9.08041
49.2188 9.05285
49.2679 9.00669
49.3169 8.97555
49.3661 8.9293
49.4151 8.91785
49.4643 8.87203
49.5134 8.84876
49.5626 8.78347
49.6117 8.78046
49.6609 8.74986
49.71 8.68799
49.7592 8.66194
49.8083 8.60847
49.8576 8.614
49.9067 8.54964
49.956 8.52205
50.0052 8.49249
50.0545 8.47994
50.1036 8.44197
50.153 8.40778
50.2022 8.3898
50.2515 8.36332
50.3007 8.2842
50.3501 8.24843
50.3993 8.24232
50.4487 8.2305
50.498 8.22506
50.5474 8.17797
50.5966 8.12977
50.6461 8.09419
50.6955 8.06069
50.7448 8.02786
50.7943 7.97688
50.8436 7.96048
50.8931 7.95746
50.9424 7.9195
50.9919 7.84786
51.0413 7.85208
51.0908 7.81642
51.1402 7.80867
51.1897 7.75421
51.2391 7.70397
51.2887 7.67982
51.3381 7.62132
51.3877 7.66183
51.4371 7.57217
51.4867 7.56343
51.5362 7.54832
51.5858 7.5015
51.6353 7.46255
51.6849 7.46501
51.7344 7.4093
51.7841 7.37278
51.8336 7.36307
51.8833 7.30418
51.9328 7.254
51.9826 7.23734
52.0323 7.20834
52.0818 7.2106
52.1316 7.15352
52.1812 7.13222
52.231 7.0667
52.2806 7.07826
52.3304 7.04413
52.38 6.99658
52.4298 6.99895
52.4794 6.97447
52.5293 6.92609
52.5789 6.90072
52.6288 6.896
52.6785 6.84888
52.7284 6.82838
52.7781 6.77382
52.828 6.78317
52.8777 6.76308
52.9276 6.68505
52.9774 6.65976
53.0273 6.6783
53.0771 6.64755
53.1271 6.59645
53.1769 6.55407
53.2269 6.56118
53.2767 6.50699
53.3267 6.4748
53.3765 6.46133
53.4266 6.42858
53.4766 6.41681
53.5265 6.36118
53.5765 6.3516
53.6264 6.30206
53.6765 6.27163
53.7264 6.27463
53.7765 6.2538
53.8265 6.16796
53.8766 6.16461
53.9266 6.15736
53.9767 6.12114
54.0267 6.13416
54.0769 6.06067
54.1269 6.06844
54.1771 5.98172
54.2271 5.93644
54.2773 5.93572
54.3274 5.92862
54.3776 5.89319
54.4277 5.88452
54.478 5.8513
54.528 5.77975
54.5783 5.70844
54.6285 5.70061
54.6788 5.63497
54.7289 5.63062
54.7792 5.56645
54.8296 5.52791
54.8798 5.48785
54.9301 5.46129
54.9803 5.4359
55.0307 5.40391
55.0809 5.371
55.1314 5.32775
55.1816 5.27695
55.232 5.22577
55.2823 5.23343
55.3328 5.15702
55.383 5.04399
55.4335 5.0294
55.4838 5.02939
55.5344 5.00976
55.5847 4.90674
55.6352 4.88699
55.6856 4.90561
55.7361 4.82184