File: XRD/Ni3Fe_FD0708.xy
TT I
1.27165 7.38948
1.31627 6.31288
1.36089 6.33833
1.40551 6.6849
1.45013 6.30548
1.49476 5.65761
1.53938 5.78824
1.584 5.11868
1.62863 5.21061
1.67325 5.01345
1.71787 5.19493
1.7625 5.02638
1.80712 4.82524
1.85174 4.12036
1.89636 4.56468
1.94099 5.00281
1.98562 4.62613
2.03025 3.67532
2.07487 4.22734
2.11949 4.70945
2.16411 4.92209
2.20874 8.57693
2.25338 11.0976
2.298 5.52188
2.34263 5.67377
2.38725 5.76143
2.43188 6.23098
2.4765 7.20714
2.52115 6.7511
2.56577 7.68688
2.6104 7.71449
2.65503 8.03447
2.69965 7.51212
2.7443 8.2356
2.78893 7.99015
2.83356 8.53327
2.87818 8.68119
2.92281 9.31951
2.96744 10.0109
3.01209 10.3302
3.05672 10.9571
3.10135 12.0977
3.14599 13.2483
3.19062 14.1614
3.23527 14.946
3.2799 14.9943
3.32454 16.395
3.36917 17.4311
3.4138 19.1395
3.45844 19.7987
3.50309 20.5151
3.54773 21.6899
3.59237 23.1928
3.637 49.4661
3.68164 37.183
3.7263 24.9308
3.77094 25.4656
3.81558 26.5516
3.86022 27.0972
3.90486 28.5731
3.9495 29.5538
3.99416 30.4644
4.0388 31.9056
4.08344 33.3616
4.12809 34.202
4.17273 35.4949
4.21738 39.3196
4.26204 120.162
4.30669 104.572
4.35133 44.5914
4.39598 43.6764
4.44063 48.7292
4.4853 53.8608
4.52995 56.2565
4.5746 57.3209
4.61925 53.6765
4.6639 55.4873
4.70855 58.7331
4.75322 62.0076
4.79788 68.3836
4.84253 68.2163
4.88719 75.515
4.93184 76.8348
4.97652 81.2769
5.02118 87.5983
5.06583 95.7496
5.11049 107.757
5.15515 157.128
5.19981 430.754
5.24449 3063.15
5.28916 12532.2
5.33382 2639.54
5.37848 197.369
5.42315 131.265
5.46783 120.166
5.5125 112.171
5.55716 102.171
5.60183 97.858
5.6465 95.9477
5.69117 94.6111
5.73586 92.8581
5.78053 98.0875
5.8252 97.4608
5.86988 100.662
5.91455 95.8154
5.95924 106.078
6.00392 255.941
6.0486 1030.79
6.09328 4597.93
6.13795 3055.98
6.18263 220.129
6.22733 91.0187
6.27201 80.6936
6.3167 84.4839
6.36138 74.8626
6.40606 69.8391
6.45075 69.6763
6.49545 65.0751
6.54014 63.0525
6.58483 62.8325
6.62952 62.9226
6.67421 73.2692
6.71892 90.5312
6.76361 61.9729
6.8083 59.4065
6.853 59.3766
6.89769 56.5074
6.94239 55.9993
6.98711 55.4485
7.03181 55.5248
7.07651 55.0161
7.12121 54.9374
7.16591 55.989
7.21063 55.2776
7.25533 60.3835
7.30004 99.5491
7.34475 67.6534
7.38945 54.7059
7.43416 53.5331
7.47889 53.8022
7.5236 54.2182
7.56831 55.0184
7.61303 55.4173
7.65774 56.0043
7.70247 56.7525
7.74719 56.2265
7.79191 56.3134
7.83663 56.4127
7.88135 57.1083
7.92607 58.6656
7.97081 59.5638
8.01553 61.1425
8.06026 62.4463
8.10498 64.082
8.14971 70.9459
8.19446 70.8319
8.23919 69.1817
8.28392 71.882
8.32865 74.0591
8.37339 78.6496
8.41812 84.3354
8.46288 104.616
8.50761 188.78
8.55235 409.982
8.59709 1255.24
8.64183 2182.73
8.68658 837.775
8.73134 148.845
8.77609 98.1497
8.82083 92.3586
8.86558 92.6018
8.91033 92.3124
8.9551 89.8479
8.99985 85.1403
9.04461 83.7667
9.08936 84.1316
9.13412 82.9455
9.17888 82.0336
9.22365 82.1098
9.26841 82.1759
9.31318 84.8706
9.35794 86.4808
9.4027 85.9577
9.44749 84.9697
9.49226 84.82
9.53703 86.5844
9.5818 89.4211
9.62657 94.1927
9.67134 95.5602
9.71614 92.8242
9.76091 95.0001
9.80569 99.3743
9.85047 101.664
9.89525 112.128
9.94005 129.75
9.98484 199.614
10.0296 365.197
10.0744 853.61
10.1192 1808.0
10.164 1531.69
10.2088 355.262
10.2536 121.558
10.2984 109.385
10.3432 108.408
10.388 105.941
10.4328 124.6
10.4776 166.623
10.5224 295.038
10.5672 511.049
10.612 494.196
10.6568 191.242
10.7017 94.0493
10.7465 85.9977
10.7913 83.1287
10.8361 80.9968
10.8809 78.7054
10.9257 77.6529
10.9706 77.8877
11.0154 74.9924
11.0602 72.8521
11.105 71.2562
11.1499 71.9522
11.1947 74.0498
11.2395 70.3048
11.2844 68.0499
11.3292 67.0637
11.374 65.6959
11.4189 65.5398
11.4637 64.4538
11.5086 64.752
11.5534 65.3314
11.5983 64.2204
11.6431 63.1946
11.688 62.6891
11.7328 62.6011
11.7777 62.3391
11.8225 62.5379
11.8674 62.1963
11.9122 62.5393
11.9571 62.871
12.002 64.5613
12.0468 69.4709
12.0917 79.2679
12.1366 105.215
12.1814 155.009
12.2263 205.817
12.2712 155.748
12.3161 86.8152
12.3609 67.0312
12.4058 63.768
12.4507 63.8638
12.4956 64.4427
12.5405 64.7229
12.5853 65.0094
12.6302 68.1107
12.6751 70.7995
12.72 68.0924
12.7649 67.5154
12.8098 68.3892
12.8547 70.0284
12.8996 71.4633
12.9445 72.9815
12.9894 74.4086
13.0343 76.1955
13.0792 80.8289
13.1242 93.9743
13.1691 114.073
13.214 152.99
13.2589 250.315
13.3038 380.138
13.3487 415.185
13.3937 248.691
13.4386 120.623
13.4835 108.158
13.5285 123.156
13.5734 165.794
13.6183 259.21
13.6633 357.369
13.7082 329.012
13.7531 173.079
13.7981 94.0252
13.843 81.5263
13.888 79.2621
13.9329 77.0709
13.9779 75.9008
14.0228 73.9958
14.0678 72.8654
14.1127 72.2692
14.1577 71.6738
14.2027 71.2811
14.2476 70.352
14.2926 69.5624
14.3376 70.0935
14.3825 69.7225
14.4275 68.7563
14.4725 68.7971
14.5175 68.61
14.5624 68.8891
14.6074 70.0532
14.6524 70.2236
14.6974 70.4538
14.7424 74.1513
14.7874 80.4729
14.8324 90.7383
14.8774 114.404
14.9224 159.842
14.9674 213.133
15.0124 216.075
15.0574 139.329
15.1024 86.4127
15.1474 71.8248
15.1924 69.9597
15.2374 69.4054
15.2824 68.5795
15.3274 67.3749
15.3725 66.6129
15.4175 66.303
15.4625 65.8247
15.5076 65.424
15.5526 65.7528
15.5976 66.2006
15.6426 68.4006
15.6877 73.5057
15.7327 80.9078
15.7778 97.0871
15.8228 130.557
15.8679 174.553
15.9129 193.251
15.958 147.958
16.003 91.2099
16.0481 66.4053
16.0931 62.8069
16.1382 61.2814
16.1833 60.0232
16.2283 58.7105
16.2734 57.9966
16.3185 57.7622
16.3636 57.7301
16.4086 56.5409
16.4537 55.8955
16.4988 55.2247
16.5439 55.0732
16.589 55.0323
16.6341 54.6845
16.6792 54.2985
16.7243 54.6352
16.7694 54.4797
16.8145 54.6151
16.8596 54.7776
16.9047 55.4329
16.9498 55.7473
16.9949 55.4035
17.04 55.9351
17.0851 57.1491
17.1302 58.5542
17.1754 61.8175
17.2205 67.2195
17.2656 75.335
17.3108 83.7544
17.3559 81.0849
17.401 69.5993
17.4462 61.2586
17.4913 59.4318
17.5365 58.9637
17.5815 58.9933
17.6268 59.6394
17.6718 60.1115
17.7171 60.5945
17.7622 61.4233
17.8074 62.6605
17.8525 65.3758
17.8977 68.6753
17.9428 74.4116
17.9881 83.9568
18.0331 102.679
18.0784 125.738
18.1237 141.918
18.1688 129.8
18.214 100.453
18.2591 85.9049
18.3044 91.6207
18.3495 101.399
18.3948 106.499
18.4399 94.1267
18.4852 74.9341
18.5303 64.9456
18.5756 61.884
18.6207 61.1166
18.666 60.1231
18.7112 59.275
18.7565 58.7357
18.8016 58.4401
18.8469 57.9921
18.892 57.5927
18.9374 57.2669
18.9825 56.8712
19.0278 56.6488
19.073 56.9114
19.1183 57.2914
19.1635 57.8875
19.2088 59.4273
19.254 62.4622
19.2993 67.2773
19.3447 73.0711
19.3898 76.0738
19.4352 70.8358
19.4804 61.7472
19.5257 56.0369
19.5709 53.8089
19.6163 53.7949
19.6615 53.4499
19.7068 53.1309
19.752 53.3605
19.7974 53.5542
19.8426 54.2892
19.888 54.8472
19.9332 56.3289
19.9786 59.0135
20.0238 62.8336
20.0692 67.4807
20.1144 69.478
20.1598 67.5071
20.205 63.1534
20.2504 62.0583
20.2957 64.1958
20.3411 65.4866
20.3863 63.2759
20.4318 57.4164
20.477 52.7169
20.5224 50.886
20.5677 50.3632
20.6131 49.8081
20.6586 49.461
20.7038 49.267
20.7493 48.7618
20.7945 48.6416
20.84 48.7002
20.8853 48.6446
20.9307 48.5224
20.976 48.489
21.0215 48.4371
21.0668 48.8627
21.1122 49.399
21.1575 50.0814
21.203 50.7961
21.2483 51.4771
21.2938 51.408
21.3391 49.8386
21.3846 48.5081
21.4299 48.399
21.4754 48.3875
21.5207 48.5167
21.5662 48.8789
21.6116 49.3942
21.6571 49.8607
21.7024 50.7109
21.7479 52.8626
21.7933 55.8272
21.8388 59.5229
21.8843 63.0709
21.9297 64.7551
21.9752 62.5873
22.0206 58.7741
22.0661 56.1652
22.1115 56.0819
22.157 55.8165
22.2024 53.7283
22.248 50.9175
22.2933 49.4307
22.3389 48.8684
22.3843 48.7151
22.4299 48.4996
22.4753 48.5918
22.5208 48.3836
22.5662 48.3412
22.6118 48.7292
22.6572 48.8448
22.7028 49.0709
22.7483 49.7377
22.7939 50.6722
22.8393 52.123
22.8849 54.2041
22.9303 56.3362
22.9759 57.8312
23.0214 57.0226
23.067 53.8037
23.1126 50.651
23.1581 48.9288
23.2037 48.7171
23.2492 48.7987
23.2948 48.786
23.3403 49.0508
23.3859 49.743
23.4314 50.9546
23.477 52.9902
23.5225 55.0303
23.5682 57.2771
23.6137 57.7454
23.6593 54.8401
23.7048 50.8515
23.7505 47.8198
23.796 46.3272
23.8417 45.8473
23.8872 45.4396
23.9329 45.0697
23.9784 44.6757
24.0241 44.5471
24.0697 44.2427
24.1154 43.895
24.1609 43.7739
24.2066 43.6183
24.2522 43.4546
24.2979 43.2679
24.3434 43.1781
24.3892 42.9709
24.4349 42.9558
24.4805 42.814
24.5262 43.0665
24.5718 42.7894
24.6175 42.7834
24.6631 42.6552
24.7089 42.1862
24.7545 42.1443
24.8002 41.9383
24.8458 42.2238
24.8916 41.895
24.9372 41.9689
24.983 42.3975
25.0286 42.845
25.0744 43.2077
25.12 43.7379
25.1658 44.3565
25.2114 44.5326
25.2572 44.5858
25.3029 44.7177
25.3487 44.8199
25.3943 44.512
25.4402 43.2333
25.4858 42.0981
25.5316 41.2414
25.5773 40.7779
25.6231 40.8221
25.669 40.4581
25.7147 40.2811
25.7605 40.1993
25.8062 40.4187
25.8521 40.5043
25.8977 40.5821
25.9436 40.8815
25.9893 40.9931
26.0352 41.3099
26.0809 41.4261
26.1268 41.6482
26.1725 41.1262
26.2184 40.5926
26.2641 40.239
26.31 39.8352
26.3557 40.0325
26.4017 40.0266
26.4474 40.4439
26.4933 40.7114
26.5391 41.0931
26.585 41.6624
26.6308 41.9559
26.6767 42.0635
26.7225 41.7329
26.7684 41.2031
26.8142 40.7128
26.8601 40.1843
26.9059 39.8954
26.9519 39.3162
26.9979 39.0322
27.0437 38.66
27.0896 38.6696
27.1354 38.7188
27.1814 38.4874
27.2272 38.3361
27.2732 38.2673
27.3191 38.2546
27.3651 38.4797
27.4109 38.3565
27.4569 38.3424
27.5027 38.484
27.5488 38.615
27.5946 38.3827
27.6407 38.1451
27.6865 38.079
27.7326 37.8125
27.7784 37.8303
27.8245 37.781
27.8703 37.8675
27.9164 38.1965
27.9623 38.341
28.0084 38.6061
28.0543 39.1834
28.1003 38.8864
28.1462 38.6841
28.1923 38.342
28.2384 37.777
28.2843 37.5149
28.3304 36.9704
28.3764 36.4985
28.4225 36.2237
28.4684 36.2636
28.5145 35.8091
28.5605 35.7029
28.6066 35.5412
28.6526 35.3438
28.6987 35.5292
28.7447 35.484
28.7908 35.3795
28.8368 35.2913
28.8829 35.3619
28.9289 35.2765
28.9751 35.0311
29.0211 34.8758
29.0673 34.4321
29.1133 34.4533
29.1595 34.2327
29.2055 34.3281
29.2517 34.1765
29.2977 34.2356
29.3439 34.2317
29.3899 34.103
29.4361 34.0142
29.4824 33.8117
29.5284 33.6618
29.5746 33.2923
29.6207 33.0505
29.6669 32.9812
29.713 32.8534
29.7593 32.7328
29.8053 32.8086
29.8516 32.7001
29.8977 32.7208
29.9439 32.5291
29.99 32.4394
30.0363 32.4019
30.0824 32.5094
30.1287 32.2918
30.1748 32.2611
30.2211 32.3426
30.2673 32.1871
30.3136 32.2309
30.3597 32.2168
30.406 32.1195
30.4522 31.9664
30.4985 31.9241
30.5447 32.0344
30.591 32.054
30.6372 32.0867
30.6835 32.2061
30.7297 32.1273
30.7761 32.0671
30.8224 31.8631
30.8686 31.6919
30.915 31.4602
30.9612 31.4801
31.0076 31.2054
31.0538 31.1372
31.1002 31.1968
31.1464 30.8667
31.1928 30.9889
31.2391 30.9401
31.2855 30.8633
31.3317 30.7779
31.3781 30.843
31.4244 30.8421
31.4708 30.7325
31.5171 30.7492
31.5636 30.6933
31.6098 30.3592
31.6563 30.3149
31.7026 30.1951
31.7491 30.0049
31.7953 30.0578
31.8418 30.0852
31.8881 30.0422
31.9346 30.0572
31.9809 29.9854
32.0275 29.7981
32.074 29.7512
32.1203 29.4612
32.1668 29.4681
32.2132 29.2763
32.2597 29.1938
32.306 29.0567
32.3526 28.8969
32.399 28.8356
32.4455 28.642
32.4919 28.5495
32.5385 28.5078
32.5848 28.4115
32.6314 28.4311
32.6778 28.3519
32.7244 28.1673
32.7708 28.0871
32.8174 28.0539
32.8638 27.872
32.9104 28.0736
32.9569 27.9232
33.0035 27.8487
33.0499 27.7283
33.0966 27.7141
33.143 27.6636
33.1897 27.6289
33.2361 27.53
33.2828 27.5168
33.3293 27.2823
33.3759 27.3084
33.4226 27.1677
33.4691 27.028
33.5158 26.9559
33.5623 26.8328
33.609 26.5893
33.6555 26.6436
33.7022 26.5898
33.7487 26.411
33.7954 26.4455
33.842 26.3205
33.8887 26.2892
33.9353 26.2049
33.982 26.0064
34.0286 25.8666
34.0753 25.8845
34.1219 25.8245
34.1687 25.7451
34.2152 25.6785
34.262 25.569
34.3086 25.4961
34.3554 25.4563
34.402 25.284
34.4488 25.2491
34.4954 25.1195
34.5422 25.1384
34.5889 25.0239
34.6357 24.9136
34.6825 24.8616
34.7292 24.7455
34.776 24.5851
34.8227 24.615
34.8695 24.5611
34.9162 24.4839
34.9631 24.3479
35.0098 24.4404
35.0566 24.2346
35.1033 24.1902
35.1502 24.1447
35.1969 24.0301
35.2438 24.1603
35.2906 24.0401
35.3375 23.9703
35.3842 23.9033
35.4311 23.8723
35.4779 23.85
35.5248 23.8258
35.5716 23.7303
35.6185 23.6144
35.6653 23.4645
35.7123 23.3842
35.759 23.3904
35.806 23.286
35.8528 23.1855
35.8998 23.1156
35.9468 23.086
35.9936 23.0191
36.0406 22.9342
36.0874 22.9271
36.1345 22.8246
36.1813 22.8147
36.2283 22.5354
36.2752 22.6482
36.3222 22.5299
36.3691 22.4288
36.4161 22.3277
36.463 22.3669
36.5101 22.2706
36.557 22.2071
36.6041 22.1014
36.651 22.1607
36.6981 22.0373
36.745 21.9543
36.7921 21.8515
36.839 21.7439
36.8861 21.7606
36.9331 21.6847
36.9802 21.5889
37.0272 21.4796
37.0743 21.5546
37.1213 21.433
37.1684 21.3588
37.2154 21.3029
37.2626 21.2003
37.3098 21.0877
37.3568 21.0484
37.404 21.0204
37.451 20.8952
37.4982 20.8421
37.5452 20.698
37.5924 20.7414
37.6395 20.7356
37.6867 20.6602
37.7337 20.5289
37.781 20.4752
37.8281 20.4083
37.8753 20.2538
37.9224 20.2693
37.9697 20.1658
38.0168 20.1542
38.064 20.096
38.1111 20.0952
38.1584 19.9701
38.2056 19.9114
38.2529 19.8594
38.3 19.7067
38.3473 19.7134
38.3945 19.6024
38.4418 19.6445
38.489 19.5503
38.5363 19.4816
38.5837 19.4056
38.6309 19.3375
38.6782 19.3152
38.7254 19.2176
38.7728 19.1734
38.82 19.0869
38.8674 19.0664
38.9146 18.9608
38.9621 18.8513
39.0093 18.8704
39.0567 18.791
39.104 18.7411
39.1514 18.59
39.1987 18.6618
39.2461 18.622
39.2934 18.5067
39.3409 18.414
39.3882 18.3755
39.4356 18.3284
39.483 18.2267
39.5304 18.158
39.5778 18.2012
39.6253 18.0602
39.6726 18.0244
39.7201 17.9876
39.7675 17.9495
39.815 17.8422
39.8624 17.7944
39.9099 17.8044
39.9575 17.6631
40.0049 17.6448
40.0525 17.5397
40.0999 17.5588
40.1474 17.4288
40.1949 17.4079
40.2425 17.3317
40.2899 17.2371
40.3375 17.2214
40.385 17.1705
40.4326 17.0938
40.48 17.0521
40.5277 17.0115
40.5752 17.0065
40.6228 16.852
40.6703 16.8798
40.718 16.7883
40.7655 16.7574
40.8132 16.686
40.8607 16.6814
40.9084 16.6505
40.9559 16.6127
41.0036 16.4957
41.0512 16.3893
41.0989 16.418
41.1465 16.3046
41.1942 16.3049
41.242 16.187
41.2896 16.1375
41.3373 16.0852
41.3849 16.1021
41.4327 15.974
41.4803 15.9924
41.5281 15.9027
41.5758 15.8729
41.6236 15.7194
41.6712 15.6898
41.7191 15.6606
41.7667 15.6579
41.8146 15.5848
41.8622 15.5095
41.9101 15.4671
41.9578 15.4001
42.0057 15.3901
42.0534 15.3693
42.1013 15.2518
42.149 15.1823
42.1969 15.2034
42.2446 15.102
42.2925 15.0865
42.3403 15.0347
42.3882 15.0159
42.436 14.9685
42.4839 14.8572
42.5319 14.8417
42.5797 14.7399
42.6277 14.737
42.6755 14.6355
42.7235 14.6004
42.7713 14.6436
42.8193 14.5048
42.8671 14.4776
42.9152 14.3905
42.963 14.3687
43.0111 14.2918
43.0589 14.2879
43.107 14.1932
43.1549 14.1678
43.2029 14.0967
43.2508 14.1148
43.2989 14.0517
43.3468 13.973
43.3949 13.9137
43.4429 13.868
43.491 13.8046
43.5389 13.8057
43.5871 13.7509
43.635 13.6673
43.6832 13.7096
43.7312 13.6068
43.7793 13.5742
43.8273 13.5003
43.8755 13.4487
43.9237 13.4088
43.9717 13.4088
44.0199 13.3309
44.068 13.3551
44.1162 13.2369
44.1642 13.1915
44.2125 13.1142
44.2606 13.0785
44.3088 13.0578
44.3569 13.004
44.4052 12.9774
44.4533 12.8766
44.5016 12.8733
44.5497 12.8126
44.598 12.8069
44.6461 12.7122
44.6945 12.6762
44.7426 12.613
44.791 12.5642
44.8391 12.5663
44.8875 12.5288
44.9357 12.4496
44.984 12.4132
45.0322 12.3858
45.0806 12.348
45.1288 12.2606
45.1773 12.2292
45.2257 12.2161
45.2739 12.1583
45.3224 12.1271
45.3706 12.0855
45.4191 11.985
45.4673 12.0046
45.5158 11.9737
45.5641 11.8982
45.6126 11.8283
45.6609 11.7845
45.7094 11.8017
45.7577 11.742
45.8063 11.7066
45.8546 11.6715
45.9031 11.6285
45.9515 11.5379
46.0001 11.5197
46.0484 11.5049
46.097 11.4254
46.1454 11.4384
46.194 11.3714
46.2424 11.3248
46.291 11.2845
46.3395 11.2634
46.3881 11.1681
46.4365 11.1543
46.4852 11.1225
46.5337 11.0687
46.5823 11.0685
46.631 11.0033
46.6795 10.9595
46.7282 10.9258
46.7767 10.9044
46.8254 10.8921
46.8739 10.8036
46.9226 10.7497
46.9712 10.7267
47.0199 10.6778
47.0685 10.581
47.1173 10.6128
47.1658 10.588
47.2146 10.5212
47.2632 10.4942
47.312 10.4516
47.3606 10.3967
47.4095 10.3248
47.4581 10.3463
47.5069 10.2769
47.5556 10.2288
47.6044 10.2159
47.6531 10.1471
47.702 10.106
47.7507 10.0624
47.7996 10.0475
47.8483 10.0469
47.8972 9.99813
47.9461 9.97294
47.9948 9.91898
48.0438 9.86819
48.0925 9.84934
48.1415 9.79196
48.1902 9.73376
48.2392 9.77639
48.288 9.70559
48.337 9.71214
48.3858 9.61446
48.4348 9.58206
48.4837 9.59383
48.5327 9.52283
48.5815 9.51045
48.6306 9.4705
48.6795 9.4045
48.7285 9.36404
48.7774 9.33768
48.8265 9.30914
48.8754 9.30653
48.9245 9.21941
48.9734 9.21967
49.0226 9.1868
49.0715 9.12004
49.1206 9.09219
49.1696 9.09366
49.2188 9.04939
49.2679 9.00526
49.3169 8.95404
49.3661 8.94726
49.4151 8.92395
49.4643 8.88235
49.5134 8.83159
49.5626 8.78315
49.6117 8.77338
49.6609 8.73903
49.71 8.65634
49.7592 8.65101
49.8083 8.64007
49.8576 8.57131
49.9067 8.55065
49.956 8.54084
50.0052 8.5172
50.0545 8.49463
50.1036 8.45805
50.153 8.39316
50.2022 8.365
50.2515 8.32445
50.3007 8.26275
50.3501 8.25109
50.3993 8.25462
50.4487 8.23168
50.498 8.20221
50.5474 8.16811
50.5966 8.09895
50.6461 8.09326
50.6955 8.04668
50.7448 8.04251
50.7943 8.00269
50.8436 7.95402
50.8931 7.92749
50.9424 7.90465
50.9919 7.88235
51.0413 7.87058
51.0908 7.83947
51.1402 7.81149
51.1897 7.73744
51.2391 7.72842
51.2887 7.69512
51.3381 7.6587
51.3877 7.64717
51.4371 7.60832
51.4867 7.5392
51.5362 7.52529
51.5858 7.48324
51.6353 7.44606
51.6849 7.41463
51.7344 7.39937
51.7841 7.37327
51.8336 7.36397
51.8833 7.2929
51.9328 7.26022
51.9826 7.23108
52.0323 7.19741
52.0818 7.20522
52.1316 7.13071
52.1812 7.1458
52.231 7.0817
52.2806 7.09817
52.3304 7.06931
52.38 6.99196
52.4298 6.96808
52.4794 6.95248
52.5293 6.91406
52.5789 6.91671
52.6288 6.83492
52.6785 6.84997
52.7284 6.7878
52.7781 6.7852
52.828 6.72952
52.8777 6.71618
52.9276 6.73304
52.9774 6.6708
53.0273 6.6137
53.0771 6.59774
53.1271 6.59783
53.1769 6.57844
53.2269 6.54467
53.2767 6.53837
53.3267 6.48126
53.3765 6.42222
53.4266 6.4256
53.4766 6.3632
53.5265 6.34036
53.5765 6.3342
53.6264 6.33726
53.6765 6.27178
53.7264 6.23002
53.7765 6.2032
53.8265 6.18179
53.8766 6.14714
53.9266 6.18232
53.9767 6.10138
54.0267 6.08652
54.0769 6.06477
54.1269 6.02603
54.1771 5.97494
54.2271 5.9667
54.2773 5.93943
54.3274 5.90482
54.3776 5.85962
54.4277 5.84267
54.478 5.8411
54.528 5.78905
54.5783 5.75911
54.6285 5.71506
54.6788 5.63354
54.7289 5.61729
54.7792 5.56576
54.8296 5.53466
54.8798 5.47251
54.9301 5.48813
54.9803 5.4569
55.0307 5.40491
55.0809 5.30472
55.1314 5.35791
55.1816 5.26757
55.232 5.25809
55.2823 5.20201
55.3328 5.14601
55.383 5.08484
55.4335 5.05712
55.4838 4.91376
55.5344 4.95783
55.5847 4.87741
55.6352 4.85448
55.6856 4.83616
55.7361 4.80685