File: XRD/Ni3Fe_FD0261.xy
TT I
1.27165 8.11211
1.31627 7.03996
1.36089 6.89867
1.40551 6.6442
1.45013 6.55917
1.49476 6.19207
1.53938 6.13755
1.584 5.57803
1.62863 5.48944
1.67325 5.40988
1.71787 5.61656
1.7625 4.75654
1.80712 5.32695
1.85174 5.15711
1.89636 5.14642
1.94099 5.30123
1.98562 5.08791
2.03025 5.22065
2.07487 4.56315
2.11949 4.62983
2.16411 5.10144
2.20874 9.77681
2.25338 14.5773
2.298 5.28184
2.34263 4.9744
2.38725 5.07423
2.43188 4.77945
2.4765 4.98878
2.52115 5.59326
2.56577 6.28926
2.6104 6.51461
2.65503 6.24529
2.69965 6.6629
2.7443 7.34771
2.78893 7.32239
2.83356 7.74426
2.87818 8.24928
2.92281 8.49086
2.96744 9.67768
3.01209 10.3622
3.05672 11.2088
3.10135 12.2357
3.14599 13.2655
3.19062 14.1905
3.23527 15.0738
3.2799 16.4712
3.32454 16.998
3.36917 18.0462
3.4138 19.1516
3.45844 19.9511
3.50309 21.0902
3.54773 22.0523
3.59237 23.6829
3.637 61.114
3.68164 43.2508
3.7263 26.0295
3.77094 26.396
3.81558 27.2258
3.86022 28.0126
3.90486 29.0275
3.9495 30.4853
3.99416 31.8453
4.0388 32.4502
4.08344 34.8286
4.12809 35.4886
4.17273 37.6557
4.21738 42.1041
4.26204 154.295
4.30669 137.361
4.35133 47.5947
4.39598 45.6719
4.44063 51.4762
4.4853 58.4638
4.52995 53.7372
4.5746 54.0364
4.61925 55.8275
4.6639 57.9105
4.70855 60.5984
4.75322 63.9476
4.79788 67.2379
4.84253 71.0769
4.88719 75.9183
4.93184 79.7618
4.97652 86.1018
5.02118 94.3465
5.06583 103.782
5.11049 118.957
5.15515 179.552
5.19981 566.912
5.24449 3708.33
5.28916 10597.0
5.33382 4276.85
5.37848 276.503
5.42315 150.681
5.46783 128.031
5.5125 117.176
5.55716 110.144
5.60183 105.272
5.6465 103.36
5.69117 101.28
5.73586 98.9613
5.78053 99.7076
5.8252 99.5711
5.86988 101.786
5.91455 105.289
5.95924 118.915
6.00392 294.126
6.0486 1296.87
6.09328 3681.73
6.13795 3655.88
6.18263 376.078
6.22733 108.924
6.27201 90.2488
6.3167 95.5784
6.36138 81.1481
6.40606 73.199
6.45075 70.4703
6.49545 68.2213
6.54014 66.6436
6.58483 65.5937
6.62952 65.215
6.67421 81.1129
6.71892 107.855
6.76361 67.1128
6.8083 60.9022
6.853 59.8786
6.89769 58.5965
6.94239 58.6294
6.98711 57.85
7.03181 57.5942
7.07651 57.0711
7.12121 57.4912
7.16591 57.4447
7.21063 57.2677
7.25533 65.0393
7.30004 124.132
7.34475 77.6805
7.38945 57.5778
7.43416 55.9594
7.47889 55.832
7.5236 56.4568
7.56831 57.5299
7.61303 58.3806
7.65774 58.5824
7.70247 58.3931
7.74719 58.3402
7.79191 58.8694
7.83663 58.9382
7.88135 60.0083
7.92607 61.2651
7.97081 62.333
8.01553 63.6306
8.06026 65.0826
8.10498 66.665
8.14971 73.1656
8.19446 73.0731
8.23919 72.7495
8.28392 75.3857
8.32865 78.0669
8.37339 82.9278
8.41812 89.4645
8.46288 112.284
8.50761 200.646
8.55235 521.346
8.59709 1114.2
8.64183 1971.52
8.68658 1248.91
8.73134 231.12
8.77609 110.705
8.82083 99.8142
8.86558 95.5425
8.91033 94.2672
8.9551 94.0214
8.99985 89.4595
9.04461 87.8526
9.08936 87.3493
9.13412 86.2475
9.17888 85.7738
9.22365 85.7844
9.26841 86.146
9.31318 87.377
9.35794 87.5896
9.4027 87.8148
9.44749 88.5068
9.49226 88.907
9.53703 90.2271
9.5818 91.9721
9.62657 96.001
9.67134 99.2553
9.71614 97.9032
9.76091 98.7772
9.80569 102.521
9.85047 105.597
9.89525 121.032
9.94005 135.123
9.98484 213.653
10.0296 463.013
10.0744 825.031
10.1192 1455.31
10.164 1705.66
10.2088 595.71
10.2536 155.151
10.2984 120.234
10.3432 117.59
10.388 111.149
10.4328 132.609
10.4776 195.449
10.5224 286.95
10.5672 446.323
10.612 520.378
10.6568 268.531
10.7017 109.433
10.7465 92.0661
10.7913 87.861
10.8361 85.0117
10.8809 82.765
10.9257 81.5873
10.9706 81.3656
11.0154 78.2236
11.0602 76.0559
11.105 74.739
11.1499 76.1309
11.1947 80.0524
11.2395 74.472
11.2844 72.2602
11.3292 70.0863
11.374 68.9359
11.4189 68.3689
11.4637 67.5692
11.5086 67.564
11.5534 69.3627
11.5983 67.3416
11.6431 66.3637
11.688 65.686
11.7328 65.411
11.7777 65.5088
11.8225 65.431
11.8674 64.9981
11.9122 65.3373
11.9571 65.8547
12.002 66.8658
12.0468 72.7128
12.0917 89.3061
12.1366 110.09
12.1814 143.927
12.2263 191.881
12.2712 188.004
12.3161 110.548
12.3609 73.4814
12.4058 67.5234
12.4507 67.468
12.4956 67.6539
12.5405 67.4238
12.5853 67.9691
12.6302 72.4142
12.6751 75.7968
12.72 71.4587
12.7649 70.6027
12.8098 71.4194
12.8547 72.6399
12.8996 74.2701
12.9445 75.5616
12.9894 77.3838
13.0343 79.6501
13.0792 83.3022
13.1242 95.2542
13.1691 130.543
13.214 172.014
13.2589 233.605
13.3038 326.2
13.3487 415.473
13.3937 318.966
13.4386 151.537
13.4835 118.119
13.5285 142.57
13.5734 174.44
13.6183 231.842
13.6633 311.01
13.7082 352.554
13.7531 236.09
13.7981 115.525
13.843 87.0737
13.888 84.2262
13.9329 81.2605
13.9779 79.842
14.0228 77.7725
14.0678 76.5219
14.1127 75.9943
14.1577 75.5346
14.2027 74.5679
14.2476 73.7709
14.2926 73.6088
14.3376 73.9755
14.3825 72.9859
14.4275 71.92
14.4725 72.1726
14.5175 72.1305
14.5624 72.3185
14.6074 73.5549
14.6524 74.1542
14.6974 73.8155
14.7424 76.1636
14.7874 85.835
14.8324 101.676
14.8774 118.915
14.9224 147.897
14.9674 188.808
15.0124 217.032
15.0574 175.843
15.1024 106.206
15.1474 77.7861
15.1924 74.0349
15.2374 73.5223
15.2824 72.3998
15.3274 71.1151
15.3725 70.2635
15.4175 69.5715
15.4625 69.2348
15.5076 69.0827
15.5526 68.9434
15.5976 68.895
15.6426 70.3951
15.6877 78.5741
15.7327 90.9494
15.7778 103.308
15.8228 123.945
15.8679 155.079
15.9129 186.361
15.958 174.487
16.003 115.923
16.0481 75.0389
16.0931 67.1904
16.1382 65.0829
16.1833 63.4499
16.2283 61.5627
16.2734 61.0849
16.3185 60.6927
16.3636 60.8983
16.4086 59.7559
16.4537 58.559
16.4988 57.9491
16.5439 57.4474
16.589 57.6969
16.6341 57.2712
16.6792 57.0897
16.7243 57.0663
16.7694 57.223
16.8145 56.9676
16.8596 57.5958
16.9047 58.4022
16.9498 58.517
16.9949 57.8577
17.04 58.2559
17.0851 60.1513
17.1302 62.7059
17.1754 65.4663
17.2205 68.934
17.2656 74.3161
17.3108 81.8792
17.3559 84.7095
17.401 77.8433
17.4462 67.092
17.4913 62.4109
17.5365 61.7126
17.5815 61.7755
17.6268 62.2227
17.6718 62.9442
17.7171 63.2625
17.7622 63.9765
17.8074 65.1147
17.8525 67.9037
17.8977 73.9016
17.9428 81.3185
17.9881 87.713
18.0331 99.5185
18.0784 114.86
18.1237 135.033
18.1688 141.895
18.214 120.483
18.2591 95.4976
18.3044 91.5848
18.3495 97.5511
18.3948 105.125
18.4399 102.408
18.4852 85.2927
18.5303 70.9184
18.5756 65.5197
18.6207 64.1259
18.666 63.215
18.7112 62.4232
18.7565 61.735
18.8016 61.4947
18.8469 60.7278
18.892 60.294
18.9374 59.9118
18.9825 59.5223
19.0278 59.3267
19.073 59.6238
19.1183 60.2265
19.1635 61.5414
19.2088 63.1688
19.254 64.7622
19.2993 67.5134
19.3447 71.968
19.3898 76.2572
19.4352 76.1668
19.4804 69.0869
19.5257 61.0385
19.5709 56.954
19.6163 56.38
19.6615 56.1016
19.7068 55.6687
19.752 55.6973
19.7974 56.0262
19.8426 57.3064
19.888 58.2445
19.9332 59.2086
19.9786 61.1734
20.0238 63.5168
20.0692 67.7619
20.1144 71.566
20.1598 72.6803
20.205 68.2611
20.2504 64.7955
20.2957 64.8687
20.3411 66.7029
20.3863 67.1112
20.4318 62.437
20.477 57.3565
20.5224 53.9918
20.5677 53.1747
20.6131 52.3727
20.6586 51.8677
20.7038 51.8483
20.7493 51.3275
20.7945 51.2476
20.84 51.0126
20.8853 50.8832
20.9307 50.9277
20.976 50.9754
21.0215 50.9274
21.0668 51.3955
21.1122 51.6146
21.1575 52.0663
21.203 52.5111
21.2483 53.1506
21.2938 53.5744
21.3391 52.8319
21.3846 51.4516
21.4299 50.72
21.4754 50.6382
21.5207 50.7912
21.5662 51.0034
21.6116 51.6378
21.6571 52.7694
21.7024 54.0545
21.7479 55.2757
21.7933 57.2403
21.8388 59.9059
21.8843 63.2833
21.9297 66.0961
21.9752 66.9628
22.0206 63.8414
22.0661 59.4362
22.1115 57.5696
22.157 57.8832
22.2024 57.1931
22.248 54.7919
22.2933 52.6653
22.3389 51.3639
22.3843 51.147
22.4299 50.9338
22.4753 50.9005
22.5208 50.7659
22.5662 51.0029
22.6118 50.761
22.6572 51.2626
22.7028 51.9603
22.7483 52.4293
22.7939 53.0426
22.8393 54.1434
22.8849 55.5748
22.9303 57.1005
22.9759 58.994
23.0214 59.6624
23.067 58.0084
23.1126 54.7433
23.1581 51.9782
23.2037 51.1023
23.2492 51.1913
23.2948 51.3894
23.3403 51.9161
23.3859 52.4098
23.4314 53.0163
23.477 54.2894
23.5225 55.6923
23.5682 57.526
23.6137 59.3687
23.6593 58.6473
23.7048 55.4001
23.7505 51.5379
23.796 49.1176
23.8417 48.2339
23.8872 47.5701
23.9329 47.2153
23.9784 46.7492
24.0241 46.637
24.0697 46.5577
24.1154 46.0655
24.1609 46.196
24.2066 45.7449
24.2522 45.5655
24.2979 45.3963
24.3434 45.2684
24.3892 44.9644
24.4349 44.9705
24.4805 44.8074
24.5262 44.993
24.5718 44.777
24.6175 44.8105
24.6631 44.7572
24.7089 44.6068
24.7545 44.3016
24.8002 44.115
24.8458 44.1878
24.8916 43.9265
24.9372 44.1037
24.983 44.501
25.0286 44.68
25.0744 45.0397
25.12 45.5177
25.1658 46.1702
25.2114 46.4843
25.2572 46.6588
25.3029 46.3469
25.3487 46.4444
25.3943 46.568
25.4402 45.7534
25.4858 44.7588
25.5316 43.5798
25.5773 42.7836
25.6231 42.7363
25.669 42.1935
25.7147 42.2999
25.7605 42.3082
25.8062 42.371
25.8521 42.4947
25.8977 42.469
25.9436 42.4864
25.9893 42.6424
26.0352 42.9286
26.0809 43.1344
26.1268 43.31
26.1725 43.3469
26.2184 42.9128
26.2641 42.3076
26.31 41.9503
26.3557 42.0396
26.4017 42.0133
26.4474 42.2231
26.4933 42.4669
26.5391 42.7945
26.585 43.1688
26.6308 43.4875
26.6767 43.7704
26.7225 43.7787
26.7684 43.4148
26.8142 42.6979
26.8601 42.3054
26.9059 41.861
26.9519 41.4298
26.9979 40.9584
27.0437 40.6667
27.0896 40.3828
27.1354 40.5352
27.1814 40.3882
27.2272 40.2792
27.2732 40.2663
27.3191 40.058
27.3651 40.2058
27.4109 39.9238
27.4569 40.0913
27.5027 40.0872
27.5488 40.023
27.5946 40.0368
27.6407 39.8054
27.6865 39.9609
27.7326 39.617
27.7784 39.5816
27.8245 39.5268
27.8703 39.5842
27.9164 39.8176
27.9623 39.8939
28.0084 40.1162
28.0543 40.4253
28.1003 40.4635
28.1462 40.4322
28.1923 40.0696
28.2384 39.6301
28.2843 39.3647
28.3304 38.9397
28.3764 38.4722
28.4225 38.1169
28.4684 37.897
28.5145 37.5016
28.5605 37.4657
28.6066 37.3447
28.6526 37.0937
28.6987 37.2154
28.7447 37.0737
28.7908 36.8789
28.8368 36.8367
28.8829 36.7729
28.9289 36.8457
28.9751 36.7601
29.0211 36.4727
29.0673 36.2359
29.1133 36.1056
29.1595 35.9861
29.2055 35.7777
29.2517 35.8129
29.2977 35.8147
29.3439 35.6925
29.3899 35.6107
29.4361 35.4986
29.4824 35.4469
29.5284 35.2054
29.5746 34.9827
29.6207 34.5965
29.6669 34.4682
29.713 34.4045
29.7593 34.3185
29.8053 34.3701
29.8516 34.2251
29.8977 34.1338
29.9439 34.0982
29.99 33.9163
30.0363 33.7897
30.0824 33.9884
30.1287 33.7229
30.1748 33.738
30.2211 33.7295
30.2673 33.6369
30.3136 33.7236
30.3597 33.7856
30.406 33.6482
30.4522 33.4915
30.4985 33.3908
30.5447 33.4438
30.591 33.4361
30.6372 33.5111
30.6835 33.4549
30.7297 33.5646
30.7761 33.5846
30.8224 33.3487
30.8686 33.3911
30.915 33.0754
30.9612 32.8312
31.0076 32.7086
31.0538 32.5711
31.1002 32.4582
31.1464 32.3365
31.1928 32.268
31.2391 32.2767
31.2855 32.1788
31.3317 32.1373
31.3781 32.2536
31.4244 32.1642
31.4708 32.0601
31.5171 32.1143
31.5636 32.0592
31.6098 31.9137
31.6563 31.6715
31.7026 31.5706
31.7491 31.4863
31.7953 31.5162
31.8418 31.466
31.8881 31.4924
31.9346 31.4113
31.9809 31.352
32.0275 31.281
32.074 31.0729
32.1203 30.8311
32.1668 30.8287
32.2132 30.7206
32.2597 30.5135
32.306 30.5162
32.3526 30.2058
32.399 30.166
32.4455 29.9563
32.4919 29.9642
32.5385 29.9239
32.5848 29.6803
32.6314 29.7074
32.6778 29.7027
32.7244 29.4784
32.7708 29.423
32.8174 29.3537
32.8638 29.3398
32.9104 29.2812
32.9569 29.2408
33.0035 29.0684
33.0499 29.0958
33.0966 28.9659
33.143 29.0069
33.1897 28.7986
33.2361 28.8188
33.2828 28.8567
33.3293 28.578
33.3759 28.6413
33.4226 28.4071
33.4691 28.333
33.5158 28.2448
33.5623 28.0532
33.609 27.929
33.6555 27.7978
33.7022 27.6552
33.7487 27.6456
33.7954 27.6144
33.842 27.5738
33.8887 27.4586
33.9353 27.3742
33.982 27.3059
34.0286 27.1878
34.0753 27.1606
34.1219 27.0046
34.1687 26.9539
34.2152 26.9223
34.262 26.7491
34.3086 26.678
34.3554 26.6499
34.402 26.4127
34.4488 26.33
34.4954 26.3122
34.5422 26.2227
34.5889 26.0662
34.6357 26.0407
34.6825 25.973
34.7292 25.8521
34.776 25.7496
34.8227 25.7372
34.8695 25.7352
34.9162 25.6709
34.9631 25.597
35.0098 25.5418
35.0566 25.3548
35.1033 25.353
35.1502 25.2807
35.1969 25.2305
35.2438 25.231
35.2906 25.1341
35.3375 25.0703
35.3842 24.9741
35.4311 25.0163
35.4779 25.0098
35.5248 24.9105
35.5716 24.8232
35.6185 24.7413
35.6653 24.5934
35.7123 24.4867
35.759 24.3924
35.806 24.3191
35.8528 24.3047
35.8998 24.1777
35.9468 24.1229
35.9936 24.0748
36.0406 23.9925
36.0874 23.926
36.1345 23.8966
36.1813 23.7955
36.2283 23.7161
36.2752 23.5796
36.3222 23.705
36.3691 23.5637
36.4161 23.4258
36.463 23.3732
36.5101 23.3209
36.557 23.3379
36.6041 23.0875
36.651 23.0988
36.6981 23.1448
36.745 22.9782
36.7921 22.887
36.839 22.7607
36.8861 22.7515
36.9331 22.7095
36.9802 22.5608
37.0272 22.472
37.0743 22.4537
37.1213 22.4017
37.1684 22.3621
37.2154 22.2462
37.2626 22.1638
37.3098 22.1234
37.3568 22.0643
37.404 22.0011
37.451 21.8893
37.4982 21.886
37.5452 21.745
37.5924 21.735
37.6395 21.714
37.6867 21.6306
37.7337 21.4618
37.781 21.4477
37.8281 21.3786
37.8753 21.2039
37.9224 21.158
37.9697 21.1522
38.0168 21.0607
38.064 21.0431
38.1111 20.9588
38.1584 20.8179
38.2056 20.787
38.2529 20.8082
38.3 20.7014
38.3473 20.6137
38.3945 20.5803
38.4418 20.4522
38.489 20.4723
38.5363 20.339
38.5837 20.2516
38.6309 20.2997
38.6782 20.1151
38.7254 20.1038
38.7728 20.0881
38.82 19.9887
38.8674 19.9031
38.9146 19.8243
38.9621 19.7798
39.0093 19.7101
39.0567 19.6715
39.104 19.5353
39.1514 19.4703
39.1987 19.4895
39.2461 19.3922
39.2934 19.3516
39.3409 19.2758
39.3882 19.1655
39.4356 19.1511
39.483 19.1387
39.5304 19.0493
39.5778 19.0057
39.6253 18.9268
39.6726 18.8912
39.7201 18.8372
39.7675 18.7617
39.815 18.6928
39.8624 18.6112
39.9099 18.5722
39.9575 18.5393
40.0049 18.4965
40.0525 18.4176
40.0999 18.3704
40.1474 18.2706
40.1949 18.2172
40.2425 18.1667
40.2899 18.1108
40.3375 18.1311
40.385 17.9696
40.4326 17.9558
40.48 17.8675
40.5277 17.8547
40.5752 17.7674
40.6228 17.6746
40.6703 17.6643
40.718 17.5721
40.7655 17.5037
40.8132 17.4598
40.8607 17.4281
40.9084 17.4207
40.9559 17.2882
41.0036 17.289
41.0512 17.2331
41.0989 17.1744
41.1465 17.1127
41.1942 17.0002
41.242 16.9192
41.2896 16.9099
41.3373 16.8784
41.3849 16.8262
41.4327 16.7383
41.4803 16.6421
41.5281 16.6812
41.5758 16.5591
41.6236 16.5001
41.6712 16.4576
41.7191 16.4117
41.7667 16.3551
41.8146 16.2703
41.8622 16.1938
41.9101 16.1593
41.9578 16.1456
42.0057 16.1007
42.0534 16.0205
42.1013 16.0167
42.149 15.9074
42.1969 15.8552
42.2446 15.8227
42.2925 15.7865
42.3403 15.7197
42.3882 15.6552
42.436 15.6127
42.4839 15.5238
42.5319 15.4831
42.5797 15.4857
42.6277 15.3854
42.6755 15.3824
42.7235 15.2719
42.7713 15.2741
42.8193 15.1625
42.8671 15.1312
42.9152 15.1138
42.963 15.0693
43.0111 14.9989
43.0589 14.9408
43.107 14.905
43.1549 14.8182
43.2029 14.7816
43.2508 14.7553
43.2989 14.706
43.3468 14.6585
43.3949 14.5405
43.4429 14.5243
43.491 14.4675
43.5389 14.3913
43.5871 14.3895
43.635 14.2656
43.6832 14.268
43.7312 14.1961
43.7793 14.1689
43.8273 14.1593
43.8755 14.0613
43.9237 13.9786
43.9717 13.968
44.0199 13.9914
44.068 13.9173
44.1162 13.8373
44.1642 13.8115
44.2125 13.7338
44.2606 13.6968
44.3088 13.651
44.3569 13.5998
44.4052 13.5573
44.4533 13.5107
44.5016 13.4521
44.5497 13.4185
44.598 13.3692
44.6461 13.2607
44.6945 13.2154
44.7426 13.2624
44.791 13.1861
44.8391 13.1204
44.8875 13.0778
44.9357 13.0303
44.984 12.947
45.0322 12.914
45.0806 12.8476
45.1288 12.809
45.1773 12.843
45.2257 12.7705
45.2739 12.7406
45.3224 12.6717
45.3706 12.6547
45.4191 12.5861
45.4673 12.5683
45.5158 12.4966
45.5641 12.4573
45.6126 12.4107
45.6609 12.3415
45.7094 12.3058
45.7577 12.2755
45.8063 12.2202
45.8546 12.2103
45.9031 12.1487
45.9515 12.0822
46.0001 12.0616
46.0484 12.0348
46.097 11.9969
46.1454 11.9206
46.194 11.9583
46.2424 11.8145
46.291 11.7693
46.3395 11.7599
46.3881 11.6753
46.4365 11.6711
46.4852 11.6104
46.5337 11.6161
46.5823 11.4793
46.631 11.4855
46.6795 11.4229
46.7282 11.4019
46.7767 11.3776
46.8254 11.2929
46.8739 11.2423
46.9226 11.2229
46.9712 11.1994
47.0199 11.1361
47.0685 11.1215
47.1173 11.0713
47.1658 10.978
47.2146 11.0029
47.2632 10.9241
47.312 10.9359
47.3606 10.8641
47.4095 10.8235
47.4581 10.7727
47.5069 10.7347
47.5556 10.6725
47.6044 10.6558
47.6531 10.6602
47.702 10.5702
47.7507 10.5908
47.7996 10.5004
47.8483 10.488
47.8972 10.4405
47.9461 10.3959
47.9948 10.3793
48.0438 10.3229
48.0925 10.2629
48.1415 10.241
48.1902 10.2181
48.2392 10.1856
48.288 10.1634
48.337 10.1032
48.3858 10.095
48.4348 10.0369
48.4837 10.0227
48.5327 9.98212
48.5815 9.9249
48.6306 9.89542
48.6795 9.84167
48.7285 9.7759
48.7774 9.78572
48.8265 9.76768
48.8754 9.69262
48.9245 9.65583
48.9734 9.64137
49.0226 9.61254
49.0715 9.52693
49.1206 9.47243
49.1696 9.44305
49.2188 9.42451
49.2679 9.42329
49.3169 9.39585
49.3661 9.37247
49.4151 9.28513
49.4643 9.27731
49.5134 9.19714
49.5626 9.16656
49.6117 9.16344
49.6609 9.14507
49.71 9.08109
49.7592 9.08604
49.8083 8.9838
49.8576 8.98761
49.9067 8.93357
49.956 8.94
50.0052 8.87827
50.0545 8.83175
50.1036 8.8316
50.153 8.77685
50.2022 8.77071
50.2515 8.72067
50.3007 8.64837
50.3501 8.64547
50.3993 8.59838
50.4487 8.57484
50.498 8.56054
50.5474 8.5303
50.5966 8.48509
50.6461 8.44896
50.6955 8.43491
50.7448 8.4099
50.7943 8.35571
50.8436 8.33667
50.8931 8.28305
50.9424 8.24283
50.9919 8.21129
51.0413 8.17273
51.0908 8.16073
51.1402 8.13785
51.1897 8.09601
51.2391 8.03938
51.2887 8.03582
51.3381 7.98326
51.3877 7.95785
51.4371 7.94105
51.4867 7.89507
51.5362 7.88598
51.5858 7.81535
51.6353 7.74978
51.6849 7.7328
51.7344 7.76405
51.7841 7.69036
51.8336 7.66691
51.8833 7.62515
51.9328 7.63562
51.9826 7.60434
52.0323 7.56926
52.0818 7.53744
52.1316 7.49381
52.1812 7.45104
52.231 7.43215
52.2806 7.39137
52.3304 7.37554
52.38 7.33138
52.4298 7.32227
52.4794 7.27401
52.5293 7.20444
52.5789 7.21382
52.6288 7.20177
52.6785 7.13301
52.7284 7.12918
52.7781 7.0962
52.828 7.05848
52.8777 7.03291
52.9276 7.02062
52.9774 6.95841
53.0273 6.98155
53.0771 6.93398
53.1271 6.9142
53.1769 6.88311
53.2269 6.79967
53.2767 6.77332
53.3267 6.772
53.3765 6.73556
53.4266 6.69959
53.4766 6.69446
53.5265 6.66115
53.5765 6.59324
53.6264 6.59971
53.6765 6.54486
53.7264 6.559
53.7765 6.51814
53.8265 6.46645
53.8766 6.44846
53.9266 6.40521
53.9767 6.3692
54.0267 6.34059
54.0769 6.30158
54.1269 6.30209
54.1771 6.25191
54.2271 6.2324
54.2773 6.17143
54.3274 6.1589
54.3776 6.14359
54.4277 6.08713
54.478 6.03822
54.528 5.99679
54.5783 6.03781
54.6285 5.94398
54.6788 5.90775
54.7289 5.8328
54.7792 5.74395
54.8296 5.75622
54.8798 5.73027
54.9301 5.6921
54.9803 5.62372
55.0307 5.59176
55.0809 5.55937
55.1314 5.52668
55.1816 5.46434
55.232 5.43352
55.2823 5.37308
55.3328 5.33103
55.383 5.27061
55.4335 5.22203
55.4838 5.17204
55.5344 5.16249
55.5847 5.10305
55.6352 5.02973
55.6856 5.06287
55.7361 4.99008