File: XRD/Ni3Fe_FD0860.xy
TT I
1.27165 7.13219
1.31627 6.14336
1.36089 6.64314
1.40551 6.34914
1.45013 5.68531
1.49476 6.06459
1.53938 6.20294
1.584 5.42781
1.62863 5.00198
1.67325 4.62254
1.71787 5.18892
1.7625 4.67084
1.80712 5.10069
1.85174 5.16241
1.89636 4.93469
1.94099 5.14178
1.98562 4.95651
2.03025 5.04666
2.07487 4.14978
2.11949 4.95934
2.16411 4.60919
2.20874 14.7321
2.25338 23.5912
2.298 6.35705
2.34263 5.12365
2.38725 5.63518
2.43188 6.17001
2.4765 7.44573
2.52115 7.5234
2.56577 7.2721
2.6104 7.94666
2.65503 8.40968
2.69965 8.6604
2.7443 8.89694
2.78893 8.61333
2.83356 8.62456
2.87818 8.7984
2.92281 8.90613
2.96744 9.49942
3.01209 10.2845
3.05672 11.1964
3.10135 12.5958
3.14599 13.0083
3.19062 14.3135
3.23527 14.9045
3.2799 15.9002
3.32454 16.8254
3.36917 17.9042
3.4138 19.0599
3.45844 19.6466
3.50309 20.2149
3.54773 21.7181
3.59237 23.9911
3.637 94.2339
3.68164 60.5805
3.7263 26.1832
3.77094 25.6758
3.81558 26.4631
3.86022 27.4107
3.90486 28.9396
3.9495 29.6158
3.99416 30.8434
4.0388 32.3231
4.08344 33.6066
4.12809 34.6037
4.17273 36.8543
4.21738 42.6458
4.26204 251.214
4.30669 223.264
4.35133 48.3593
4.39598 44.0395
4.44063 53.4178
4.4853 65.6591
4.52995 50.1444
4.5746 51.0964
4.61925 52.4194
4.6639 54.7301
4.70855 57.2235
4.75322 60.0413
4.79788 62.6585
4.84253 66.6784
4.88719 69.9763
4.93184 73.7727
4.97652 78.8763
5.02118 85.1377
5.06583 92.2167
5.11049 102.233
5.15515 166.743
5.19981 294.196
5.24449 2469.23
5.28916 12457.7
5.33382 2758.33
5.37848 177.231
5.42315 124.685
5.46783 110.752
5.5125 104.239
5.55716 100.063
5.60183 96.9108
5.6465 95.3476
5.69117 92.6956
5.73586 90.7129
5.78053 89.7306
5.8252 89.3258
5.86988 89.7827
5.91455 91.182
5.95924 96.9878
6.00392 174.626
6.0486 843.652
6.09328 4447.73
6.13795 3300.81
6.18263 224.736
6.22733 90.3737
6.27201 81.4369
6.3167 101.412
6.36138 79.9834
6.40606 68.0625
6.45075 66.769
6.49545 64.7993
6.54014 63.0046
6.58483 62.2152
6.62952 61.9852
6.67421 93.479
6.71892 144.359
6.76361 68.9338
6.8083 57.8744
6.853 56.8098
6.89769 56.37
6.94239 56.0067
6.98711 55.1079
7.03181 55.0043
7.07651 54.6336
7.12121 54.3104
7.16591 54.4898
7.21063 54.9875
7.25533 71.6471
7.30004 179.11
7.34475 92.0318
7.38945 56.2121
7.43416 53.9738
7.47889 53.9257
7.5236 53.9201
7.56831 54.6633
7.61303 56.8012
7.65774 56.5528
7.70247 55.6061
7.74719 55.7272
7.79191 56.1022
7.83663 56.4361
7.88135 57.1034
7.92607 58.0504
7.97081 59.2448
8.01553 59.9384
8.06026 61.0365
8.10498 63.0192
8.14971 72.7173
8.19446 71.5058
8.23919 68.4631
8.28392 70.8591
8.32865 72.9177
8.37339 76.9206
8.41812 83.511
8.46288 111.486
8.50761 146.166
8.55235 340.771
8.59709 1136.01
8.64183 2226.94
8.68658 944.769
8.73134 166.725
8.77609 97.2321
8.82083 91.0001
8.86558 88.308
8.91033 88.5047
8.9551 91.018
8.99985 84.423
9.04461 82.6738
9.08936 82.1463
9.13412 81.0815
9.17888 81.2116
9.22365 81.566
9.26841 81.1959
9.31318 81.2179
9.35794 81.6381
9.4027 81.8275
9.44749 82.4974
9.49226 82.9683
9.53703 84.2676
9.5818 85.9989
9.62657 90.3233
9.67134 97.4485
9.71614 92.7574
9.76091 92.269
9.80569 95.0347
9.85047 98.1203
9.89525 122.273
9.94005 133.229
9.98484 157.953
10.0296 302.974
10.0744 770.953
10.1192 1799.65
10.164 1577.18
10.2088 398.458
10.2536 124.151
10.2984 110.823
10.3432 113.036
10.388 102.446
10.4328 112.127
10.4776 148.483
10.5224 270.214
10.5672 520.756
10.612 500.821
10.6568 201.787
10.7017 95.7542
10.7465 85.2742
10.7913 81.916
10.8361 80.1186
10.8809 77.8883
10.9257 77.4225
10.9706 78.1134
11.0154 74.1979
11.0602 71.7202
11.105 71.0328
11.1499 75.2686
11.1947 82.759
11.2395 74.0054
11.2844 69.6026
11.3292 66.3485
11.374 65.4456
11.4189 64.5885
11.4637 64.0253
11.5086 64.6412
11.5534 67.4814
11.5983 64.734
11.6431 62.8118
11.688 62.147
11.7328 62.2069
11.7777 61.8991
11.8225 61.58
11.8674 61.5461
11.9122 62.0225
11.9571 61.9883
12.002 62.4499
12.0468 65.654
12.0917 75.2868
12.1366 98.6338
12.1814 152.931
12.2263 206.53
12.2712 168.22
12.3161 95.9503
12.3609 69.7241
12.4058 63.6476
12.4507 63.5979
12.4956 63.3835
12.5405 64.0308
12.5853 64.6082
12.6302 72.5243
12.6751 77.9059
12.72 69.0448
12.7649 66.8547
12.8098 67.3167
12.8547 68.7845
12.8996 69.7594
12.9445 71.1701
12.9894 72.8284
13.0343 74.4844
13.0792 77.1528
13.1242 84.543
13.1691 105.013
13.214 139.752
13.2589 231.693
13.3038 374.104
13.3487 424.653
13.3937 258.988
13.4386 122.048
13.4835 100.907
13.5285 113.732
13.5734 151.436
13.6183 246.292
13.6633 356.296
13.7082 339.588
13.7531 182.176
13.7981 95.7299
13.843 80.2485
13.888 78.2662
13.9329 75.6115
13.9779 74.8662
14.0228 73.1927
14.0678 72.1192
14.1127 71.6783
14.1577 71.526
14.2027 70.413
14.2476 69.3034
14.2926 69.84
14.3376 70.8604
14.3825 69.333
14.4275 67.6794
14.4725 67.4913
14.5175 67.7724
14.5624 67.9906
14.6074 70.3362
14.6524 70.5927
14.6974 69.2189
14.7424 70.2755
14.7874 75.6357
14.8324 84.6852
14.8774 105.991
14.9224 151.739
14.9674 210.862
15.0124 216.636
15.0574 147.052
15.1024 89.5911
15.1474 71.249
15.1924 69.4131
15.2374 70.1002
15.2824 69.1954
15.3274 67.2079
15.3725 65.8886
15.4175 65.414
15.4625 65.0727
15.5076 65.161
15.5526 65.3877
15.5976 64.8242
15.6426 65.1658
15.6877 69.5995
15.7327 76.4611
15.7778 90.9658
15.8228 123.3
15.8679 171.029
15.9129 195.565
15.958 154.375
16.003 93.3118
16.0481 67.0966
16.0931 63.7327
16.1382 61.9093
16.1833 59.8367
16.2283 58.1
16.2734 57.4816
16.3185 58.0361
16.3636 58.4145
16.4086 56.8769
16.4537 55.2935
16.4988 54.8454
16.5439 54.6516
16.589 54.4172
16.6341 54.2568
16.6792 53.7344
16.7243 53.9636
16.7694 54.2885
16.8145 53.95
16.8596 54.3785
16.9047 55.8827
16.9498 56.3139
16.9949 54.6984
17.04 54.7936
17.0851 55.8659
17.1302 57.4633
17.1754 60.5266
17.2205 65.4691
17.2656 73.9446
17.3108 83.4957
17.3559 82.0102
17.401 70.4752
17.4462 61.0432
17.4913 58.3543
17.5365 58.333
17.5815 58.3165
17.6268 58.558
17.6718 59.7143
17.7171 60.0356
17.7622 60.2895
17.8074 60.9598
17.8525 62.6037
17.8977 66.3974
17.9428 71.4283
17.9881 79.94
18.0331 98.2845
18.0784 121.266
18.1237 138.068
18.1688 127.632
18.214 100.832
18.2591 84.5215
18.3044 89.6751
18.3495 100.478
18.3948 104.591
18.4399 94.2127
18.4852 76.2491
18.5303 64.905
18.5756 61.2254
18.6207 60.4288
18.666 59.6296
18.7112 58.9328
18.7565 58.1672
18.8016 57.9035
18.8469 57.3514
18.892 56.7746
18.9374 56.4195
18.9825 56.1051
19.0278 56.1892
19.073 55.9754
19.1183 56.4279
19.1635 56.9704
19.2088 58.4594
19.254 60.7847
19.2993 65.5344
19.3447 72.4194
19.3898 76.0677
19.4352 71.0689
19.4804 62.2346
19.5257 56.1688
19.5709 53.4489
19.6163 53.1697
19.6615 52.8218
19.7068 52.5414
19.752 52.4596
19.7974 52.647
19.8426 53.4079
19.888 54.1835
19.9332 55.2006
19.9786 57.5557
20.0238 61.5429
20.0692 66.6837
20.1144 68.9674
20.1598 66.9
20.205 62.6508
20.2504 61.616
20.2957 63.5668
20.3411 65.0846
20.3863 63.2606
20.4318 57.5994
20.477 52.9806
20.5224 51.1676
20.5677 50.3642
20.6131 49.4871
20.6586 48.9686
20.7038 48.8748
20.7493 48.4227
20.7945 48.3379
20.84 48.0547
20.8853 47.8004
20.9307 47.7548
20.976 47.8929
21.0215 47.9959
21.0668 48.3333
21.1122 48.614
21.1575 49.5142
21.203 50.3985
21.2483 50.8671
21.2938 50.886
21.3391 49.5357
21.3846 48.2772
21.4299 47.7648
21.4754 47.8549
21.5207 47.6983
21.5662 47.9859
21.6116 48.1548
21.6571 49.0173
21.7024 50.1105
21.7479 51.6317
21.7933 54.4592
21.8388 58.1456
21.8843 62.1412
21.9297 63.6815
21.9752 62.285
22.0206 58.6436
22.0661 55.886
22.1115 55.4461
22.157 55.1806
22.2024 53.3897
22.248 50.7353
22.2933 49.2596
22.3389 48.4462
22.3843 48.3727
22.4299 48.4341
22.4753 48.2616
22.5208 47.9572
22.5662 47.6552
22.6118 48.0481
22.6572 48.1436
22.7028 48.5022
22.7483 48.9673
22.7939 49.4644
22.8393 51.1108
22.8849 53.367
22.9303 55.7598
22.9759 57.264
23.0214 56.5977
23.067 53.6948
23.1126 50.4779
23.1581 48.473
23.2037 48.0675
23.2492 48.0926
23.2948 48.0038
23.3403 48.3032
23.3859 49.034
23.4314 50.1267
23.477 51.8428
23.5225 54.3455
23.5682 56.516
23.6137 57.4064
23.6593 54.7705
23.7048 50.8762
23.7505 47.7877
23.796 46.1259
23.8417 45.3813
23.8872 45.0666
23.9329 44.5696
23.9784 44.2952
24.0241 44.1035
24.0697 43.9104
24.1154 43.4875
24.1609 43.1675
24.2066 43.2738
24.2522 43.2934
24.2979 42.9591
24.3434 42.6747
24.3892 42.6197
24.4349 42.5656
24.4805 42.4686
24.5262 42.4744
24.5718 42.4371
24.6175 42.3361
24.6631 42.104
24.7089 41.8607
24.7545 42.0557
24.8002 41.6297
24.8458 41.7709
24.8916 41.4108
24.9372 41.6066
24.983 41.9973
25.0286 42.1459
25.0744 42.6843
25.12 43.3075
25.1658 43.6437
25.2114 44.0935
25.2572 44.1995
25.3029 44.301
25.3487 44.4648
25.3943 44.0484
25.4402 42.9352
25.4858 41.771
25.5316 40.944
25.5773 40.3667
25.6231 40.3254
25.669 40.0823
25.7147 39.896
25.7605 39.7978
25.8062 39.9761
25.8521 40.0103
25.8977 40.0183
25.9436 40.1934
25.9893 40.4242
26.0352 40.9441
26.0809 41.0664
26.1268 41.2149
26.1725 40.8687
26.2184 40.1654
26.2641 39.7882
26.31 39.5637
26.3557 39.6147
26.4017 39.5618
26.4474 39.7878
26.4933 40.1714
26.5391 40.6605
26.585 41.23
26.6308 41.5239
26.6767 41.4709
26.7225 41.4155
26.7684 40.9007
26.8142 40.2242
26.8601 39.9348
26.9059 39.4995
26.9519 38.9843
26.9979 38.6728
27.0437 38.4579
27.0896 38.2775
27.1354 38.2667
27.1814 38.0512
27.2272 37.8801
27.2732 38.0697
27.3191 37.8256
27.3651 38.083
27.4109 37.9042
27.4569 37.9922
27.5027 38.0281
27.5488 38.1525
27.5946 37.8702
27.6407 37.6631
27.6865 37.5365
27.7326 37.3099
27.7784 37.3439
27.8245 37.3208
27.8703 37.4741
27.9164 37.737
27.9623 37.826
28.0084 38.2351
28.0543 38.6511
28.1003 38.4941
28.1462 38.3062
28.1923 37.8836
28.2384 37.467
28.2843 37.1231
28.3304 36.6548
28.3764 36.1163
28.4225 35.9957
28.4684 35.8004
28.5145 35.481
28.5605 35.3714
28.6066 35.2013
28.6526 35.2047
28.6987 35.2083
28.7447 35.1022
28.7908 34.9845
28.8368 35.083
28.8829 35.1107
28.9289 34.8728
28.9751 34.6962
29.0211 34.512
29.0673 34.1825
29.1133 34.1957
29.1595 33.9287
29.2055 33.8812
29.2517 33.8659
29.2977 33.8373
29.3439 33.9254
29.3899 33.8068
29.4361 33.8497
29.4824 33.5039
29.5284 33.1289
29.5746 32.9828
29.6207 32.5977
29.6669 32.6937
29.713 32.4144
29.7593 32.4745
29.8053 32.5249
29.8516 32.4621
29.8977 32.4125
29.9439 32.2832
29.99 32.2325
30.0363 31.9866
30.0824 32.1133
30.1287 32.0017
30.1748 32.0895
30.2211 32.0021
30.2673 31.8379
30.3136 31.9054
30.3597 31.8139
30.406 31.8145
30.4522 31.6396
30.4985 31.5952
30.5447 31.6844
30.591 31.7502
30.6372 31.7906
30.6835 31.842
30.7297 31.7247
30.7761 31.6687
30.8224 31.5206
30.8686 31.4143
30.915 31.1371
30.9612 31.1163
31.0076 30.8333
31.0538 30.6569
31.1002 30.7374
31.1464 30.5688
31.1928 30.564
31.2391 30.5484
31.2855 30.5212
31.3317 30.4225
31.3781 30.551
31.4244 30.4589
31.4708 30.4175
31.5171 30.4073
31.5636 30.4088
31.6098 30.1304
31.6563 29.9721
31.7026 29.8606
31.7491 29.7646
31.7953 29.7053
31.8418 29.753
31.8881 29.7828
31.9346 29.8069
31.9809 29.6628
32.0275 29.6066
32.074 29.424
32.1203 29.2974
32.1668 29.145
32.2132 28.9809
32.2597 28.8184
32.306 28.7703
32.3526 28.6543
32.399 28.511
32.4455 28.3837
32.4919 28.3881
32.5385 28.2708
32.5848 28.1124
32.6314 28.1126
32.6778 28.0873
32.7244 27.9575
32.7708 27.8383
32.8174 27.813
32.8638 27.6087
32.9104 27.6989
32.9569 27.7066
33.0035 27.5386
33.0499 27.4929
33.0966 27.4514
33.143 27.4727
33.1897 27.4256
33.2361 27.2397
33.2828 27.2141
33.3293 27.023
33.3759 27.0696
33.4226 26.9393
33.4691 26.7409
33.5158 26.7048
33.5623 26.6037
33.609 26.4931
33.6555 26.3437
33.7022 26.2511
33.7487 26.2195
33.7954 26.1454
33.842 26.0581
33.8887 26.002
33.9353 25.8866
33.982 25.7904
34.0286 25.7561
34.0753 25.6343
34.1219 25.609
34.1687 25.4881
34.2152 25.4264
34.262 25.3257
34.3086 25.2477
34.3554 25.2077
34.402 25.0465
34.4488 25.0111
34.4954 24.8875
34.5422 24.8752
34.5889 24.7689
34.6357 24.6651
34.6825 24.6009
34.7292 24.4852
34.776 24.4154
34.8227 24.3722
34.8695 24.3922
34.9162 24.2588
34.9631 24.0438
35.0098 24.175
35.0566 24.0434
35.1033 23.9964
35.1502 23.9335
35.1969 23.8716
35.2438 23.9538
35.2906 23.8883
35.3375 23.7623
35.3842 23.7003
35.4311 23.6559
35.4779 23.6679
35.5248 23.5624
35.5716 23.5457
35.6185 23.4019
35.6653 23.3282
35.7123 23.257
35.759 23.2126
35.806 23.0527
35.8528 22.913
35.8998 22.8964
35.9468 22.8541
35.9936 22.8084
36.0406 22.6791
36.0874 22.6439
36.1345 22.6624
36.1813 22.5471
36.2283 22.4328
36.2752 22.3633
36.3222 22.3426
36.3691 22.2524
36.4161 22.1702
36.463 22.1079
36.5101 22.1311
36.557 22.0511
36.6041 21.9705
36.651 21.9028
36.6981 21.8932
36.745 21.7844
36.7921 21.7766
36.839 21.5994
36.8861 21.4998
36.9331 21.5139
36.9802 21.3995
37.0272 21.3393
37.0743 21.2552
37.1213 21.1875
37.1684 21.1512
37.2154 21.045
37.2626 21.0039
37.3098 20.8914
37.3568 20.9413
37.404 20.8124
37.451 20.6491
37.4982 20.6946
37.5452 20.5835
37.5924 20.5664
37.6395 20.6046
37.6867 20.4425
37.7337 20.3973
37.781 20.2721
37.8281 20.225
37.8753 20.2031
37.9224 20.0455
37.9697 20.0683
38.0168 19.9951
38.064 19.8772
38.1111 19.8181
38.1584 19.8194
38.2056 19.7587
38.2529 19.719
38.3 19.53
38.3473 19.5474
38.3945 19.4324
38.4418 19.4251
38.489 19.4482
38.5363 19.2282
38.5837 19.2229
38.6309 19.2231
38.6782 19.1128
38.7254 18.9909
38.7728 19.0215
38.82 18.8258
38.8674 18.9003
38.9146 18.759
38.9621 18.712
39.0093 18.6468
39.0567 18.6104
39.104 18.6065
39.1514 18.393
39.1987 18.4897
39.2461 18.4088
39.2934 18.3498
39.3409 18.2721
39.3882 18.2057
39.4356 18.1257
39.483 18.1066
39.5304 18.0796
39.5778 18.0019
39.6253 17.9191
39.6726 17.8811
39.7201 17.8165
39.7675 17.7525
39.815 17.739
39.8624 17.6152
39.9099 17.601
39.9575 17.4801
40.0049 17.5027
40.0525 17.381
40.0999 17.3914
40.1474 17.2831
40.1949 17.2328
40.2425 17.1869
40.2899 17.1081
40.3375 17.1225
40.385 17.0397
40.4326 16.9806
40.48 16.8979
40.5277 16.9006
40.5752 16.8241
40.6228 16.7422
40.6703 16.7264
40.718 16.6994
40.7655 16.6506
40.8132 16.5078
40.8607 16.5537
40.9084 16.4821
40.9559 16.3564
41.0036 16.3378
41.0512 16.3236
41.0989 16.2581
41.1465 16.189
41.1942 16.2063
41.242 16.0243
41.2896 15.9915
41.3373 15.9295
41.3849 15.9317
41.4327 15.8613
41.4803 15.838
41.5281 15.7499
41.5758 15.7656
41.6236 15.6924
41.6712 15.642
41.7191 15.5541
41.7667 15.4866
41.8146 15.457
41.8622 15.4358
41.9101 15.3683
41.9578 15.279
42.0057 15.2751
42.0534 15.2082
42.1013 15.1939
42.149 15.085
42.1969 15.0507
42.2446 14.9968
42.2925 14.9711
42.3403 14.9399
42.3882 14.9393
42.436 14.8217
42.4839 14.704
42.5319 14.7133
42.5797 14.6289
42.6277 14.6008
42.6755 14.5651
42.7235 14.4591
42.7713 14.4527
42.8193 14.3773
42.8671 14.3546
42.9152 14.3202
42.963 14.2034
43.0111 14.1622
43.0589 14.1699
43.107 14.102
43.1549 14.0937
43.2029 14.0375
43.2508 13.9838
43.2989 13.9153
43.3468 13.8691
43.3949 13.7893
43.4429 13.7735
43.491 13.6909
43.5389 13.6913
43.5871 13.6508
43.635 13.5982
43.6832 13.5607
43.7312 13.478
43.7793 13.4432
43.8273 13.4075
43.8755 13.3464
43.9237 13.2931
43.9717 13.2964
44.0199 13.1951
44.068 13.1424
44.1162 13.143
44.1642 13.0877
44.2125 13.0628
44.2606 13.0172
44.3088 12.9665
44.3569 12.8988
44.4052 12.8877
44.4533 12.8091
44.5016 12.7137
44.5497 12.709
44.598 12.6808
44.6461 12.6225
44.6945 12.5765
44.7426 12.5267
44.791 12.4621
44.8391 12.4822
44.8875 12.3817
44.9357 12.3776
44.984 12.3022
45.0322 12.2722
45.0806 12.1855
45.1288 12.1915
45.1773 12.1346
45.2257 12.0694
45.2739 12.086
45.3224 12.0095
45.3706 12.0083
45.4191 11.9118
45.4673 11.9074
45.5158 11.8257
45.5641 11.814
45.6126 11.7981
45.6609 11.7074
45.7094 11.696
45.7577 11.6642
45.8063 11.5658
45.8546 11.559
45.9031 11.5509
45.9515 11.5003
46.0001 11.3817
46.0484 11.4176
46.097 11.3908
46.1454 11.3114
46.194 11.2787
46.2424 11.2137
46.291 11.1921
46.3395 11.1679
46.3881 11.0814
46.4365 11.0559
46.4852 11.0343
46.5337 10.9567
46.5823 10.9519
46.631 10.8575
46.6795 10.8689
46.7282 10.8282
46.7767 10.7278
46.8254 10.7575
46.8739 10.7024
46.9226 10.7188
46.9712 10.6202
47.0199 10.5666
47.0685 10.5378
47.1173 10.4738
47.1658 10.488
47.2146 10.4764
47.2632 10.3801
47.312 10.3513
47.3606 10.282
47.4095 10.2039
47.4581 10.2468
47.5069 10.1704
47.5556 10.1909
47.6044 10.1238
47.6531 10.0975
47.702 10.037
47.7507 10.0469
47.7996 9.97728
47.8483 9.97629
47.8972 9.91117
47.9461 9.85679
47.9948 9.84359
48.0438 9.79457
48.0925 9.76505
48.1415 9.77552
48.1902 9.66336
48.2392 9.67426
48.288 9.66233
48.337 9.54894
48.3858 9.57104
48.4348 9.51683
48.4837 9.5275
48.5327 9.43541
48.5815 9.41329
48.6306 9.38688
48.6795 9.31206
48.7285 9.28826
48.7774 9.29573
48.8265 9.22555
48.8754 9.22185
48.9245 9.17156
48.9734 9.16099
49.0226 9.12303
49.0715 9.06626
49.1206 9.02504
49.1696 8.97841
49.2188 8.95223
49.2679 8.92314
49.3169 8.87267
49.3661 8.86215
49.4151 8.84705
49.4643 8.8249
49.5134 8.76401
49.5626 8.72847
49.6117 8.69524
49.6609 8.68946
49.71 8.59911
49.7592 8.59152
49.8083 8.53748
49.8576 8.55906
49.9067 8.47827
49.956 8.46209
50.0052 8.41801
50.0545 8.4138
50.1036 8.38308
50.153 8.32849
50.2022 8.33226
50.2515 8.26907
50.3007 8.22219
50.3501 8.14779
50.3993 8.1578
50.4487 8.12552
50.498 8.10015
50.5474 8.04909
50.5966 8.05972
50.6461 8.01867
50.6955 7.9839
50.7448 7.95411
50.7943 7.93667
50.8436 7.87291
50.8931 7.85875
50.9424 7.84698
50.9919 7.79723
51.0413 7.74015
51.0908 7.75118
51.1402 7.71551
51.1897 7.7112
51.2391 7.65285
51.2887 7.60753
51.3381 7.60314
51.3877 7.57497
51.4371 7.51579
51.4867 7.48252
51.5362 7.47345
51.5858 7.46825
51.6353 7.37259
51.6849 7.38129
51.7344 7.33629
51.7841 7.34528
51.8336 7.24837
51.8833 7.28031
51.9328 7.22194
51.9826 7.16295
52.0323 7.15936
52.0818 7.12741
52.1316 7.07424
52.1812 7.05364
52.231 7.04629
52.2806 7.02152
52.3304 6.9729
52.38 6.94025
52.4298 6.97172
52.4794 6.91011
52.5293 6.84984
52.5789 6.82847
52.6288 6.84325
52.6785 6.79297
52.7284 6.74973
52.7781 6.73124
52.828 6.7218
52.8777 6.65469
52.9276 6.66777
52.9774 6.61711
53.0273 6.61877
53.0771 6.55351
53.1271 6.56882
53.1769 6.51828
53.2269 6.48411
53.2767 6.45887
53.3267 6.42342
53.3765 6.39348
53.4266 6.36681
53.4766 6.34235
53.5265 6.27533
53.5765 6.30534
53.6264 6.2538
53.6765 6.24357
53.7264 6.17548
53.7765 6.13476
53.8265 6.15062
53.8766 6.12205
53.9266 6.08355
53.9767 6.06425
54.0267 6.01756
54.0769 6.00912
54.1269 6.00992
54.1771 5.92939
54.2271 5.90472
54.2773 5.88011
54.3274 5.8724
54.3776 5.84832
54.4277 5.82506
54.478 5.78436
54.528 5.75062
54.5783 5.67549
54.6285 5.65485
54.6788 5.61521
54.7289 5.5841
54.7792 5.54814
54.8296 5.49006
54.8798 5.465
54.9301 5.43055
54.9803 5.35166
55.0307 5.33064
55.0809 5.3246
55.1314 5.299
55.1816 5.21358
55.232 5.15626
55.2823 5.12605
55.3328 5.06727
55.383 5.01747
55.4335 5.09516
55.4838 4.96322
55.5344 4.92083
55.5847 4.86207
55.6352 4.86388
55.6856 4.82386
55.7361 4.79472