File: XRD/Ni3Fe_FD0213.xy
TT I
1.27165 7.79361
1.31627 7.0471
1.36089 7.59729
1.40551 7.40913
1.45013 6.75821
1.49476 6.23369
1.53938 6.31457
1.584 5.97592
1.62863 5.88964
1.67325 5.20425
1.71787 5.80515
1.7625 5.08162
1.80712 5.58378
1.85174 4.87449
1.89636 5.524
1.94099 5.28421
1.98562 5.62218
2.03025 4.79142
2.07487 4.29997
2.11949 4.85231
2.16411 4.71823
2.20874 4.98286
2.25338 4.74917
2.298 4.85251
2.34263 4.81557
2.38725 4.52296
2.43188 5.10743
2.4765 5.17924
2.52115 4.62919
2.56577 5.32889
2.6104 5.84208
2.65503 5.25101
2.69965 6.0632
2.7443 6.43062
2.78893 6.90587
2.83356 6.51583
2.87818 8.20637
2.92281 8.5352
2.96744 9.41154
3.01209 10.0863
3.05672 11.083
3.10135 11.9851
3.14599 12.7099
3.19062 13.8898
3.23527 14.6916
3.2799 16.0846
3.32454 17.5358
3.36917 17.5505
3.4138 19.3286
3.45844 19.7312
3.50309 21.0436
3.54773 21.3104
3.59237 22.1765
3.637 23.4217
3.68164 24.1617
3.7263 25.0811
3.77094 26.2325
3.81558 26.7168
3.86022 27.8804
3.90486 29.5055
3.9495 30.0817
3.99416 30.9982
4.0388 32.3448
4.08344 34.1447
4.12809 35.1023
4.17273 36.3553
4.21738 37.7156
4.26204 38.9828
4.30669 40.5778
4.35133 42.3147
4.39598 44.2766
4.44063 46.413
4.4853 48.8187
4.52995 52.1291
4.5746 53.5692
4.61925 55.8103
4.6639 58.4352
4.70855 61.3476
4.75322 64.8665
4.79788 68.1899
4.84253 71.6461
4.88719 76.8981
4.93184 81.8607
4.97652 88.2797
5.02118 97.1077
5.06583 107.655
5.11049 124.867
5.15515 170.238
5.19981 889.587
5.24449 3949.62
5.28916 10595.0
5.33382 4411.41
5.37848 281.122
5.42315 154.571
5.46783 130.184
5.5125 118.518
5.55716 112.764
5.60183 106.739
5.6465 104.354
5.69117 103.184
5.73586 101.739
5.78053 101.767
5.8252 102.191
5.86988 104.985
5.91455 111.307
5.95924 134.286
6.00392 444.515
6.0486 1422.96
6.09328 3581.41
6.13795 3838.18
6.18263 390.853
6.22733 111.454
6.27201 89.5699
6.3167 81.6595
6.36138 76.2317
6.40606 73.0324
6.45075 71.2498
6.49545 68.3126
6.54014 66.8214
6.58483 65.1446
6.62952 64.2737
6.67421 62.832
6.71892 61.7744
6.76361 60.7075
6.8083 59.9175
6.853 59.5971
6.89769 58.5983
6.94239 58.3402
6.98711 57.3592
7.03181 57.2811
7.07651 56.7382
7.12121 56.7945
7.16591 56.5907
7.21063 56.1213
7.25533 55.7111
7.30004 55.9158
7.34475 55.8709
7.38945 56.0938
7.43416 55.5251
7.47889 55.7086
7.5236 56.6748
7.56831 57.3402
7.61303 57.1444
7.65774 57.4244
7.70247 57.8726
7.74719 58.2635
7.79191 59.1003
7.83663 59.1745
7.88135 60.4758
7.92607 61.4039
7.97081 62.4915
8.01553 63.831
8.06026 65.6701
8.10498 66.4391
8.14971 68.9504
8.19446 70.5894
8.23919 73.069
8.28392 76.4685
8.32865 79.4949
8.37339 84.4507
8.41812 90.6855
8.46288 110.222
8.50761 290.341
8.55235 593.483
8.59709 1047.61
8.64183 1947.83
8.68658 1276.22
8.73134 233.016
8.77609 111.95
8.82083 100.526
8.86558 96.3436
8.91033 93.7999
8.9551 90.7771
8.99985 89.5477
9.04461 88.7534
9.08936 88.0272
9.13412 87.3023
9.17888 86.7297
9.22365 87.0051
9.26841 88.044
9.31318 88.4215
9.35794 88.2859
9.4027 88.0399
9.44749 89.441
9.49226 89.8773
9.53703 90.8069
9.5818 93.2829
9.62657 93.8501
9.67134 95.5909
9.71614 98.083
9.76091 100.245
9.80569 103.342
9.85047 106.779
9.89525 112.911
9.94005 134.918
9.98484 303.292
10.0296 524.431
10.0744 792.241
10.1192 1424.41
10.164 1737.72
10.2088 584.559
10.2536 152.347
10.2984 118.258
10.3432 113.544
10.388 114.598
10.4328 159.744
10.4776 213.604
10.5224 279.49
10.5672 436.066
10.612 533.267
10.6568 265.291
10.7017 108.759
10.7465 92.769
10.7913 88.2423
10.8361 85.7654
10.8809 83.1288
10.9257 80.6269
10.9706 79.8107
11.0154 77.8957
11.0602 76.2957
11.105 75.168
11.1499 73.4587
11.1947 72.4003
11.2395 71.3813
11.2844 70.6571
11.3292 69.9135
11.374 68.8803
11.4189 68.8746
11.4637 67.9924
11.5086 67.0482
11.5534 66.9338
11.5983 66.4677
11.6431 66.3963
11.688 65.9768
11.7328 65.8431
11.7777 65.5904
11.8225 65.3253
11.8674 65.3538
11.9122 66.0619
11.9571 66.5614
12.002 68.5613
12.0468 79.7463
12.0917 94.9248
12.1366 108.508
12.1814 137.749
12.2263 189.547
12.2712 187.475
12.3161 106.095
12.3609 70.6024
12.4058 67.3985
12.4507 67.3419
12.4956 67.3522
12.5405 67.5258
12.5853 67.9248
12.6302 68.3414
12.6751 69.064
12.72 69.6713
12.7649 70.9724
12.8098 71.8965
12.8547 73.3743
12.8996 74.9123
12.9445 76.6725
12.9894 78.4205
13.0343 80.7043
13.0792 86.4283
13.1242 110.24
13.1691 148.797
13.214 175.293
13.2589 225.954
13.3038 314.567
13.3487 418.462
13.3937 317.612
13.4386 152.952
13.4835 134.659
13.5285 155.162
13.5734 173.657
13.6183 222.084
13.6633 306.129
13.7082 360.174
13.7531 236.505
13.7981 114.699
13.843 87.787
13.888 84.5183
13.9329 81.7717
13.9779 80.2472
14.0228 78.8395
14.0678 76.9179
14.1127 76.4698
14.1577 75.4371
14.2027 74.7804
14.2476 74.3503
14.2926 73.6683
14.3376 73.3005
14.3825 72.5251
14.4275 72.4393
14.4725 72.7348
14.5175 72.7062
14.5624 72.3624
14.6074 73.0369
14.6524 73.6829
14.6974 74.6482
14.7424 80.7
14.7874 95.7348
14.8324 107.5
14.8774 119.149
14.9224 143.326
14.9674 184.013
15.0124 222.993
15.0574 177.764
15.1024 105.457
15.1474 77.3683
15.1924 73.9571
15.2374 72.7544
15.2824 71.6436
15.3274 70.9734
15.3725 70.2722
15.4175 69.86
15.4625 69.2423
15.5076 69.3913
15.5526 69.4011
15.5976 69.9444
15.6426 74.5259
15.6877 86.6413
15.7327 95.7402
15.7778 103.712
15.8228 121.26
15.8679 150.946
15.9129 188.373
15.958 178.958
16.003 115.766
16.0481 74.2491
16.0931 66.1554
16.1382 63.8566
16.1833 63.2803
16.2283 61.9081
16.2734 61.0737
16.3185 60.3144
16.3636 59.7717
16.4086 59.1548
16.4537 58.5886
16.4988 58.1312
16.5439 58.2939
16.589 57.7272
16.6341 57.3532
16.6792 57.0032
16.7243 57.3975
16.7694 57.1924
16.8145 57.3723
16.8596 57.4174
16.9047 57.7043
16.9498 57.7772
16.9949 57.7228
17.04 59.3684
17.0851 61.8122
17.1302 63.8686
17.1754 65.6462
17.2205 68.8256
17.2656 73.7492
17.3108 81.7605
17.3559 85.4565
17.401 78.114
17.4462 67.2297
17.4913 62.8201
17.5365 62.2142
17.5815 62.2159
17.6268 62.8144
17.6718 63.1227
17.7171 63.6243
17.7622 64.6207
17.8074 66.4279
17.8525 72.2674
17.8977 78.7243
17.9428 83.1098
17.9881 87.8627
18.0331 98.4236
18.0784 113.806
18.1237 137.936
18.1688 146.44
18.214 121.869
18.2591 94.6271
18.3044 90.1023
18.3495 96.2242
18.3948 106.024
18.4399 103.394
18.4852 85.167
18.5303 70.9275
18.5756 65.886
18.6207 64.373
18.666 63.5987
18.7112 62.9751
18.7565 62.1509
18.8016 61.8489
18.8469 61.1859
18.892 60.732
18.9374 60.2314
18.9825 59.8983
19.0278 59.8002
19.073 60.4124
19.1183 61.5264
19.1635 62.3422
19.2088 63.0358
19.254 64.7416
19.2993 67.1059
19.3447 71.0495
19.3898 76.0584
19.4352 76.457
19.4804 69.7144
19.5257 61.1199
19.5709 57.2661
19.6163 56.8488
19.6615 56.4848
19.7068 56.0816
19.752 56.1873
19.7974 57.1249
19.8426 58.4283
19.888 58.889
19.9332 59.7132
19.9786 61.3494
20.0238 63.9038
20.0692 68.3754
20.1144 72.4465
20.1598 73.543
20.205 68.4324
20.2504 64.1598
20.2957 64.4014
20.3411 66.6854
20.3863 67.4273
20.4318 63.02
20.477 57.2947
20.5224 53.859
20.5677 53.1355
20.6131 52.6122
20.6586 52.1569
20.7038 52.2301
20.7493 51.4867
20.7945 51.2905
20.84 51.3407
20.8853 51.2793
20.9307 51.1263
20.976 51.4036
21.0215 51.1982
21.0668 51.4816
21.1122 51.7467
21.1575 51.9662
21.203 52.6399
21.2483 53.4115
21.2938 54.1723
21.3391 53.2418
21.3846 51.6658
21.4299 50.9882
21.4754 50.8511
21.5207 51.2034
21.5662 51.9709
21.6116 52.8
21.6571 53.6532
21.7024 54.2809
21.7479 55.5608
21.7933 57.5173
21.8388 60.0849
21.8843 63.4026
21.9297 66.6008
21.9752 67.2559
22.0206 63.4399
22.0661 59.1346
22.1115 57.6414
22.157 58.2014
22.2024 57.8048
22.248 55.0835
22.2933 52.7966
22.3389 51.6325
22.3843 51.2887
22.4299 50.9584
22.4753 51.0933
22.5208 51.0401
22.5662 51.1896
22.6118 51.4653
22.6572 52.1893
22.7028 52.6442
22.7483 52.9741
22.7939 53.3193
22.8393 54.2173
22.8849 55.3904
22.9303 57.0431
22.9759 59.1723
23.0214 60.081
23.067 58.3709
23.1126 54.9032
23.1581 52.1929
23.2037 51.5692
23.2492 51.9804
23.2948 52.4194
23.3403 52.4483
23.3859 52.8743
23.4314 53.2426
23.477 54.2738
23.5225 55.5237
23.5682 57.4511
23.6137 59.5657
23.6593 59.1902
23.7048 55.7175
23.7505 51.6333
23.796 49.2675
23.8417 48.6444
23.8872 47.9799
23.9329 47.5724
23.9784 47.2998
24.0241 46.7957
24.0697 46.6668
24.1154 46.2261
24.1609 46.1188
24.2066 45.9851
24.2522 45.8682
24.2979 45.4915
24.3434 45.6221
24.3892 45.3149
24.4349 45.1697
24.4805 44.8926
24.5262 45.1328
24.5718 44.8562
24.6175 44.991
24.6631 44.9817
24.7089 44.7179
24.7545 44.4984
24.8002 44.4964
24.8458 44.4064
24.8916 44.4229
24.9372 44.5749
24.983 44.856
25.0286 45.2998
25.0744 45.4495
25.12 45.6391
25.1658 46.1932
25.2114 46.7209
25.2572 46.6549
25.3029 46.4744
25.3487 46.7493
25.3943 46.8498
25.4402 46.0224
25.4858 45.0193
25.5316 43.7423
25.5773 43.1134
25.6231 42.9317
25.669 42.5279
25.7147 42.605
25.7605 42.6044
25.8062 42.5739
25.8521 42.7287
25.8977 42.4941
25.9436 42.744
25.9893 42.7564
26.0352 43.1862
26.0809 43.3312
26.1268 43.7362
26.1725 43.4999
26.2184 43.1981
26.2641 42.7331
26.31 42.3259
26.3557 42.1497
26.4017 42.2248
26.4474 42.4826
26.4933 42.6474
26.5391 42.9344
26.585 43.206
26.6308 43.611
26.6767 44.1311
26.7225 44.029
26.7684 43.4705
26.8142 42.9965
26.8601 42.5356
26.9059 42.0671
26.9519 41.5852
26.9979 41.3864
27.0437 40.9163
27.0896 40.8066
27.1354 40.6592
27.1814 40.6027
27.2272 40.4187
27.2732 40.5424
27.3191 40.2071
27.3651 40.3823
27.4109 40.1348
27.4569 40.425
27.5027 40.2642
27.5488 40.3479
27.5946 40.4374
27.6407 40.222
27.6865 40.1143
27.7326 39.9422
27.7784 39.9798
27.8245 39.7954
27.8703 39.8568
27.9164 40.0306
27.9623 40.0606
28.0084 40.1616
28.0543 40.7301
28.1003 40.6095
28.1462 40.704
28.1923 40.3705
28.2384 39.8587
28.2843 39.4198
28.3304 39.0694
28.3764 38.5953
28.4225 38.2226
28.4684 38.053
28.5145 37.7629
28.5605 37.735
28.6066 37.4367
28.6526 37.4036
28.6987 37.3299
28.7447 37.278
28.7908 37.1602
28.8368 37.1091
28.8829 36.9451
28.9289 36.9483
28.9751 36.8549
29.0211 36.6996
29.0673 36.4448
29.1133 36.3579
29.1595 35.9752
29.2055 36.0573
29.2517 35.9725
29.2977 35.7419
29.3439 35.8364
29.3899 35.8153
29.4361 35.7187
29.4824 35.6074
29.5284 35.424
29.5746 35.1074
29.6207 34.8305
29.6669 34.8571
29.713 34.7071
29.7593 34.5033
29.8053 34.5705
29.8516 34.3439
29.8977 34.4433
29.9439 34.2706
29.99 34.1963
30.0363 34.0089
30.0824 34.1221
30.1287 33.9111
30.1748 33.9978
30.2211 33.9521
30.2673 33.8254
30.3136 33.9907
30.3597 33.9753
30.406 33.7005
30.4522 33.7348
30.4985 33.5182
30.5447 33.721
30.591 33.6828
30.6372 33.6757
30.6835 33.5735
30.7297 33.7282
30.7761 33.7304
30.8224 33.4672
30.8686 33.4168
30.915 33.1862
30.9612 33.0741
31.0076 32.9572
31.0538 32.728
31.1002 32.746
31.1464 32.3936
31.1928 32.5471
31.2391 32.5089
31.2855 32.3858
31.3317 32.3552
31.3781 32.4226
31.4244 32.3373
31.4708 32.2724
31.5171 32.3022
31.5636 32.307
31.6098 32.0994
31.6563 31.8363
31.7026 31.7375
31.7491 31.6611
31.7953 31.6067
31.8418 31.6118
31.8881 31.5633
31.9346 31.5458
31.9809 31.516
32.0275 31.375
32.074 31.2109
32.1203 31.1037
32.1668 30.9327
32.2132 30.8671
32.2597 30.6374
32.306 30.594
32.3526 30.3472
32.399 30.312
32.4455 30.2125
32.4919 30.1125
32.5385 29.9754
32.5848 29.956
32.6314 29.8896
32.6778 29.8434
32.7244 29.721
32.7708 29.5415
32.8174 29.5234
32.8638 29.3788
32.9104 29.4904
32.9569 29.2923
33.0035 29.1575
33.0499 29.2065
33.0966 29.211
33.143 29.0903
33.1897 29.0569
33.2361 28.927
33.2828 28.9137
33.3293 28.7186
33.3759 28.7517
33.4226 28.5599
33.4691 28.4658
33.5158 28.4064
33.5623 28.2952
33.609 28.0304
33.6555 27.9114
33.7022 27.8254
33.7487 27.823
33.7954 27.7073
33.842 27.6283
33.8887 27.6136
33.9353 27.5358
33.982 27.4018
34.0286 27.3412
34.0753 27.2123
34.1219 27.2077
34.1687 27.0586
34.2152 27.0231
34.262 26.9406
34.3086 26.8439
34.3554 26.7529
34.402 26.6252
34.4488 26.5718
34.4954 26.4243
34.5422 26.4085
34.5889 26.2718
34.6357 26.2006
34.6825 26.1656
34.7292 26.1119
34.776 25.8963
34.8227 25.8769
34.8695 25.8781
34.9162 25.717
34.9631 25.6299
35.0098 25.6851
35.0566 25.4954
35.1033 25.4232
35.1502 25.4285
35.1969 25.3392
35.2438 25.2631
35.2906 25.2619
35.3375 25.2645
35.3842 25.0875
35.4311 25.134
35.4779 25.0587
35.5248 25.0427
35.5716 24.9042
35.6185 24.8696
35.6653 24.8025
35.7123 24.6342
35.759 24.5893
35.806 24.4386
35.8528 24.3275
35.8998 24.2881
35.9468 24.2502
35.9936 24.1768
36.0406 24.0999
36.0874 24.0929
36.1345 24.0177
36.1813 23.8712
36.2283 23.8758
36.2752 23.6674
36.3222 23.8396
36.3691 23.6465
36.4161 23.4293
36.463 23.5425
36.5101 23.4332
36.557 23.3883
36.6041 23.2445
36.651 23.3095
36.6981 23.2341
36.745 23.1135
36.7921 23.046
36.839 22.912
36.8861 22.8493
36.9331 22.805
36.9802 22.7469
37.0272 22.6277
37.0743 22.4696
37.1213 22.4546
37.1684 22.4755
37.2154 22.4054
37.2626 22.3724
37.3098 22.1821
37.3568 22.1617
37.404 22.1095
37.451 22.013
37.4982 22.0391
37.5452 21.7916
37.5924 21.7916
37.6395 21.8359
37.6867 21.7012
37.7337 21.6229
37.781 21.5376
37.8281 21.5207
37.8753 21.3639
37.9224 21.3364
37.9697 21.2231
38.0168 21.1738
38.064 21.075
38.1111 20.9864
38.1584 21.0294
38.2056 20.8937
38.2529 20.8535
38.3 20.7433
38.3473 20.7852
38.3945 20.5833
38.4418 20.6075
38.489 20.5379
38.5363 20.4314
38.5837 20.3435
38.6309 20.343
38.6782 20.2935
38.7254 20.2046
38.7728 20.1359
38.82 20.0595
38.8674 19.9872
38.9146 19.9687
38.9621 19.9075
39.0093 19.8012
39.0567 19.7832
39.104 19.6247
39.1514 19.6013
39.1987 19.5913
39.2461 19.55
39.2934 19.476
39.3409 19.3295
39.3882 19.2707
39.4356 19.2053
39.483 19.2063
39.5304 19.1766
39.5778 19.1398
39.6253 19.0028
39.6726 18.9706
39.7201 18.8244
39.7675 18.8138
39.815 18.815
39.8624 18.7425
39.9099 18.6942
39.9575 18.5608
40.0049 18.5549
40.0525 18.4663
40.0999 18.4213
40.1474 18.4024
40.1949 18.3418
40.2425 18.226
40.2899 18.1995
40.3375 18.1078
40.385 18.0201
40.4326 18.0513
40.48 17.886
40.5277 17.917
40.5752 17.9088
40.6228 17.7466
40.6703 17.7352
40.718 17.6141
40.7655 17.6692
40.8132 17.5403
40.8607 17.5408
40.9084 17.4779
40.9559 17.4092
41.0036 17.3247
41.0512 17.2907
41.0989 17.278
41.1465 17.1288
41.1942 17.124
41.242 17.0543
41.2896 17.0657
41.3373 16.8986
41.3849 16.8726
41.4327 16.779
41.4803 16.7753
41.5281 16.7442
41.5758 16.6232
41.6236 16.5767
41.6712 16.5682
41.7191 16.4806
41.7667 16.494
41.8146 16.4085
41.8622 16.3272
41.9101 16.3246
41.9578 16.1897
42.0057 16.1622
42.0534 16.0947
42.1013 16.0904
42.149 15.9791
42.1969 15.9445
42.2446 15.8685
42.2925 15.8198
42.3403 15.791
42.3882 15.7161
42.436 15.6749
42.4839 15.5765
42.5319 15.593
42.5797 15.4956
42.6277 15.4629
42.6755 15.3913
42.7235 15.3217
42.7713 15.2669
42.8193 15.2291
42.8671 15.1791
42.9152 15.1496
42.963 15.1094
43.0111 15.0306
43.0589 14.9683
43.107 14.9361
43.1549 14.899
43.2029 14.7859
43.2508 14.7793
43.2989 14.7654
43.3468 14.6778
43.3949 14.6628
43.4429 14.552
43.491 14.5217
43.5389 14.474
43.5871 14.3856
43.635 14.3873
43.6832 14.3629
43.7312 14.2396
43.7793 14.2565
43.8273 14.2042
43.8755 14.097
43.9237 14.1188
43.9717 14.0352
44.0199 13.9605
44.068 13.9613
44.1162 13.917
44.1642 13.8607
44.2125 13.8058
44.2606 13.7676
44.3088 13.679
44.3569 13.6354
44.4052 13.5691
44.4533 13.5932
44.5016 13.4756
44.5497 13.4213
44.598 13.4449
44.6461 13.375
44.6945 13.2699
44.7426 13.2543
44.791 13.2034
44.8391 13.1376
44.8875 13.1287
44.9357 13.1335
44.984 13.0364
45.0322 12.9986
45.0806 12.9663
45.1288 12.9313
45.1773 12.8499
45.2257 12.8114
45.2739 12.7514
45.3224 12.7172
45.3706 12.6824
45.4191 12.5846
45.4673 12.5643
45.5158 12.5715
45.5641 12.4949
45.6126 12.4516
45.6609 12.4022
45.7094 12.3449
45.7577 12.2913
45.8063 12.2566
45.8546 12.2289
45.9031 12.1656
45.9515 12.1822
46.0001 12.0758
46.0484 12.0586
46.097 11.9764
46.1454 11.9697
46.194 11.9644
46.2424 11.8972
46.291 11.8228
46.3395 11.7767
46.3881 11.7376
46.4365 11.6942
46.4852 11.6267
46.5337 11.63
46.5823 11.5696
46.631 11.5245
46.6795 11.5076
46.7282 11.4751
46.7767 11.4139
46.8254 11.3735
46.8739 11.3252
46.9226 11.2918
46.9712 11.234
47.0199 11.1811
47.0685 11.1509
47.1173 11.1224
47.1658 11.0896
47.2146 11.0128
47.2632 10.9944
47.312 10.9685
47.3606 10.9124
47.4095 10.8529
47.4581 10.843
47.5069 10.7967
47.5556 10.7137
47.6044 10.7151
47.6531 10.7103
47.702 10.625
47.7507 10.5871
47.7996 10.5829
47.8483 10.5268
47.8972 10.4657
47.9461 10.4304
47.9948 10.4248
48.0438 10.3336
48.0925 10.3487
48.1415 10.2903
48.1902 10.2503
48.2392 10.2486
48.288 10.182
48.337 10.1632
48.3858 10.0915
48.4348 10.0869
48.4837 10.0382
48.5327 10.0008
48.5815 9.96638
48.6306 9.94913
48.6795 9.88915
48.7285 9.82014
48.7774 9.8287
48.8265 9.79055
48.8754 9.75802
48.9245 9.70723
48.9734 9.63531
49.0226 9.66642
49.0715 9.6147
49.1206 9.55755
49.1696 9.52016
49.2188 9.52284
49.2679 9.41815
49.3169 9.40384
49.3661 9.38923
49.4151 9.3261
49.4643 9.30504
49.5134 9.27477
49.5626 9.20777
49.6117 9.22307
49.6609 9.19179
49.71 9.12323
49.7592 9.11299
49.8083 9.0757
49.8576 9.04998
49.9067 8.96653
49.956 8.97166
50.0052 8.92099
50.0545 8.89515
50.1036 8.8551
50.153 8.81389
50.2022 8.7864
50.2515 8.77476
50.3007 8.71882
50.3501 8.68352
50.3993 8.64267
50.4487 8.64361
50.498 8.59846
50.5474 8.56064
50.5966 8.50001
50.6461 8.44547
50.6955 8.41078
50.7448 8.40797
50.7943 8.38703
50.8436 8.34422
50.8931 8.3434
50.9424 8.27478
50.9919 8.27331
51.0413 8.21205
51.0908 8.19862
51.1402 8.16263
51.1897 8.15453
51.2391 8.09684
51.2887 8.02042
51.3381 8.04463
51.3877 8.02532
51.4371 7.95929
51.4867 7.91352
51.5362 7.89893
51.5858 7.90449
51.6353 7.8213
51.6849 7.75422
51.7344 7.70958
51.7841 7.76333
51.8336 7.70146
51.8833 7.63249
51.9328 7.59777
51.9826 7.56147
52.0323 7.57862
52.0818 7.53721
52.1316 7.49425
52.1812 7.48973
52.231 7.46083
52.2806 7.43362
52.3304 7.38629
52.38 7.33698
52.4298 7.29517
52.4794 7.31013
52.5293 7.2713
52.5789 7.23482
52.6288 7.20784
52.6785 7.1546
52.7284 7.15698
52.7781 7.13143
52.828 7.09868
52.8777 7.03571
52.9276 7.02074
52.9774 7.0156
53.0273 6.96654
53.0771 6.96744
53.1271 6.90528
53.1769 6.85974
53.2269 6.87746
53.2767 6.82216
53.3267 6.80308
53.3765 6.75314
53.4266 6.75473
53.4766 6.69829
53.5265 6.68619
53.5765 6.67917
53.6264 6.6278
53.6765 6.59301
53.7264 6.55171
53.7765 6.53076
53.8265 6.4815
53.8766 6.44018
53.9266 6.45072
53.9767 6.4149
54.0267 6.3891
54.0769 6.33198
54.1269 6.30137
54.1771 6.26444
54.2271 6.28036
54.2773 6.18909
54.3274 6.16208
54.3776 6.14639
54.4277 6.145
54.478 6.08436
54.528 6.02228
54.5783 5.9914
54.6285 5.9096
54.6788 5.91975
54.7289 5.84577
54.7792 5.8366
54.8296 5.74142
54.8798 5.72946
54.9301 5.69185
54.9803 5.68775
55.0307 5.65094
55.0809 5.53326
55.1314 5.53587
55.1816 5.50862
55.232 5.3885
55.2823 5.34103
55.3328 5.32566
55.383 5.22843
55.4335 5.21928
55.4838 5.12351
55.5344 5.15818
55.5847 5.06199
55.6352 5.05414
55.6856 5.01342
55.7361 5.00652