File: XRD/Ni3Fe_FD0915.xy
TT I
1.27165 7.65277
1.31627 6.4939
1.36089 6.35526
1.40551 6.09292
1.45013 5.53984
1.49476 6.02807
1.53938 5.60794
1.584 4.94097
1.62863 5.13827
1.67325 5.12405
1.71787 4.9596
1.7625 4.55534
1.80712 4.46969
1.85174 5.02707
1.89636 4.86386
1.94099 5.06097
1.98562 4.49302
2.03025 5.04546
2.07487 4.39395
2.11949 4.83594
2.16411 4.26045
2.20874 10.3274
2.25338 13.1572
2.298 5.84418
2.34263 5.44262
2.38725 6.25533
2.43188 6.74856
2.4765 7.16709
2.52115 6.90226
2.56577 8.15045
2.6104 8.55704
2.65503 8.77599
2.69965 9.08911
2.7443 8.87304
2.78893 8.9382
2.83356 8.52086
2.87818 8.80483
2.92281 9.1489
2.96744 9.08627
3.01209 10.709
3.05672 11.2284
3.10135 12.1846
3.14599 13.2521
3.19062 14.3888
3.23527 15.1928
3.2799 16.0077
3.32454 16.3905
3.36917 17.5509
3.4138 18.9478
3.45844 19.5143
3.50309 20.5264
3.54773 20.9051
3.59237 23.2123
3.637 55.6459
3.68164 39.6696
3.7263 25.3888
3.77094 26.1679
3.81558 26.5772
3.86022 27.1468
3.90486 28.6055
3.9495 29.5702
3.99416 30.4808
4.0388 31.8262
4.08344 33.3227
4.12809 33.9484
4.17273 36.0789
4.21738 40.3012
4.26204 138.646
4.30669 117.528
4.35133 44.701
4.39598 43.3478
4.44063 49.1583
4.4853 55.2754
4.52995 54.6867
4.5746 55.8569
4.61925 53.4345
4.6639 54.8039
4.70855 57.5615
4.75322 61.0867
4.79788 66.3967
4.84253 67.6853
4.88719 73.4142
4.93184 75.7257
4.97652 80.0943
5.02118 86.2658
5.06583 93.4299
5.11049 104.601
5.15515 155.02
5.19981 358.852
5.24449 2772.48
5.28916 13600.6
5.33382 2588.73
5.37848 183.48
5.42315 127.559
5.46783 116.12
5.5125 109.28
5.55716 100.833
5.60183 96.8557
5.6465 94.7399
5.69117 93.0771
5.73586 91.585
5.78053 95.2411
5.8252 95.1292
5.86988 97.9102
5.91455 93.4342
5.95924 102.052
6.00392 219.813
6.0486 944.024
6.09328 4734.72
6.13795 2971.41
6.18263 189.735
6.22733 87.6067
6.27201 79.376
6.3167 85.6924
6.36138 74.0791
6.40606 69.1817
6.45075 68.5047
6.49545 64.6667
6.54014 62.5286
6.58483 61.8113
6.62952 62.2591
6.67421 76.9428
6.71892 97.1777
6.76361 62.287
6.8083 58.6382
6.853 58.7364
6.89769 56.2968
6.94239 55.3273
6.98711 55.114
7.03181 55.3396
7.07651 54.3763
7.12121 54.29
7.16591 55.1957
7.21063 54.802
7.25533 62.0119
7.30004 109.466
7.34475 69.6773
7.38945 54.2697
7.43416 53.2348
7.47889 53.005
7.5236 53.66
7.56831 54.614
7.61303 55.2514
7.65774 56.1837
7.70247 56.0347
7.74719 56.0331
7.79191 55.853
7.83663 56.0056
7.88135 57.2399
7.92607 58.0554
7.97081 58.8166
8.01553 60.2866
8.06026 61.7493
8.10498 63.439
8.14971 70.16
8.19446 69.9553
8.23919 68.5783
8.28392 70.7786
8.32865 73.2915
8.37339 77.4752
8.41812 83.1675
8.46288 102.68
8.50761 169.289
8.55235 366.31
8.59709 1214.48
8.64183 2274.59
8.68658 824.923
8.73134 139.958
8.77609 96.1482
8.82083 91.0595
8.86558 90.395
8.91033 90.6333
8.9551 89.0788
8.99985 84.1706
9.04461 83.2598
9.08936 82.6736
9.13412 81.8588
9.17888 81.1046
9.22365 81.1513
9.26841 80.8976
9.31318 83.2033
9.35794 84.7266
9.4027 84.6802
9.44749 83.9534
9.49226 83.6505
9.53703 84.5253
9.5818 87.885
9.62657 93.2452
9.67134 94.7603
9.71614 92.0235
9.76091 93.6112
9.80569 97.9947
9.85047 99.7503
9.89525 113.14
9.94005 125.555
9.98484 182.698
10.0296 332.942
10.0744 828.294
10.1192 1865.94
10.164 1450.43
10.2088 317.115
10.2536 118.16
10.2984 108.093
10.3432 107.672
10.388 103.094
10.4328 118.809
10.4776 158.038
10.5224 291.32
10.5672 553.252
10.612 487.163
10.6568 174.41
10.7017 91.9974
10.7465 84.8415
10.7913 81.9089
10.8361 79.9373
10.8809 77.8032
10.9257 76.8998
10.9706 77.0643
11.0154 74.3193
11.0602 72.0187
11.105 70.1808
11.1499 72.1235
11.1947 74.5523
11.2395 70.0961
11.2844 67.8801
11.3292 65.8063
11.374 65.1315
11.4189 64.6886
11.4637 63.8993
11.5086 63.7919
11.5534 65.273
11.5983 63.4435
11.6431 62.7272
11.688 62.0024
11.7328 61.7005
11.7777 61.7695
11.8225 61.7817
11.8674 61.7163
11.9122 61.8769
11.9571 62.0893
12.002 63.163
12.0468 67.4494
12.0917 77.3177
12.1366 101.621
12.1814 158.105
12.2263 209.199
12.2712 152.056
12.3161 85.199
12.3609 66.0455
12.4058 63.3205
12.4507 63.222
12.4956 63.7642
12.5405 63.9167
12.5853 64.4308
12.6302 68.2448
12.6751 70.7425
12.72 67.1031
12.7649 66.8685
12.8098 67.4648
12.8547 68.8624
12.8996 70.3201
12.9445 71.6564
12.9894 73.3061
13.0343 74.8946
13.0792 78.953
13.1242 90.2185
13.1691 109.264
13.214 145.596
13.2589 245.849
13.3038 390.382
13.3487 420.106
13.3937 227.471
13.4386 113.644
13.4835 104.075
13.5285 117.631
13.5734 157.12
13.6183 258.922
13.6633 379.01
13.7082 322.592
13.7531 164.965
13.7981 91.1314
13.843 80.1742
13.888 78.362
13.9329 76.0731
13.9779 74.5922
14.0228 73.2036
14.0678 71.8301
14.1127 71.1845
14.1577 70.9786
14.2027 70.0794
14.2476 69.4902
14.2926 68.8685
14.3376 69.5931
14.3825 68.8615
14.4275 67.9177
14.4725 67.7483
14.5175 67.8338
14.5624 68.0378
14.6074 69.1693
14.6524 69.5751
14.6974 69.6861
14.7424 72.3779
14.7874 78.3613
14.8324 87.359
14.8774 110.185
14.9224 157.906
14.9674 216.019
15.0124 212.18
15.0574 135.912
15.1024 83.5422
15.1474 70.6221
15.1924 69.1254
15.2374 68.5624
15.2824 67.7629
15.3274 66.4423
15.3725 65.6699
15.4175 65.218
15.4625 64.916
15.5076 64.9815
15.5526 64.6882
15.5976 65.0163
15.6426 66.667
15.6877 71.5695
15.7327 78.6099
15.7778 93.8995
15.8228 129.323
15.8679 178.428
15.9129 194.199
15.958 143.643
16.003 86.2398
16.0481 64.6257
16.0931 62.2303
16.1382 60.7104
16.1833 59.3475
16.2283 58.0276
16.2734 57.1806
16.3185 57.1737
16.3636 57.1557
16.4086 55.993
16.4537 55.0025
16.4988 54.4622
16.5439 54.4743
16.589 54.3961
16.6341 53.9623
16.6792 53.7513
16.7243 53.8265
16.7694 53.781
16.8145 53.7579
16.8596 53.9752
16.9047 54.8125
16.9498 54.888
16.9949 54.4334
17.04 55.0825
17.0851 56.3846
17.1302 57.7578
17.1754 60.538
17.2205 66.2123
17.2656 74.7441
17.3108 83.4835
17.3559 79.7215
17.401 67.3594
17.4462 60.2246
17.4913 58.4534
17.5365 58.2019
17.5815 58.1609
17.6268 58.6239
17.6718 59.2087
17.7171 59.8441
17.7622 60.3573
17.8074 61.376
17.8525 63.9736
17.8977 67.2406
17.9428 72.3596
17.9881 81.6441
18.0331 100.606
18.0784 125.926
18.1237 139.664
18.1688 124.317
18.214 95.4466
18.2591 83.6288
18.3044 90.8435
18.3495 102.303
18.3948 104.931
18.4399 90.0963
18.4852 72.6678
18.5303 63.7301
18.5756 60.9504
18.6207 60.2631
18.666 59.3336
18.7112 58.576
18.7565 57.994
18.8016 57.7087
18.8469 57.1071
18.892 56.7868
18.9374 56.3988
18.9825 56.0058
19.0278 55.7569
19.073 56.046
19.1183 56.2327
19.1635 56.8658
19.2088 58.3155
19.254 60.9759
19.2993 66.2143
19.3447 72.5076
19.3898 74.9965
19.4352 68.993
19.4804 60.3726
19.5257 54.8646
19.5709 53.1016
19.6163 53.0106
19.6615 53.0165
19.7068 52.2874
19.752 52.3796
19.7974 52.7917
19.8426 53.585
19.888 54.1703
19.9332 55.2202
19.9786 58.2688
20.0238 62.1863
20.0692 67.5162
20.1144 69.1201
20.1598 65.931
20.205 61.3918
20.2504 61.302
20.2957 64.2251
20.3411 64.9509
20.3863 61.7056
20.4318 55.9429
20.477 51.9909
20.5224 50.2297
20.5677 49.8646
20.6131 49.2214
20.6586 48.8332
20.7038 48.6325
20.7493 48.2102
20.7945 48.1103
20.84 47.8929
20.8853 48.105
20.9307 47.7033
20.976 48.1079
21.0215 47.6985
21.0668 48.1509
21.1122 48.5223
21.1575 49.4238
21.203 50.3027
21.2483 50.6603
21.2938 50.7112
21.3391 49.1771
21.3846 47.9765
21.4299 47.4942
21.4754 47.5189
21.5207 47.7423
21.5662 48.1222
21.6116 48.422
21.6571 49.0025
21.7024 50.1307
21.7479 51.8834
21.7933 55.0745
21.8388 58.8513
21.8843 63.0158
21.9297 64.0986
21.9752 61.2636
22.0206 57.4889
22.0661 55.3098
22.1115 55.3885
22.157 54.9452
22.2024 52.6472
22.248 49.9768
22.2933 48.7547
22.3389 48.2364
22.3843 48.03
22.4299 47.8867
22.4753 48.0017
22.5208 47.7963
22.5662 47.6772
22.6118 47.9178
22.6572 48.15
22.7028 48.3358
22.7483 48.9251
22.7939 49.6444
22.8393 51.3236
22.8849 53.7442
22.9303 55.895
22.9759 57.4741
23.0214 56.0466
23.067 52.834
23.1126 49.6758
23.1581 48.1012
23.2037 47.9433
23.2492 47.9406
23.2948 48.0263
23.3403 48.2039
23.3859 48.9577
23.4314 50.0348
23.477 52.0206
23.5225 54.7089
23.5682 56.7575
23.6137 57.0979
23.6593 53.8607
23.7048 49.7404
23.7505 46.8857
23.796 45.606
23.8417 45.1398
23.8872 44.8649
23.9329 44.323
23.9784 44.0079
24.0241 43.8292
24.0697 43.6877
24.1154 43.2765
24.1609 43.2526
24.2066 43.0794
24.2522 42.8624
24.2979 42.7446
24.3434 42.503
24.3892 42.42
24.4349 42.3399
24.4805 42.3221
24.5262 42.4748
24.5718 42.181
24.6175 42.2017
24.6631 42.1293
24.7089 41.8379
24.7545 41.8012
24.8002 41.547
24.8458 41.5211
24.8916 41.384
24.9372 41.5472
24.983 41.882
25.0286 42.108
25.0744 42.6856
25.12 43.2219
25.1658 43.7275
25.2114 43.9861
25.2572 44.0532
25.3029 44.2202
25.3487 44.3045
25.3943 43.7391
25.4402 42.3488
25.4858 41.3919
25.5316 40.6883
25.5773 40.079
25.6231 40.1779
25.669 39.8069
25.7147 39.7993
25.7605 39.8368
25.8062 39.7872
25.8521 39.8037
25.8977 39.8883
25.9436 40.0872
25.9893 40.3542
26.0352 40.9064
26.0809 41.0408
26.1268 40.9396
26.1725 40.5957
26.2184 39.8996
26.2641 39.4689
26.31 39.3274
26.3557 39.4836
26.4017 39.4562
26.4474 39.8875
26.4933 40.0473
26.5391 40.6829
26.585 41.2827
26.6308 41.4728
26.6767 41.5704
26.7225 41.1518
26.7684 40.5688
26.8142 40.068
26.8601 39.6874
26.9059 39.2167
26.9519 38.8939
26.9979 38.5633
27.0437 38.1945
27.0896 38.0487
27.1354 38.039
27.1814 37.9874
27.2272 37.9946
27.2732 37.9226
27.3191 37.7138
27.3651 37.8559
27.4109 37.8075
27.4569 37.9585
27.5027 37.9968
27.5488 37.9092
27.5946 37.8156
27.6407 37.3685
27.6865 37.5004
27.7326 37.2418
27.7784 37.3694
27.8245 37.2075
27.8703 37.3892
27.9164 37.6808
27.9623 37.9456
28.0084 38.3159
28.0543 38.5201
28.1003 38.2856
28.1462 38.1059
28.1923 37.6876
28.2384 37.2636
28.2843 36.9046
28.3304 36.4265
28.3764 35.8876
28.4225 35.6909
28.4684 35.7009
28.5145 35.2836
28.5605 35.2168
28.6066 35.0446
28.6526 34.9933
28.6987 35.1231
28.7447 34.9086
28.7908 34.749
28.8368 34.7804
28.8829 34.7776
28.9289 34.809
28.9751 34.4815
29.0211 34.3505
29.0673 33.9922
29.1133 33.9824
29.1595 33.9359
29.2055 33.7473
29.2517 33.7752
29.2977 33.6509
29.3439 33.795
29.3899 33.6963
29.4361 33.6005
29.4824 33.3879
29.5284 33.0878
29.5746 32.7905
29.6207 32.6188
29.6669 32.5168
29.713 32.4098
29.7593 32.336
29.8053 32.3258
29.8516 32.2287
29.8977 32.2068
29.9439 32.1309
29.99 32.0514
30.0363 31.8588
30.0824 31.9356
30.1287 31.902
30.1748 31.9199
30.2211 31.8934
30.2673 31.6712
30.3136 31.9749
30.3597 31.6263
30.406 31.7013
30.4522 31.5002
30.4985 31.5515
30.5447 31.5836
30.591 31.6393
30.6372 31.6921
30.6835 31.7044
30.7297 31.6481
30.7761 31.6069
30.8224 31.4697
30.8686 31.207
30.915 31.0721
30.9612 30.9676
31.0076 30.6656
31.0538 30.7154
31.1002 30.6085
31.1464 30.4537
31.1928 30.3252
31.2391 30.5933
31.2855 30.3406
31.3317 30.406
31.3781 30.3753
31.4244 30.5031
31.4708 30.3229
31.5171 30.2946
31.5636 30.1813
31.6098 29.8719
31.6563 29.8248
31.7026 29.7802
31.7491 29.5983
31.7953 29.7296
31.8418 29.6935
31.8881 29.7033
31.9346 29.6017
31.9809 29.5492
32.0275 29.4962
32.074 29.2433
32.1203 29.0802
32.1668 29.0152
32.2132 28.8321
32.2597 28.722
32.306 28.7147
32.3526 28.4862
32.399 28.4263
32.4455 28.3112
32.4919 28.2175
32.5385 28.1567
32.5848 27.9877
32.6314 28.0046
32.6778 27.9356
32.7244 27.8826
32.7708 27.7341
32.8174 27.6335
32.8638 27.5335
32.9104 27.614
32.9569 27.5755
33.0035 27.4858
33.0499 27.4629
33.0966 27.4384
33.143 27.3915
33.1897 27.2242
33.2361 27.1907
33.2828 27.1164
33.3293 26.9451
33.3759 26.9286
33.4226 26.8393
33.4691 26.6166
33.5158 26.5814
33.5623 26.4961
33.609 26.3557
33.6555 26.1806
33.7022 26.1126
33.7487 26.0425
33.7954 26.1374
33.842 25.9525
33.8887 25.8582
33.9353 25.8131
33.982 25.7372
34.0286 25.6484
34.0753 25.497
34.1219 25.4659
34.1687 25.4446
34.2152 25.3605
34.262 25.2116
34.3086 25.1392
34.3554 25.0695
34.402 24.9691
34.4488 24.8394
34.4954 24.8571
34.5422 24.6744
34.5889 24.6065
34.6357 24.4928
34.6825 24.5798
34.7292 24.4204
34.776 24.3542
34.8227 24.2472
34.8695 24.1746
34.9162 24.2043
34.9631 24.1147
35.0098 24.0443
35.0566 23.8999
35.1033 23.8145
35.1502 23.905
35.1969 23.8329
35.2438 23.7933
35.2906 23.7437
35.3375 23.6987
35.3842 23.6082
35.4311 23.6226
35.4779 23.5542
35.5248 23.5543
35.5716 23.3168
35.6185 23.3521
35.6653 23.243
35.7123 23.1592
35.759 22.9758
35.806 23.0433
35.8528 22.8009
35.8998 22.8876
35.9468 22.7914
35.9936 22.6933
36.0406 22.6192
36.0874 22.5885
36.1345 22.5052
36.1813 22.3592
36.2283 22.3368
36.2752 22.2472
36.3222 22.3258
36.3691 22.147
36.4161 22.0107
36.463 22.1418
36.5101 22.0876
36.557 21.9746
36.6041 21.8334
36.651 21.7947
36.6981 21.7546
36.745 21.6451
36.7921 21.6678
36.839 21.4527
36.8861 21.4288
36.9331 21.3809
36.9802 21.3125
37.0272 21.1863
37.0743 21.1103
37.1213 21.1396
37.1684 21.0319
37.2154 20.997
37.2626 20.8961
37.3098 20.8951
37.3568 20.8159
37.404 20.7039
37.451 20.6197
37.4982 20.5275
37.5452 20.4989
37.5924 20.4844
37.6395 20.4572
37.6867 20.2772
37.7337 20.1975
37.781 20.1785
37.8281 20.1132
37.8753 20.0668
37.9224 19.9405
37.9697 19.9257
38.0168 19.8549
38.064 19.7943
38.1111 19.7711
38.1584 19.7219
38.2056 19.6531
38.2529 19.5367
38.3 19.472
38.3473 19.5039
38.3945 19.3659
38.4418 19.3067
38.489 19.2813
38.5363 19.17
38.5837 19.1136
38.6309 19.1167
38.6782 19.0473
38.7254 18.9066
38.7728 18.8715
38.82 18.7443
38.8674 18.7557
38.9146 18.7055
38.9621 18.6005
39.0093 18.6587
39.0567 18.5657
39.104 18.4533
39.1514 18.3472
39.1987 18.3543
39.2461 18.32
39.2934 18.28
39.3409 18.18
39.3882 18.0659
39.4356 18.0816
39.483 17.9984
39.5304 17.9078
39.5778 17.9571
39.6253 17.7959
39.6726 17.7492
39.7201 17.7137
39.7675 17.698
39.815 17.6647
39.8624 17.5614
39.9099 17.5204
39.9575 17.4223
40.0049 17.3942
40.0525 17.2597
40.0999 17.2792
40.1474 17.2871
40.1949 17.1669
40.2425 17.1135
40.2899 17.0487
40.3375 16.9614
40.385 16.9106
40.4326 16.9326
40.48 16.7951
40.5277 16.8014
40.5752 16.7201
40.6228 16.6248
40.6703 16.5826
40.718 16.5721
40.7655 16.5819
40.8132 16.4505
40.8607 16.4696
40.9084 16.4362
40.9559 16.3291
41.0036 16.2356
41.0512 16.1871
41.0989 16.1836
41.1465 16.1111
41.1942 16.0595
41.242 15.9417
41.2896 15.9146
41.3373 15.9222
41.3849 15.8332
41.4327 15.809
41.4803 15.6776
41.5281 15.7063
41.5758 15.5957
41.6236 15.5822
41.6712 15.52
41.7191 15.5038
41.7667 15.476
41.8146 15.341
41.8622 15.2779
41.9101 15.2774
41.9578 15.1567
42.0057 15.1865
42.0534 15.113
42.1013 15.0987
42.149 15.018
42.1969 14.9606
42.2446 14.9659
42.2925 14.8412
42.3403 14.7893
42.3882 14.8072
42.436 14.762
42.4839 14.6307
42.5319 14.6597
42.5797 14.5578
42.6277 14.4681
42.6755 14.529
42.7235 14.439
42.7713 14.3533
42.8193 14.3129
42.8671 14.2719
42.9152 14.238
42.963 14.1578
43.0111 14.0989
43.0589 14.0691
43.107 14.0094
43.1549 13.9993
43.2029 13.9357
43.2508 13.8925
43.2989 13.8371
43.3468 13.7638
43.3949 13.7766
43.4429 13.6563
43.491 13.6254
43.5389 13.6224
43.5871 13.5315
43.635 13.5296
43.6832 13.4365
43.7312 13.3847
43.7793 13.3369
43.8273 13.3304
43.8755 13.3289
43.9237 13.2466
43.9717 13.1747
44.0199 13.1426
44.068 13.1548
44.1162 13.0305
44.1642 13.0215
44.2125 12.9868
44.2606 12.8979
44.3088 12.8824
44.3569 12.8262
44.4052 12.8024
44.4533 12.7288
44.5016 12.6578
44.5497 12.6611
44.598 12.619
44.6461 12.5298
44.6945 12.4764
44.7426 12.5006
44.791 12.4114
44.8391 12.3906
44.8875 12.3403
44.9357 12.2787
44.984 12.2422
45.0322 12.2045
45.0806 12.1161
45.1288 12.157
45.1773 12.0642
45.2257 12.0064
45.2739 11.9862
45.3224 11.9315
45.3706 11.9104
45.4191 11.8665
45.4673 11.8611
45.5158 11.7656
45.5641 11.769
45.6126 11.7035
45.6609 11.6924
45.7094 11.611
45.7577 11.5763
45.8063 11.4903
45.8546 11.5066
45.9031 11.3965
45.9515 11.4432
46.0001 11.3619
46.0484 11.3001
46.097 11.2792
46.1454 11.2837
46.194 11.2038
46.2424 11.1287
46.291 11.1125
46.3395 11.0775
46.3881 11.0508
46.4365 11.0598
46.4852 10.9853
46.5337 10.9028
46.5823 10.9272
46.631 10.8285
46.6795 10.8095
46.7282 10.7746
46.7767 10.7396
46.8254 10.6489
46.8739 10.6298
46.9226 10.5761
46.9712 10.5749
47.0199 10.5518
47.0685 10.4984
47.1173 10.4262
47.1658 10.4111
47.2146 10.3872
47.2632 10.3323
47.312 10.3356
47.3606 10.2374
47.4095 10.2247
47.4581 10.2017
47.5069 10.1094
47.5556 10.0642
47.6044 10.0493
47.6531 10.0116
47.702 9.98089
47.7507 9.9538
47.7996 9.86286
47.8483 9.89921
47.8972 9.84433
47.9461 9.83471
47.9948 9.75154
48.0438 9.71846
48.0925 9.73096
48.1415 9.66527
48.1902 9.63576
48.2392 9.58814
48.288 9.55769
48.337 9.50651
48.3858 9.50608
48.4348 9.44184
48.4837 9.45497
48.5327 9.40704
48.5815 9.39391
48.6306 9.35238
48.6795 9.31015
48.7285 9.26486
48.7774 9.22548
48.8265 9.23485
48.8754 9.13641
48.9245 9.11346
48.9734 9.09841
49.0226 9.05036
49.0715 9.01843
49.1206 8.98008
49.1696 8.94596
49.2188 8.94064
49.2679 8.90048
49.3169 8.82649
49.3661 8.79092
49.4151 8.76627
49.4643 8.76453
49.5134 8.6679
49.5626 8.69882
49.6117 8.62879
49.6609 8.59723
49.71 8.51635
49.7592 8.53622
49.8083 8.51889
49.8576 8.51919
49.9067 8.44703
49.956 8.39322
50.0052 8.3917
50.0545 8.36856
50.1036 8.33399
50.153 8.26095
50.2022 8.27494
50.2515 8.21119
50.3007 8.1758
50.3501 8.16136
50.3993 8.13323
50.4487 8.10886
50.498 8.08416
50.5474 8.04454
50.5966 8.00242
50.6461 7.9732
50.6955 7.95469
50.7448 7.91369
50.7943 7.87943
50.8436 7.81324
50.8931 7.81409
50.9424 7.79226
50.9919 7.73882
51.0413 7.70239
51.0908 7.71754
51.1402 7.68426
51.1897 7.64276
51.2391 7.60649
51.2887 7.57665
51.3381 7.54253
51.3877 7.54175
51.4371 7.48175
51.4867 7.41262
51.5362 7.43143
51.5858 7.38634
51.6353 7.34587
51.6849 7.31727
51.7344 7.28828
51.7841 7.26021
51.8336 7.25349
51.8833 7.20446
51.9328 7.10234
51.9826 7.13536
52.0323 7.11168
52.0818 7.1258
52.1316 7.01667
52.1812 7.03361
52.231 6.99986
52.2806 6.98471
52.3304 6.98409
52.38 6.93998
52.4298 6.87782
52.4794 6.82156
52.5293 6.84466
52.5789 6.80534
52.6288 6.79138
52.6785 6.72205
52.7284 6.75033
52.7781 6.71554
52.828 6.6453
52.8777 6.67912
52.9276 6.61156
52.9774 6.58338
53.0273 6.54936
53.0771 6.56833
53.1271 6.51449
53.1769 6.44693
53.2269 6.43802
53.2767 6.42847
53.3267 6.40709
53.3765 6.32476
53.4266 6.34108
53.4766 6.33188
53.5265 6.3123
53.5765 6.25474
53.6264 6.22945
53.6765 6.22003
53.7264 6.18351
53.7765 6.1135
53.8265 6.13225
53.8766 6.05329
53.9266 6.10009
53.9767 6.04953
54.0267 6.02534
54.0769 5.99986
54.1269 5.96914
54.1771 5.93807
54.2271 5.92249
54.2773 5.84662
54.3274 5.89966
54.3776 5.80321
54.4277 5.75073
54.478 5.73592
54.528 5.71846
54.5783 5.69625
54.6285 5.63121
54.6788 5.61381
54.7289 5.57689
54.7792 5.50342
54.8296 5.44359
54.8798 5.4057
54.9301 5.3747
54.9803 5.37858
55.0307 5.32157
55.0809 5.22577
55.1314 5.24722
55.1816 5.21849
55.232 5.17164
55.2823 5.12942
55.3328 5.09927
55.383 5.04251
55.4335 5.01907
55.4838 4.9269
55.5344 4.8775
55.5847 4.85215
55.6352 4.81446
55.6856 4.78373
55.7361 4.74524