File: XRD/Ni3Fe_FD0793.xy
TT I
1.27165 7.58575
1.31627 6.48007
1.36089 6.88246
1.40551 6.07328
1.45013 5.54795
1.49476 6.52104
1.53938 5.63811
1.584 5.24151
1.62863 4.9095
1.67325 4.84841
1.71787 5.04534
1.7625 4.80872
1.80712 4.04742
1.85174 4.37619
1.89636 4.21113
1.94099 4.5394
1.98562 4.46553
2.03025 4.79819
2.07487 4.36982
2.11949 4.8125
2.16411 4.74664
2.20874 10.7673
2.25338 14.9351
2.298 5.2861
2.34263 5.72193
2.38725 5.69044
2.43188 6.01054
2.4765 6.97018
2.52115 6.68727
2.56577 7.05689
2.6104 8.58126
2.65503 7.83667
2.69965 8.13704
2.7443 8.63933
2.78893 8.27332
2.83356 8.13875
2.87818 9.0112
2.92281 8.79729
2.96744 9.34429
3.01209 10.6043
3.05672 11.6262
3.10135 12.2107
3.14599 12.9576
3.19062 14.465
3.23527 14.827
3.2799 15.5921
3.32454 16.8694
3.36917 16.8911
3.4138 18.661
3.45844 19.3141
3.50309 20.5582
3.54773 21.3226
3.59237 23.1386
3.637 65.0605
3.68164 44.3144
3.7263 25.4222
3.77094 25.8474
3.81558 26.4322
3.86022 26.9612
3.90486 28.2985
3.9495 29.2508
3.99416 30.5023
4.0388 31.6757
4.08344 33.1639
4.12809 34.0127
4.17273 36.0285
4.21738 40.5639
4.26204 166.629
4.30669 143.999
4.35133 45.2209
4.39598 43.3579
4.44063 50.2239
4.4853 57.8745
4.52995 52.0968
4.5746 52.7933
4.61925 53.5034
4.6639 54.7625
4.70855 57.3252
4.75322 60.8858
4.79788 65.0153
4.84253 66.9987
4.88719 72.2751
4.93184 75.0381
4.97652 80.3192
5.02118 86.1985
5.06583 93.8443
5.11049 104.478
5.15515 157.766
5.19981 367.304
5.24449 2804.89
5.28916 12357.7
5.33382 2537.15
5.37848 179.216
5.42315 125.771
5.46783 113.395
5.5125 106.734
5.55716 100.611
5.60183 96.9303
5.6465 95.1305
5.69117 93.0475
5.73586 91.526
5.78053 92.4662
5.8252 92.4078
5.86988 93.5882
5.91455 93.5969
5.95924 103.061
6.00392 222.864
6.0486 967.987
6.09328 4576.6
6.13795 3061.85
6.18263 201.344
6.22733 89.4002
6.27201 80.0175
6.3167 90.3182
6.36138 75.7736
6.40606 68.2563
6.45075 67.3321
6.49545 64.4284
6.54014 62.8311
6.58483 61.8795
6.62952 61.924
6.67421 80.7663
6.71892 108.639
6.76361 63.697
6.8083 57.9526
6.853 57.7507
6.89769 56.3849
6.94239 55.2386
6.98711 55.1265
7.03181 54.735
7.07651 54.7338
7.12121 54.2262
7.16591 54.8324
7.21063 54.4294
7.25533 64.1596
7.30004 128.834
7.34475 76.2304
7.38945 54.7879
7.43416 53.584
7.47889 53.3584
7.5236 54.3313
7.56831 54.4477
7.61303 55.4131
7.65774 55.9393
7.70247 55.5625
7.74719 55.5551
7.79191 56.2132
7.83663 56.5475
7.88135 57.0669
7.92607 57.8683
7.97081 59.4887
8.01553 60.4344
8.06026 61.5478
8.10498 63.2345
8.14971 70.3318
8.19446 69.7918
8.23919 68.7092
8.28392 70.9908
8.32865 73.1336
8.37339 77.6385
8.41812 83.8452
8.46288 106.089
8.50761 172.845
8.55235 382.572
8.59709 1205.88
8.64183 2193.03
8.68658 857.768
8.73134 146.296
8.77609 96.698
8.82083 91.0308
8.86558 89.5581
8.91033 88.9428
8.9551 88.6788
8.99985 84.1726
9.04461 82.9617
9.08936 82.4899
9.13412 81.6667
9.17888 81.3588
9.22365 82.2125
9.26841 81.3835
9.31318 82.4538
9.35794 83.143
9.4027 83.4998
9.44749 83.4967
9.49226 84.0399
9.53703 84.8756
9.5818 87.5584
9.62657 91.0965
9.67134 94.6427
9.71614 92.1996
9.76091 93.4079
9.80569 96.3484
9.85047 99.275
9.89525 114.955
9.94005 129.034
9.98484 184.138
10.0296 343.933
10.0744 833.383
10.1192 1794.35
10.164 1509.41
10.2088 343.923
10.2536 119.66
10.2984 109.618
10.3432 109.04
10.388 103.404
10.4328 120.465
10.4776 161.244
10.5224 288.981
10.5672 539.021
10.612 484.909
10.6568 183.788
10.7017 93.313
10.7465 84.9934
10.7913 82.1264
10.8361 79.9565
10.8809 77.7993
10.9257 77.0493
10.9706 77.1856
11.0154 74.0599
11.0602 71.7889
11.105 70.8067
11.1499 73.2892
11.1947 76.9977
11.2395 71.0605
11.2844 68.3767
11.3292 66.4829
11.374 65.6197
11.4189 64.8418
11.4637 63.9671
11.5086 64.288
11.5534 65.6133
11.5983 64.1178
11.6431 63.0199
11.688 62.2924
11.7328 61.9708
11.7777 62.0673
11.8225 61.54
11.8674 61.7132
11.9122 62.0117
11.9571 62.3299
12.002 63.4457
12.0468 67.7862
12.0917 78.1125
12.1366 102.142
12.1814 157.618
12.2263 214.151
12.2712 165.464
12.3161 88.1214
12.3609 67.0968
12.4058 63.3828
12.4507 63.4565
12.4956 63.594
12.5405 63.6933
12.5853 64.6102
12.6302 69.3866
12.6751 72.4887
12.72 68.1422
12.7649 67.0072
12.8098 67.7398
12.8547 68.906
12.8996 70.4832
12.9445 71.7724
12.9894 73.4498
13.0343 75.1605
13.0792 79.0114
13.1242 89.8196
13.1691 111.132
13.214 148.936
13.2589 246.847
13.3038 387.333
13.3487 421.088
13.3937 237.969
13.4386 117.205
13.4835 105.242
13.5285 119.668
13.5734 159.225
13.6183 256.185
13.6633 362.104
13.7082 326.73
13.7531 167.717
13.7981 92.3609
13.843 80.3371
13.888 78.3378
13.9329 76.0444
13.9779 74.8932
14.0228 73.4503
14.0678 72.1856
14.1127 71.769
14.1577 71.3017
14.2027 70.5969
14.2476 69.3891
14.2926 69.5816
14.3376 70.0241
14.3825 69.0263
14.4275 68.2551
14.4725 68.2282
14.5175 68.0884
14.5624 68.1724
14.6074 69.6289
14.6524 70.0097
14.6974 69.7878
14.7424 72.2411
14.7874 78.9905
14.8324 88.5652
14.8774 111.327
14.9224 157.81
14.9674 215.904
15.0124 219.683
15.0574 140.878
15.1024 85.7984
15.1474 70.9151
15.1924 69.3315
15.2374 69.3499
15.2824 68.6445
15.3274 66.9207
15.3725 65.9588
15.4175 65.6328
15.4625 65.3686
15.5076 65.431
15.5526 65.2572
15.5976 65.0244
15.6426 66.9296
15.6877 72.0192
15.7327 79.0786
15.7778 94.8644
15.8228 128.966
15.8679 176.424
15.9129 195.418
15.958 146.894
16.003 88.9307
16.0481 65.699
16.0931 62.8763
16.1382 61.2487
16.1833 59.6051
16.2283 58.11
16.2734 57.5731
16.3185 57.619
16.3636 57.6958
16.4086 56.6
16.4537 55.3068
16.4988 54.6547
16.5439 54.7789
16.589 54.6434
16.6341 54.1418
16.6792 53.927
16.7243 54.1789
16.7694 54.123
16.8145 54.1128
16.8596 54.4111
16.9047 55.408
16.9498 55.7231
16.9949 55.1055
17.04 55.5028
17.0851 56.5356
17.1302 58.2088
17.1754 61.1471
17.2205 66.7632
17.2656 75.1739
17.3108 83.1327
17.3559 81.3939
17.401 68.7431
17.4462 60.5412
17.4913 58.641
17.5365 58.4072
17.5815 58.5177
17.6268 59.0422
17.6718 59.7681
17.7171 60.2041
17.7622 60.7926
17.8074 61.7274
17.8525 64.3448
17.8977 67.8771
17.9428 73.3077
17.9881 82.541
18.0331 101.277
18.0784 125.09
18.1237 141.731
18.1688 126.952
18.214 98.3791
18.2591 84.7357
18.3044 90.9951
18.3495 101.861
18.3948 105.624
18.4399 92.7418
18.4852 74.1427
18.5303 64.362
18.5756 61.3485
18.6207 60.3778
18.666 59.5737
18.7112 58.8266
18.7565 58.1873
18.8016 57.9004
18.8469 57.3549
18.892 57.1474
18.9374 56.6582
18.9825 56.2691
19.0278 56.1524
19.073 56.4335
19.1183 56.7808
19.1635 57.4158
19.2088 58.7802
19.254 61.5966
19.2993 66.5976
19.3447 72.6685
19.3898 75.7555
19.4352 69.9759
19.4804 60.9989
19.5257 55.3996
19.5709 53.5881
19.6163 53.2048
19.6615 52.9845
19.7068 52.6775
19.752 52.7397
19.7974 53.0214
19.8426 53.7501
19.888 54.3468
19.9332 55.7188
19.9786 58.7012
20.0238 62.5929
20.0692 67.5666
20.1144 69.4546
20.1598 66.8647
20.205 62.2339
20.2504 61.4981
20.2957 64.0612
20.3411 65.2153
20.3863 62.708
20.4318 56.6414
20.477 52.4657
20.5224 50.6816
20.5677 50.1905
20.6131 49.7632
20.6586 49.1162
20.7038 48.9538
20.7493 48.4306
20.7945 48.2489
20.84 48.2142
20.8853 48.373
20.9307 48.0801
20.976 48.2774
21.0215 48.0659
21.0668 48.4475
21.1122 48.9336
21.1575 49.7308
21.203 50.5198
21.2483 51.099
21.2938 50.7972
21.3391 49.4543
21.3846 48.2164
21.4299 47.8269
21.4754 47.8
21.5207 48.0151
21.5662 48.4048
21.6116 48.8284
21.6571 49.5567
21.7024 50.4967
21.7479 52.2498
21.7933 55.2518
21.8388 59.0929
21.8843 63.0663
21.9297 64.2507
21.9752 61.8349
22.0206 58.1452
22.0661 55.8364
22.1115 55.8115
22.157 55.3029
22.2024 53.0885
22.248 50.4758
22.2933 49.135
22.3389 48.4773
22.3843 48.4237
22.4299 48.2374
22.4753 48.1152
22.5208 48.0459
22.5662 47.8545
22.6118 48.2743
22.6572 48.3808
22.7028 48.8223
22.7483 49.1656
22.7939 50.0759
22.8393 51.5124
22.8849 53.9106
22.9303 56.2043
22.9759 57.6064
23.0214 56.5604
23.067 53.3495
23.1126 50.2667
23.1581 48.5327
23.2037 48.2155
23.2492 48.2938
23.2948 48.3437
23.3403 48.6668
23.3859 49.3747
23.4314 50.4257
23.477 52.3255
23.5225 54.6881
23.5682 56.9769
23.6137 57.4411
23.6593 54.4886
23.7048 50.3801
23.7505 47.4339
23.796 46.0044
23.8417 45.3392
23.8872 44.9119
23.9329 44.6716
23.9784 44.2888
24.0241 44.2612
24.0697 43.9549
24.1154 43.412
24.1609 43.5283
24.2066 43.1952
24.2522 43.2235
24.2979 43.067
24.3434 42.7508
24.3892 42.711
24.4349 42.6207
24.4805 42.4709
24.5262 42.5636
24.5718 42.4964
24.6175 42.445
24.6631 42.4423
24.7089 41.9138
24.7545 41.8835
24.8002 41.7224
24.8458 41.8709
24.8916 41.7076
24.9372 41.7102
24.983 42.0436
25.0286 42.4443
25.0744 42.8556
25.12 43.4794
25.1658 44.0887
25.2114 44.1362
25.2572 44.2491
25.3029 44.4144
25.3487 44.4335
25.3943 44.1333
25.4402 42.7668
25.4858 41.8252
25.5316 40.8537
25.5773 40.4885
25.6231 40.26
25.669 40.0677
25.7147 40.1373
25.7605 39.9828
25.8062 39.9032
25.8521 40.2011
25.8977 40.1788
25.9436 40.4619
25.9893 40.6123
26.0352 41.0463
26.0809 41.2049
26.1268 41.2936
26.1725 40.8909
26.2184 40.2078
26.2641 39.8872
26.31 39.6345
26.3557 39.7249
26.4017 39.5739
26.4474 39.9822
26.4933 40.4009
26.5391 40.8027
26.585 41.4388
26.6308 41.7981
26.6767 41.7118
26.7225 41.5472
26.7684 40.7917
26.8142 40.4148
26.8601 40.0072
26.9059 39.4361
26.9519 38.9805
26.9979 38.7838
27.0437 38.4958
27.0896 38.4133
27.1354 38.4146
27.1814 38.1767
27.2272 38.1117
27.2732 38.2072
27.3191 37.8696
27.3651 38.1497
27.4109 38.0027
27.4569 38.2327
27.5027 38.2404
27.5488 38.2881
27.5946 38.1067
27.6407 37.7065
27.6865 37.7202
27.7326 37.4522
27.7784 37.5097
27.8245 37.4027
27.8703 37.7174
27.9164 37.8192
27.9623 38.2754
28.0084 38.4378
28.0543 38.8052
28.1003 38.7415
28.1462 38.5386
28.1923 38.044
28.2384 37.5542
28.2843 37.161
28.3304 36.6813
28.3764 36.2434
28.4225 36.0451
28.4684 35.8925
28.5145 35.5973
28.5605 35.4078
28.6066 35.243
28.6526 35.2269
28.6987 35.2171
28.7447 35.0558
28.7908 35.0557
28.8368 35.0385
28.8829 35.0615
28.9289 34.915
28.9751 34.7568
29.0211 34.5347
29.0673 34.2032
29.1133 34.2074
29.1595 33.9756
29.2055 33.8998
29.2517 33.9695
29.2977 33.8684
29.3439 34.056
29.3899 33.8949
29.4361 33.8105
29.4824 33.5167
29.5284 33.3187
29.5746 33.0169
29.6207 32.7176
29.6669 32.783
29.713 32.695
29.7593 32.4844
29.8053 32.602
29.8516 32.3385
29.8977 32.4334
29.9439 32.2614
29.99 32.2686
30.0363 32.1372
30.0824 32.2003
30.1287 32.1187
30.1748 32.1859
30.2211 32.1871
30.2673 32.0351
30.3136 32.1069
30.3597 31.9539
30.406 31.7606
30.4522 31.7217
30.4985 31.7746
30.5447 31.8324
30.591 31.8113
30.6372 31.8695
30.6835 31.9412
30.7297 31.8932
30.7761 31.8892
30.8224 31.6408
30.8686 31.356
30.915 31.2183
30.9612 31.1853
31.0076 30.9842
31.0538 30.9132
31.1002 30.9405
31.1464 30.601
31.1928 30.5394
31.2391 30.5785
31.2855 30.5867
31.3317 30.5585
31.3781 30.664
31.4244 30.6385
31.4708 30.4475
31.5171 30.4838
31.5636 30.4795
31.6098 30.177
31.6563 30.1188
31.7026 29.973
31.7491 29.8162
31.7953 29.8849
31.8418 29.7801
31.8881 29.8678
31.9346 29.8342
31.9809 29.7209
32.0275 29.586
32.074 29.4913
32.1203 29.2771
32.1668 29.2285
32.2132 29.1221
32.2597 29.0036
32.306 28.9001
32.3526 28.638
32.399 28.7114
32.4455 28.4257
32.4919 28.3656
32.5385 28.3724
32.5848 28.1645
32.6314 28.1687
32.6778 28.1271
32.7244 27.8991
32.7708 27.8309
32.8174 27.8848
32.8638 27.6767
32.9104 27.8064
32.9569 27.7621
33.0035 27.5938
33.0499 27.571
33.0966 27.553
33.143 27.4943
33.1897 27.3929
33.2361 27.3695
33.2828 27.2444
33.3293 27.2385
33.3759 27.0334
33.4226 26.9295
33.4691 26.7913
33.5158 26.7813
33.5623 26.5963
33.609 26.4084
33.6555 26.4404
33.7022 26.3215
33.7487 26.2751
33.7954 26.2574
33.842 26.0632
33.8887 26.0622
33.9353 25.9745
33.982 25.8547
34.0286 25.7296
34.0753 25.6789
34.1219 25.5905
34.1687 25.5757
34.2152 25.5334
34.262 25.3848
34.3086 25.2814
34.3554 25.2844
34.402 25.1357
34.4488 25.035
34.4954 25.0171
34.5422 24.9373
34.5889 24.7177
34.6357 24.6678
34.6825 24.6688
34.7292 24.6043
34.776 24.4415
34.8227 24.4372
34.8695 24.4037
34.9162 24.2641
34.9631 24.2437
35.0098 24.2787
35.0566 24.0811
35.1033 23.9934
35.1502 24.0207
35.1969 23.8676
35.2438 23.8982
35.2906 23.9261
35.3375 23.7933
35.3842 23.7662
35.4311 23.8031
35.4779 23.7347
35.5248 23.5223
35.5716 23.574
35.6185 23.5004
35.6653 23.3158
35.7123 23.3125
35.759 23.2746
35.806 23.0829
35.8528 22.9926
35.8998 23.0435
35.9468 22.9344
35.9936 22.8689
36.0406 22.7937
36.0874 22.7412
36.1345 22.7427
36.1813 22.6432
36.2283 22.4345
36.2752 22.4008
36.3222 22.4347
36.3691 22.3705
36.4161 22.1663
36.463 22.245
36.5101 22.1345
36.557 22.1369
36.6041 21.9624
36.651 21.9215
36.6981 21.8572
36.745 21.8015
36.7921 21.7242
36.839 21.6119
36.8861 21.6599
36.9331 21.567
36.9802 21.4481
37.0272 21.3335
37.0743 21.2405
37.1213 21.291
37.1684 21.1789
37.2154 21.1676
37.2626 21.0084
37.3098 20.9759
37.3568 21.0351
37.404 20.866
37.451 20.8005
37.4982 20.7233
37.5452 20.5702
37.5924 20.6524
37.6395 20.6435
37.6867 20.5131
37.7337 20.3529
37.781 20.2877
37.8281 20.2536
37.8753 20.2037
37.9224 20.082
37.9697 20.0685
38.0168 19.9613
38.064 19.9107
38.1111 19.883
38.1584 19.734
38.2056 19.7428
38.2529 19.737
38.3 19.6391
38.3473 19.5939
38.3945 19.4885
38.4418 19.4102
38.489 19.3622
38.5363 19.2779
38.5837 19.219
38.6309 19.2348
38.6782 19.1248
38.7254 19.0488
38.7728 19.0001
38.82 18.9116
38.8674 18.8471
38.9146 18.7991
38.9621 18.7636
39.0093 18.742
39.0567 18.6823
39.104 18.5456
39.1514 18.4844
39.1987 18.525
39.2461 18.453
39.2934 18.3795
39.3409 18.2523
39.3882 18.2115
39.4356 18.2247
39.483 18.098
39.5304 18.0173
39.5778 18.0299
39.6253 17.9532
39.6726 17.916
39.7201 17.831
39.7675 17.8402
39.815 17.745
39.8624 17.6388
39.9099 17.7221
39.9575 17.5165
40.0049 17.4606
40.0525 17.4613
40.0999 17.4356
40.1474 17.3421
40.1949 17.2051
40.2425 17.1949
40.2899 17.1723
40.3375 17.1325
40.385 17.0628
40.4326 17.0099
40.48 16.9521
40.5277 16.9194
40.5752 16.8154
40.6228 16.705
40.6703 16.746
40.718 16.7
40.7655 16.6324
40.8132 16.532
40.8607 16.4925
40.9084 16.4998
40.9559 16.4501
41.0036 16.3731
41.0512 16.2855
41.0989 16.26
41.1465 16.2329
41.1942 16.1151
41.242 16.0814
41.2896 15.9994
41.3373 15.9699
41.3849 15.9648
41.4327 15.9206
41.4803 15.836
41.5281 15.8187
41.5758 15.6999
41.6236 15.6546
41.6712 15.6635
41.7191 15.5281
41.7667 15.5283
41.8146 15.51
41.8622 15.4284
41.9101 15.3485
41.9578 15.2968
42.0057 15.258
42.0534 15.2446
42.1013 15.1907
42.149 15.1268
42.1969 15.0662
42.2446 15.0289
42.2925 15.0068
42.3403 14.9322
42.3882 14.839
42.436 14.8051
42.4839 14.793
42.5319 14.7305
42.5797 14.6459
42.6277 14.6083
42.6755 14.568
42.7235 14.4585
42.7713 14.463
42.8193 14.4311
42.8671 14.4068
42.9152 14.3602
42.963 14.2775
43.0111 14.1928
43.0589 14.113
43.107 14.119
43.1549 14.0961
43.2029 14.0398
43.2508 14.0444
43.2989 13.9546
43.3468 13.8559
43.3949 13.8809
43.4429 13.8134
43.491 13.7339
43.5389 13.7123
43.5871 13.6288
43.635 13.6239
43.6832 13.5759
43.7312 13.5093
43.7793 13.4253
43.8273 13.4319
43.8755 13.3097
43.9237 13.3201
43.9717 13.2793
44.0199 13.2252
44.068 13.1948
44.1162 13.0646
44.1642 13.1152
44.2125 13.0216
44.2606 13.0055
44.3088 12.9787
44.3569 12.9136
44.4052 12.9203
44.4533 12.8401
44.5016 12.7341
44.5497 12.7169
44.598 12.6856
44.6461 12.6445
44.6945 12.5964
44.7426 12.5469
44.791 12.5058
44.8391 12.4439
44.8875 12.4626
44.9357 12.3995
44.984 12.3119
45.0322 12.2931
45.0806 12.2372
45.1288 12.1848
45.1773 12.1222
45.2257 12.1376
45.2739 12.0924
45.3224 12.0021
45.3706 12.0016
45.4191 11.9449
45.4673 11.897
45.5158 11.8678
45.5641 11.8019
45.6126 11.7822
45.6609 11.7311
45.7094 11.718
45.7577 11.6476
45.8063 11.5888
45.8546 11.6384
45.9031 11.5512
45.9515 11.4656
46.0001 11.4886
46.0484 11.4215
46.097 11.4062
46.1454 11.3226
46.194 11.289
46.2424 11.2342
46.291 11.2056
46.3395 11.1461
46.3881 11.0686
46.4365 11.0423
46.4852 11.0549
46.5337 11.0064
46.5823 11.014
46.631 10.8897
46.6795 10.8571
46.7282 10.9027
46.7767 10.8108
46.8254 10.7563
46.8739 10.6938
46.9226 10.7032
46.9712 10.6321
47.0199 10.5798
47.0685 10.5461
47.1173 10.486
47.1658 10.4904
47.2146 10.4397
47.2632 10.3754
47.312 10.3999
47.3606 10.3512
47.4095 10.2526
47.4581 10.281
47.5069 10.1792
47.5556 10.1316
47.6044 10.1181
47.6531 10.1016
47.702 10.0073
47.7507 10.0399
47.7996 9.9743
47.8483 9.96986
47.8972 9.9278
47.9461 9.86516
47.9948 9.85844
48.0438 9.84096
48.0925 9.80394
48.1415 9.77666
48.1902 9.6844
48.2392 9.69524
48.288 9.68049
48.337 9.58516
48.3858 9.55215
48.4348 9.5152
48.4837 9.51554
48.5327 9.45509
48.5815 9.43084
48.6306 9.3775
48.6795 9.35266
48.7285 9.33506
48.7774 9.29734
48.8265 9.27537
48.8754 9.20325
48.9245 9.1963
48.9734 9.1704
49.0226 9.10328
49.0715 9.08895
49.1206 9.05398
49.1696 8.98881
49.2188 9.00367
49.2679 8.93027
49.3169 8.9184
49.3661 8.85201
49.4151 8.85269
49.4643 8.84456
49.5134 8.78856
49.5626 8.72632
49.6117 8.6713
49.6609 8.65383
49.71 8.64375
49.7592 8.58669
49.8083 8.56859
49.8576 8.56044
49.9067 8.48461
49.956 8.50378
50.0052 8.40234
50.0545 8.42248
50.1036 8.36996
50.153 8.32169
50.2022 8.31262
50.2515 8.28339
50.3007 8.21422
50.3501 8.2164
50.3993 8.18187
50.4487 8.1516
50.498 8.10869
50.5474 8.08322
50.5966 8.06135
50.6461 8.02387
50.6955 7.97873
50.7448 7.94782
50.7943 7.95739
50.8436 7.90225
50.8931 7.82283
50.9424 7.85898
50.9919 7.79258
51.0413 7.77643
51.0908 7.73626
51.1402 7.75502
51.1897 7.6856
51.2391 7.6841
51.2887 7.62299
51.3381 7.61373
51.3877 7.56958
51.4371 7.53111
51.4867 7.52409
51.5362 7.49765
51.5858 7.42142
51.6353 7.42688
51.6849 7.35875
51.7344 7.37526
51.7841 7.35232
51.8336 7.29163
51.8833 7.27451
51.9328 7.21481
51.9826 7.19151
52.0323 7.17635
52.0818 7.15213
52.1316 7.10276
52.1812 7.08191
52.231 7.06098
52.2806 7.00906
52.3304 7.03619
52.38 6.95468
52.4298 6.95991
52.4794 6.87972
52.5293 6.88062
52.5789 6.83554
52.6288 6.86273
52.6785 6.77274
52.7284 6.71716
52.7781 6.73569
52.828 6.68578
52.8777 6.66417
52.9276 6.64948
52.9774 6.63302
53.0273 6.61859
53.0771 6.57801
53.1271 6.58298
53.1769 6.53637
53.2269 6.47998
53.2767 6.41786
53.3267 6.4375
53.3765 6.39301
53.4266 6.35816
53.4766 6.36136
53.5265 6.31583
53.5765 6.30047
53.6264 6.30162
53.6765 6.23537
53.7264 6.21065
53.7765 6.19063
53.8265 6.16441
53.8766 6.09264
53.9266 6.08384
53.9767 6.02173
54.0267 6.09639
54.0769 6.0346
54.1269 5.99214
54.1771 5.97377
54.2271 5.94904
54.2773 5.90366
54.3274 5.84287
54.3776 5.87007
54.4277 5.78112
54.478 5.75177
54.528 5.7738
54.5783 5.72016
54.6285 5.70169
54.6788 5.62549
54.7289 5.62171
54.7792 5.5089
54.8296 5.46945
54.8798 5.42188
54.9301 5.41725
54.9803 5.4062
55.0307 5.34747
55.0809 5.34983
55.1314 5.27665
55.1816 5.24461
55.232 5.20002
55.2823 5.1698
55.3328 5.17575
55.383 5.04396
55.4335 5.01529
55.4838 4.97158
55.5344 4.91618
55.5847 4.88967
55.6352 4.84263
55.6856 4.82233
55.7361 4.76435