File: XRD/Ni3Fe_FD1044.xy
TT I
1.27165 7.30483
1.31627 6.63193
1.36089 5.9985
1.40551 5.41734
1.45013 5.89152
1.49476 5.12474
1.53938 5.05892
1.584 4.87456
1.62863 4.36507
1.67325 4.8032
1.71787 4.8962
1.7625 4.19749
1.80712 4.54052
1.85174 4.12793
1.89636 4.23896
1.94099 4.25938
1.98562 4.20275
2.03025 4.18477
2.07487 3.83575
2.11949 4.13702
2.16411 4.14275
2.20874 4.74238
2.25338 6.71861
2.298 5.0851
2.34263 5.21249
2.38725 6.36924
2.43188 6.65173
2.4765 7.17511
2.52115 6.88492
2.56577 7.78649
2.6104 8.15542
2.65503 8.67764
2.69965 8.30516
2.7443 8.81419
2.78893 8.6069
2.83356 8.87211
2.87818 8.38371
2.92281 9.37318
2.96744 9.50921
3.01209 10.3625
3.05672 10.7147
3.10135 11.624
3.14599 12.9033
3.19062 14.0336
3.23527 15.2644
3.2799 15.5135
3.32454 16.3589
3.36917 16.8713
3.4138 17.9122
3.45844 18.5848
3.50309 19.4818
3.54773 20.9244
3.59237 21.6335
3.637 27.7931
3.68164 26.7948
3.7263 24.2412
3.77094 24.7463
3.81558 25.6663
3.86022 26.3676
3.90486 27.2518
3.9495 28.0361
3.99416 28.8451
4.0388 30.1971
4.08344 31.3561
4.12809 32.4536
4.17273 33.382
4.21738 35.1398
4.26204 52.9481
4.30669 57.056
4.35133 40.5229
4.39598 40.8799
4.44063 42.3904
4.4853 46.1972
4.52995 46.4326
4.5746 48.7756
4.61925 50.6842
4.6639 52.2666
4.70855 55.1774
4.75322 57.794
4.79788 60.261
4.84253 64.1678
4.88719 68.0604
4.93184 71.8634
4.97652 76.7162
5.02118 83.0886
5.06583 89.3139
5.11049 97.5909
5.15515 117.787
5.19981 230.614
5.24449 2477.75
5.28916 13427.1
5.33382 3302.21
5.37848 214.234
5.42315 123.635
5.46783 108.225
5.5125 100.733
5.55716 97.2782
5.60183 92.6537
5.6465 91.1762
5.69117 89.5204
5.73586 87.9268
5.78053 86.6823
5.8252 86.0524
5.86988 86.8963
5.91455 88.6536
5.95924 94.8569
6.00392 161.844
6.0486 887.667
6.09328 4599.8
6.13795 3584.3
6.18263 239.995
6.22733 87.2886
6.27201 76.1968
6.3167 72.9337
6.36138 68.7941
6.40606 64.9511
6.45075 63.309
6.49545 61.9037
6.54014 60.0508
6.58483 58.9242
6.62952 58.1206
6.67421 58.541
6.71892 64.3637
6.76361 56.2862
6.8083 54.4797
6.853 54.1986
6.89769 53.2918
6.94239 53.1335
6.98711 52.3605
7.03181 52.0687
7.07651 52.2103
7.12121 51.6068
7.16591 51.5539
7.21063 50.8586
7.25533 51.5313
7.30004 62.0095
7.34475 55.9485
7.38945 51.7079
7.43416 51.0859
7.47889 51.295
7.5236 59.4126
7.56831 74.4782
7.61303 57.1126
7.65774 52.9681
7.70247 53.2633
7.74719 53.0727
7.79191 53.8489
7.83663 54.1147
7.88135 54.5656
7.92607 55.4724
7.97081 56.805
8.01553 57.4347
8.06026 59.1448
8.10498 60.0498
8.14971 62.3906
8.19446 63.8495
8.23919 65.2836
8.28392 68.1797
8.32865 70.2086
8.37339 74.0007
8.41812 77.418
8.46288 85.9351
8.50761 127.575
8.55235 367.703
8.59709 1079.5
8.64183 2243.41
8.68658 1094.2
8.73134 174.188
8.77609 94.8802
8.82083 88.404
8.86558 85.5162
8.91033 83.0992
8.9551 82.1155
8.99985 80.9882
9.04461 79.6732
9.08936 79.6732
9.13412 79.0985
9.17888 79.7196
9.22365 92.1748
9.26841 116.173
9.31318 90.1039
9.35794 79.9035
9.4027 80.1125
9.44749 80.1109
9.49226 80.7658
9.53703 81.8806
9.5818 83.1465
9.62657 84.2294
9.67134 86.0141
9.71614 87.522
9.76091 89.2678
9.80569 91.6776
9.85047 93.9885
9.89525 98.9786
9.94005 105.851
9.98484 147.144
10.0296 345.852
10.0744 770.486
10.1192 1749.25
10.164 1680.2
10.2088 441.552
10.2536 124.922
10.2984 103.177
10.3432 100.816
10.388 97.6769
10.4328 107.504
10.4776 160.044
10.5224 268.031
10.5672 502.787
10.612 556.58
10.6568 225.545
10.7017 104.781
10.7465 86.4993
10.7913 79.7478
10.8361 77.8162
10.8809 74.8976
10.9257 73.2451
10.9706 72.4353
11.0154 70.4293
11.0602 69.3006
11.105 68.2722
11.1499 67.0494
11.1947 67.1011
11.2395 65.8091
11.2844 64.6524
11.3292 63.6564
11.374 62.6265
11.4189 62.4155
11.4637 61.6885
11.5086 60.8925
11.5534 61.0616
11.5983 60.6885
11.6431 60.5359
11.688 60.1174
11.7328 59.8066
11.7777 59.7806
11.8225 59.3176
11.8674 59.8677
11.9122 62.1526
11.9571 68.5629
12.002 66.8648
12.0468 64.2852
12.0917 76.519
12.1366 98.4628
12.1814 146.458
12.2263 204.586
12.2712 177.598
12.3161 98.6225
12.3609 64.4187
12.4058 61.3924
12.4507 60.8624
12.4956 61.1403
12.5405 61.2777
12.5853 61.6864
12.6302 62.3227
12.6751 63.6694
12.72 64.016
12.7649 64.4442
12.8098 64.9301
12.8547 66.4705
12.8996 67.7195
12.9445 69.0996
12.9894 70.667
13.0343 72.3722
13.0792 76.2795
13.1242 82.2329
13.1691 107.303
13.214 146.604
13.2589 226.308
13.3038 363.516
13.3487 442.234
13.3937 280.837
13.4386 127.507
13.4835 98.6506
13.5285 119.413
13.5734 155.707
13.6183 235.609
13.6633 355.073
13.7082 360.469
13.7531 205.712
13.7981 100.261
13.843 79.5465
13.888 76.5389
13.9329 74.3855
13.9779 73.1553
14.0228 71.6882
14.0678 70.6307
14.1127 71.7184
14.1577 75.7798
14.2027 73.9722
14.2476 69.0209
14.2926 67.3447
14.3376 67.2487
14.3825 66.7873
14.4275 66.2049
14.4725 65.9687
14.5175 66.2615
14.5624 66.0252
14.6074 66.4996
14.6524 67.142
14.6974 67.4509
14.7424 68.2425
14.7874 74.2563
14.8324 88.3421
14.8774 109.012
14.9224 147.238
14.9674 207.136
15.0124 228.775
15.0574 161.282
15.1024 93.7203
15.1474 71.064
15.1924 67.8871
15.2374 66.5118
15.2824 65.502
15.3274 64.8332
15.3725 64.2511
15.4175 63.7493
15.4625 63.4169
15.5076 63.2435
15.5526 63.3078
15.5976 63.3676
15.6426 63.8234
15.6877 68.4423
15.7327 79.1784
15.7778 93.8925
15.8228 121.429
15.8679 168.437
15.9129 201.777
15.958 168.729
16.003 103.345
16.0481 69.2232
16.0931 63.0271
16.1382 59.8281
16.1833 58.2444
16.2283 56.6576
16.2734 56.2051
16.3185 55.5298
16.3636 55.2177
16.4086 54.3728
16.4537 54.0664
16.4988 53.5443
16.5439 53.3494
16.589 53.2266
16.6341 52.7666
16.6792 52.5288
16.7243 52.6427
16.7694 52.4347
16.8145 52.699
16.8596 52.7281
16.9047 53.5326
16.9498 54.2843
16.9949 53.9876
17.04 53.6808
17.0851 54.6708
17.1302 56.9045
17.1754 59.9397
17.2205 64.3439
17.2656 72.1469
17.3108 81.5452
17.3559 82.318
17.401 72.0729
17.4462 61.3807
17.4913 57.5691
17.5365 57.1852
17.5815 57.164
17.6268 57.6023
17.6718 58.0866
17.7171 58.5056
17.7622 59.8249
17.8074 60.7788
17.8525 61.7408
17.8977 66.185
17.9428 72.9173
17.9881 81.5692
18.0331 97.3952
18.0784 121.157
18.1237 141.847
18.1688 137.291
18.214 108.945
18.2591 88.1605
18.3044 88.6873
18.3495 99.2535
18.3948 107.194
18.4399 98.6164
18.4852 79.4079
18.5303 65.882
18.5756 61.1787
18.6207 60.2297
18.666 58.806
18.7112 57.83
18.7565 57.216
18.8016 56.9466
18.8469 56.3269
18.892 56.1161
18.9374 55.3633
18.9825 55.3287
19.0278 54.8664
19.073 54.9147
19.1183 55.1282
19.1635 56.2243
19.2088 57.8988
19.254 60.5632
19.2993 65.5619
19.3447 71.9549
19.3898 75.976
19.4352 72.3841
19.4804 63.4421
19.5257 56.0868
19.5709 52.7933
19.6163 52.3026
19.6615 52.126
19.7068 51.6603
19.752 51.5361
19.7974 51.7713
19.8426 52.7486
19.888 53.7314
19.9332 54.9053
19.9786 57.2818
20.0238 60.6548
20.0692 66.324
20.1144 70.4244
20.1598 69.059
20.205 64.1182
20.2504 61.8693
20.2957 63.4641
20.3411 65.4366
20.3863 63.9451
20.4318 58.0601
20.477 52.9252
20.5224 50.0559
20.5677 49.0283
20.6131 48.8623
20.6586 48.2508
20.7038 48.0805
20.7493 47.9664
20.7945 47.9619
20.84 47.977
20.8853 47.3803
20.9307 47.0932
20.976 47.3283
21.0215 47.339
21.0668 47.5389
21.1122 48.0517
21.1575 48.5637
21.203 49.4379
21.2483 50.3502
21.2938 50.4711
21.3391 49.0314
21.3846 47.7628
21.4299 47.2234
21.4754 47.1597
21.5207 47.2161
21.5662 47.5133
21.6116 47.7113
21.6571 48.7176
21.7024 50.0028
21.7479 51.6347
21.7933 53.9562
21.8388 57.7782
21.8843 62.6669
21.9297 65.2892
21.9752 64.0663
22.0206 59.6716
22.0661 56.19
22.1115 55.8646
22.157 55.9505
22.2024 54.3264
22.248 50.9836
22.2933 49.026
22.3389 47.9465
22.3843 47.5179
22.4299 47.3845
22.4753 47.4042
22.5208 47.3808
22.5662 47.3282
22.6118 47.5927
22.6572 47.6626
22.7028 48.1168
22.7483 48.794
22.7939 49.6289
22.8393 51.2438
22.8849 53.0679
22.9303 55.5197
22.9759 57.6041
23.0214 57.4924
23.067 54.7527
23.1126 50.9797
23.1581 48.4929
23.2037 47.7868
23.2492 47.5047
23.2948 47.7565
23.3403 48.307
23.3859 49.2349
23.4314 50.2908
23.477 52.0855
23.5225 54.4935
23.5682 57.1998
23.6137 58.3756
23.6593 56.4008
23.7048 52.0653
23.7505 48.2066
23.796 45.8789
23.8417 44.9003
23.8872 44.5521
23.9329 44.2119
23.9784 43.8393
24.0241 43.6653
24.0697 43.577
24.1154 43.0447
24.1609 42.87
24.2066 42.7307
24.2522 42.6246
24.2979 42.3106
24.3434 42.1961
24.3892 42.049
24.4349 42.0318
24.4805 41.9791
24.5262 41.9986
24.5718 41.9948
24.6175 41.8927
24.6631 42.0716
24.7089 41.6727
24.7545 41.3072
24.8002 41.226
24.8458 41.0975
24.8916 41.0268
24.9372 41.2245
24.983 41.5306
25.0286 41.991
25.0744 42.4778
25.12 43.2196
25.1658 43.8114
25.2114 44.003
25.2572 44.2945
25.3029 44.374
25.3487 44.581
25.3943 44.3293
25.4402 43.0495
25.4858 41.8625
25.5316 40.7473
25.5773 40.1704
25.6231 40.0664
25.669 39.6193
25.7147 39.6923
25.7605 39.6637
25.8062 39.6243
25.8521 39.8257
25.8977 39.7244
25.9436 40.0898
25.9893 40.2635
26.0352 40.6788
26.0809 40.8898
26.1268 41.209
26.1725 40.8161
26.2184 40.187
26.2641 39.4871
26.31 39.3594
26.3557 39.3781
26.4017 39.3626
26.4474 39.7288
26.4933 39.9124
26.5391 40.5319
26.585 41.2124
26.6308 41.5747
26.6767 41.8786
26.7225 41.7354
26.7684 41.1086
26.8142 40.5397
26.8601 40.0087
26.9059 39.6096
26.9519 39.0136
26.9979 38.7436
27.0437 38.2003
27.0896 38.0249
27.1354 38.0592
27.1814 37.8635
27.2272 37.7593
27.2732 37.891
27.3191 37.6252
27.3651 37.764
27.4109 37.8203
27.4569 37.895
27.5027 37.9375
27.5488 38.0019
27.5946 37.7351
27.6407 37.4778
27.6865 37.468
27.7326 37.225
27.7784 37.142
27.8245 37.1621
27.8703 37.2978
27.9164 37.6393
27.9623 37.921
28.0084 38.3197
28.0543 38.7876
28.1003 38.7647
28.1462 38.59
28.1923 38.2225
28.2384 37.6722
28.2843 37.2947
28.3304 36.8151
28.3764 36.193
28.4225 35.9236
28.4684 35.6732
28.5145 35.3879
28.5605 35.1999
28.6066 35.0719
28.6526 34.9803
28.6987 34.968
28.7447 34.8088
28.7908 34.7404
28.8368 34.7782
28.8829 34.7091
28.9289 34.7902
28.9751 34.5545
29.0211 34.3008
29.0673 34.0644
29.1133 33.9501
29.1595 33.8797
29.2055 33.5484
29.2517 33.6536
29.2977 33.6799
29.3439 33.6436
29.3899 33.6539
29.4361 33.6095
29.4824 33.4056
29.5284 33.1703
29.5746 32.7688
29.6207 32.4557
29.6669 32.2936
29.713 32.2473
29.7593 32.2246
29.8053 32.2597
29.8516 32.1953
29.8977 32.1123
29.9439 31.9896
29.99 31.8193
30.0363 31.8027
30.0824 31.8711
30.1287 31.8762
30.1748 31.8351
30.2211 31.7948
30.2673 31.7095
30.3136 31.8888
30.3597 31.6279
30.406 31.6307
30.4522 31.4564
30.4985 31.4943
30.5447 31.6446
30.591 31.5866
30.6372 31.6878
30.6835 31.6723
30.7297 31.752
30.7761 31.7234
30.8224 31.5914
30.8686 31.3381
30.915 31.1592
30.9612 31.0023
31.0076 30.8224
31.0538 30.7051
31.1002 30.6548
31.1464 30.4601
31.1928 30.388
31.2391 30.4591
31.2855 30.4584
31.3317 30.2674
31.3781 30.4562
31.4244 30.4572
31.4708 30.3665
31.5171 30.35
31.5636 30.2916
31.6098 30.0366
31.6563 29.9561
31.7026 29.8041
31.7491 29.5115
31.7953 29.5595
31.8418 29.683
31.8881 29.6738
31.9346 29.6218
31.9809 29.6903
32.0275 29.6361
32.074 29.4855
32.1203 29.1363
32.1668 29.0931
32.2132 28.8883
32.2597 28.7431
32.306 28.677
32.3526 28.4775
32.399 28.4301
32.4455 28.3071
32.4919 28.2638
32.5385 28.1384
32.5848 27.99
32.6314 27.9574
32.6778 27.9005
32.7244 27.7994
32.7708 27.6745
32.8174 27.6394
32.8638 27.4796
32.9104 27.541
32.9569 27.612
33.0035 27.44
33.0499 27.5313
33.0966 27.3699
33.143 27.3652
33.1897 27.2994
33.2361 27.1914
33.2828 27.1619
33.3293 27.0071
33.3759 26.9139
33.4226 26.7694
33.4691 26.7058
33.5158 26.5607
33.5623 26.4086
33.609 26.2817
33.6555 26.237
33.7022 26.186
33.7487 26.0463
33.7954 26.0382
33.842 25.9253
33.8887 25.8315
33.9353 25.8106
33.982 25.6992
34.0286 25.548
34.0753 25.5242
34.1219 25.4574
34.1687 25.3652
34.2152 25.3248
34.262 25.2271
34.3086 25.1847
34.3554 25.139
34.402 24.9456
34.4488 24.7824
34.4954 24.8035
34.5422 24.6958
34.5889 24.5948
34.6357 24.5465
34.6825 24.4434
34.7292 24.44
34.776 24.2383
34.8227 24.2874
34.8695 24.1472
34.9162 24.0971
34.9631 23.9928
35.0098 24.0597
35.0566 23.8865
35.1033 23.8967
35.1502 23.8882
35.1969 23.7804
35.2438 23.8045
35.2906 23.6922
35.3375 23.6702
35.3842 23.6422
35.4311 23.6406
35.4779 23.5548
35.5248 23.5545
35.5716 23.3381
35.6185 23.2801
35.6653 23.263
35.7123 23.1924
35.759 23.1266
35.806 22.9975
35.8528 22.9142
35.8998 22.7995
35.9468 22.821
35.9936 22.6856
36.0406 22.6763
36.0874 22.6312
36.1345 22.5179
36.1813 22.4647
36.2283 22.3383
36.2752 22.1761
36.3222 22.2721
36.3691 22.2226
36.4161 22.0806
36.463 22.1259
36.5101 22.0882
36.557 22.0164
36.6041 21.9023
36.651 21.8456
36.6981 21.8077
36.745 21.7669
36.7921 21.6434
36.839 21.5357
36.8861 21.4452
36.9331 21.3586
36.9802 21.2423
37.0272 21.2159
37.0743 21.1549
37.1213 21.1049
37.1684 21.0371
37.2154 20.9406
37.2626 20.9015
37.3098 20.8265
37.3568 20.8344
37.404 20.7685
37.451 20.6031
37.4982 20.5604
37.5452 20.4512
37.5924 20.4162
37.6395 20.4572
37.6867 20.4169
37.7337 20.262
37.781 20.1499
37.8281 20.165
37.8753 20.0686
37.9224 20.005
37.9697 19.9434
38.0168 19.9062
38.064 19.8652
38.1111 19.7984
38.1584 19.655
38.2056 19.5697
38.2529 19.5509
38.3 19.4942
38.3473 19.4933
38.3945 19.3478
38.4418 19.3638
38.489 19.2908
38.5363 19.1783
38.5837 19.1583
38.6309 19.0946
38.6782 19.0077
38.7254 18.8846
38.7728 18.9
38.82 18.8549
38.8674 18.7393
38.9146 18.6761
38.9621 18.6257
39.0093 18.6174
39.0567 18.534
39.104 18.4887
39.1514 18.4375
39.1987 18.3331
39.2461 18.3491
39.2934 18.2291
39.3409 18.1834
39.3882 18.1305
39.4356 18.0979
39.483 18.0696
39.5304 17.8995
39.5778 17.9638
39.6253 17.7929
39.6726 17.7869
39.7201 17.7033
39.7675 17.695
39.815 17.6157
39.8624 17.6119
39.9099 17.5927
39.9575 17.4157
40.0049 17.3894
40.0525 17.3179
40.0999 17.2712
40.1474 17.2383
40.1949 17.2134
40.2425 17.1002
40.2899 17.1394
40.3375 17.0485
40.385 16.9686
40.4326 16.8391
40.48 16.7783
40.5277 16.795
40.5752 16.7561
40.6228 16.745
40.6703 16.6779
40.718 16.5478
40.7655 16.5388
40.8132 16.5219
40.8607 16.5112
40.9084 16.4249
40.9559 16.4104
41.0036 16.2556
41.0512 16.2435
41.0989 16.1889
41.1465 16.1086
41.1942 16.0892
41.242 16.0047
41.2896 15.9348
41.3373 15.8666
41.3849 15.8179
41.4327 15.8319
41.4803 15.7297
41.5281 15.6844
41.5758 15.6682
41.6236 15.5083
41.6712 15.4941
41.7191 15.4707
41.7667 15.4465
41.8146 15.3709
41.8622 15.3855
41.9101 15.3
41.9578 15.2061
42.0057 15.1882
42.0534 15.1108
42.1013 15.1011
42.149 14.9992
42.1969 14.9504
42.2446 14.8999
42.2925 14.8312
42.3403 14.8072
42.3882 14.8045
42.436 14.7237
42.4839 14.6406
42.5319 14.6926
42.5797 14.5999
42.6277 14.5468
42.6755 14.4606
42.7235 14.4262
42.7713 14.366
42.8193 14.3199
42.8671 14.2556
42.9152 14.2802
42.963 14.1869
43.0111 14.1457
43.0589 14.1305
43.107 14.0026
43.1549 13.9946
43.2029 13.9634
43.2508 13.8811
43.2989 13.8221
43.3468 13.767
43.3949 13.7449
43.4429 13.6753
43.491 13.6854
43.5389 13.6114
43.5871 13.5524
43.635 13.5611
43.6832 13.4641
43.7312 13.3965
43.7793 13.3789
43.8273 13.3036
43.8755 13.2962
43.9237 13.2125
43.9717 13.1748
44.0199 13.172
44.068 13.1137
44.1162 13.0842
44.1642 13.0647
44.2125 12.9238
44.2606 12.929
44.3088 12.8503
44.3569 12.8788
44.4052 12.7762
44.4533 12.7759
44.5016 12.674
44.5497 12.654
44.598 12.6134
44.6461 12.5427
44.6945 12.495
44.7426 12.4778
44.791 12.3871
44.8391 12.3797
44.8875 12.3453
44.9357 12.306
44.984 12.2831
45.0322 12.1995
45.0806 12.1883
45.1288 12.1038
45.1773 12.1197
45.2257 12.069
45.2739 11.9752
45.3224 11.9408
45.3706 11.9199
45.4191 11.8189
45.4673 11.8366
45.5158 11.7687
45.5641 11.7274
45.6126 11.7015
45.6609 11.6564
45.7094 11.6231
45.7577 11.6012
45.8063 11.5141
45.8546 11.5042
45.9031 11.4558
45.9515 11.4198
46.0001 11.3522
46.0484 11.3322
46.097 11.3101
46.1454 11.2792
46.194 11.2151
46.2424 11.214
46.291 11.0957
46.3395 11.1162
46.3881 11.0392
46.4365 10.9942
46.4852 10.9616
46.5337 10.9248
46.5823 10.8837
46.631 10.8083
46.6795 10.8367
46.7282 10.795
46.7767 10.7871
46.8254 10.7212
46.8739 10.663
46.9226 10.5966
46.9712 10.5561
47.0199 10.5389
47.0685 10.4954
47.1173 10.4397
47.1658 10.4073
47.2146 10.3935
47.2632 10.3182
47.312 10.3085
47.3606 10.2122
47.4095 10.2516
47.4581 10.2164
47.5069 10.1953
47.5556 10.0809
47.6044 10.032
47.6531 10.0424
47.702 9.9715
47.7507 9.93141
47.7996 9.90834
47.8483 9.93537
47.8972 9.86989
47.9461 9.85251
47.9948 9.75957
48.0438 9.75343
48.0925 9.74298
48.1415 9.70067
48.1902 9.64414
48.2392 9.62032
48.288 9.57937
48.337 9.51808
48.3858 9.50715
48.4348 9.52094
48.4837 9.44968
48.5327 9.39087
48.5815 9.36535
48.6306 9.34135
48.6795 9.33152
48.7285 9.26746
48.7774 9.23695
48.8265 9.19596
48.8754 9.15273
48.9245 9.12314
48.9734 9.08563
49.0226 9.09851
49.0715 9.00759
49.1206 8.99476
49.1696 8.9242
49.2188 8.89233
49.2679 8.86981
49.3169 8.8495
49.3661 8.82804
49.4151 8.80731
49.4643 8.74648
49.5134 8.74936
49.5626 8.65772
49.6117 8.65949
49.6609 8.60721
49.71 8.56731
49.7592 8.54803
49.8083 8.53569
49.8576 8.53208
49.9067 8.48611
49.956 8.42289
50.0052 8.38
50.0545 8.33295
50.1036 8.33649
50.153 8.28691
50.2022 8.2771
50.2515 8.20992
50.3007 8.19828
50.3501 8.16794
50.3993 8.13579
50.4487 8.10765
50.498 8.05878
50.5474 8.05587
50.5966 8.01192
50.6461 7.94516
50.6955 7.91663
50.7448 7.9515
50.7943 7.89897
50.8436 7.86043
50.8931 7.84125
50.9424 7.77904
50.9919 7.75713
51.0413 7.76333
51.0908 7.71794
51.1402 7.66569
51.1897 7.64279
51.2391 7.63962
51.2887 7.57928
51.3381 7.56023
51.3877 7.55506
51.4371 7.47444
51.4867 7.4449
51.5362 7.43976
51.5858 7.40137
51.6353 7.35857
51.6849 7.36795
51.7344 7.30864
51.7841 7.28826
51.8336 7.22899
51.8833 7.23421
51.9328 7.14498
51.9826 7.13749
52.0323 7.14648
52.0818 7.08925
52.1316 7.07635
52.1812 7.0497
52.231 7.01538
52.2806 6.98378
52.3304 6.92481
52.38 6.92624
52.4298 6.90137
52.4794 6.87685
52.5293 6.83067
52.5789 6.82906
52.6288 6.77898
52.6785 6.71772
52.7284 6.70274
52.7781 6.73096
52.828 6.62591
52.8777 6.62137
52.9276 6.60853
52.9774 6.604
53.0273 6.61119
53.0771 6.48176
53.1271 6.51085
53.1769 6.44889
53.2269 6.43844
53.2767 6.41722
53.3267 6.41626
53.3765 6.33974
53.4266 6.35351
53.4766 6.29492
53.5265 6.29125
53.5765 6.22941
53.6264 6.22181
53.6765 6.20513
53.7264 6.17037
53.7765 6.12933
53.8265 6.12266
53.8766 6.09985
53.9266 6.09465
53.9767 6.04097
54.0267 6.06392
54.0769 5.99383
54.1269 5.90743
54.1771 5.8958
54.2271 5.89878
54.2773 5.84318
54.3274 5.80595
54.3776 5.80239
54.4277 5.78998
54.478 5.75763
54.528 5.68474
54.5783 5.71031
54.6285 5.59079
54.6788 5.58718
54.7289 5.57756
54.7792 5.47676
54.8296 5.50365
54.8798 5.41579
54.9301 5.38479
54.9803 5.38831
55.0307 5.32852
55.0809 5.31218
55.1314 5.2476
55.1816 5.21034
55.232 5.19014
55.2823 5.13912
55.3328 5.06136
55.383 5.00293
55.4335 4.97748
55.4838 4.9415
55.5344 4.89766
55.5847 4.88167
55.6352 4.79984
55.6856 4.77595
55.7361 4.71895