File: XRD/Ni3Fe_FD0565.xy
TT I
1.27165 7.26347
1.31627 6.70512
1.36089 6.66858
1.40551 6.40917
1.45013 5.73034
1.49476 5.82892
1.53938 5.59797
1.584 5.51788
1.62863 5.31255
1.67325 4.92642
1.71787 4.71549
1.7625 4.90495
1.80712 5.15906
1.85174 4.67314
1.89636 4.83492
1.94099 5.13171
1.98562 4.74404
2.03025 4.19288
2.07487 4.34634
2.11949 5.05229
2.16411 4.93921
2.20874 10.3758
2.25338 15.5972
2.298 5.74446
2.34263 5.55231
2.38725 5.90069
2.43188 5.88495
2.4765 6.49059
2.52115 5.83082
2.56577 7.40213
2.6104 8.36147
2.65503 7.26081
2.69965 8.11118
2.7443 7.80454
2.78893 8.00446
2.83356 8.67016
2.87818 8.40784
2.92281 8.84103
2.96744 9.7039
3.01209 10.1772
3.05672 11.0245
3.10135 12.2771
3.14599 12.6393
3.19062 14.327
3.23527 15.1058
3.2799 16.0475
3.32454 16.6691
3.36917 17.7485
3.4138 18.7771
3.45844 19.1326
3.50309 20.7558
3.54773 21.6531
3.59237 23.6866
3.637 66.2674
3.68164 45.3292
3.7263 26.12
3.77094 25.8219
3.81558 26.921
3.86022 27.4816
3.90486 28.9125
3.9495 30.1737
3.99416 31.0554
4.0388 32.0392
4.08344 33.8752
4.12809 34.6218
4.17273 36.4052
4.21738 40.3912
4.26204 169.47
4.30669 144.466
4.35133 45.9967
4.39598 44.1793
4.44063 50.9154
4.4853 58.7795
4.52995 51.2581
4.5746 52.3316
4.61925 53.8461
4.6639 56.358
4.70855 58.6321
4.75322 61.5344
4.79788 64.9384
4.84253 67.9729
4.88719 72.96
4.93184 76.3973
4.97652 81.8498
5.02118 89.3224
5.06583 96.5717
5.11049 109.167
5.15515 165.086
5.19981 440.397
5.24449 3184.11
5.28916 12284.1
5.33382 2928.17
5.37848 196.678
5.42315 130.371
5.46783 115.87
5.5125 107.431
5.55716 102.662
5.60183 98.6942
5.6465 97.4686
5.69117 95.9503
5.73586 93.6759
5.78053 94.3277
5.8252 93.0766
5.86988 95.1396
5.91455 97.1482
5.95924 107.981
6.00392 256.705
6.0486 1101.9
6.09328 4444.21
6.13795 3388.27
6.18263 250.78
6.22733 93.8214
6.27201 82.4372
6.3167 92.0101
6.36138 77.1859
6.40606 69.8035
6.45075 68.2224
6.49545 66.1411
6.54014 63.9368
6.58483 62.9625
6.62952 62.7628
6.67421 82.0478
6.71892 112.017
6.76361 64.9274
6.8083 58.6098
6.853 57.9086
6.89769 57.2823
6.94239 56.6837
6.98711 55.6915
7.03181 55.9931
7.07651 55.4598
7.12121 55.1593
7.16591 55.6486
7.21063 55.1857
7.25533 65.0368
7.30004 131.341
7.34475 77.7658
7.38945 56.1432
7.43416 54.5513
7.47889 54.7033
7.5236 54.6102
7.56831 55.7721
7.61303 57.0925
7.65774 56.7727
7.70247 56.3639
7.74719 56.573
7.79191 57.1045
7.83663 56.9565
7.88135 58.0817
7.92607 58.9363
7.97081 59.7545
8.01553 61.5871
8.06026 62.7453
8.10498 64.1569
8.14971 71.316
8.19446 70.6891
8.23919 69.9868
8.28392 72.5641
8.32865 75.0207
8.37339 79.4831
8.41812 85.8595
8.46288 109.296
8.50761 188.789
8.55235 435.756
8.59709 1232.78
8.64183 2216.32
8.68658 967.53
8.73134 161.6
8.77609 99.7668
8.82083 93.0558
8.86558 90.6255
8.91033 90.2306
8.9551 90.254
8.99985 85.8116
9.04461 83.9595
9.08936 83.998
9.13412 83.095
9.17888 82.6164
9.22365 83.2671
9.26841 82.8672
9.31318 83.3996
9.35794 83.8179
9.4027 84.4533
9.44749 84.9338
9.49226 85.0649
9.53703 86.0566
9.5818 88.613
9.62657 92.0966
9.67134 96.2832
9.71614 94.0698
9.76091 95.0754
9.80569 97.7986
9.85047 101.072
9.89525 117.97
9.94005 133.102
9.98484 203.071
10.0296 378.215
10.0744 854.953
10.1192 1705.56
10.164 1532.19
10.2088 391.228
10.2536 126.206
10.2984 112.05
10.3432 111.742
10.388 106.063
10.4328 125.79
10.4776 170.465
10.5224 296.049
10.5672 522.437
10.612 500.618
10.6568 193.724
10.7017 95.8449
10.7465 87.2349
10.7913 83.6022
10.8361 81.241
10.8809 79.2866
10.9257 78.7566
10.9706 78.4482
11.0154 75.0389
11.0602 73.4088
11.105 72.1219
11.1499 74.0963
11.1947 78.4968
11.2395 72.251
11.2844 69.2642
11.3292 67.3424
11.374 66.1876
11.4189 65.7947
11.4637 65.3618
11.5086 65.387
11.5534 66.9962
11.5983 64.9897
11.6431 63.7824
11.688 63.3275
11.7328 63.2166
11.7777 63.3056
11.8225 62.6444
11.8674 62.8871
11.9122 63.3632
11.9571 63.508
12.002 64.6042
12.0468 69.9756
12.0917 81.7204
12.1366 105.966
12.1814 155.128
12.2263 200.836
12.2712 160.021
12.3161 90.3033
12.3609 68.6309
12.4058 64.6604
12.4507 64.5743
12.4956 64.6253
12.5405 64.6361
12.5853 65.8143
12.6302 70.607
12.6751 74.0832
12.72 68.9978
12.7649 68.0493
12.8098 68.7414
12.8547 70.1522
12.8996 71.8359
12.9445 72.8854
12.9894 74.8093
13.0343 76.4724
13.0792 80.3644
13.1242 92.9785
13.1691 117.111
13.214 157.036
13.2589 249.432
13.3038 373.34
13.3487 426.155
13.3937 257.143
13.4386 122.188
13.4835 110.158
13.5285 126.114
13.5734 167.006
13.6183 254.352
13.6633 349.353
13.7082 336.208
13.7531 181.235
13.7981 96.4788
13.843 82.0655
13.888 79.806
13.9329 77.5114
13.9779 76.2451
14.0228 74.7144
14.0678 73.5937
14.1127 72.9526
14.1577 72.5855
14.2027 72.0925
14.2476 70.85
14.2926 70.7083
14.3376 71.3137
14.3825 70.2697
14.4275 69.3182
14.4725 69.4775
14.5175 69.4995
14.5624 69.2567
14.6074 70.7545
14.6524 71.3131
14.6974 70.9741
14.7424 74.2699
14.7874 81.6938
14.8324 92.3892
14.8774 115.642
14.9224 157.462
14.9674 209.212
15.0124 218.032
15.0574 144.317
15.1024 89.0384
15.1474 72.3442
15.1924 70.6867
15.2374 70.4849
15.2824 69.9891
15.3274 68.1291
15.3725 67.1208
15.4175 66.8943
15.4625 66.6189
15.5076 66.4151
15.5526 66.4541
15.5976 66.5278
15.6426 68.456
15.6877 74.8135
15.7327 82.588
15.7778 98.8403
15.8228 130.904
15.8679 172.559
15.9129 194.99
15.958 152.893
16.003 95.0389
16.0481 67.3185
16.0931 64.1016
16.1382 62.4089
16.1833 60.7573
16.2283 59.2444
16.2734 58.6976
16.3185 58.4887
16.3636 58.7339
16.4086 57.3912
16.4537 56.6171
16.4988 55.7364
16.5439 55.7175
16.589 55.3567
16.6341 55.1752
16.6792 54.7588
16.7243 55.3844
16.7694 55.2715
16.8145 55.0082
16.8596 55.4204
16.9047 56.4958
16.9498 56.8162
16.9949 55.9401
17.04 56.4529
17.0851 57.9044
17.1302 59.3964
17.1754 62.6483
17.2205 68.0059
17.2656 75.3414
17.3108 82.2705
17.3559 81.5771
17.401 71.0748
17.4462 62.1027
17.4913 59.6261
17.5365 59.5965
17.5815 59.5862
17.6268 59.9854
17.6718 60.7006
17.7171 61.1828
17.7622 61.6735
17.8074 62.9132
17.8525 65.8319
17.8977 69.7787
17.9428 75.56
17.9881 85.0139
18.0331 102.519
18.0784 123.121
18.1237 141.548
18.1688 132.676
18.214 102.933
18.2591 87.1522
18.3044 92.1302
18.3495 101.117
18.3948 106.217
18.4399 95.4586
18.4852 77.2019
18.5303 66.0386
18.5756 62.5623
18.6207 61.5199
18.666 60.722
18.7112 60.2519
18.7565 59.3248
18.8016 59.0665
18.8469 58.4085
18.892 57.7913
18.9374 57.6952
18.9825 57.3248
19.0278 57.147
19.073 57.549
19.1183 58.025
19.1635 58.709
19.2088 60.1315
19.254 63.1517
19.2993 67.7584
19.3447 72.9
19.3898 76.4259
19.4352 72.1307
19.4804 63.0617
19.5257 56.9212
19.5709 54.3864
19.6163 54.2579
19.6615 53.9571
19.7068 53.6511
19.752 53.5256
19.7974 54.2447
19.8426 55.0462
19.888 55.6347
19.9332 56.933
19.9786 59.7163
20.0238 63.2317
20.0692 67.786
20.1144 70.4614
20.1598 68.3899
20.205 63.9495
20.2504 62.6011
20.2957 64.433
20.3411 65.7986
20.3863 64.1278
20.4318 58.1759
20.477 53.6717
20.5224 51.6665
20.5677 51.185
20.6131 50.3413
20.6586 49.9729
20.7038 49.9202
20.7493 49.3766
20.7945 49.1639
20.84 49.1719
20.8853 48.7763
20.9307 48.9667
20.976 48.9576
21.0215 48.968
21.0668 49.3367
21.1122 49.955
21.1575 50.3728
21.203 51.1131
21.2483 51.5661
21.2938 51.7562
21.3391 50.2034
21.3846 49.3309
21.4299 48.5155
21.4754 48.7076
21.5207 48.8372
21.5662 49.293
21.6116 49.7543
21.6571 50.4844
21.7024 51.3674
21.7479 53.5112
21.7933 56.1498
21.8388 59.7343
21.8843 63.3075
21.9297 65.1284
21.9752 63.4801
22.0206 59.6161
22.0661 56.7122
22.1115 56.3207
22.157 56.1412
22.2024 54.5532
22.248 51.5924
22.2933 50.0853
22.3389 49.3125
22.3843 49.1933
22.4299 48.9523
22.4753 49.1399
22.5208 48.8712
22.5662 48.9198
22.6118 49.1566
22.6572 49.274
22.7028 49.7257
22.7483 50.1888
22.7939 51.0762
22.8393 52.4944
22.8849 54.5088
22.9303 56.6261
22.9759 58.1415
23.0214 57.4811
23.067 54.5668
23.1126 51.055
23.1581 49.3409
23.2037 49.1356
23.2492 49.2089
23.2948 49.2341
23.3403 49.4926
23.3859 50.22
23.4314 51.3364
23.477 53.238
23.5225 55.4201
23.5682 57.3833
23.6137 58.0579
23.6593 55.7464
23.7048 51.6647
23.7505 48.4408
23.796 46.9065
23.8417 46.1944
23.8872 45.8312
23.9329 45.4476
23.9784 44.9935
24.0241 44.9561
24.0697 44.7828
24.1154 44.4814
24.1609 44.2225
24.2066 44.0821
24.2522 44.0615
24.2979 43.5876
24.3434 43.5202
24.3892 43.3466
24.4349 43.4008
24.4805 43.1512
24.5262 43.4109
24.5718 43.4095
24.6175 43.2784
24.6631 43.0601
24.7089 42.6884
24.7545 42.62
24.8002 42.4717
24.8458 42.5429
24.8916 42.2452
24.9372 42.4878
24.983 42.917
25.0286 43.2102
25.0744 43.7281
25.12 44.1488
25.1658 44.8152
25.2114 45.1025
25.2572 44.9864
25.3029 45.0439
25.3487 45.1064
25.3943 44.8509
25.4402 43.6809
25.4858 42.6966
25.5316 41.724
25.5773 41.1647
25.6231 41.0488
25.669 40.7448
25.7147 40.8297
25.7605 40.6793
25.8062 40.8568
25.8521 40.9269
25.8977 40.9529
25.9436 41.0496
25.9893 41.3616
26.0352 41.6895
26.0809 41.8481
26.1268 42.0286
26.1725 41.6398
26.2184 41.1076
26.2641 40.6551
26.31 40.3354
26.3557 40.4639
26.4017 40.48
26.4474 40.8043
26.4933 41.0005
26.5391 41.4726
26.585 41.9836
26.6308 42.3814
26.6767 42.5663
26.7225 42.2777
26.7684 41.6296
26.8142 41.055
26.8601 40.5903
26.9059 40.2446
26.9519 39.6805
26.9979 39.4164
27.0437 39.1485
27.0896 39.0631
27.1354 39.0787
27.1814 38.844
27.2272 38.7742
27.2732 38.8295
27.3191 38.6227
27.3651 38.7661
27.4109 38.5964
27.4569 38.7315
27.5027 38.7223
27.5488 38.7824
27.5946 38.614
27.6407 38.4689
27.6865 38.3765
27.7326 38.1937
27.7784 38.1007
27.8245 38.0677
27.8703 38.1657
27.9164 38.5713
27.9623 38.7002
28.0084 39.0789
28.0543 39.5065
28.1003 39.2682
28.1462 39.0239
28.1923 38.5742
28.2384 38.1615
28.2843 37.8649
28.3304 37.3995
28.3764 36.8333
28.4225 36.5961
28.4684 36.4614
28.5145 36.1319
28.5605 36.0735
28.6066 35.871
28.6526 35.8378
28.6987 35.9347
28.7447 35.6123
28.7908 35.6335
28.8368 35.5618
28.8829 35.7068
28.9289 35.7062
28.9751 35.3683
29.0211 35.1755
29.0673 34.858
29.1133 34.8489
29.1595 34.6567
29.2055 34.6698
29.2517 34.5628
29.2977 34.5046
29.3439 34.3873
29.3899 34.4675
29.4361 34.4192
29.4824 34.2246
29.5284 33.9902
29.5746 33.623
29.6207 33.2744
29.6669 33.2634
29.713 33.1993
29.7593 33.1015
29.8053 33.0911
29.8516 32.996
29.8977 32.9638
29.9439 32.9025
29.99 32.7931
30.0363 32.7646
30.0824 32.8124
30.1287 32.6166
30.1748 32.6316
30.2211 32.6147
30.2673 32.5766
30.3136 32.5299
30.3597 32.4418
30.406 32.4296
30.4522 32.2874
30.4985 32.2391
30.5447 32.4068
30.591 32.3389
30.6372 32.3531
30.6835 32.3821
30.7297 32.4579
30.7761 32.3532
30.8224 32.1465
30.8686 32.0966
30.915 31.8172
30.9612 31.6856
31.0076 31.5761
31.0538 31.4378
31.1002 31.3143
31.1464 31.2349
31.1928 31.1813
31.2391 31.2795
31.2855 31.0326
31.3317 31.0982
31.3781 31.2043
31.4244 31.1573
31.4708 31.0084
31.5171 31.0328
31.5636 31.0094
31.6098 30.6689
31.6563 30.5433
31.7026 30.4012
31.7491 30.386
31.7953 30.3442
31.8418 30.315
31.8881 30.4521
31.9346 30.2647
31.9809 30.247
32.0275 30.1267
32.074 29.988
32.1203 29.7429
32.1668 29.7284
32.2132 29.5851
32.2597 29.3794
32.306 29.2697
32.3526 29.0927
32.399 29.0932
32.4455 28.9807
32.4919 28.9367
32.5385 28.8289
32.5848 28.5168
32.6314 28.7057
32.6778 28.6144
32.7244 28.4987
32.7708 28.3642
32.8174 28.3223
32.8638 28.1297
32.9104 28.1867
32.9569 28.2059
33.0035 28.0883
33.0499 28.0344
33.0966 27.9369
33.143 27.9826
33.1897 27.8425
33.2361 27.8191
33.2828 27.745
33.3293 27.5958
33.3759 27.5411
33.4226 27.3746
33.4691 27.2927
33.5158 27.1489
33.5623 27.0574
33.609 26.8586
33.6555 26.8685
33.7022 26.7431
33.7487 26.7038
33.7954 26.6571
33.842 26.6126
33.8887 26.4957
33.9353 26.3827
33.982 26.2847
34.0286 26.1801
34.0753 26.1386
34.1219 25.9737
34.1687 25.9897
34.2152 25.9182
34.262 25.8179
34.3086 25.707
34.3554 25.6764
34.402 25.5669
34.4488 25.4844
34.4954 25.4065
34.5422 25.3697
34.5889 25.2051
34.6357 25.1632
34.6825 25.0393
34.7292 24.9488
34.776 24.8802
34.8227 24.7865
34.8695 24.7685
34.9162 24.6498
34.9631 24.6792
35.0098 24.6554
35.0566 24.4838
35.1033 24.4193
35.1502 24.4134
35.1969 24.3072
35.2438 24.3238
35.2906 24.2838
35.3375 24.1419
35.3842 24.0914
35.4311 24.0738
35.4779 24.0968
35.5248 24.0888
35.5716 23.8998
35.6185 23.8385
35.6653 23.7187
35.7123 23.7066
35.759 23.6223
35.806 23.4867
35.8528 23.4266
35.8998 23.3294
35.9468 23.2655
35.9936 23.2061
36.0406 23.1193
36.0874 23.1554
36.1345 23.02
36.1813 22.9751
36.2283 22.8099
36.2752 22.8554
36.3222 22.7729
36.3691 22.6707
36.4161 22.5408
36.463 22.5816
36.5101 22.5949
36.557 22.4785
36.6041 22.2949
36.651 22.3419
36.6981 22.2692
36.745 22.2038
36.7921 22.0338
36.839 22.0801
36.8861 21.931
36.9331 21.8375
36.9802 21.9041
37.0272 21.7284
37.0743 21.5971
37.1213 21.5422
37.1684 21.5599
37.2154 21.4292
37.2626 21.394
37.3098 21.3659
37.3568 21.2803
37.404 21.169
37.451 21.1034
37.4982 21.0444
37.5452 21.0045
37.5924 20.9716
37.6395 20.9938
37.6867 20.8182
37.7337 20.716
37.781 20.6705
37.8281 20.5726
37.8753 20.4939
37.9224 20.3892
37.9697 20.4415
38.0168 20.4089
38.064 20.2269
38.1111 20.2477
38.1584 20.0878
38.2056 20.1046
38.2529 20.0303
38.3 19.9654
38.3473 19.9072
38.3945 19.7899
38.4418 19.8425
38.489 19.69
38.5363 19.6359
38.5837 19.5511
38.6309 19.5017
38.6782 19.451
38.7254 19.3728
38.7728 19.3468
38.82 19.2118
38.8674 19.2024
38.9146 19.2167
38.9621 19.1122
39.0093 19.057
39.0567 19.0104
39.104 18.9011
39.1514 18.7722
39.1987 18.7422
39.2461 18.7672
39.2934 18.6601
39.3409 18.5189
39.3882 18.5318
39.4356 18.4704
39.483 18.4169
39.5304 18.3393
39.5778 18.3134
39.6253 18.2698
39.6726 18.1959
39.7201 18.2044
39.7675 18.1276
39.815 18.0647
39.8624 17.9593
39.9099 17.941
39.9575 17.885
40.0049 17.797
40.0525 17.7261
40.0999 17.6887
40.1474 17.6454
40.1949 17.5689
40.2425 17.475
40.2899 17.4583
40.3375 17.3599
40.385 17.3589
40.4326 17.2645
40.48 17.1961
40.5277 17.1903
40.5752 17.1228
40.6228 17.0237
40.6703 17.0412
40.718 16.9335
40.7655 16.9434
40.8132 16.8469
40.8607 16.8414
40.9084 16.781
40.9559 16.72
41.0036 16.6748
41.0512 16.6281
41.0989 16.6016
41.1465 16.4248
41.1942 16.4134
41.242 16.3211
41.2896 16.2693
41.3373 16.2254
41.3849 16.2076
41.4327 16.1578
41.4803 16.1162
41.5281 16.001
41.5758 15.9808
41.6236 15.9252
41.6712 15.8774
41.7191 15.8025
41.7667 15.7771
41.8146 15.7498
41.8622 15.7186
41.9101 15.6105
41.9578 15.5314
42.0057 15.5631
42.0534 15.4659
42.1013 15.4525
42.149 15.3132
42.1969 15.2879
42.2446 15.2284
42.2925 15.2267
42.3403 15.1156
42.3882 15.0881
42.436 15.0826
42.4839 15.0243
42.5319 14.9903
42.5797 14.9098
42.6277 14.8056
42.6755 14.8038
42.7235 14.7513
42.7713 14.6698
42.8193 14.6526
42.8671 14.5746
42.9152 14.5668
42.963 14.5
43.0111 14.4087
43.0589 14.3559
43.107 14.2983
43.1549 14.3452
43.2029 14.2323
43.2508 14.2453
43.2989 14.1197
43.3468 14.0815
43.3949 14.0694
43.4429 13.9729
43.491 13.996
43.5389 13.9025
43.5871 13.8356
43.635 13.808
43.6832 13.7897
43.7312 13.6965
43.7793 13.6353
43.8273 13.5918
43.8755 13.5564
43.9237 13.5665
43.9717 13.4827
44.0199 13.4436
44.068 13.4026
44.1162 13.358
44.1642 13.3137
44.2125 13.2636
44.2606 13.2256
44.3088 13.1715
44.3569 13.0978
44.4052 13.067
44.4533 13.0151
44.5016 12.9971
44.5497 12.9296
44.598 12.903
44.6461 12.8687
44.6945 12.846
44.7426 12.7583
44.791 12.7102
44.8391 12.6855
44.8875 12.5934
44.9357 12.5636
44.984 12.5428
45.0322 12.4988
45.0806 12.432
45.1288 12.4102
45.1773 12.3517
45.2257 12.2867
45.2739 12.2824
45.3224 12.2375
45.3706 12.2197
45.4191 12.1121
45.4673 12.1372
45.5158 12.0661
45.5641 11.972
45.6126 11.9298
45.6609 11.9366
45.7094 11.8581
45.7577 11.8286
45.8063 11.7466
45.8546 11.7632
45.9031 11.6928
45.9515 11.6553
46.0001 11.6475
46.0484 11.6031
46.097 11.5174
46.1454 11.5195
46.194 11.4988
46.2424 11.3944
46.291 11.3513
46.3395 11.3052
46.3881 11.2613
46.4365 11.2309
46.4852 11.2191
46.5337 11.1545
46.5823 11.1432
46.631 11.0684
46.6795 11.0732
46.7282 11.0189
46.7767 10.9577
46.8254 10.8985
46.8739 10.8945
46.9226 10.8451
46.9712 10.7856
47.0199 10.7886
47.0685 10.7362
47.1173 10.6498
47.1658 10.6609
47.2146 10.6153
47.2632 10.5999
47.312 10.5159
47.3606 10.4953
47.4095 10.4291
47.4581 10.4502
47.5069 10.3528
47.5556 10.3405
47.6044 10.311
47.6531 10.2661
47.702 10.2278
47.7507 10.2021
47.7996 10.1191
47.8483 10.1251
47.8972 10.0718
47.9461 10.076
47.9948 10.0112
48.0438 9.95247
48.0925 9.95885
48.1415 9.8897
48.1902 9.8374
48.2392 9.84833
48.288 9.79647
48.337 9.77361
48.3858 9.67076
48.4348 9.7052
48.4837 9.68071
48.5327 9.61845
48.5815 9.60525
48.6306 9.60192
48.6795 9.55897
48.7285 9.47093
48.7774 9.44869
48.8265 9.43731
48.8754 9.35742
48.9245 9.35942
48.9734 9.31222
49.0226 9.31113
49.0715 9.22776
49.1206 9.18576
49.1696 9.15839
49.2188 9.14759
49.2679 9.08645
49.3169 9.06306
49.3661 8.98599
49.4151 8.9884
49.4643 8.97248
49.5134 8.94574
49.5626 8.85139
49.6117 8.83863
49.6609 8.84053
49.71 8.76437
49.7592 8.77986
49.8083 8.72651
49.8576 8.67133
49.9067 8.65348
49.956 8.60698
50.0052 8.60086
50.0545 8.53843
50.1036 8.50208
50.153 8.47176
50.2022 8.47764
50.2515 8.43449
50.3007 8.37972
50.3501 8.33341
50.3993 8.31846
50.4487 8.30543
50.498 8.25815
50.5474 8.20478
50.5966 8.147
50.6461 8.15842
50.6955 8.10751
50.7448 8.1064
50.7943 8.09254
50.8436 8.06855
50.8931 7.95448
50.9424 8.00741
50.9919 7.93955
51.0413 7.9378
51.0908 7.90272
51.1402 7.82776
51.1897 7.82084
51.2391 7.80075
51.2887 7.73209
51.3381 7.70136
51.3877 7.69439
51.4371 7.68377
51.4867 7.60996
51.5362 7.58304
51.5858 7.58173
51.6353 7.542
51.6849 7.52081
51.7344 7.47417
51.7841 7.45446
51.8336 7.41069
51.8833 7.38865
51.9328 7.31169
51.9826 7.32315
52.0323 7.26279
52.0818 7.27149
52.1316 7.24116
52.1812 7.1952
52.231 7.15628
52.2806 7.10793
52.3304 7.10231
52.38 7.09437
52.4298 7.0726
52.4794 6.98501
52.5293 6.99058
52.5789 6.93849
52.6288 6.97007
52.6785 6.88406
52.7284 6.85753
52.7781 6.84689
52.828 6.81399
52.8777 6.76351
52.9276 6.75455
52.9774 6.73211
53.0273 6.69715
53.0771 6.68034
53.1271 6.6895
53.1769 6.6043
53.2269 6.62465
53.2767 6.56648
53.3267 6.52898
53.3765 6.52039
53.4266 6.45292
53.4766 6.47361
53.5265 6.42916
53.5765 6.40027
53.6264 6.37463
53.6765 6.3695
53.7264 6.35588
53.7765 6.33007
53.8265 6.27586
53.8766 6.22011
53.9266 6.18807
53.9767 6.15532
54.0267 6.15471
54.0769 6.13171
54.1269 6.05016
54.1771 6.06716
54.2271 6.03042
54.2773 5.96801
54.3274 5.93281
54.3776 5.93714
54.4277 5.91102
54.478 5.85894
54.528 5.84018
54.5783 5.79645
54.6285 5.76079
54.6788 5.69874
54.7289 5.64236
54.7792 5.61556
54.8296 5.59027
54.8798 5.52022
54.9301 5.53937
54.9803 5.49611
55.0307 5.50227
55.0809 5.43424
55.1314 5.39119
55.1816 5.32519
55.232 5.27329
55.2823 5.25233
55.3328 5.14727
55.383 5.14205
55.4335 5.092
55.4838 5.07222
55.5344 4.99642
55.5847 4.92846
55.6352 4.91339
55.6856 4.85547
55.7361 4.82987