File: XRD/Ni3Fe_FD0380.xy
TT I
1.27165 7.78289
1.31627 7.29657
1.36089 7.0102
1.40551 6.81168
1.45013 6.5187
1.49476 6.55256
1.53938 6.28257
1.584 5.08411
1.62863 6.17572
1.67325 5.89515
1.71787 5.08854
1.7625 5.15838
1.80712 5.1419
1.85174 5.03846
1.89636 5.01264
1.94099 5.31153
1.98562 4.33447
2.03025 4.68317
2.07487 4.33477
2.11949 5.04909
2.16411 5.1489
2.20874 13.7256
2.25338 19.5722
2.298 5.72221
2.34263 4.63341
2.38725 4.82727
2.43188 5.5491
2.4765 6.32064
2.52115 5.92984
2.56577 6.40243
2.6104 7.52569
2.65503 6.72665
2.69965 7.49682
2.7443 7.11417
2.78893 8.17276
2.83356 7.88872
2.87818 8.36467
2.92281 8.86656
2.96744 10.1242
3.01209 10.5971
3.05672 11.0656
3.10135 12.303
3.14599 13.0779
3.19062 13.9526
3.23527 15.4854
3.2799 16.1352
3.32454 17.2776
3.36917 17.8113
3.4138 18.8722
3.45844 19.6329
3.50309 21.5898
3.54773 22.1162
3.59237 24.461
3.637 84.5599
3.68164 54.3386
3.7263 26.5334
3.77094 26.5476
3.81558 27.2556
3.86022 27.9586
3.90486 29.4703
3.9495 30.7586
3.99416 31.331
4.0388 32.7883
4.08344 34.3407
4.12809 35.7329
4.17273 37.8283
4.21738 43.9572
4.26204 224.873
4.30669 190.752
4.35133 49.1927
4.39598 45.3128
4.44063 53.7857
4.4853 64.0286
4.52995 52.4669
4.5746 52.8572
4.61925 54.5889
4.6639 56.592
4.70855 59.2422
4.75322 62.5925
4.79788 66.2356
4.84253 68.9919
4.88719 73.9261
4.93184 77.3761
4.97652 84.142
5.02118 90.2841
5.06583 99.0232
5.11049 113.091
5.15515 183.251
5.19981 481.78
5.24449 3326.25
5.28916 11262.3
5.33382 3541.29
5.37848 224.798
5.42315 139.545
5.46783 121.362
5.5125 110.761
5.55716 106.578
5.60183 102.302
5.6465 100.017
5.69117 97.7918
5.73586 95.8462
5.78053 96.3403
5.8252 96.2799
5.86988 96.6492
5.91455 99.6952
5.95924 110.951
6.00392 261.896
6.0486 1161.01
6.09328 4019.77
6.13795 3513.35
6.18263 310.067
6.22733 101.0
6.27201 86.6924
6.3167 101.694
6.36138 81.5906
6.40606 71.3104
6.45075 69.3337
6.49545 67.2154
6.54014 65.8008
6.58483 64.6924
6.62952 64.5162
6.67421 91.5536
6.71892 132.644
6.76361 68.6757
6.8083 60.3524
6.853 59.2115
6.89769 58.0669
6.94239 58.2378
6.98711 56.9953
7.03181 56.8706
7.07651 56.5384
7.12121 56.1905
7.16591 56.7332
7.21063 56.9536
7.25533 70.6789
7.30004 163.759
7.34475 87.1961
7.38945 57.8098
7.43416 55.9182
7.47889 55.5496
7.5236 56.122
7.56831 57.0027
7.61303 58.2484
7.65774 58.7685
7.70247 57.8475
7.74719 57.7213
7.79191 58.1199
7.83663 58.2158
7.88135 59.4467
7.92607 60.1539
7.97081 61.5861
8.01553 62.4617
8.06026 64.0577
8.10498 65.5578
8.14971 74.4964
8.19446 73.6854
8.23919 71.6742
8.28392 74.0216
8.32865 76.5298
8.37339 80.9572
8.41812 88.09
8.46288 116.512
8.50761 189.938
8.55235 454.491
8.59709 1176.5
8.64183 2078.45
8.68658 1159.42
8.73134 196.945
8.77609 104.998
8.82083 96.4628
8.86558 93.091
8.91033 93.0678
8.9551 93.4633
8.99985 87.7068
9.04461 86.0996
9.08936 85.3196
9.13412 84.4524
9.17888 84.3886
9.22365 85.0722
9.26841 84.2218
9.31318 85.4187
9.35794 85.5924
9.4027 85.8998
9.44749 86.3674
9.49226 87.1195
9.53703 87.8835
9.5818 90.2815
9.62657 94.4741
9.67134 100.257
9.71614 96.1672
9.76091 97.0079
9.80569 99.6602
9.85047 102.863
9.89525 125.256
9.94005 139.075
9.98484 200.561
10.0296 401.425
10.0744 843.098
10.1192 1604.11
10.164 1694.75
10.2088 514.747
10.2536 144.031
10.2984 117.652
10.3432 117.593
10.388 108.586
10.4328 127.419
10.4776 177.286
10.5224 290.859
10.5672 480.499
10.612 517.106
10.6568 227.893
10.7017 102.409
10.7465 89.5543
10.7913 85.8699
10.8361 83.4299
10.8809 81.1944
10.9257 80.5113
10.9706 80.9681
11.0154 76.8454
11.0602 74.776
11.105 73.9743
11.1499 77.4946
11.1947 83.1861
11.2395 75.2351
11.2844 71.8856
11.3292 69.0597
11.374 67.8019
11.4189 67.7158
11.4637 66.8427
11.5086 66.7581
11.5534 69.6292
11.5983 66.8989
11.6431 65.379
11.688 64.7693
11.7328 64.7261
11.7777 64.6228
11.8225 64.2407
11.8674 64.0747
11.9122 64.5912
11.9571 64.7682
12.002 65.7572
12.0468 71.0772
12.0917 84.3393
12.1366 107.177
12.1814 150.375
12.2263 197.212
12.2712 176.166
12.3161 105.514
12.3609 72.2657
12.4058 66.5297
12.4507 66.1588
12.4956 66.2173
12.5405 66.4403
12.5853 67.2714
12.6302 74.3223
12.6751 78.9064
12.72 71.1314
12.7649 69.4913
12.8098 70.3483
12.8547 71.7527
12.8996 73.1982
12.9445 74.4662
12.9894 76.397
13.0343 78.1547
13.0792 81.6006
13.1242 93.4065
13.1691 121.104
13.214 160.193
13.2589 241.435
13.3038 350.215
13.3487 420.691
13.3937 295.742
13.4386 140.712
13.4835 113.552
13.5285 130.789
13.5734 166.908
13.6183 242.881
13.6633 327.239
13.7082 342.669
13.7531 210.124
13.7981 106.521
13.843 84.8741
13.888 82.2209
13.9329 79.675
13.9779 78.0509
14.0228 76.532
14.0678 75.0487
14.1127 74.3906
14.1577 74.4167
14.2027 73.3842
14.2476 72.2588
14.2926 72.5334
14.3376 73.5282
14.3825 72.1544
14.4275 70.9999
14.4725 70.7903
14.5175 70.7252
14.5624 71.0316
14.6074 72.9207
14.6524 73.3658
14.6974 72.7407
14.7424 74.758
14.7874 82.8928
14.8324 94.862
14.8774 115.815
14.9224 153.345
14.9674 197.854
15.0124 214.453
15.0574 160.85
15.1024 98.4367
15.1474 75.5309
15.1924 72.8495
15.2374 73.092
15.2824 72.1658
15.3274 69.7819
15.3725 68.7303
15.4175 68.3253
15.4625 68.031
15.5076 68.0482
15.5526 67.9974
15.5976 67.6323
15.6426 69.1965
15.6877 76.0305
15.7327 84.9801
15.7778 99.5756
15.8228 127.401
15.8679 164.523
15.9129 188.66
15.958 166.298
16.003 105.626
16.0481 72.328
16.0931 66.594
16.1382 64.1936
16.1833 62.1353
16.2283 60.7036
16.2734 59.9962
16.3185 60.2233
16.3636 60.7376
16.4086 59.1029
16.4537 57.869
16.4988 57.015
16.5439 57.2449
16.589 56.6509
16.6341 56.6073
16.6792 56.1152
16.7243 56.3733
16.7694 56.387
16.8145 56.3951
16.8596 56.8564
16.9047 58.1235
16.9498 58.1657
16.9949 57.1654
17.04 57.4206
17.0851 58.8571
17.1302 60.8213
17.1754 63.8146
17.2205 68.4503
17.2656 74.9898
17.3108 81.9975
17.3559 83.4241
17.401 74.2587
17.4462 64.8783
17.4913 61.2734
17.5365 60.7572
17.5815 60.8076
17.6268 61.1794
17.6718 62.1537
17.7171 62.6008
17.7622 63.0194
17.8074 63.7904
17.8525 66.5524
17.8977 71.3308
17.9428 77.5246
17.9881 85.94
18.0331 100.928
18.0784 118.813
18.1237 136.089
18.1688 136.122
18.214 112.316
18.2591 91.3745
18.3044 91.8668
18.3495 98.85
18.3948 105.021
18.4399 99.2301
18.4852 82.1618
18.5303 68.9223
18.5756 64.2338
18.6207 63.0141
18.666 62.0725
18.7112 61.5759
18.7565 60.8047
18.8016 60.2457
18.8469 59.714
18.892 59.4907
18.9374 58.7726
18.9825 58.566
19.0278 58.5112
19.073 58.7897
19.1183 59.4423
19.1635 60.3389
19.2088 61.7497
19.254 63.8462
19.2993 67.8074
19.3447 72.4226
19.3898 76.4421
19.4352 74.6542
19.4804 66.4764
19.5257 59.0127
19.5709 55.988
19.6163 55.4578
19.6615 55.3426
19.7068 54.6728
19.752 54.9379
19.7974 55.1542
19.8426 56.1836
19.888 56.8522
19.9332 58.0207
19.9786 60.5175
20.0238 63.596
20.0692 67.6812
20.1144 70.6945
20.1598 70.4214
20.205 66.5098
20.2504 63.8991
20.2957 64.6087
20.3411 66.0905
20.3863 65.6865
20.4318 60.739
20.477 55.7842
20.5224 53.3406
20.5677 52.4206
20.6131 51.6594
20.6586 51.0828
20.7038 50.9616
20.7493 50.5041
20.7945 50.3323
20.84 50.1851
20.8853 50.2175
20.9307 50.2066
20.976 49.9971
21.0215 50.0983
21.0668 50.4865
21.1122 50.9189
21.1575 51.3047
21.203 51.8899
21.2483 52.6479
21.2938 52.6998
21.3391 51.5839
21.3846 50.4158
21.4299 49.6589
21.4754 49.7077
21.5207 49.7422
21.5662 50.1567
21.6116 50.7599
21.6571 51.5603
21.7024 52.6276
21.7479 54.2469
21.7933 56.815
21.8388 59.7309
21.8843 63.1547
21.9297 65.2869
21.9752 65.2904
22.0206 61.8822
22.0661 58.4267
22.1115 57.2844
22.157 57.2212
22.2024 55.9603
22.248 53.3867
22.2933 51.6564
22.3389 50.6079
22.3843 50.3664
22.4299 50.3267
22.4753 50.2809
22.5208 50.0382
22.5662 49.9123
22.6118 50.2012
22.6572 50.4045
22.7028 50.8074
22.7483 51.4315
22.7939 51.9662
22.8393 53.3759
22.8849 55.3096
22.9303 57.0396
22.9759 58.3723
23.0214 58.6291
23.067 56.5053
23.1126 53.1529
23.1581 50.7571
23.2037 50.3175
23.2492 50.3019
23.2948 50.299
23.3403 50.6624
23.3859 51.4067
23.4314 52.2693
23.477 53.8758
23.5225 55.5529
23.5682 57.4225
23.6137 58.6171
23.6593 57.2996
23.7048 53.5952
23.7505 50.267
23.796 48.1524
23.8417 47.576
23.8872 47.0008
23.9329 46.6923
23.9784 46.3432
24.0241 45.9462
24.0697 45.7857
24.1154 45.4015
24.1609 45.1853
24.2066 44.9058
24.2522 44.8446
24.2979 44.7921
24.3434 44.4818
24.3892 44.4045
24.4349 44.2909
24.4805 44.1212
24.5262 44.2481
24.5718 44.0659
24.6175 44.272
24.6631 44.2332
24.7089 43.7819
24.7545 43.6582
24.8002 43.4487
24.8458 43.4468
24.8916 43.2765
24.9372 43.3973
24.983 43.7531
25.0286 44.0621
25.0744 44.6165
25.12 44.7915
25.1658 45.382
25.2114 45.7982
25.2572 46.0517
25.3029 45.9779
25.3487 45.8345
25.3943 45.7092
25.4402 45.0054
25.4858 43.9584
25.5316 42.9076
25.5773 42.0839
25.6231 42.0954
25.669 41.6754
25.7147 41.7219
25.7605 41.5166
25.8062 41.6225
25.8521 41.7152
25.8977 41.7412
25.9436 41.94
25.9893 41.9993
26.0352 42.3329
26.0809 42.5783
26.1268 42.7777
26.1725 42.587
26.2184 42.0542
26.2641 41.5332
26.31 41.3049
26.3557 41.3091
26.4017 41.2227
26.4474 41.71
26.4933 41.9674
26.5391 42.3333
26.585 42.7215
26.6308 43.0737
26.6767 43.086
26.7225 43.1992
26.7684 42.7076
26.8142 42.1081
26.8601 41.5984
26.9059 41.1257
26.9519 40.7795
26.9979 40.3987
27.0437 40.052
27.0896 39.9108
27.1354 39.9391
27.1814 39.6558
27.2272 39.5541
27.2732 39.7054
27.3191 39.3548
27.3651 39.616
27.4109 39.5299
27.4569 39.5792
27.5027 39.6591
27.5488 39.6759
27.5946 39.3921
27.6407 39.303
27.6865 39.2243
27.7326 39.0224
27.7784 39.0533
27.8245 38.912
27.8703 38.9788
27.9164 39.4611
27.9623 39.2975
28.0084 39.526
28.0543 39.9265
28.1003 39.9815
28.1462 40.0483
28.1923 39.4865
28.2384 38.9721
28.2843 38.6678
28.3304 38.3843
28.3764 37.7996
28.4225 37.4949
28.4684 37.3115
28.5145 37.0213
28.5605 36.9532
28.6066 36.595
28.6526 36.5863
28.6987 36.5722
28.7447 36.4746
28.7908 36.4066
28.8368 36.3633
28.8829 36.4862
28.9289 36.3318
28.9751 36.2026
29.0211 35.9195
29.0673 35.6008
29.1133 35.4982
29.1595 35.4367
29.2055 35.1791
29.2517 35.313
29.2977 35.285
29.3439 35.1915
29.3899 35.09
29.4361 35.0639
29.4824 34.8531
29.5284 34.6244
29.5746 34.4693
29.6207 34.1644
29.6669 33.9545
29.713 33.923
29.7593 33.7054
29.8053 33.8122
29.8516 33.6592
29.8977 33.6982
29.9439 33.4541
29.99 33.5799
30.0363 33.2733
30.0824 33.5063
30.1287 33.3185
30.1748 33.2933
30.2211 33.2479
30.2673 33.2207
30.3136 33.3072
30.3597 33.0859
30.406 33.0609
30.4522 33.0133
30.4985 32.9958
30.5447 33.0134
30.591 33.0575
30.6372 33.0468
30.6835 32.9826
30.7297 33.1034
30.7761 32.9703
30.8224 32.8785
30.8686 32.8747
30.915 32.4878
30.9612 32.3962
31.0076 32.1522
31.0538 32.057
31.1002 32.0075
31.1464 31.8306
31.1928 31.7726
31.2391 31.9148
31.2855 31.7465
31.3317 31.8062
31.3781 31.7609
31.4244 31.79
31.4708 31.5569
31.5171 31.6356
31.5636 31.5752
31.6098 31.433
31.6563 31.1941
31.7026 31.0734
31.7491 31.0027
31.7953 31.0163
31.8418 30.9036
31.8881 30.9568
31.9346 30.9283
31.9809 30.8098
32.0275 30.7579
32.074 30.6351
32.1203 30.4115
32.1668 30.2986
32.2132 30.2068
32.2597 30.0799
32.306 30.0038
32.3526 29.8212
32.399 29.7817
32.4455 29.5662
32.4919 29.5491
32.5385 29.3487
32.5848 29.2645
32.6314 29.2876
32.6778 29.1511
32.7244 29.0713
32.7708 28.9625
32.8174 28.9443
32.8638 28.8161
32.9104 28.9537
32.9569 28.8158
33.0035 28.685
33.0499 28.6699
33.0966 28.5937
33.143 28.5691
33.1897 28.3283
33.2361 28.3012
33.2828 28.3012
33.3293 28.1637
33.3759 28.1616
33.4226 27.9551
33.4691 27.8626
33.5158 27.7192
33.5623 27.7008
33.609 27.4988
33.6555 27.4221
33.7022 27.3796
33.7487 27.2273
33.7954 27.2908
33.842 27.0502
33.8887 27.0655
33.9353 26.979
33.982 26.8291
34.0286 26.6924
34.0753 26.6999
34.1219 26.6485
34.1687 26.5641
34.2152 26.4378
34.262 26.3239
34.3086 26.2898
34.3554 26.2952
34.402 26.0744
34.4488 25.9596
34.4954 25.932
34.5422 25.8635
34.5889 25.7436
34.6357 25.6084
34.6825 25.6192
34.7292 25.4917
34.776 25.4341
34.8227 25.3853
34.8695 25.3202
34.9162 25.2425
34.9631 25.1976
35.0098 25.2203
35.0566 25.0212
35.1033 24.939
35.1502 24.9686
35.1969 24.8855
35.2438 24.8478
35.2906 24.7763
35.3375 24.7259
35.3842 24.6091
35.4311 24.6749
35.4779 24.6014
35.5248 24.5102
35.5716 24.485
35.6185 24.2592
35.6653 24.2288
35.7123 24.0881
35.759 24.0627
35.806 23.9341
35.8528 23.8439
35.8998 23.818
35.9468 23.6589
35.9936 23.7311
36.0406 23.6444
36.0874 23.6017
36.1345 23.4804
36.1813 23.4133
36.2283 23.2842
36.2752 23.1829
36.3222 23.3748
36.3691 23.2132
36.4161 23.0209
36.463 23.0206
36.5101 23.033
36.557 22.9771
36.6041 22.7592
36.651 22.7858
36.6981 22.7321
36.745 22.623
36.7921 22.5396
36.839 22.4624
36.8861 22.4115
36.9331 22.3075
36.9802 22.205
37.0272 22.1793
37.0743 22.0985
37.1213 22.0529
37.1684 21.9813
37.2154 21.9848
37.2626 21.7883
37.3098 21.8333
37.3568 21.7292
37.404 21.687
37.451 21.5611
37.4982 21.5271
37.5452 21.3938
37.5924 21.3481
37.6395 21.3516
37.6867 21.2418
37.7337 21.1458
37.781 21.1221
37.8281 21.0491
37.8753 20.9507
37.9224 20.863
37.9697 20.8254
38.0168 20.7813
38.064 20.6681
38.1111 20.6259
38.1584 20.5635
38.2056 20.5302
38.2529 20.4886
38.3 20.3276
38.3473 20.3675
38.3945 20.2588
38.4418 20.246
38.489 20.1224
38.5363 20.102
38.5837 19.9628
38.6309 19.8952
38.6782 19.8796
38.7254 19.7704
38.7728 19.7658
38.82 19.6498
38.8674 19.6418
38.9146 19.5371
38.9621 19.4763
39.0093 19.4356
39.0567 19.3532
39.104 19.3059
39.1514 19.2143
39.1987 19.1826
39.2461 19.1092
39.2934 19.08
39.3409 18.9131
39.3882 18.8897
39.4356 18.8518
39.483 18.7671
39.5304 18.7138
39.5778 18.747
39.6253 18.66
39.6726 18.5491
39.7201 18.5777
39.7675 18.4727
39.815 18.3951
39.8624 18.3377
39.9099 18.2652
39.9575 18.228
40.0049 18.1764
40.0525 18.0956
40.0999 18.0102
40.1474 18.0445
40.1949 17.9073
40.2425 17.8498
40.2899 17.8459
40.3375 17.7438
40.385 17.6833
40.4326 17.6742
40.48 17.5779
40.5277 17.5771
40.5752 17.5637
40.6228 17.4041
40.6703 17.3072
40.718 17.3352
40.7655 17.2663
40.8132 17.1547
40.8607 17.2092
40.9084 17.0778
40.9559 17.0533
41.0036 17.0012
41.0512 16.9461
41.0989 16.9415
41.1465 16.8313
41.1942 16.8118
41.242 16.7336
41.2896 16.6719
41.3373 16.631
41.3849 16.5262
41.4327 16.4653
41.4803 16.4239
41.5281 16.4584
41.5758 16.282
41.6236 16.2903
41.6712 16.2306
41.7191 16.1736
41.7667 16.0805
41.8146 16.08
41.8622 15.9999
41.9101 15.9572
41.9578 15.8379
42.0057 15.7963
42.0534 15.821
42.1013 15.7413
42.149 15.6477
42.1969 15.5622
42.2446 15.6008
42.2925 15.5311
42.3403 15.4836
42.3882 15.4012
42.436 15.3818
42.4839 15.313
42.5319 15.2455
42.5797 15.284
42.6277 15.1655
42.6755 15.1375
42.7235 15.0029
42.7713 15.0246
42.8193 14.963
42.8671 14.9388
42.9152 14.8682
42.963 14.7679
43.0111 14.7952
43.0589 14.718
43.107 14.6824
43.1549 14.6098
43.2029 14.5188
43.2508 14.4826
43.2989 14.4528
43.3468 14.401
43.3949 14.379
43.4429 14.2938
43.491 14.1969
43.5389 14.2308
43.5871 14.1867
43.635 14.0804
43.6832 14.0551
43.7312 13.998
43.7793 13.9485
43.8273 13.9065
43.8755 13.8851
43.9237 13.8223
43.9717 13.7949
44.0199 13.721
44.068 13.6692
44.1162 13.6054
44.1642 13.552
44.2125 13.5419
44.2606 13.4992
44.3088 13.4291
44.3569 13.3869
44.4052 13.3595
44.4533 13.3177
44.5016 13.2093
44.5497 13.1827
44.598 13.1922
44.6461 13.1152
44.6945 13.0451
44.7426 13.0192
44.791 12.9758
44.8391 12.9352
44.8875 12.8489
44.9357 12.7996
44.984 12.7986
45.0322 12.7651
45.0806 12.6967
45.1288 12.7027
45.1773 12.6442
45.2257 12.5417
45.2739 12.4871
45.3224 12.493
45.3706 12.4319
45.4191 12.4396
45.4673 12.3506
45.5158 12.3019
45.5641 12.2676
45.6126 12.2463
45.6609 12.156
45.7094 12.0911
45.7577 12.0345
45.8063 11.9962
45.8546 12.0226
45.9031 11.9459
45.9515 11.913
46.0001 11.913
46.0484 11.8783
46.097 11.8181
46.1454 11.7635
46.194 11.7367
46.2424 11.6265
46.291 11.6097
46.3395 11.5998
46.3881 11.541
46.4365 11.5416
46.4852 11.4464
46.5337 11.4075
46.5823 11.3912
46.631 11.3135
46.6795 11.3032
46.7282 11.2251
46.7767 11.2036
46.8254 11.13
46.8739 11.1365
46.9226 11.0709
46.9712 10.9969
47.0199 10.9859
47.0685 10.9934
47.1173 10.8787
47.1658 10.8509
47.2146 10.8727
47.2632 10.7644
47.312 10.7376
47.3606 10.7379
47.4095 10.6809
47.4581 10.6311
47.5069 10.5937
47.5556 10.5471
47.6044 10.5176
47.6531 10.4375
47.702 10.4152
47.7507 10.4109
47.7996 10.3657
47.8483 10.324
47.8972 10.3343
47.9461 10.2623
47.9948 10.2112
48.0438 10.1498
48.0925 10.1865
48.1415 10.0991
48.1902 10.0704
48.2392 10.0198
48.288 10.0269
48.337 9.97099
48.3858 9.90951
48.4348 9.89209
48.4837 9.87896
48.5327 9.83936
48.5815 9.80779
48.6306 9.75562
48.6795 9.69321
48.7285 9.66009
48.7774 9.66247
48.8265 9.60524
48.8754 9.55259
48.9245 9.54905
48.9734 9.51106
49.0226 9.43296
49.0715 9.42621
49.1206 9.40428
49.1696 9.35555
49.2188 9.32288
49.2679 9.28506
49.3169 9.23437
49.3661 9.18064
49.4151 9.16543
49.4643 9.12241
49.5134 9.09534
49.5626 9.07671
49.6117 9.04541
49.6609 8.97761
49.71 8.94909
49.7592 8.92378
49.8083 8.88926
49.8576 8.87097
49.9067 8.81443
49.956 8.76559
50.0052 8.80287
50.0545 8.72713
50.1036 8.67583
50.153 8.69471
50.2022 8.65694
50.2515 8.58105
50.3007 8.53628
50.3501 8.51138
50.3993 8.48497
50.4487 8.47213
50.498 8.41409
50.5474 8.38866
50.5966 8.37943
50.6461 8.35298
50.6955 8.25493
50.7448 8.26288
50.7943 8.22918
50.8436 8.20573
50.8931 8.17874
50.9424 8.15094
50.9919 8.13282
51.0413 8.07655
51.0908 8.02073
51.1402 8.03892
51.1897 8.00687
51.2391 7.96566
51.2887 7.90168
51.3381 7.88918
51.3877 7.84258
51.4371 7.822
51.4867 7.76864
51.5362 7.76291
51.5858 7.71824
51.6353 7.65443
51.6849 7.65449
51.7344 7.64393
51.7841 7.58842
51.8336 7.56261
51.8833 7.52839
51.9328 7.47444
51.9826 7.45941
52.0323 7.42319
52.0818 7.42666
52.1316 7.33461
52.1812 7.34324
52.231 7.28742
52.2806 7.26424
52.3304 7.28206
52.38 7.22625
52.4298 7.1836
52.4794 7.16368
52.5293 7.11862
52.5789 7.10411
52.6288 7.06617
52.6785 7.03093
52.7284 7.01018
52.7781 7.01748
52.828 6.96183
52.8777 6.94186
52.9276 6.89107
52.9774 6.87537
53.0273 6.8097
53.0771 6.83235
53.1271 6.82249
53.1769 6.7533
53.2269 6.72384
53.2767 6.67867
53.3267 6.64475
53.3765 6.60742
53.4266 6.56144
53.4766 6.60981
53.5265 6.57668
53.5765 6.53393
53.6264 6.47091
53.6765 6.5255
53.7264 6.45924
53.7765 6.40878
53.8265 6.33505
53.8766 6.359
53.9266 6.30866
53.9767 6.2527
54.0267 6.2863
54.0769 6.22605
54.1269 6.22396
54.1771 6.14968
54.2271 6.15282
54.2773 6.15529
54.3274 6.09011
54.3776 5.99683
54.4277 5.97857
54.478 5.98433
54.528 5.95355
54.5783 5.88016
54.6285 5.85913
54.6788 5.81585
54.7289 5.77381
54.7792 5.72608
54.8296 5.71538
54.8798 5.6731
54.9301 5.64925
54.9803 5.57244
55.0307 5.55722
55.0809 5.51648
55.1314 5.52271
55.1816 5.41684
55.232 5.42483
55.2823 5.38669
55.3328 5.24823
55.383 5.1944
55.4335 5.22131
55.4838 5.11586
55.5344 5.08882
55.5847 5.04353
55.6352 5.02566
55.6856 4.99613
55.7361 4.92091