File: XRD/Ni3Fe_FD0307.xy
TT I
1.27165 7.49539
1.31627 7.11715
1.36089 7.40688
1.40551 6.51058
1.45013 6.44372
1.49476 6.06422
1.53938 6.01591
1.584 5.71977
1.62863 5.75013
1.67325 5.21189
1.71787 5.58647
1.7625 4.98016
1.80712 5.00967
1.85174 4.96706
1.89636 4.67612
1.94099 5.27462
1.98562 4.57703
2.03025 5.11535
2.07487 4.63006
2.11949 4.98415
2.16411 5.28892
2.20874 18.9393
2.25338 32.8445
2.298 6.57913
2.34263 5.5214
2.38725 5.8347
2.43188 5.28907
2.4765 6.16991
2.52115 5.84413
2.56577 6.48521
2.6104 6.87862
2.65503 6.36877
2.69965 7.42931
2.7443 7.03451
2.78893 7.09529
2.83356 7.7556
2.87818 8.69865
2.92281 8.72823
2.96744 9.11322
3.01209 10.5791
3.05672 11.3387
3.10135 12.679
3.14599 12.9502
3.19062 13.8429
3.23527 15.1684
3.2799 16.4791
3.32454 17.3503
3.36917 18.1845
3.4138 19.5528
3.45844 20.24
3.50309 21.4146
3.54773 22.2487
3.59237 25.1141
3.637 133.33
3.68164 81.0697
3.7263 27.5902
3.77094 26.8433
3.81558 27.7514
3.86022 28.5359
3.90486 29.5632
3.9495 30.6408
3.99416 32.0815
4.0388 33.3143
4.08344 34.8888
4.12809 36.1026
4.17273 38.6437
4.21738 47.2052
4.26204 364.091
4.30669 325.426
4.35133 53.9518
4.39598 46.5464
4.44063 59.6724
4.4853 78.6902
4.52995 53.3726
4.5746 52.99
4.61925 54.679
4.6639 56.6678
4.70855 59.6242
4.75322 62.2213
4.79788 65.3075
4.84253 68.8526
4.88719 73.3984
4.93184 77.3355
4.97652 82.6622
5.02118 90.024
5.06583 98.9197
5.11049 113.266
5.15515 219.638
5.19981 480.801
5.24449 2883.7
5.28916 11100.7
5.33382 4204.96
5.37848 254.586
5.42315 144.221
5.46783 122.703
5.5125 111.849
5.55716 106.883
5.60183 102.986
5.6465 101.04
5.69117 98.2497
5.73586 95.6936
5.78053 96.3946
5.8252 95.9548
5.86988 96.716
5.91455 99.6562
5.95924 110.428
6.00392 249.106
6.0486 1010.6
6.09328 3662.01
6.13795 3927.26
6.18263 360.415
6.22733 106.09
6.27201 89.6594
6.3167 121.755
6.36138 89.4715
6.40606 72.5214
6.45075 70.3473
6.49545 67.9688
6.54014 66.2898
6.58483 65.7798
6.62952 65.9148
6.67421 111.74
6.71892 196.871
6.76361 77.2018
6.8083 61.8212
6.853 60.0297
6.89769 59.2526
6.94239 59.0314
6.98711 58.2142
7.03181 57.2144
7.07651 57.9409
7.12121 57.58
7.16591 57.6291
7.21063 58.4159
7.25533 79.1586
7.30004 253.925
7.34475 117.019
7.38945 59.7664
7.43416 57.0402
7.47889 56.4457
7.5236 56.9699
7.56831 57.3781
7.61303 60.2938
7.65774 61.0642
7.70247 58.5553
7.74719 58.1854
7.79191 58.5821
7.83663 58.9899
7.88135 59.6052
7.92607 60.8237
7.97081 61.5371
8.01553 63.126
8.06026 64.276
8.10498 65.9574
8.14971 80.7736
8.19446 77.968
8.23919 72.1485
8.28392 74.1227
8.32865 76.5475
8.37339 80.8355
8.41812 89.4661
8.46288 132.94
8.50761 188.409
8.55235 420.34
8.59709 961.325
8.64183 2021.73
8.68658 1260.72
8.73134 223.627
8.77609 107.854
8.82083 97.4054
8.86558 93.0962
8.91033 94.368
8.9551 98.4085
8.99985 88.7742
9.04461 85.9106
9.08936 85.301
9.13412 84.7084
9.17888 84.3692
9.22365 85.9057
9.26841 84.5707
9.31318 85.3452
9.35794 85.1811
9.4027 85.7989
9.44749 85.9831
9.49226 87.2948
9.53703 87.8908
9.5818 90.1726
9.62657 96.5364
9.67134 106.712
9.71614 98.0146
9.76091 96.7475
9.80569 99.7854
9.85047 103.329
9.89525 138.925
9.94005 157.778
9.98484 194.585
10.0296 366.478
10.0744 687.148
10.1192 1457.7
10.164 1814.63
10.2088 589.661
10.2536 153.317
10.2984 123.064
10.3432 126.146
10.388 110.78
10.4328 125.038
10.4776 168.728
10.5224 249.535
10.5672 441.423
10.612 545.296
10.6568 259.82
10.7017 105.992
10.7465 90.7026
10.7913 86.3531
10.8361 83.9883
10.8809 81.8386
10.9257 81.9975
10.9706 83.8771
11.0154 78.2264
11.0602 75.4143
11.105 74.7104
11.1499 81.5096
11.1947 94.5901
11.2395 80.7554
11.2844 74.3712
11.3292 69.764
11.374 68.5787
11.4189 67.8966
11.4637 67.1102
11.5086 68.2172
11.5534 73.3848
11.5983 69.0353
11.6431 65.9549
11.688 65.1663
11.7328 65.2726
11.7777 65.0862
11.8225 64.78
11.8674 64.417
11.9122 64.9345
11.9571 64.9206
12.002 65.8316
12.0468 70.7623
12.0917 83.6021
12.1366 100.935
12.1814 134.675
12.2263 196.472
12.2712 192.609
12.3161 116.926
12.3609 78.2874
12.4058 67.8057
12.4507 66.7743
12.4956 66.8783
12.5405 67.0955
12.5853 68.3591
12.6302 80.0621
12.6751 89.1268
12.72 74.7632
12.7649 70.3966
12.8098 70.9502
12.8547 71.9302
12.8996 73.1635
12.9445 74.5832
12.9894 76.1782
13.0343 78.0945
13.0792 81.527
13.1242 92.2279
13.1691 119.778
13.214 150.801
13.2589 208.325
13.3038 319.427
13.3487 446.351
13.3937 328.2
13.4386 150.263
13.4835 113.469
13.5285 127.482
13.5734 153.702
13.6183 210.087
13.6633 311.35
13.7082 372.499
13.7531 235.976
13.7981 112.156
13.843 86.0636
13.888 82.5506
13.9329 79.8541
13.9779 78.4076
14.0228 76.6828
14.0678 75.3156
14.1127 74.9842
14.1577 75.5268
14.2027 74.157
14.2476 72.7168
14.2926 73.5928
14.3376 75.4745
14.3825 73.2085
14.4275 71.2384
14.4725 70.8925
14.5175 70.946
14.5624 71.3747
14.6074 74.5655
14.6524 75.2529
14.6974 72.9206
14.7424 74.3458
14.7874 82.1678
14.8324 92.8343
14.8774 107.715
14.9224 135.159
14.9674 185.035
15.0124 227.014
15.0574 175.495
15.1024 104.363
15.1474 76.396
15.1924 73.4201
15.2374 75.1753
15.2824 74.175
15.3274 71.1946
15.3725 69.0933
15.4175 68.7994
15.4625 68.2638
15.5076 68.8139
15.5526 68.913
15.5976 67.869
15.6426 69.3061
15.6877 75.0846
15.7327 83.3576
15.7778 94.3762
15.8228 114.437
15.8679 150.884
15.9129 194.173
15.958 182.649
16.003 117.198
16.0481 74.7915
16.0931 68.9353
16.1382 66.4321
16.1833 63.2859
16.2283 61.3527
16.2734 60.6186
16.3185 61.5438
16.3636 63.1452
16.4086 60.9417
16.4537 58.4772
16.4988 57.5133
16.5439 57.4436
16.589 57.1074
16.6341 56.9377
16.6792 56.5324
16.7243 56.8995
16.7694 57.1707
16.8145 56.8885
16.8596 57.3135
16.9047 59.7523
16.9498 60.1809
16.9949 58.0213
17.04 57.875
17.0851 59.1435
17.1302 60.9669
17.1754 63.6154
17.2205 66.8636
17.2656 72.256
17.3108 81.3865
17.3559 85.9383
17.401 77.5214
17.4462 66.1389
17.4913 61.557
17.5365 61.221
17.5815 61.2068
17.6268 61.29
17.6718 62.5078
17.7171 63.0824
17.7622 63.4473
17.8074 63.7556
17.8525 66.5819
17.8977 70.9945
17.9428 76.3777
17.9881 82.2058
18.0331 93.4487
18.0784 111.152
18.1237 137.026
18.1688 143.725
18.214 118.211
18.2591 91.7926
18.3044 88.1801
18.3495 96.1332
18.3948 108.041
18.4399 106.248
18.4852 85.8058
18.5303 70.2265
18.5756 64.957
18.6207 63.4947
18.666 62.7022
18.7112 61.7602
18.7565 61.2438
18.8016 60.7433
18.8469 60.1986
18.892 59.7781
18.9374 59.3987
18.9825 59.0849
19.0278 58.9725
19.073 59.112
19.1183 59.9016
19.1635 60.8062
19.2088 61.8257
19.254 63.12
19.2993 65.8026
19.3447 71.898
19.3898 78.4909
19.4352 77.8204
19.4804 69.0349
19.5257 60.4408
19.5709 56.4366
19.6163 55.9925
19.6615 55.7846
19.7068 55.1947
19.752 55.0661
19.7974 55.4036
19.8426 56.4683
19.888 57.2497
19.9332 57.8328
19.9786 59.6076
20.0238 62.0755
20.0692 66.4613
20.1144 71.1031
20.1598 72.1616
20.205 67.0717
20.2504 63.4328
20.2957 63.4702
20.3411 66.5024
20.3863 67.5396
20.4318 62.5737
20.477 57.05
20.5224 54.2327
20.5677 53.3771
20.6131 52.1233
20.6586 51.4662
20.7038 51.5252
20.7493 50.8641
20.7945 50.7921
20.84 50.5727
20.8853 50.3988
20.9307 50.2775
20.976 50.3519
21.0215 50.356
21.0668 50.8082
21.1122 50.9787
21.1575 51.2111
21.203 52.1939
21.2483 52.8939
21.2938 53.4471
21.3391 52.4547
21.3846 51.0394
21.4299 50.2287
21.4754 50.0995
21.5207 50.2755
21.5662 50.4861
21.6116 50.936
21.6571 51.5753
21.7024 52.5297
21.7479 53.8231
21.7933 55.841
21.8388 58.4332
21.8843 62.4027
21.9297 66.0872
21.9752 66.9459
22.0206 63.2643
22.0661 58.5887
22.1115 57.443
22.157 57.9353
22.2024 57.3801
22.248 54.4229
22.2933 52.0311
22.3389 51.1002
22.3843 51.005
22.4299 51.0204
22.4753 50.9365
22.5208 50.5016
22.5662 50.1551
22.6118 50.4596
22.6572 50.6029
22.7028 50.9657
22.7483 51.2266
22.7939 52.0017
22.8393 52.8094
22.8849 54.381
22.9303 56.3091
22.9759 58.6143
23.0214 59.7839
23.067 58.0157
23.1126 54.0562
23.1581 51.5701
23.2037 50.6715
23.2492 50.5534
23.2948 50.5429
23.3403 50.8325
23.3859 51.5478
23.4314 51.9884
23.477 53.0775
23.5225 54.7343
23.5682 57.1434
23.6137 59.6355
23.6593 59.1146
23.7048 55.1216
23.7505 51.0099
23.796 48.6554
23.8417 47.8484
23.8872 47.2162
23.9329 46.8392
23.9784 46.489
24.0241 46.2942
24.0697 46.0888
24.1154 45.6954
24.1609 45.7312
24.2066 45.3816
24.2522 45.3836
24.2979 45.0065
24.3434 45.1182
24.3892 44.7698
24.4349 44.6747
24.4805 44.4056
24.5262 44.478
24.5718 44.3588
24.6175 44.4543
24.6631 44.376
24.7089 44.1403
24.7545 43.9863
24.8002 43.7869
24.8458 43.8267
24.8916 43.5865
24.9372 43.5118
24.983 43.9448
25.0286 44.206
25.0744 44.5056
25.12 44.9686
25.1658 45.4363
25.2114 45.8259
25.2572 46.0293
25.3029 45.9856
25.3487 46.4332
25.3943 46.4174
25.4402 45.7205
25.4858 44.6328
25.5316 43.2035
25.5773 42.456
25.6231 42.2955
25.669 41.8227
25.7147 41.8478
25.7605 41.935
25.8062 41.9024
25.8521 42.0933
25.8977 42.0546
25.9436 42.0016
25.9893 42.1404
26.0352 42.5524
26.0809 42.7586
26.1268 43.1904
26.1725 42.9987
26.2184 42.5056
26.2641 41.8873
26.31 41.5052
26.3557 41.5883
26.4017 41.5861
26.4474 41.7644
26.4933 41.9808
26.5391 42.4105
26.585 42.6468
26.6308 43.14
26.6767 43.5294
26.7225 43.5357
26.7684 43.034
26.8142 42.453
26.8601 41.9641
26.9059 41.5561
26.9519 41.0788
26.9979 40.7339
27.0437 40.2206
27.0896 40.2091
27.1354 40.2137
27.1814 40.0075
27.2272 39.8742
27.2732 39.8892
27.3191 39.5853
27.3651 39.9139
27.4109 39.6486
27.4569 39.6823
27.5027 39.6955
27.5488 39.845
27.5946 39.7908
27.6407 39.6947
27.6865 39.5336
27.7326 39.1768
27.7784 39.3111
27.8245 39.0528
27.8703 39.3132
27.9164 39.4242
27.9623 39.457
28.0084 39.6715
28.0543 40.1314
28.1003 40.2485
28.1462 40.2409
28.1923 40.0564
28.2384 39.4659
28.2843 39.1615
28.3304 38.7422
28.3764 38.1214
28.4225 37.7613
28.4684 37.5504
28.5145 37.2271
28.5605 37.2393
28.6066 36.8315
28.6526 36.9404
28.6987 36.873
28.7447 36.7298
28.7908 36.6159
28.8368 36.5625
28.8829 36.6278
28.9289 36.6419
28.9751 36.5328
29.0211 36.2271
29.0673 35.8811
29.1133 35.8152
29.1595 35.5476
29.2055 35.4891
29.2517 35.5362
29.2977 35.4703
29.3439 35.3486
29.3899 35.2965
29.4361 35.3288
29.4824 35.3102
29.5284 34.9992
29.5746 34.6926
29.6207 34.4356
29.6669 34.4087
29.713 34.2196
29.7593 34.08
29.8053 34.103
29.8516 33.9119
29.8977 33.9228
29.9439 33.7176
29.99 33.7828
30.0363 33.6466
30.0824 33.4856
30.1287 33.5569
30.1748 33.5111
30.2211 33.4812
30.2673 33.3758
30.3136 33.4378
30.3597 33.433
30.406 33.2918
30.4522 33.2111
30.4985 33.1234
30.5447 33.2005
30.591 33.2105
30.6372 33.1732
30.6835 33.2437
30.7297 33.2466
30.7761 33.198
30.8224 33.1498
30.8686 33.053
30.915 32.7902
30.9612 32.6559
31.0076 32.4647
31.0538 32.2257
31.1002 32.1945
31.1464 31.9815
31.1928 32.0214
31.2391 31.9869
31.2855 31.8937
31.3317 31.8158
31.3781 31.9227
31.4244 31.9544
31.4708 31.8805
31.5171 31.9758
31.5636 31.94
31.6098 31.5742
31.6563 31.5398
31.7026 31.356
31.7491 31.1362
31.7953 31.2131
31.8418 31.1496
31.8881 31.1547
31.9346 31.0856
31.9809 31.1156
32.0275 30.9812
32.074 30.9081
32.1203 30.7191
32.1668 30.6795
32.2132 30.401
32.2597 30.2443
32.306 30.2084
32.3526 30.0149
32.399 29.907
32.4455 29.7714
32.4919 29.6664
32.5385 29.6732
32.5848 29.4473
32.6314 29.504
32.6778 29.3756
32.7244 29.2694
32.7708 29.2874
32.8174 29.2125
32.8638 28.9746
32.9104 29.0985
32.9569 28.9712
33.0035 28.9289
33.0499 28.826
33.0966 28.737
33.143 28.7186
33.1897 28.6711
33.2361 28.6436
33.2828 28.5882
33.3293 28.3578
33.3759 28.4017
33.4226 28.2063
33.4691 28.1452
33.5158 28.0712
33.5623 27.8109
33.609 27.6403
33.6555 27.6257
33.7022 27.5459
33.7487 27.3944
33.7954 27.4075
33.842 27.4125
33.8887 27.3186
33.9353 27.1264
33.982 27.1445
34.0286 26.9479
34.0753 26.9682
34.1219 26.8694
34.1687 26.7925
34.2152 26.788
34.262 26.5461
34.3086 26.3954
34.3554 26.463
34.402 26.291
34.4488 26.1691
34.4954 26.1961
34.5422 26.0782
34.5889 25.9995
34.6357 25.9011
34.6825 25.7986
34.7292 25.707
34.776 25.5978
34.8227 25.5066
34.8695 25.5639
34.9162 25.4848
34.9631 25.3187
35.0098 25.2816
35.0566 25.1604
35.1033 25.1885
35.1502 25.1594
35.1969 25.0397
35.2438 25.0579
35.2906 24.9266
35.3375 24.9
35.3842 24.8045
35.4311 24.8993
35.4779 24.7686
35.5248 24.7539
35.5716 24.6416
35.6185 24.5185
35.6653 24.4472
35.7123 24.3898
35.759 24.2712
35.806 24.2012
35.8528 24.07
35.8998 24.1238
35.9468 24.0342
35.9936 23.8913
36.0406 23.7949
36.0874 23.7209
36.1345 23.7329
36.1813 23.6365
36.2283 23.5439
36.2752 23.447
36.3222 23.4793
36.3691 23.3394
36.4161 23.2217
36.463 23.1853
36.5101 23.2047
36.557 23.1281
36.6041 22.9686
36.651 23.0194
36.6981 22.8568
36.745 22.8658
36.7921 22.7424
36.839 22.6834
36.8861 22.5743
36.9331 22.505
36.9802 22.4175
37.0272 22.4347
37.0743 22.2651
37.1213 22.2209
37.1684 22.2468
37.2154 22.1285
37.2626 22.0433
37.3098 21.9461
37.3568 21.8942
37.404 21.8736
37.451 21.755
37.4982 21.5927
37.5452 21.5757
37.5924 21.5124
37.6395 21.5952
37.6867 21.5503
37.7337 21.3676
37.781 21.286
37.8281 21.2357
37.8753 21.0856
37.9224 21.0819
37.9697 21.006
38.0168 21.0073
38.064 20.8346
38.1111 20.787
38.1584 20.734
38.2056 20.6589
38.2529 20.6378
38.3 20.5191
38.3473 20.5368
38.3945 20.3778
38.4418 20.3703
38.489 20.2821
38.5363 20.2021
38.5837 20.1291
38.6309 20.0347
38.6782 20.0641
38.7254 20.022
38.7728 19.9395
38.82 19.83
38.8674 19.8094
38.9146 19.7401
38.9621 19.6822
39.0093 19.6273
39.0567 19.577
39.104 19.5048
39.1514 19.3546
39.1987 19.3118
39.2461 19.3007
39.2934 19.2038
39.3409 19.1449
39.3882 19.0528
39.4356 18.9899
39.483 18.9878
39.5304 18.8924
39.5778 18.8651
39.6253 18.7907
39.6726 18.7439
39.7201 18.6299
39.7675 18.6566
39.815 18.589
39.8624 18.4646
39.9099 18.4939
39.9575 18.4072
40.0049 18.3744
40.0525 18.2062
40.0999 18.2203
40.1474 18.1
40.1949 18.1066
40.2425 18.0633
40.2899 17.971
40.3375 17.8981
40.385 17.8185
40.4326 17.826
40.48 17.68
40.5277 17.7447
40.5752 17.6495
40.6228 17.5783
40.6703 17.5305
40.718 17.4722
40.7655 17.4224
40.8132 17.3733
40.8607 17.2943
40.9084 17.2654
40.9559 17.1577
41.0036 17.1466
41.0512 17.1373
41.0989 17.041
41.1465 16.8832
41.1942 16.9665
41.242 16.9289
41.2896 16.7954
41.3373 16.7296
41.3849 16.7284
41.4327 16.6524
41.4803 16.5563
41.5281 16.5276
41.5758 16.4765
41.6236 16.4251
41.6712 16.3561
41.7191 16.3189
41.7667 16.2422
41.8146 16.2391
41.8622 16.143
41.9101 16.0858
41.9578 16.0213
42.0057 16.0194
42.0534 15.9334
42.1013 15.8875
42.149 15.7756
42.1969 15.787
42.2446 15.7384
42.2925 15.6378
42.3403 15.6398
42.3882 15.5542
42.436 15.5503
42.4839 15.4613
42.5319 15.4139
42.5797 15.3775
42.6277 15.3249
42.6755 15.26
42.7235 15.2081
42.7713 15.1733
42.8193 15.1253
42.8671 15.0397
42.9152 15.0031
42.963 14.939
43.0111 14.842
43.0589 14.8789
43.107 14.7339
43.1549 14.7533
43.2029 14.6424
43.2508 14.6728
43.2989 14.6119
43.3468 14.4812
43.3949 14.4177
43.4429 14.4373
43.491 14.4115
43.5389 14.3145
43.5871 14.254
43.635 14.2482
43.6832 14.1804
43.7312 14.1289
43.7793 14.0696
43.8273 14.0533
43.8755 14.0302
43.9237 13.9758
43.9717 13.9355
44.0199 13.8504
44.068 13.8228
44.1162 13.6943
44.1642 13.737
44.2125 13.6821
44.2606 13.5521
44.3088 13.5654
44.3569 13.4781
44.4052 13.4811
44.4533 13.397
44.5016 13.3923
44.5497 13.3114
44.598 13.3098
44.6461 13.2335
44.6945 13.1961
44.7426 13.1392
44.791 13.0378
44.8391 13.0728
44.8875 13.0273
44.9357 12.944
44.984 12.915
45.0322 12.8762
45.0806 12.7824
45.1288 12.7624
45.1773 12.7172
45.2257 12.7334
45.2739 12.6185
45.3224 12.595
45.3706 12.566
45.4191 12.497
45.4673 12.4929
45.5158 12.4294
45.5641 12.3805
45.6126 12.3353
45.6609 12.2569
45.7094 12.1945
45.7577 12.1971
45.8063 12.1413
45.8546 12.0939
45.9031 12.0128
45.9515 12.0111
46.0001 11.9581
46.0484 11.9975
46.097 11.8985
46.1454 11.8773
46.194 11.8219
46.2424 11.7459
46.291 11.6642
46.3395 11.6747
46.3881 11.6364
46.4365 11.6126
46.4852 11.5543
46.5337 11.4901
46.5823 11.4847
46.631 11.4023
46.6795 11.3516
46.7282 11.3472
46.7767 11.2971
46.8254 11.2482
46.8739 11.2352
46.9226 11.1747
46.9712 11.1385
47.0199 11.1175
47.0685 11.0458
47.1173 11.0335
47.1658 10.9669
47.2146 10.9439
47.2632 10.8913
47.312 10.8464
47.3606 10.8281
47.4095 10.757
47.4581 10.7497
47.5069 10.6889
47.5556 10.6527
47.6044 10.6157
47.6531 10.5753
47.702 10.5191
47.7507 10.4982
47.7996 10.433
47.8483 10.4059
47.8972 10.3852
47.9461 10.3771
47.9948 10.2897
48.0438 10.2605
48.0925 10.2804
48.1415 10.2053
48.1902 10.1528
48.2392 10.12
48.288 10.0787
48.337 10.0462
48.3858 10.029
48.4348 9.98637
48.4837 9.96621
48.5327 9.92518
48.5815 9.86192
48.6306 9.84465
48.6795 9.84311
48.7285 9.75449
48.7774 9.71147
48.8265 9.70777
48.8754 9.62177
48.9245 9.64847
48.9734 9.61712
49.0226 9.57288
49.0715 9.51813
49.1206 9.49376
49.1696 9.4187
49.2188 9.43014
49.2679 9.36201
49.3169 9.3317
49.3661 9.33087
49.4151 9.24485
49.4643 9.2116
49.5134 9.19376
49.5626 9.14612
49.6117 9.13555
49.6609 9.09589
49.71 9.02774
49.7592 9.01484
49.8083 8.97377
49.8576 8.97039
49.9067 8.88557
49.956 8.86929
50.0052 8.81809
50.0545 8.80339
50.1036 8.76101
50.153 8.73705
50.2022 8.71192
50.2515 8.65824
50.3007 8.61124
50.3501 8.57426
50.3993 8.55293
50.4487 8.52493
50.498 8.54955
50.5474 8.45086
50.5966 8.40786
50.6461 8.39163
50.6955 8.35614
50.7448 8.34343
50.7943 8.30019
50.8436 8.24997
50.8931 8.23364
50.9424 8.17681
50.9919 8.18819
51.0413 8.16517
51.0908 8.11306
51.1402 8.07857
51.1897 8.0161
51.2391 8.03059
51.2887 7.94443
51.3381 7.93573
51.3877 7.93671
51.4371 7.87241
51.4867 7.85654
51.5362 7.81215
51.5858 7.77268
51.6353 7.75584
51.6849 7.75195
51.7344 7.71715
51.7841 7.69406
51.8336 7.63108
51.8833 7.58019
51.9328 7.55746
51.9826 7.52456
52.0323 7.53508
52.0818 7.49065
52.1316 7.4462
52.1812 7.42453
52.231 7.39928
52.2806 7.36059
52.3304 7.28578
52.38 7.27836
52.4298 7.27577
52.4794 7.24872
52.5293 7.19939
52.5789 7.13792
52.6288 7.13777
52.6785 7.09573
52.7284 7.1219
52.7781 7.06437
52.828 7.02339
52.8777 6.9876
52.9276 6.96563
52.9774 6.92668
53.0273 6.86689
53.0771 6.88631
53.1271 6.85865
53.1769 6.78881
53.2269 6.78385
53.2767 6.77894
53.3267 6.73475
53.3765 6.70622
53.4266 6.68649
53.4766 6.63971
53.5265 6.57857
53.5765 6.59044
53.6264 6.57844
53.6765 6.53922
53.7264 6.51777
53.7765 6.46778
53.8265 6.48001
53.8766 6.39788
53.9266 6.36162
53.9767 6.39838
54.0267 6.29972
54.0769 6.28449
54.1269 6.28182
54.1771 6.24232
54.2271 6.22239
54.2773 6.16532
54.3274 6.1545
54.3776 6.13321
54.4277 6.0584
54.478 6.02761
54.528 6.01885
54.5783 5.9667
54.6285 5.91991
54.6788 5.91189
54.7289 5.82212
54.7792 5.81771
54.8296 5.73763
54.8798 5.69351
54.9301 5.6739
54.9803 5.62801
55.0307 5.66005
55.0809 5.61444
55.1314 5.6056
55.1816 5.43543
55.232 5.43772
55.2823 5.38436
55.3328 5.27211
55.383 5.28901
55.4335 5.2137
55.4838 5.1931
55.5344 5.13403
55.5847 5.0874
55.6352 5.02381
55.6856 5.00423
55.7361 4.98532