File: XRD/Ni3Fe_FD0622.xy
TT I
1.27165 7.40796
1.31627 6.6735
1.36089 7.00031
1.40551 6.35895
1.45013 6.38455
1.49476 5.76127
1.53938 6.3222
1.584 5.12498
1.62863 5.05036
1.67325 5.27247
1.71787 5.08579
1.7625 4.81726
1.80712 4.43067
1.85174 5.07894
1.89636 5.07572
1.94099 5.02765
1.98562 4.16399
2.03025 4.45628
2.07487 4.94475
2.11949 4.90122
2.16411 4.65367
2.20874 14.2337
2.25338 23.2396
2.298 6.20188
2.34263 5.14689
2.38725 5.77423
2.43188 5.90301
2.4765 7.29735
2.52115 6.93031
2.56577 7.76675
2.6104 8.20067
2.65503 8.11519
2.69965 8.00412
2.7443 8.20841
2.78893 8.60211
2.83356 8.23802
2.87818 9.0777
2.92281 9.4288
2.96744 9.64061
3.01209 9.72698
3.05672 11.2464
3.10135 12.6037
3.14599 12.9945
3.19062 14.1909
3.23527 14.9407
3.2799 16.0581
3.32454 17.0267
3.36917 17.9026
3.4138 19.7565
3.45844 19.5229
3.50309 21.1208
3.54773 22.1757
3.59237 24.1351
3.637 93.9361
3.68164 59.8197
3.7263 26.798
3.77094 26.4096
3.81558 27.1591
3.86022 27.5512
3.90486 29.0846
3.9495 29.9942
3.99416 30.9333
4.0388 32.3084
4.08344 33.8045
4.12809 35.0134
4.17273 37.59
4.21738 43.3847
4.26204 248.19
4.30669 218.373
4.35133 49.1605
4.39598 44.6955
4.44063 54.9008
4.4853 65.4292
4.52995 50.435
4.5746 50.9821
4.61925 53.3205
4.6639 55.7933
4.70855 58.293
4.75322 60.5932
4.79788 64.4036
4.84253 67.2732
4.88719 71.4584
4.93184 74.9877
4.97652 80.2521
5.02118 87.0973
5.06583 94.7301
5.11049 105.771
5.15515 174.689
5.19981 348.405
5.24449 2839.48
5.28916 12670.0
5.33382 3001.2
5.37848 195.9
5.42315 130.154
5.46783 114.108
5.5125 106.826
5.55716 102.689
5.60183 99.1059
5.6465 97.1186
5.69117 94.6224
5.73586 92.3121
5.78053 92.1031
5.8252 91.1988
5.86988 91.9877
5.91455 94.2316
5.95924 101.932
6.00392 202.339
6.0486 967.74
6.09328 4378.5
6.13795 3518.48
6.18263 257.432
6.22733 94.6573
6.27201 83.7606
6.3167 102.996
6.36138 80.8318
6.40606 69.0403
6.45075 67.4669
6.49545 65.7619
6.54014 64.1922
6.58483 63.315
6.62952 63.2564
6.67421 95.1882
6.71892 145.653
6.76361 69.2585
6.8083 58.8675
6.853 57.6359
6.89769 57.2905
6.94239 56.6003
6.98711 56.1209
7.03181 56.0605
7.07651 55.6157
7.12121 55.3422
7.16591 55.6884
7.21063 55.82
7.25533 70.7297
7.30004 181.573
7.34475 92.6096
7.38945 56.9896
7.43416 55.1022
7.47889 54.5893
7.5236 55.096
7.56831 55.7392
7.61303 57.3774
7.65774 57.7632
7.70247 56.3356
7.74719 56.5375
7.79191 57.1254
7.83663 57.0674
7.88135 58.1088
7.92607 58.9307
7.97081 60.0033
8.01553 60.8596
8.06026 62.187
8.10498 64.1276
8.14971 73.847
8.19446 72.6966
8.23919 70.2454
8.28392 72.0619
8.32865 74.3292
8.37339 78.5077
8.41812 85.346
8.46288 114.385
8.50761 161.255
8.55235 383.612
8.59709 1168.75
8.64183 2186.27
8.68658 1000.93
8.73134 170.818
8.77609 100.51
8.82083 93.2869
8.86558 90.0635
8.91033 89.9137
8.9551 91.6904
8.99985 85.8654
9.04461 83.6776
9.08936 83.0594
9.13412 82.0662
9.17888 82.346
9.22365 83.0573
9.26841 82.3244
9.31318 82.8588
9.35794 82.9399
9.4027 83.1906
9.44749 84.3928
9.49226 85.059
9.53703 85.787
9.5818 87.525
9.62657 92.3624
9.67134 99.1715
9.71614 94.0976
9.76091 94.4135
9.80569 96.3247
9.85047 100.299
9.89525 124.517
9.94005 136.385
9.98484 172.775
10.0296 337.327
10.0744 807.667
10.1192 1703.81
10.164 1603.85
10.2088 426.305
10.2536 128.956
10.2984 114.334
10.3432 115.708
10.388 105.036
10.4328 117.03
10.4776 159.581
10.5224 279.459
10.5672 503.928
10.612 499.773
10.6568 209.13
10.7017 97.8722
10.7465 87.111
10.7913 83.6327
10.8361 81.5257
10.8809 79.3946
10.9257 78.6579
10.9706 79.4729
11.0154 75.0492
11.0602 72.8766
11.105 72.0197
11.1499 76.4284
11.1947 83.7544
11.2395 74.9664
11.2844 70.7778
11.3292 67.6527
11.374 66.3895
11.4189 65.7732
11.4637 65.1596
11.5086 65.9337
11.5534 68.5261
11.5983 65.8733
11.6431 63.6344
11.688 63.2687
11.7328 62.9409
11.7777 63.0349
11.8225 62.6184
11.8674 62.7086
11.9122 63.2709
11.9571 63.2909
12.002 64.035
12.0468 67.4214
12.0917 78.7939
12.1366 102.681
12.1814 152.117
12.2263 200.208
12.2712 167.895
12.3161 99.592
12.3609 71.2588
12.4058 65.1963
12.4507 64.7108
12.4956 64.5302
12.5405 64.9298
12.5853 65.8951
12.6302 73.4986
12.6751 79.4061
12.72 70.2008
12.7649 68.0326
12.8098 68.6156
12.8547 70.0279
12.8996 71.1119
12.9445 72.4161
12.9894 74.3194
13.0343 76.0958
13.0792 78.9455
13.1242 87.6201
13.1691 110.982
13.214 147.895
13.2589 236.827
13.3038 367.445
13.3487 426.578
13.3937 273.815
13.4386 129.222
13.4835 105.572
13.5285 119.76
13.5734 158.158
13.6183 246.966
13.6633 347.007
13.7082 345.597
13.7531 194.708
13.7981 100.316
13.843 82.4702
13.888 79.8366
13.9329 77.5416
13.9779 76.1323
14.0228 74.4122
14.0678 73.315
14.1127 72.9589
14.1577 72.8005
14.2027 71.8836
14.2476 70.8323
14.2926 70.8471
14.3376 71.8614
14.3825 70.4842
14.4275 69.1985
14.4725 68.9934
14.5175 68.8096
14.5624 69.361
14.6074 71.3443
14.6524 72.1327
14.6974 70.7687
14.7424 71.7091
14.7874 78.0984
14.8324 88.6362
14.8774 110.592
14.9224 153.408
14.9674 205.574
15.0124 216.273
15.0574 152.053
15.1024 93.0549
15.1474 73.0862
15.1924 71.0336
15.2374 71.5529
15.2824 70.8373
15.3274 68.5885
15.3725 67.1383
15.4175 66.7775
15.4625 66.406
15.5076 66.7149
15.5526 66.3996
15.5976 66.2081
15.6426 66.9514
15.6877 71.8455
15.7327 79.6001
15.7778 94.7641
15.8228 125.834
15.8679 168.299
15.9129 192.01
15.958 157.011
16.003 99.1854
16.0481 69.1344
16.0931 65.2813
16.1382 63.112
16.1833 61.0141
16.2283 59.2645
16.2734 58.691
16.3185 58.98
16.3636 59.6424
16.4086 58.0689
16.4537 56.5129
16.4988 55.8655
16.5439 55.9363
16.589 55.32
16.6341 55.2681
16.6792 54.8265
16.7243 55.1162
16.7694 55.089
16.8145 55.1414
16.8596 55.4416
16.9047 57.1585
16.9498 57.3444
16.9949 56.0828
17.04 55.9698
17.0851 57.2678
17.1302 58.8665
17.1754 61.9437
17.2205 67.1159
17.2656 74.744
17.3108 82.683
17.3559 82.8569
17.401 73.1163
17.4462 63.0786
17.4913 59.6584
17.5365 59.3395
17.5815 59.5561
17.6268 59.9161
17.6718 60.7598
17.7171 61.2362
17.7622 61.6056
17.8074 62.0667
17.8525 64.0248
17.8977 68.2457
17.9428 73.8259
17.9881 82.6494
18.0331 100.006
18.0784 121.144
18.1237 138.72
18.1688 132.381
18.214 105.433
18.2591 87.6582
18.3044 90.8539
18.3495 100.105
18.3948 106.028
18.4399 97.3475
18.4852 78.8648
18.5303 66.7346
18.5756 62.5369
18.6207 61.7702
18.666 60.7405
18.7112 60.0921
18.7565 59.2239
18.8016 58.9023
18.8469 58.2732
18.892 58.0393
18.9374 57.4411
18.9825 57.2587
19.0278 57.3577
19.073 57.3025
19.1183 57.5462
19.1635 58.3943
19.2088 59.9813
19.254 62.1835
19.2993 66.6768
19.3447 72.9321
19.3898 76.6135
19.4352 72.7522
19.4804 64.1299
19.5257 57.382
19.5709 54.697
19.6163 54.2713
19.6615 54.0635
19.7068 53.6229
19.752 53.5723
19.7974 53.9041
19.8426 54.6586
19.888 55.255
19.9332 56.3698
19.9786 59.0537
20.0238 62.4485
20.0692 67.1336
20.1144 69.8561
20.1598 68.4604
20.205 64.1456
20.2504 62.9158
20.2957 64.1548
20.3411 65.6515
20.3863 64.4136
20.4318 59.0375
20.477 54.1894
20.5224 52.0412
20.5677 51.4425
20.6131 50.5027
20.6586 49.811
20.7038 49.6805
20.7493 49.2195
20.7945 49.3385
20.84 49.0154
20.8853 49.0223
20.9307 48.82
20.976 48.9379
21.0215 48.8771
21.0668 49.3969
21.1122 49.7525
21.1575 50.2684
21.203 51.0585
21.2483 51.53
21.2938 51.6693
21.3391 50.4278
21.3846 49.2094
21.4299 48.6169
21.4754 48.6545
21.5207 48.7856
21.5662 49.0445
21.6116 49.5052
21.6571 49.9811
21.7024 51.009
21.7479 52.8095
21.7933 55.401
21.8388 59.1399
21.8843 62.7805
21.9297 64.6437
21.9752 63.5764
22.0206 60.253
22.0661 57.0773
22.1115 56.4249
22.157 56.0515
22.2024 54.6236
22.248 51.7482
22.2933 50.2545
22.3389 49.4499
22.3843 49.3568
22.4299 49.2247
22.4753 49.2879
22.5208 48.964
22.5662 48.7459
22.6118 48.8783
22.6572 49.2072
22.7028 49.3645
22.7483 49.7609
22.7939 50.509
22.8393 52.1504
22.8849 54.2393
22.9303 56.217
22.9759 57.83
23.0214 57.6295
23.067 55.1572
23.1126 51.6353
23.1581 49.5155
23.2037 49.0355
23.2492 48.9527
23.2948 49.076
23.3403 49.2236
23.3859 49.9635
23.4314 50.9409
23.477 52.6813
23.5225 54.984
23.5682 56.9861
23.6137 57.9991
23.6593 56.1084
23.7048 52.269
23.7505 48.7334
23.796 46.9456
23.8417 46.2648
23.8872 45.835
23.9329 45.3788
23.9784 45.1715
24.0241 44.8614
24.0697 44.8313
24.1154 44.2929
24.1609 44.2759
24.2066 44.0576
24.2522 44.0271
24.2979 43.5706
24.3434 43.706
24.3892 43.4379
24.4349 43.4811
24.4805 43.1754
24.5262 43.2659
24.5718 43.0973
24.6175 43.1781
24.6631 43.0969
24.7089 42.7098
24.7545 42.5588
24.8002 42.4499
24.8458 42.5288
24.8916 42.3054
24.9372 42.3658
24.983 42.7869
25.0286 42.9805
25.0744 43.5111
25.12 43.8576
25.1658 44.5253
25.2114 44.8271
25.2572 45.035
25.3029 45.113
25.3487 45.2337
25.3943 44.8789
25.4402 43.8074
25.4858 42.6856
25.5316 41.7963
25.5773 41.1799
25.6231 41.1981
25.669 40.7431
25.7147 40.6715
25.7605 40.696
25.8062 40.766
25.8521 40.8383
25.8977 40.8541
25.9436 41.0322
25.9893 41.2389
26.0352 41.6529
26.0809 41.7969
26.1268 42.0697
26.1725 41.5659
26.2184 41.0498
26.2641 40.6274
26.31 40.2555
26.3557 40.3541
26.4017 40.279
26.4474 40.672
26.4933 40.9212
26.5391 41.5355
26.585 41.8776
26.6308 42.2175
26.6767 42.378
26.7225 42.2208
26.7684 41.6897
26.8142 41.0645
26.8601 40.6609
26.9059 40.3199
26.9519 39.8168
26.9979 39.4261
27.0437 39.0268
27.0896 39.0202
27.1354 38.9635
27.1814 38.7838
27.2272 38.773
27.2732 38.9862
27.3191 38.4301
27.3651 38.7379
27.4109 38.5009
27.4569 38.7778
27.5027 38.7414
27.5488 38.7515
27.5946 38.6133
27.6407 38.353
27.6865 38.2599
27.7326 38.0606
27.7784 38.0994
27.8245 38.0153
27.8703 38.2258
27.9164 38.4824
27.9623 38.5994
28.0084 38.9268
28.0543 39.317
28.1003 39.1856
28.1462 39.0506
28.1923 38.6811
28.2384 38.2238
28.2843 37.8273
28.3304 37.5165
28.3764 36.927
28.4225 36.7143
28.4684 36.4711
28.5145 36.1686
28.5605 36.11
28.6066 35.8841
28.6526 35.8096
28.6987 35.683
28.7447 35.6938
28.7908 35.5801
28.8368 35.6653
28.8829 35.5867
28.9289 35.6293
28.9751 35.2182
29.0211 35.0315
29.0673 34.8142
29.1133 34.7724
29.1595 34.5935
29.2055 34.4922
29.2517 34.5618
29.2977 34.4199
29.3439 34.5228
29.3899 34.4221
29.4361 34.3248
29.4824 34.1567
29.5284 33.9228
29.5746 33.6299
29.6207 33.3459
29.6669 33.3213
29.713 33.2135
29.7593 33.054
29.8053 33.0608
29.8516 32.9786
29.8977 32.8841
29.9439 32.8397
29.99 32.7586
30.0363 32.5433
30.0824 32.6842
30.1287 32.5408
30.1748 32.5578
30.2211 32.6529
30.2673 32.4164
30.3136 32.5782
30.3597 32.4069
30.406 32.2115
30.4522 32.2195
30.4985 32.2699
30.5447 32.3845
30.591 32.2178
30.6372 32.3377
30.6835 32.3498
30.7297 32.3487
30.7761 32.2854
30.8224 32.1589
30.8686 32.0836
30.915 31.6923
30.9612 31.654
31.0076 31.4723
31.0538 31.3696
31.1002 31.3123
31.1464 31.236
31.1928 31.1482
31.2391 31.2375
31.2855 31.0722
31.3317 31.0721
31.3781 31.1598
31.4244 31.0201
31.4708 31.0358
31.5171 30.906
31.5636 30.8636
31.6098 30.6555
31.6563 30.5822
31.7026 30.4339
31.7491 30.4479
31.7953 30.2689
31.8418 30.3147
31.8881 30.2704
31.9346 30.1885
31.9809 30.1814
32.0275 30.0732
32.074 30.0145
32.1203 29.7827
32.1668 29.7735
32.2132 29.5136
32.2597 29.3964
32.306 29.2806
32.3526 29.0361
32.399 29.0988
32.4455 28.9279
32.4919 28.9133
32.5385 28.8274
32.5848 28.647
32.6314 28.6045
32.6778 28.6097
32.7244 28.4637
32.7708 28.3072
32.8174 28.3152
32.8638 28.2373
32.9104 28.2308
32.9569 28.2144
33.0035 27.99
33.0499 28.0281
33.0966 27.9379
33.143 27.8752
33.1897 27.8568
33.2361 27.7933
33.2828 27.7442
33.3293 27.5288
33.3759 27.5852
33.4226 27.3821
33.4691 27.309
33.5158 27.1967
33.5623 27.0423
33.609 26.9562
33.6555 26.785
33.7022 26.6209
33.7487 26.6117
33.7954 26.6476
33.842 26.5925
33.8887 26.4461
33.9353 26.4826
33.982 26.2959
34.0286 26.2722
34.0753 26.1981
34.1219 26.033
34.1687 25.9991
34.2152 25.9475
34.262 25.8076
34.3086 25.7426
34.3554 25.6774
34.402 25.5649
34.4488 25.5114
34.4954 25.4027
34.5422 25.3439
34.5889 25.1911
34.6357 25.092
34.6825 25.0917
34.7292 25.0407
34.776 24.9169
34.8227 24.8448
34.8695 24.8351
34.9162 24.7409
34.9631 24.5818
35.0098 24.6174
35.0566 24.5606
35.1033 24.4136
35.1502 24.4042
35.1969 24.3672
35.2438 24.2283
35.2906 24.2906
35.3375 24.1879
35.3842 24.1382
35.4311 24.1715
35.4779 24.1173
35.5248 24.1078
35.5716 23.9529
35.6185 23.7977
35.6653 23.7694
35.7123 23.7328
35.759 23.5754
35.806 23.5114
35.8528 23.4632
35.8998 23.3705
35.9468 23.2304
35.9936 23.1789
36.0406 23.1069
36.0874 23.1294
36.1345 23.0272
36.1813 22.9428
36.2283 22.8246
36.2752 22.7472
36.3222 22.7714
36.3691 22.6527
36.4161 22.5819
36.463 22.6012
36.5101 22.5996
36.557 22.4761
36.6041 22.2947
36.651 22.3177
36.6981 22.2055
36.745 22.2446
36.7921 22.1382
36.839 21.947
36.8861 21.8746
36.9331 21.8348
36.9802 21.7938
37.0272 21.6633
37.0743 21.548
37.1213 21.6181
37.1684 21.5651
37.2154 21.4481
37.2626 21.4602
37.3098 21.3817
37.3568 21.2426
37.404 21.2076
37.451 21.0853
37.4982 21.1158
37.5452 20.9949
37.5924 20.8968
37.6395 20.8793
37.6867 20.8274
37.7337 20.6948
37.781 20.6996
37.8281 20.657
37.8753 20.5581
37.9224 20.49
37.9697 20.366
38.0168 20.325
38.064 20.3006
38.1111 20.1849
38.1584 20.1541
38.2056 20.1257
38.2529 20.0255
38.3 19.9395
38.3473 19.9103
38.3945 19.8064
38.4418 19.7862
38.489 19.7131
38.5363 19.5943
38.5837 19.5227
38.6309 19.5542
38.6782 19.4958
38.7254 19.3735
38.7728 19.311
38.82 19.2007
38.8674 19.1554
38.9146 19.1911
38.9621 19.0651
39.0093 19.0029
39.0567 18.9465
39.104 18.9717
39.1514 18.8203
39.1987 18.7768
39.2461 18.7391
39.2934 18.7177
39.3409 18.5383
39.3882 18.5228
39.4356 18.4728
39.483 18.4378
39.5304 18.3403
39.5778 18.3258
39.6253 18.2599
39.6726 18.1864
39.7201 18.1434
39.7675 18.1122
39.815 17.9944
39.8624 17.9605
39.9099 17.9342
39.9575 17.8663
40.0049 17.8184
40.0525 17.711
40.0999 17.675
40.1474 17.6599
40.1949 17.5942
40.2425 17.5208
40.2899 17.4748
40.3375 17.432
40.385 17.3449
40.4326 17.3194
40.48 17.1653
40.5277 17.2315
40.5752 17.1422
40.6228 17.0531
40.6703 16.9985
40.718 16.9448
40.7655 16.8641
40.8132 16.8739
40.8607 16.8389
40.9084 16.7866
40.9559 16.7177
41.0036 16.6665
41.0512 16.6367
41.0989 16.5496
41.1465 16.4971
41.1942 16.4933
41.242 16.3762
41.2896 16.3354
41.3373 16.263
41.3849 16.1997
41.4327 16.1555
41.4803 16.0805
41.5281 16.0797
41.5758 15.9413
41.6236 15.9393
41.6712 15.8719
41.7191 15.8679
41.7667 15.7784
41.8146 15.719
41.8622 15.6565
41.9101 15.6297
41.9578 15.5174
42.0057 15.525
42.0534 15.4753
42.1013 15.4017
42.149 15.4261
42.1969 15.2993
42.2446 15.2668
42.2925 15.2611
42.3403 15.1451
42.3882 15.1357
42.436 15.0536
42.4839 15.0164
42.5319 15.0052
42.5797 14.9168
42.6277 14.8303
42.6755 14.8268
42.7235 14.7233
42.7713 14.7504
42.8193 14.6618
42.8671 14.6384
42.9152 14.559
42.963 14.5348
43.0111 14.4367
43.0589 14.4106
43.107 14.3048
43.1549 14.3296
43.2029 14.2094
43.2508 14.186
43.2989 14.1329
43.3468 14.0887
43.3949 14.0649
43.4429 14.0536
43.491 13.9553
43.5389 13.9192
43.5871 13.8806
43.635 13.8193
43.6832 13.7725
43.7312 13.6995
43.7793 13.6903
43.8273 13.5765
43.8755 13.5455
43.9237 13.5635
43.9717 13.5032
44.0199 13.4706
44.068 13.467
44.1162 13.38
44.1642 13.3636
44.2125 13.252
44.2606 13.2139
44.3088 13.2025
44.3569 13.1489
44.4052 13.1001
44.4533 13.025
44.5016 12.9815
44.5497 12.9511
44.598 12.9017
44.6461 12.8184
44.6945 12.8261
44.7426 12.7278
44.791 12.6724
44.8391 12.6522
44.8875 12.6714
44.9357 12.5575
44.984 12.5495
45.0322 12.5051
45.0806 12.4422
45.1288 12.4133
45.1773 12.3561
45.2257 12.2966
45.2739 12.291
45.3224 12.2268
45.3706 12.1959
45.4191 12.123
45.4673 12.1213
45.5158 12.0433
45.5641 12.0081
45.6126 11.9439
45.6609 11.9081
45.7094 11.8653
45.7577 11.8623
45.8063 11.7854
45.8546 11.7531
45.9031 11.7189
45.9515 11.6664
46.0001 11.6445
46.0484 11.6076
46.097 11.603
46.1454 11.506
46.194 11.4531
46.2424 11.4313
46.291 11.3999
46.3395 11.3621
46.3881 11.2577
46.4365 11.2771
46.4852 11.2593
46.5337 11.1365
46.5823 11.1726
46.631 11.0684
46.6795 11.0618
46.7282 11.0239
46.7767 10.9743
46.8254 10.8952
46.8739 10.9153
46.9226 10.897
46.9712 10.8413
47.0199 10.775
47.0685 10.7016
47.1173 10.6783
47.1658 10.6411
47.2146 10.61
47.2632 10.5134
47.312 10.5631
47.3606 10.5216
47.4095 10.4591
47.4581 10.4127
47.5069 10.4086
47.5556 10.3546
47.6044 10.2766
47.6531 10.2551
47.702 10.1966
47.7507 10.1976
47.7996 10.1257
47.8483 10.135
47.8972 10.0756
47.9461 10.0137
47.9948 9.97155
48.0438 9.99848
48.0925 9.94507
48.1415 9.93039
48.1902 9.83181
48.2392 9.86807
48.288 9.82368
48.337 9.79563
48.3858 9.73378
48.4348 9.65847
48.4837 9.69664
48.5327 9.64769
48.5815 9.58463
48.6306 9.53425
48.6795 9.51415
48.7285 9.4672
48.7774 9.44441
48.8265 9.42781
48.8754 9.38616
48.9245 9.33632
48.9734 9.32408
49.0226 9.31219
49.0715 9.2483
49.1206 9.19045
49.1696 9.14539
49.2188 9.11009
49.2679 9.08034
49.3169 9.01249
49.3661 8.98842
49.4151 8.98094
49.4643 8.95912
49.5134 8.92179
49.5626 8.82279
49.6117 8.84111
49.6609 8.81429
49.71 8.76241
49.7592 8.7527
49.8083 8.71042
49.8576 8.73935
49.9067 8.63288
49.956 8.63787
50.0052 8.57192
50.0545 8.54274
50.1036 8.50548
50.153 8.48406
50.2022 8.44046
50.2515 8.41229
50.3007 8.38566
50.3501 8.32402
50.3993 8.29419
50.4487 8.26505
50.498 8.25233
50.5474 8.20987
50.5966 8.20754
50.6461 8.14425
50.6955 8.13559
50.7448 8.09093
50.7943 8.06185
50.8436 8.0517
50.8931 7.9917
50.9424 7.95743
50.9919 7.96171
51.0413 7.93945
51.0908 7.86664
51.1402 7.87625
51.1897 7.81494
51.2391 7.80633
51.2887 7.7632
51.3381 7.74512
51.3877 7.73337
51.4371 7.68512
51.4867 7.59992
51.5362 7.62057
51.5858 7.58139
51.6353 7.51721
51.6849 7.48466
51.7344 7.48683
51.7841 7.47651
51.8336 7.41097
51.8833 7.43033
51.9328 7.32961
51.9826 7.28318
52.0323 7.28422
52.0818 7.26692
52.1316 7.20993
52.1812 7.21666
52.231 7.19671
52.2806 7.16651
52.3304 7.09867
52.38 7.09552
52.4298 7.06534
52.4794 7.02315
52.5293 7.00663
52.5789 6.93863
52.6288 6.92613
52.6785 6.89173
52.7284 6.88761
52.7781 6.83812
52.828 6.78632
52.8777 6.74302
52.9276 6.75687
52.9774 6.76186
53.0273 6.71854
53.0771 6.72073
53.1271 6.6776
53.1769 6.65072
53.2269 6.58424
53.2767 6.55173
53.3267 6.57636
53.3765 6.5053
53.4266 6.50269
53.4766 6.46645
53.5265 6.3946
53.5765 6.4058
53.6264 6.37136
53.6765 6.27924
53.7264 6.32265
53.7765 6.30614
53.8265 6.26953
53.8766 6.20749
53.9266 6.17727
53.9767 6.17812
54.0267 6.15758
54.0769 6.13749
54.1269 6.06811
54.1771 6.05874
54.2271 6.0706
54.2773 5.98387
54.3274 5.94314
54.3776 5.9582
54.4277 5.92429
54.478 5.86763
54.528 5.89947
54.5783 5.78812
54.6285 5.76789
54.6788 5.71305
54.7289 5.71552
54.7792 5.67648
54.8296 5.53178
54.8798 5.52017
54.9301 5.54304
54.9803 5.43599
55.0307 5.44957
55.0809 5.38796
55.1314 5.39919
55.1816 5.29986
55.232 5.30622
55.2823 5.24673
55.3328 5.15559
55.383 5.13724
55.4335 5.07425
55.4838 5.07447
55.5344 4.97622
55.5847 4.91575
55.6352 4.93427
55.6856 4.85055
55.7361 4.88008