File: XRD/Ni3Fe_FD0919.xy
TT I
1.27165 7.45183
1.31627 6.58638
1.36089 6.16777
1.40551 5.63622
1.45013 5.65905
1.49476 5.76639
1.53938 5.8253
1.584 5.44004
1.62863 5.39555
1.67325 4.56862
1.71787 5.12854
1.7625 4.19588
1.80712 4.27869
1.85174 4.23491
1.89636 4.39107
1.94099 4.30662
1.98562 4.36223
2.03025 4.47186
2.07487 4.51349
2.11949 5.0368
2.16411 4.71057
2.20874 9.51901
2.25338 12.0002
2.298 5.86112
2.34263 6.02683
2.38725 6.04393
2.43188 6.41496
2.4765 7.18777
2.52115 7.29266
2.56577 7.6364
2.6104 7.85915
2.65503 8.34576
2.69965 8.01839
2.7443 8.75758
2.78893 8.09828
2.83356 9.49128
2.87818 9.13316
2.92281 9.33039
2.96744 9.65466
3.01209 10.7129
3.05672 11.2281
3.10135 12.0266
3.14599 12.9899
3.19062 14.7172
3.23527 15.3947
3.2799 15.5637
3.32454 16.6636
3.36917 17.5321
3.4138 18.7119
3.45844 19.7877
3.50309 20.4056
3.54773 21.2553
3.59237 23.0883
3.637 52.6494
3.68164 38.1221
3.7263 25.1442
3.77094 25.9867
3.81558 26.4497
3.86022 27.023
3.90486 28.4009
3.9495 29.1903
3.99416 30.2577
4.0388 31.7943
4.08344 33.0982
4.12809 33.951
4.17273 35.7173
4.21738 39.35
4.26204 129.981
4.30669 111.222
4.35133 44.2671
4.39598 43.1209
4.44063 48.9034
4.4853 54.6975
4.52995 55.6048
4.5746 56.8611
4.61925 53.1007
4.6639 54.8392
4.70855 57.7225
4.75322 60.3765
4.79788 67.0063
4.84253 68.0877
4.88719 73.9541
4.93184 75.9278
4.97652 79.5691
5.02118 86.1798
5.06583 93.2303
5.11049 104.51
5.15515 154.306
5.19981 362.562
5.24449 2758.81
5.28916 13640.8
5.33382 2638.03
5.37848 188.215
5.42315 128.148
5.46783 117.324
5.5125 110.709
5.55716 101.049
5.60183 96.901
5.6465 95.0771
5.69117 93.1063
5.73586 91.9688
5.78053 96.53
5.8252 96.7014
5.86988 98.9448
5.91455 93.3951
5.95924 101.685
6.00392 221.558
6.0486 934.068
6.09328 4674.48
6.13795 2986.07
6.18263 190.612
6.22733 87.9721
6.27201 78.8968
6.3167 84.8901
6.36138 73.7742
6.40606 69.069
6.45075 69.0343
6.49545 64.1907
6.54014 62.8371
6.58483 61.8233
6.62952 61.8577
6.67421 73.9138
6.71892 92.942
6.76361 62.0433
6.8083 58.723
6.853 58.8259
6.89769 56.1449
6.94239 55.5471
6.98711 55.2527
7.03181 55.3084
7.07651 54.2781
7.12121 54.4801
7.16591 55.1533
7.21063 54.4579
7.25533 60.7917
7.30004 104.869
7.34475 68.3045
7.38945 54.481
7.43416 53.2574
7.47889 52.8854
7.5236 53.7478
7.56831 54.4744
7.61303 55.1811
7.65774 55.2968
7.70247 55.8804
7.74719 55.583
7.79191 55.6136
7.83663 56.0108
7.88135 57.1616
7.92607 57.8026
7.97081 58.6927
8.01553 60.1434
8.06026 62.1358
8.10498 63.3772
8.14971 70.2497
8.19446 70.3291
8.23919 68.6037
8.28392 70.984
8.32865 73.0134
8.37339 77.0609
8.41812 82.6639
8.46288 101.445
8.50761 169.482
8.55235 366.014
8.59709 1202.26
8.64183 2282.38
8.68658 837.787
8.73134 141.142
8.77609 95.6471
8.82083 91.2365
8.86558 90.7719
8.91033 91.0212
8.9551 88.6384
8.99985 84.3925
9.04461 82.7143
9.08936 82.9192
9.13412 81.9706
9.17888 81.1992
9.22365 81.2559
9.26841 81.0901
9.31318 83.6664
9.35794 85.5104
9.4027 84.5878
9.44749 84.2016
9.49226 83.5259
9.53703 84.5659
9.5818 88.1041
9.62657 93.502
9.67134 94.5439
9.71614 92.1234
9.76091 93.5308
9.80569 98.2923
9.85047 100.109
9.89525 111.742
9.94005 125.186
9.98484 183.208
10.0296 330.815
10.0744 829.564
10.1192 1876.74
10.164 1468.42
10.2088 322.231
10.2536 118.135
10.2984 107.678
10.3432 106.84
10.388 103.275
10.4328 119.052
10.4776 157.222
10.5224 289.481
10.5672 547.09
10.612 487.32
10.6568 176.836
10.7017 91.793
10.7465 84.9394
10.7913 81.787
10.8361 79.8595
10.8809 77.5558
10.9257 77.0166
10.9706 76.9711
11.0154 74.3882
11.0602 71.8025
11.105 70.3292
11.1499 71.6469
11.1947 73.6564
11.2395 69.5512
11.2844 67.827
11.3292 65.8697
11.374 64.8592
11.4189 64.7012
11.4637 63.9499
11.5086 63.7418
11.5534 64.5858
11.5983 63.5133
11.6431 62.5493
11.688 61.7993
11.7328 61.8307
11.7777 61.6876
11.8225 61.8253
11.8674 61.5505
11.9122 61.6423
11.9571 61.9
12.002 63.222
12.0468 67.5031
12.0917 77.4022
12.1366 101.254
12.1814 158.572
12.2263 212.426
12.2712 153.589
12.3161 85.4845
12.3609 65.7787
12.4058 63.0193
12.4507 62.9565
12.4956 63.7861
12.5405 63.7918
12.5853 64.4705
12.6302 67.2963
12.6751 70.0423
12.72 67.2935
12.7649 66.5344
12.8098 67.4167
12.8547 68.7519
12.8996 70.4912
12.9445 71.9247
12.9894 73.7057
13.0343 74.7987
13.0792 78.8934
13.1242 89.9586
13.1691 108.819
13.214 145.367
13.2589 245.198
13.3038 390.976
13.3487 423.684
13.3937 229.749
13.4386 113.761
13.4835 103.976
13.5285 117.462
13.5734 157.31
13.6183 258.54
13.6633 380.307
13.7082 326.15
13.7531 165.905
13.7981 91.3124
13.843 80.3369
13.888 78.1553
13.9329 76.0492
13.9779 74.724
14.0228 73.1664
14.0678 71.9112
14.1127 71.4299
14.1577 70.8323
14.2027 70.1649
14.2476 69.3414
14.2926 69.0802
14.3376 69.2602
14.3825 68.6567
14.4275 67.8502
14.4725 67.5909
14.5175 68.0596
14.5624 67.7643
14.6074 68.8805
14.6524 69.4193
14.6974 69.3546
14.7424 72.342
14.7874 78.3104
14.8324 87.5559
14.8774 110.023
14.9224 158.465
14.9674 217.996
15.0124 214.531
15.0574 137.276
15.1024 83.6361
15.1474 70.6333
15.1924 68.9528
15.2374 68.901
15.2824 67.5929
15.3274 66.263
15.3725 65.6719
15.4175 65.1381
15.4625 64.9267
15.5076 64.7678
15.5526 64.7536
15.5976 64.6548
15.6426 67.0244
15.6877 71.4378
15.7327 78.4537
15.7778 93.9854
15.8228 128.845
15.8679 178.139
15.9129 195.379
15.958 145.268
16.003 86.6116
16.0481 64.684
16.0931 62.1442
16.1382 60.5834
16.1833 59.2414
16.2283 57.6645
16.2734 57.2572
16.3185 57.0071
16.3636 56.9237
16.4086 55.7078
16.4537 54.9251
16.4988 54.5381
16.5439 54.7333
16.589 54.103
16.6341 53.7728
16.6792 53.3382
16.7243 53.7263
16.7694 53.8508
16.8145 53.6246
16.8596 53.8928
16.9047 54.6203
16.9498 55.0155
16.9949 54.4369
17.04 54.878
17.0851 56.1816
17.1302 57.5644
17.1754 60.4975
17.2205 66.1264
17.2656 74.4934
17.3108 83.0627
17.3559 79.8206
17.401 67.4945
17.4462 60.174
17.4913 58.179
17.5365 58.2336
17.5815 58.093
17.6268 58.6236
17.6718 59.2011
17.7171 59.5237
17.7622 60.3319
17.8074 61.1556
17.8525 63.8818
17.8977 67.1313
17.9428 72.0997
17.9881 81.7529
18.0331 101.059
18.0784 125.497
18.1237 139.988
18.1688 124.708
18.214 96.0582
18.2591 83.4263
18.3044 90.8083
18.3495 102.306
18.3948 105.548
18.4399 90.3729
18.4852 72.9995
18.5303 63.7394
18.5756 60.9655
18.6207 60.0681
18.666 59.2241
18.7112 58.5917
18.7565 57.9137
18.8016 57.5513
18.8469 57.0448
18.892 56.7953
18.9374 56.3263
18.9825 55.9953
19.0278 55.8035
19.073 56.05
19.1183 56.2298
19.1635 56.9156
19.2088 58.0986
19.254 61.2277
19.2993 66.0792
19.3447 72.1051
19.3898 74.9423
19.4352 69.3936
19.4804 60.3569
19.5257 54.9517
19.5709 53.1503
19.6163 52.9502
19.6615 52.7184
19.7068 52.4434
19.752 52.4072
19.7974 52.7758
19.8426 53.424
19.888 53.9627
19.9332 55.4266
19.9786 58.1775
20.0238 62.2542
20.0692 67.6477
20.1144 69.3664
20.1598 66.4253
20.205 61.5411
20.2504 61.5224
20.2957 64.3573
20.3411 65.0736
20.3863 62.229
20.4318 55.9158
20.477 51.6005
20.5224 50.1296
20.5677 49.6898
20.6131 49.3535
20.6586 48.894
20.7038 48.5764
20.7493 48.3014
20.7945 48.2321
20.84 48.0303
20.8853 47.8277
20.9307 47.9249
20.976 47.7694
21.0215 47.8112
21.0668 48.2665
21.1122 48.6265
21.1575 49.4184
21.203 50.3122
21.2483 50.7374
21.2938 50.5088
21.3391 48.9576
21.3846 47.9321
21.4299 47.614
21.4754 47.5457
21.5207 47.8531
21.5662 48.1722
21.6116 48.4896
21.6571 49.1866
21.7024 50.1582
21.7479 51.8325
21.7933 54.9696
21.8388 58.9425
21.8843 63.1374
21.9297 64.0773
21.9752 61.2997
22.0206 57.3786
22.0661 55.3309
22.1115 55.5727
22.157 55.1735
22.2024 52.6434
22.248 50.0519
22.2933 48.8916
22.3389 48.1234
22.3843 48.0098
22.4299 47.8312
22.4753 47.9465
22.5208 47.7658
22.5662 47.7767
22.6118 47.9334
22.6572 48.1745
22.7028 48.3281
22.7483 48.9121
22.7939 49.6392
22.8393 51.1063
22.8849 53.7345
22.9303 55.9204
22.9759 57.4932
23.0214 56.2729
23.067 52.7322
23.1126 49.7443
23.1581 47.9863
23.2037 47.8992
23.2492 48.0635
23.2948 48.0423
23.3403 48.2435
23.3859 48.8788
23.4314 50.1306
23.477 52.1522
23.5225 54.661
23.5682 57.0241
23.6137 57.1193
23.6593 53.9879
23.7048 49.6595
23.7505 46.9619
23.796 45.6497
23.8417 45.3231
23.8872 44.732
23.9329 44.4597
23.9784 44.0747
24.0241 43.9076
24.0697 43.7244
24.1154 43.2958
24.1609 43.2838
24.2066 43.0845
24.2522 42.9522
24.2979 42.6848
24.3434 42.5121
24.3892 42.5031
24.4349 42.5322
24.4805 42.2483
24.5262 42.536
24.5718 42.1405
24.6175 42.2385
24.6631 41.9945
24.7089 41.692
24.7545 41.5901
24.8002 41.6258
24.8458 41.3781
24.8916 41.5007
24.9372 41.694
24.983 41.8151
25.0286 42.1244
25.0744 42.6738
25.12 43.1524
25.1658 43.7715
25.2114 43.9797
25.2572 44.0253
25.3029 44.3554
25.3487 44.3661
25.3943 43.8869
25.4402 42.3486
25.4858 41.3951
25.5316 40.5889
25.5773 40.2399
25.6231 40.2707
25.669 39.9015
25.7147 39.8187
25.7605 39.7721
25.8062 39.8908
25.8521 39.9197
25.8977 39.8591
25.9436 40.1979
25.9893 40.3748
26.0352 40.9624
26.0809 41.1173
26.1268 41.1032
26.1725 40.5224
26.2184 40.0475
26.2641 39.5145
26.31 39.4326
26.3557 39.3278
26.4017 39.4024
26.4474 39.9048
26.4933 40.1521
26.5391 40.5844
26.585 41.1836
26.6308 41.4542
26.6767 41.4968
26.7225 41.2801
26.7684 40.6074
26.8142 39.9898
26.8601 39.6826
26.9059 39.2983
26.9519 38.6607
26.9979 38.3483
27.0437 38.2007
27.0896 38.1392
27.1354 38.0929
27.1814 37.9009
27.2272 37.9519
27.2732 37.9805
27.3191 37.7085
27.3651 37.9114
27.4109 37.816
27.4569 37.8877
27.5027 38.0244
27.5488 38.0219
27.5946 37.7271
27.6407 37.4152
27.6865 37.4047
27.7326 37.0275
27.7784 37.1132
27.8245 37.1573
27.8703 37.4183
27.9164 37.612
27.9623 37.8694
28.0084 38.2008
28.0543 38.6068
28.1003 38.3596
28.1462 38.0912
28.1923 37.6614
28.2384 37.3834
28.2843 37.0198
28.3304 36.4935
28.3764 36.0104
28.4225 35.8303
28.4684 35.5125
28.5145 35.3715
28.5605 35.3042
28.6066 34.9612
28.6526 35.1262
28.6987 35.0017
28.7447 34.964
28.7908 34.7527
28.8368 34.8392
28.8829 34.8356
28.9289 34.7562
28.9751 34.5176
29.0211 34.3213
29.0673 34.0658
29.1133 33.8573
29.1595 33.8199
29.2055 33.7035
29.2517 33.7998
29.2977 33.6454
29.3439 33.7564
29.3899 33.7525
29.4361 33.6234
29.4824 33.2936
29.5284 33.246
29.5746 32.7887
29.6207 32.6473
29.6669 32.541
29.713 32.4575
29.7593 32.2419
29.8053 32.2582
29.8516 32.3312
29.8977 32.2526
29.9439 31.9651
29.99 32.083
30.0363 31.9252
30.0824 31.8859
30.1287 31.8502
30.1748 31.8867
30.2211 31.9332
30.2673 31.7437
30.3136 31.9496
30.3597 31.6744
30.406 31.6026
30.4522 31.4661
30.4985 31.4798
30.5447 31.7035
30.591 31.5187
30.6372 31.7936
30.6835 31.6654
30.7297 31.6438
30.7761 31.6259
30.8224 31.4198
30.8686 31.1996
30.915 31.0384
30.9612 30.8953
31.0076 30.766
31.0538 30.5966
31.1002 30.5424
31.1464 30.4387
31.1928 30.4083
31.2391 30.4314
31.2855 30.3811
31.3317 30.3167
31.3781 30.4197
31.4244 30.3644
31.4708 30.3949
31.5171 30.2939
31.5636 30.1817
31.6098 29.9472
31.6563 29.8926
31.7026 29.6688
31.7491 29.594
31.7953 29.7062
31.8418 29.602
31.8881 29.6988
31.9346 29.6357
31.9809 29.4798
32.0275 29.4251
32.074 29.323
32.1203 29.0248
32.1668 29.0105
32.2132 28.9142
32.2597 28.6929
32.306 28.726
32.3526 28.4549
32.399 28.4976
32.4455 28.2538
32.4919 28.1486
32.5385 28.2398
32.5848 27.9985
32.6314 27.954
32.6778 27.9433
32.7244 27.8307
32.7708 27.6263
32.8174 27.6279
32.8638 27.512
32.9104 27.6669
32.9569 27.6121
33.0035 27.3145
33.0499 27.4084
33.0966 27.4446
33.143 27.3241
33.1897 27.2621
33.2361 27.1496
33.2828 27.0802
33.3293 26.846
33.3759 26.8842
33.4226 26.7184
33.4691 26.693
33.5158 26.5476
33.5623 26.4029
33.609 26.2494
33.6555 26.2599
33.7022 26.1122
33.7487 26.1168
33.7954 26.0339
33.842 25.9479
33.8887 25.7952
33.9353 25.804
33.982 25.6676
34.0286 25.5621
34.0753 25.5246
34.1219 25.4826
34.1687 25.4443
34.2152 25.3236
34.262 25.1671
34.3086 25.1455
34.3554 25.1254
34.402 24.8847
34.4488 24.7946
34.4954 24.8415
34.5422 24.6867
34.5889 24.6639
34.6357 24.5669
34.6825 24.4512
34.7292 24.4871
34.776 24.2813
34.8227 24.2856
34.8695 24.2185
34.9162 24.0977
34.9631 24.1195
35.0098 24.1066
35.0566 23.953
35.1033 24.0043
35.1502 23.8841
35.1969 23.7766
35.2438 23.6973
35.2906 23.7337
35.3375 23.6872
35.3842 23.5857
35.4311 23.5783
35.4779 23.6091
35.5248 23.4403
35.5716 23.3884
35.6185 23.366
35.6653 23.2313
35.7123 23.1143
35.759 23.0249
35.806 22.9171
35.8528 22.8104
35.8998 22.8132
35.9468 22.7241
35.9936 22.6639
36.0406 22.6104
36.0874 22.5453
36.1345 22.4816
36.1813 22.4668
36.2283 22.235
36.2752 22.1793
36.3222 22.2745
36.3691 22.1469
36.4161 22.0442
36.463 22.0349
36.5101 22.019
36.557 21.9859
36.6041 21.8048
36.651 21.7454
36.6981 21.6916
36.745 21.7037
36.7921 21.5824
36.839 21.5153
36.8861 21.4066
36.9331 21.3918
36.9802 21.3058
37.0272 21.2276
37.0743 21.1442
37.1213 21.0692
37.1684 21.106
37.2154 20.9874
37.2626 20.8484
37.3098 20.8911
37.3568 20.7915
37.404 20.7835
37.451 20.5774
37.4982 20.5571
37.5452 20.4647
37.5924 20.4667
37.6395 20.4832
37.6867 20.3933
37.7337 20.2805
37.781 20.167
37.8281 20.1334
37.8753 20.0021
37.9224 19.9912
37.9697 19.8882
38.0168 19.904
38.064 19.8287
38.1111 19.7483
38.1584 19.6534
38.2056 19.5921
38.2529 19.5711
38.3 19.5323
38.3473 19.4329
38.3945 19.3101
38.4418 19.3415
38.489 19.2573
38.5363 19.1337
38.5837 19.1232
38.6309 19.0756
38.6782 18.9493
38.7254 18.9594
38.7728 18.9088
38.82 18.843
38.8674 18.7712
38.9146 18.7366
38.9621 18.6728
39.0093 18.6021
39.0567 18.546
39.104 18.4602
39.1514 18.3294
39.1987 18.3097
39.2461 18.2974
39.2934 18.2259
39.3409 18.1912
39.3882 18.0767
39.4356 18.0422
39.483 18.0077
39.5304 17.886
39.5778 17.8834
39.6253 17.8016
39.6726 17.7448
39.7201 17.7168
39.7675 17.6818
39.815 17.6216
39.8624 17.5784
39.9099 17.5268
39.9575 17.4178
40.0049 17.4009
40.0525 17.2798
40.0999 17.3107
40.1474 17.1887
40.1949 17.1619
40.2425 17.051
40.2899 17.021
40.3375 16.9965
40.385 16.9184
40.4326 16.9219
40.48 16.8303
40.5277 16.8183
40.5752 16.7243
40.6228 16.7066
40.6703 16.6577
40.718 16.5648
40.7655 16.5566
40.8132 16.4802
40.8607 16.474
40.9084 16.3675
40.9559 16.3058
41.0036 16.2683
41.0512 16.2075
41.0989 16.2116
41.1465 16.1077
41.1942 16.076
41.242 15.9808
41.2896 15.9862
41.3373 15.9099
41.3849 15.8595
41.4327 15.8555
41.4803 15.7224
41.5281 15.7071
41.5758 15.6223
41.6236 15.5723
41.6712 15.4909
41.7191 15.4501
41.7667 15.4303
41.8146 15.3962
41.8622 15.3302
41.9101 15.2565
41.9578 15.2142
42.0057 15.214
42.0534 15.1084
42.1013 14.9818
42.149 14.987
42.1969 14.9668
42.2446 14.9048
42.2925 14.8482
42.3403 14.8053
42.3882 14.782
42.436 14.7178
42.4839 14.5989
42.5319 14.6296
42.5797 14.5751
42.6277 14.5403
42.6755 14.4964
42.7235 14.4208
42.7713 14.3551
42.8193 14.2655
42.8671 14.2947
42.9152 14.2648
42.963 14.1402
43.0111 14.1135
43.0589 14.0387
43.107 13.9936
43.1549 13.973
43.2029 13.9178
43.2508 13.8774
43.2989 13.8432
43.3468 13.7452
43.3949 13.688
43.4429 13.6664
43.491 13.6424
43.5389 13.6055
43.5871 13.5872
43.635 13.5043
43.6832 13.4733
43.7312 13.3666
43.7793 13.349
43.8273 13.3223
43.8755 13.2812
43.9237 13.2379
43.9717 13.2331
44.0199 13.1025
44.068 13.0712
44.1162 13.0356
44.1642 13.0087
44.2125 12.9961
44.2606 12.8927
44.3088 12.8506
44.3569 12.8274
44.4052 12.8031
44.4533 12.7431
44.5016 12.66
44.5497 12.6844
44.598 12.6165
44.6461 12.5146
44.6945 12.5325
44.7426 12.4382
44.791 12.3963
44.8391 12.4022
44.8875 12.3032
44.9357 12.2916
44.984 12.2224
45.0322 12.1977
45.0806 12.1423
45.1288 12.1208
45.1773 12.0645
45.2257 12.0323
45.2739 12.0071
45.3224 11.9613
45.3706 11.8706
45.4191 11.8592
45.4673 11.8797
45.5158 11.8237
45.5641 11.7349
45.6126 11.6978
45.6609 11.6583
45.7094 11.569
45.7577 11.6056
45.8063 11.4969
45.8546 11.4957
45.9031 11.4403
45.9515 11.3929
46.0001 11.3162
46.0484 11.3487
46.097 11.323
46.1454 11.2512
46.194 11.208
46.2424 11.1671
46.291 11.1113
46.3395 11.12
46.3881 11.0418
46.4365 11.0245
46.4852 10.9522
46.5337 10.896
46.5823 10.8725
46.631 10.8452
46.6795 10.8305
46.7282 10.7788
46.7767 10.7656
46.8254 10.6327
46.8739 10.6287
46.9226 10.6038
46.9712 10.5478
47.0199 10.5056
47.0685 10.4773
47.1173 10.4443
47.1658 10.3836
47.2146 10.3953
47.2632 10.3565
47.312 10.3308
47.3606 10.2958
47.4095 10.1957
47.4581 10.1894
47.5069 10.156
47.5556 10.0971
47.6044 10.0798
47.6531 10.0316
47.702 10.0042
47.7507 9.94052
47.7996 9.90068
47.8483 9.90272
47.8972 9.88746
47.9461 9.77559
47.9948 9.75703
48.0438 9.75432
48.0925 9.72829
48.1415 9.67582
48.1902 9.66116
48.2392 9.60384
48.288 9.57383
48.337 9.53493
48.3858 9.4861
48.4348 9.48774
48.4837 9.48894
48.5327 9.41528
48.5815 9.39533
48.6306 9.3496
48.6795 9.29648
48.7285 9.28153
48.7774 9.25212
48.8265 9.18776
48.8754 9.14102
48.9245 9.16255
48.9734 9.06637
49.0226 9.08093
49.0715 9.00478
49.1206 8.96933
49.1696 8.922
49.2188 8.96915
49.2679 8.8942
49.3169 8.85378
49.3661 8.76404
49.4151 8.79012
49.4643 8.78716
49.5134 8.72747
49.5626 8.67195
49.6117 8.6591
49.6609 8.62236
49.71 8.55661
49.7592 8.54638
49.8083 8.50151
49.8576 8.50858
49.9067 8.44028
49.956 8.42275
50.0052 8.40388
50.0545 8.36051
50.1036 8.32314
50.153 8.29053
50.2022 8.28862
50.2515 8.17894
50.3007 8.18433
50.3501 8.17634
50.3993 8.12756
50.4487 8.09452
50.498 8.08262
50.5474 8.01424
50.5966 8.0387
50.6461 7.96841
50.6955 7.94717
50.7448 7.93331
50.7943 7.88146
50.8436 7.86319
50.8931 7.84774
50.9424 7.81114
50.9919 7.73481
51.0413 7.73485
51.0908 7.69659
51.1402 7.6854
51.1897 7.65136
51.2391 7.63818
51.2887 7.57431
51.3381 7.54535
51.3877 7.52026
51.4371 7.45838
51.4867 7.3998
51.5362 7.41935
51.5858 7.42503
51.6353 7.34649
51.6849 7.32215
51.7344 7.31083
51.7841 7.2915
51.8336 7.24952
51.8833 7.19646
51.9328 7.19069
51.9826 7.15141
52.0323 7.07337
52.0818 7.08651
52.1316 7.01858
52.1812 7.03566
52.231 6.98914
52.2806 7.00592
52.3304 6.97458
52.38 6.89276
52.4298 6.88961
52.4794 6.88466
52.5293 6.86473
52.5789 6.80944
52.6288 6.7904
52.6785 6.7408
52.7284 6.70287
52.7781 6.71613
52.828 6.66086
52.8777 6.60859
52.9276 6.62157
52.9774 6.60453
53.0273 6.5709
53.0771 6.54055
53.1271 6.52298
53.1769 6.46629
53.2269 6.43061
53.2767 6.43198
53.3267 6.41731
53.3765 6.38768
53.4266 6.36073
53.4766 6.28755
53.5265 6.25211
53.5765 6.26748
53.6264 6.22272
53.6765 6.20919
53.7264 6.17207
53.7765 6.13967
53.8265 6.11479
53.8766 6.10133
53.9266 6.07541
53.9767 6.07711
54.0267 5.99759
54.0769 5.98247
54.1269 5.96194
54.1771 5.91721
54.2271 5.85243
54.2773 5.84483
54.3274 5.83615
54.3776 5.79815
54.4277 5.80536
54.478 5.73598
54.528 5.66443
54.5783 5.68449
54.6285 5.62689
54.6788 5.53938
54.7289 5.55172
54.7792 5.53298
54.8296 5.46711
54.8798 5.41009
54.9301 5.38966
54.9803 5.34696
55.0307 5.31599
55.0809 5.2891
55.1314 5.29672
55.1816 5.22958
55.232 5.15726
55.2823 5.13542
55.3328 5.06006
55.383 4.99981
55.4335 5.00839
55.4838 4.90285
55.5344 4.89921
55.5847 4.8442
55.6352 4.81481
55.6856 4.77462
55.7361 4.74385