File: XRD/Ni3Fe_FD1006.xy
TT I
1.27165 7.23902
1.31627 6.56475
1.36089 6.3041
1.40551 5.41798
1.45013 5.27758
1.49476 5.81846
1.53938 5.8455
1.584 4.86482
1.62863 4.82568
1.67325 4.76942
1.71787 5.37772
1.7625 4.41094
1.80712 4.48451
1.85174 4.40033
1.89636 4.06081
1.94099 5.01184
1.98562 4.29055
2.03025 4.39169
2.07487 4.39634
2.11949 4.97944
2.16411 4.80719
2.20874 14.8157
2.25338 28.1432
2.298 6.58041
2.34263 5.80137
2.38725 6.33631
2.43188 6.99766
2.4765 7.15283
2.52115 7.51557
2.56577 8.70109
2.6104 8.18719
2.65503 8.58088
2.69965 9.02383
2.7443 8.397
2.78893 7.93859
2.83356 8.56453
2.87818 9.30468
2.92281 8.76137
2.96744 9.92875
3.01209 10.2854
3.05672 11.834
3.10135 11.9037
3.14599 13.4424
3.19062 14.4203
3.23527 15.1976
3.2799 15.9321
3.32454 16.6971
3.36917 17.4371
3.4138 18.256
3.45844 19.3431
3.50309 20.4104
3.54773 21.7373
3.59237 23.4942
3.637 103.346
3.68164 72.5436
3.7263 25.9722
3.77094 25.8395
3.81558 26.0211
3.86022 26.5495
3.90486 28.1585
3.9495 29.2545
3.99416 30.159
4.0388 31.1664
4.08344 33.0983
4.12809 33.9858
4.17273 35.6304
4.21738 41.9315
4.26204 278.555
4.30669 287.101
4.35133 50.2846
4.39598 43.1889
4.44063 52.79
4.4853 70.2126
4.52995 48.7211
4.5746 48.9383
4.61925 50.6139
4.6639 53.2688
4.70855 55.3305
4.75322 58.2558
4.79788 60.4541
4.84253 63.8299
4.88719 67.8631
4.93184 71.2292
4.97652 75.7928
5.02118 81.4601
5.06583 88.1199
5.11049 96.7082
5.15515 163.54
5.19981 252.893
5.24449 1943.65
5.28916 13116.7
5.33382 3095.82
5.37848 174.481
5.42315 120.958
5.46783 106.952
5.5125 100.229
5.55716 96.4459
5.60183 93.2951
5.6465 92.267
5.69117 89.4811
5.73586 87.6652
5.78053 86.0787
5.8252 85.5127
5.86988 85.8573
5.91455 86.996
5.95924 92.1043
6.00392 148.134
6.0486 680.026
6.09328 4367.02
6.13795 3541.45
6.18263 246.295
6.22733 89.0761
6.27201 79.2051
6.3167 103.764
6.36138 81.8492
6.40606 66.5774
6.45075 64.6641
6.49545 62.9383
6.54014 61.2644
6.58483 60.7352
6.62952 60.3239
6.67421 91.7403
6.71892 168.431
6.76361 72.9332
6.8083 56.5592
6.853 55.4934
6.89769 55.0254
6.94239 54.9406
6.98711 53.9693
7.03181 53.8027
7.07651 53.4117
7.12121 53.3863
7.16591 53.485
7.21063 54.0036
7.25533 67.0512
7.30004 205.535
7.34475 109.527
7.38945 55.5461
7.43416 53.0274
7.47889 52.6522
7.5236 53.0476
7.56831 53.3457
7.61303 55.0458
7.65774 56.3649
7.70247 54.2143
7.74719 53.7931
7.79191 54.5372
7.83663 54.7737
7.88135 55.6908
7.92607 56.307
7.97081 57.1605
8.01553 58.2964
8.06026 59.4729
8.10498 61.2309
8.14971 71.5062
8.19446 71.9844
8.23919 66.49
8.28392 68.4806
8.32865 70.1621
8.37339 73.8804
8.41812 79.8687
8.46288 110.904
8.50761 132.83
8.55235 287.646
8.59709 990.48
8.64183 2314.32
8.68658 1065.21
8.73134 171.984
8.77609 95.1387
8.82083 88.5147
8.86558 85.3903
8.91033 86.0465
8.9551 89.6213
8.99985 82.6358
9.04461 79.8896
9.08936 79.1625
9.13412 78.1576
9.17888 78.6383
9.22365 79.3155
9.26841 78.6118
9.31318 78.8435
9.35794 78.8162
9.4027 79.5599
9.44749 79.7703
9.49226 80.5434
9.53703 81.7204
9.5818 83.0252
9.62657 87.7108
9.67134 96.7596
9.71614 90.892
9.76091 89.9019
9.80569 91.6278
9.85047 94.4741
9.89525 119.244
9.94005 137.507
9.98484 143.064
10.0296 260.234
10.0744 651.774
10.1192 1695.8
10.164 1691.41
10.2088 422.571
10.2536 126.155
10.2984 109.325
10.3432 113.169
10.388 100.76
10.4328 105.01
10.4776 135.104
10.5224 241.12
10.5672 509.734
10.612 540.15
10.6568 211.389
10.7017 94.5542
10.7465 82.9207
10.7913 79.7976
10.8361 77.7047
10.8809 75.946
10.9257 75.1166
10.9706 76.93
11.0154 72.3602
11.0602 69.8508
11.105 68.9596
11.1499 73.1353
11.1947 84.6999
11.2395 74.3662
11.2844 68.7664
11.3292 65.1345
11.374 63.6743
11.4189 62.9717
11.4637 62.2175
11.5086 62.7662
11.5534 66.8696
11.5983 64.1433
11.6431 61.1879
11.688 60.3729
11.7328 60.391
11.7777 60.3152
11.8225 60.0086
11.8674 59.8106
11.9122 60.0475
11.9571 60.2938
12.002 60.6819
12.0468 62.8585
12.0917 71.631
12.1366 91.4273
12.1814 143.259
12.2263 205.399
12.2712 173.565
12.3161 100.104
12.3609 71.3349
12.4058 62.589
12.4507 61.9355
12.4956 61.8184
12.5405 61.6373
12.5853 62.6358
12.6302 70.4653
12.6751 80.1506
12.72 69.4999
12.7649 65.248
12.8098 65.5891
12.8547 66.5005
12.8996 67.6203
12.9445 68.8956
12.9894 70.4541
13.0343 71.949
13.0792 74.7498
13.1242 79.9286
13.1691 98.6595
13.214 128.353
13.2589 208.493
13.3038 356.912
13.3487 445.713
13.3937 279.923
13.4386 127.644
13.4835 97.2689
13.5285 107.412
13.5734 138.202
13.6183 223.274
13.6633 351.518
13.7082 362.058
13.7531 199.254
13.7981 98.4383
13.843 79.0712
13.888 76.5778
13.9329 73.9101
13.9779 72.8113
14.0228 71.5411
14.0678 70.1621
14.1127 69.9521
14.1577 70.0245
14.2027 68.9273
14.2476 67.733
14.2926 67.7565
14.3376 69.4144
14.3825 68.3416
14.4275 66.1832
14.4725 65.7696
14.5175 66.0332
14.5624 66.0708
14.6074 68.7637
14.6524 69.7899
14.6974 67.8132
14.7424 67.943
14.7874 72.0945
14.8324 80.604
14.8774 98.3783
14.9224 139.117
14.9674 203.666
15.0124 226.454
15.0574 160.99
15.1024 92.9534
15.1474 70.6458
15.1924 67.9768
15.2374 68.9035
15.2824 68.5783
15.3274 66.1157
15.3725 64.511
15.4175 63.9741
15.4625 63.5054
15.5076 63.9054
15.5526 63.7655
15.5976 63.2346
15.6426 63.0599
15.6877 66.6484
15.7327 72.5946
15.7778 85.2439
15.8228 114.162
15.8679 163.9
15.9129 200.293
15.958 168.097
16.003 101.384
16.0481 67.7164
16.0931 63.2849
16.1382 61.3145
16.1833 59.0113
16.2283 57.1296
16.2734 56.4142
16.3185 56.6995
16.3636 57.9925
16.4086 56.6535
16.4537 54.7061
16.4988 53.5196
16.5439 53.6021
16.589 53.0498
16.6341 52.9217
16.6792 52.5159
16.7243 52.9469
16.7694 53.1225
16.8145 53.0796
16.8596 53.0917
16.9047 55.2459
16.9498 55.5659
16.9949 54.0271
17.04 53.7673
17.0851 54.2757
17.1302 55.5174
17.1754 58.4442
17.2205 62.9102
17.2656 71.0977
17.3108 81.1844
17.3559 81.8622
17.401 70.2525
17.4462 60.4278
17.4913 56.9674
17.5365 56.9301
17.5815 57.0165
17.6268 57.2136
17.6718 58.1772
17.7171 58.8595
17.7622 59.0234
17.8074 59.4593
17.8525 60.4822
17.8977 64.042
17.9428 68.5773
17.9881 76.1147
18.0331 92.3672
18.0784 117.023
18.1237 138.972
18.1688 133.636
18.214 104.319
18.2591 84.3432
18.3044 86.3797
18.3495 98.1641
18.3948 106.966
18.4399 98.233
18.4852 78.4089
18.5303 65.0507
18.5756 60.366
18.6207 59.3494
18.666 58.4812
18.7112 57.8085
18.7565 56.992
18.8016 56.7952
18.8469 56.1267
18.892 55.7081
18.9374 55.3566
18.9825 55.164
19.0278 55.0194
19.073 54.986
19.1183 55.3514
19.1635 56.007
19.2088 57.1376
19.254 59.2036
19.2993 63.4038
19.3447 70.5048
19.3898 76.0284
19.4352 72.817
19.4804 62.8016
19.5257 55.6316
19.5709 52.6256
19.6163 52.0313
19.6615 52.0883
19.7068 51.5378
19.752 51.5599
19.7974 51.6317
19.8426 52.3816
19.888 52.7481
19.9332 53.9404
19.9786 56.2571
20.0238 59.6448
20.0692 65.4469
20.1144 69.0362
20.1598 67.637
20.205 62.639
20.2504 60.3362
20.2957 62.3828
20.3411 65.1538
20.3863 64.1331
20.4318 58.0468
20.477 52.921
20.5224 50.3531
20.5677 49.8752
20.6131 48.7221
20.6586 48.1731
20.7038 47.9481
20.7493 47.4724
20.7945 47.3922
20.84 47.2215
20.8853 47.0544
20.9307 47.0082
20.976 47.0792
21.0215 47.0946
21.0668 47.2172
21.1122 47.7597
21.1575 48.3211
21.203 49.0683
21.2483 49.9901
21.2938 50.0051
21.3391 48.6479
21.3846 47.6082
21.4299 46.9117
21.4754 46.6537
21.5207 46.9717
21.5662 47.0897
21.6116 47.2345
21.6571 47.9209
21.7024 48.691
21.7479 50.3367
21.7933 52.9087
21.8388 56.9247
21.8843 61.591
21.9297 64.0336
21.9752 63.1312
22.0206 58.8402
22.0661 55.6059
22.1115 55.1922
22.157 55.3025
22.2024 53.6054
22.248 50.5454
22.2933 48.7442
22.3389 47.7852
22.3843 47.6749
22.4299 47.5683
22.4753 47.7566
22.5208 47.2168
22.5662 46.9103
22.6118 47.0824
22.6572 47.2304
22.7028 47.5205
22.7483 48.0242
22.7939 48.5244
22.8393 49.8571
22.8849 52.2254
22.9303 54.6264
22.9759 57.2108
23.0214 56.9353
23.067 53.9451
23.1126 50.3405
23.1581 47.9704
23.2037 47.4282
23.2492 47.4331
23.2948 47.3132
23.3403 47.3588
23.3859 48.0373
23.4314 49.021
23.477 50.7495
23.5225 53.4705
23.5682 56.2209
23.6137 57.8047
23.6593 55.9518
23.7048 51.4064
23.7505 47.6208
23.796 45.6748
23.8417 44.9106
23.8872 44.3764
23.9329 43.906
23.9784 43.6181
24.0241 43.441
24.0697 43.2736
24.1154 42.8256
24.1609 42.6809
24.2066 42.6974
24.2522 42.5214
24.2979 42.2083
24.3434 42.0195
24.3892 41.9382
24.4349 41.8667
24.4805 41.741
24.5262 42.026
24.5718 41.6313
24.6175 41.862
24.6631 41.552
24.7089 41.3249
24.7545 41.2164
24.8002 40.8906
24.8458 41.0282
24.8916 40.8179
24.9372 40.7583
24.983 41.1646
25.0286 41.4602
25.0744 41.9548
25.12 42.3883
25.1658 43.186
25.2114 43.57
25.2572 43.8615
25.3029 43.9859
25.3487 44.171
25.3943 43.9428
25.4402 42.7331
25.4858 41.563
25.5316 40.496
25.5773 39.7881
25.6231 39.7707
25.669 39.3816
25.7147 39.5452
25.7605 39.3197
25.8062 39.3988
25.8521 39.574
25.8977 39.4392
25.9436 39.6416
25.9893 39.739
26.0352 40.4392
26.0809 40.5343
26.1268 40.8041
26.1725 40.6576
26.2184 39.9778
26.2641 39.1954
26.31 38.9551
26.3557 39.0424
26.4017 39.0545
26.4474 39.2513
26.4933 39.4614
26.5391 40.0853
26.585 40.7238
26.6308 41.1305
26.6767 41.3399
26.7225 41.1815
26.7684 40.6255
26.8142 40.0641
26.8601 39.5599
26.9059 39.1991
26.9519 38.4824
26.9979 38.2365
27.0437 37.831
27.0896 37.6921
27.1354 37.7743
27.1814 37.5748
27.2272 37.4823
27.2732 37.4071
27.3191 37.3544
27.3651 37.4627
27.4109 37.2759
27.4569 37.4337
27.5027 37.5945
27.5488 37.7329
27.5946 37.405
27.6407 37.1734
27.6865 37.1525
27.7326 36.8304
27.7784 36.9738
27.8245 36.9018
27.8703 36.9235
27.9164 37.3695
27.9623 37.3626
28.0084 37.7515
28.0543 38.4182
28.1003 38.256
28.1462 38.0977
28.1923 37.7634
28.2384 37.1459
28.2843 36.8486
28.3304 36.3594
28.3764 35.8915
28.4225 35.554
28.4684 35.3949
28.5145 35.0832
28.5605 35.0858
28.6066 34.8522
28.6526 34.7148
28.6987 34.8684
28.7447 34.5816
28.7908 34.5265
28.8368 34.5921
28.8829 34.4753
28.9289 34.5027
28.9751 34.5162
29.0211 34.1599
29.0673 33.762
29.1133 33.6856
29.1595 33.4855
29.2055 33.4805
29.2517 33.5341
29.2977 33.3777
29.3439 33.4493
29.3899 33.4356
29.4361 33.3257
29.4824 33.1493
29.5284 32.9346
29.5746 32.6343
29.6207 32.2139
29.6669 32.2708
29.713 32.1421
29.7593 32.0224
29.8053 32.0947
29.8516 31.9338
29.8977 31.923
29.9439 31.6708
29.99 31.7381
30.0363 31.6407
30.0824 31.639
30.1287 31.6082
30.1748 31.6706
30.2211 31.7879
30.2673 31.5098
30.3136 31.6219
30.3597 31.3985
30.406 31.3689
30.4522 31.3162
30.4985 31.1799
30.5447 31.3356
30.591 31.3519
30.6372 31.371
30.6835 31.4791
30.7297 31.5447
30.7761 31.5115
30.8224 31.2764
30.8686 31.1988
30.915 30.8362
30.9612 30.7692
31.0076 30.5425
31.0538 30.4351
31.1002 30.3588
31.1464 30.1618
31.1928 30.1933
31.2391 30.1756
31.2855 30.0032
31.3317 30.0236
31.3781 30.1257
31.4244 30.1438
31.4708 30.1155
31.5171 30.127
31.5636 30.0601
31.6098 29.8225
31.6563 29.6374
31.7026 29.567
31.7491 29.4223
31.7953 29.4744
31.8418 29.3085
31.8881 29.426
31.9346 29.4288
31.9809 29.42
32.0275 29.2979
32.074 29.199
32.1203 28.9066
32.1668 28.7389
32.2132 28.7372
32.2597 28.6231
32.306 28.5441
32.3526 28.2732
32.399 28.2854
32.4455 28.0565
32.4919 28.0188
32.5385 27.9592
32.5848 27.7532
32.6314 27.7688
32.6778 27.6932
32.7244 27.6149
32.7708 27.4737
32.8174 27.4537
32.8638 27.3146
32.9104 27.3275
32.9569 27.3429
33.0035 27.2071
33.0499 27.1126
33.0966 27.0656
33.143 27.0998
33.1897 26.9797
33.2361 27.0291
33.2828 26.9599
33.3293 26.8413
33.3759 26.7783
33.4226 26.6406
33.4691 26.454
33.5158 26.3577
33.5623 26.2721
33.609 26.0469
33.6555 26.0267
33.7022 26.0237
33.7487 25.8614
33.7954 25.8398
33.842 25.7831
33.8887 25.6722
33.9353 25.6944
33.982 25.4791
34.0286 25.4612
34.0753 25.4351
34.1219 25.3196
34.1687 25.1599
34.2152 25.2286
34.262 25.1212
34.3086 25.078
34.3554 24.8962
34.402 24.8273
34.4488 24.6734
34.4954 24.6413
34.5422 24.4883
34.5889 24.4847
34.6357 24.4012
34.6825 24.3475
34.7292 24.2712
34.776 24.192
34.8227 24.0925
34.8695 24.121
34.9162 24.0265
34.9631 23.8958
35.0098 23.8907
35.0566 23.7902
35.1033 23.7363
35.1502 23.6778
35.1969 23.622
35.2438 23.5675
35.2906 23.4928
35.3375 23.4174
35.3842 23.4426
35.4311 23.4705
35.4779 23.4305
35.5248 23.3091
35.5716 23.2412
35.6185 23.1426
35.6653 23.113
35.7123 23.0145
35.759 22.9572
35.806 22.8282
35.8528 22.7587
35.8998 22.7073
35.9468 22.557
35.9936 22.6003
36.0406 22.4831
36.0874 22.4835
36.1345 22.3965
36.1813 22.331
36.2283 22.2698
36.2752 22.1493
36.3222 22.1414
36.3691 22.0819
36.4161 21.8964
36.463 21.9248
36.5101 21.9661
36.557 21.7363
36.6041 21.6784
36.651 21.6364
36.6981 21.6394
36.745 21.6043
36.7921 21.525
36.839 21.3649
36.8861 21.2789
36.9331 21.1942
36.9802 21.2256
37.0272 21.0894
37.0743 20.9482
37.1213 20.9521
37.1684 20.7881
37.2154 20.8898
37.2626 20.8024
37.3098 20.6949
37.3568 20.6774
37.404 20.6579
37.451 20.4972
37.4982 20.4912
37.5452 20.3299
37.5924 20.3313
37.6395 20.3639
37.6867 20.2371
37.7337 20.1464
37.781 20.0252
37.8281 20.049
37.8753 19.8672
37.9224 19.8369
37.9697 19.8548
38.0168 19.7624
38.064 19.6274
38.1111 19.6079
38.1584 19.594
38.2056 19.4914
38.2529 19.4358
38.3 19.3576
38.3473 19.381
38.3945 19.2243
38.4418 19.183
38.489 19.1436
38.5363 19.0463
38.5837 18.9455
38.6309 19.0002
38.6782 18.8853
38.7254 18.8161
38.7728 18.7732
38.82 18.6768
38.8674 18.6861
38.9146 18.6049
38.9621 18.5329
39.0093 18.5289
39.0567 18.3586
39.104 18.3724
39.1514 18.2757
39.1987 18.2164
39.2461 18.2223
39.2934 18.1972
39.3409 18.0183
39.3882 17.9447
39.4356 17.9505
39.483 17.8817
39.5304 17.8474
39.5778 17.8354
39.6253 17.7254
39.6726 17.6792
39.7201 17.6816
39.7675 17.5861
39.815 17.5726
39.8624 17.442
39.9099 17.3756
39.9575 17.3648
40.0049 17.2891
40.0525 17.1333
40.0999 17.1937
40.1474 17.152
40.1949 17.1526
40.2425 17.0056
40.2899 16.9724
40.3375 16.9157
40.385 16.8631
40.4326 16.7813
40.48 16.7059
40.5277 16.7493
40.5752 16.6483
40.6228 16.5997
40.6703 16.5487
40.718 16.4757
40.7655 16.4832
40.8132 16.3672
40.8607 16.3756
40.9084 16.3105
40.9559 16.2015
41.0036 16.1677
41.0512 16.1539
41.0989 16.1343
41.1465 16.0018
41.1942 15.9573
41.242 15.9352
41.2896 15.8624
41.3373 15.7902
41.3849 15.7727
41.4327 15.7024
41.4803 15.6904
41.5281 15.5547
41.5758 15.4978
41.6236 15.4819
41.6712 15.4311
41.7191 15.345
41.7667 15.3371
41.8146 15.2947
41.8622 15.2552
41.9101 15.1881
41.9578 15.1601
42.0057 15.0893
42.0534 15.0003
42.1013 15.001
42.149 14.9406
42.1969 14.9437
42.2446 14.8177
42.2925 14.7987
42.3403 14.7057
42.3882 14.7093
42.436 14.6482
42.4839 14.5479
42.5319 14.5717
42.5797 14.4942
42.6277 14.4697
42.6755 14.4035
42.7235 14.2984
42.7713 14.3092
42.8193 14.2539
42.8671 14.1991
42.9152 14.1331
42.963 14.098
43.0111 14.0627
43.0589 14.0009
43.107 13.9322
43.1549 13.8896
43.2029 13.8337
43.2508 13.8439
43.2989 13.7856
43.3468 13.7358
43.3949 13.6624
43.4429 13.6502
43.491 13.5805
43.5389 13.5233
43.5871 13.491
43.635 13.4015
43.6832 13.4125
43.7312 13.3716
43.7793 13.2928
43.8273 13.2692
43.8755 13.2474
43.9237 13.2188
43.9717 13.0887
44.0199 13.0799
44.068 13.0374
44.1162 12.9835
44.1642 12.9084
44.2125 12.9037
44.2606 12.8477
44.3088 12.842
44.3569 12.7534
44.4052 12.7724
44.4533 12.6785
44.5016 12.5864
44.5497 12.6152
44.598 12.5424
44.6461 12.4901
44.6945 12.4381
44.7426 12.4199
44.791 12.3468
44.8391 12.2963
44.8875 12.2485
44.9357 12.2666
44.984 12.2508
45.0322 12.1317
45.0806 12.0743
45.1288 12.0897
45.1773 12.0364
45.2257 11.9726
45.2739 11.949
45.3224 11.9164
45.3706 11.8414
45.4191 11.7865
45.4673 11.7845
45.5158 11.6921
45.5641 11.6526
45.6126 11.6881
45.6609 11.6093
45.7094 11.5316
45.7577 11.5095
45.8063 11.4519
45.8546 11.4056
45.9031 11.3784
45.9515 11.3816
46.0001 11.3233
46.0484 11.2803
46.097 11.2656
46.1454 11.1987
46.194 11.1624
46.2424 11.086
46.291 11.0532
46.3395 11.006
46.3881 10.9638
46.4365 10.9678
46.4852 10.8895
46.5337 10.8487
46.5823 10.8431
46.631 10.7765
46.6795 10.7541
46.7282 10.7242
46.7767 10.7325
46.8254 10.6162
46.8739 10.6113
46.9226 10.578
46.9712 10.57
47.0199 10.4745
47.0685 10.4485
47.1173 10.38
47.1658 10.395
47.2146 10.3244
47.2632 10.2757
47.312 10.2507
47.3606 10.1943
47.4095 10.1593
47.4581 10.1436
47.5069 10.1422
47.5556 10.0412
47.6044 9.98855
47.6531 9.9752
47.702 9.95471
47.7507 9.90925
47.7996 9.88447
47.8483 9.83444
47.8972 9.84636
47.9461 9.77516
47.9948 9.71422
48.0438 9.66775
48.0925 9.68754
48.1415 9.63367
48.1902 9.60493
48.2392 9.54212
48.288 9.5504
48.337 9.49948
48.3858 9.46884
48.4348 9.44082
48.4837 9.38499
48.5327 9.36646
48.5815 9.31804
48.6306 9.29087
48.6795 9.27212
48.7285 9.18739
48.7774 9.17064
48.8265 9.18354
48.8754 9.11128
48.9245 9.1028
48.9734 9.03345
49.0226 9.01224
49.0715 8.99261
49.1206 8.94337
49.1696 8.9008
49.2188 8.8962
49.2679 8.86487
49.3169 8.7937
49.3661 8.76818
49.4151 8.73933
49.4643 8.7378
49.5134 8.65372
49.5626 8.59055
49.6117 8.62111
49.6609 8.60002
49.71 8.48615
49.7592 8.52631
49.8083 8.44323
49.8576 8.43631
49.9067 8.39528
49.956 8.39181
50.0052 8.31089
50.0545 8.34009
50.1036 8.26409
50.153 8.23782
50.2022 8.24477
50.2515 8.22706
50.3007 8.1429
50.3501 8.13841
50.3993 8.07532
50.4487 8.07316
50.498 8.03211
50.5474 7.98672
50.5966 7.97709
50.6461 7.96499
50.6955 7.92531
50.7448 7.88218
50.7943 7.84163
50.8436 7.84939
50.8931 7.77108
50.9424 7.76314
50.9919 7.74392
51.0413 7.6947
51.0908 7.65972
51.1402 7.66954
51.1897 7.61259
51.2391 7.57504
51.2887 7.51399
51.3381 7.51997
51.3877 7.51689
51.4371 7.4076
51.4867 7.44429
51.5362 7.42137
51.5858 7.3775
51.6353 7.29425
51.6849 7.33063
51.7344 7.26814
51.7841 7.25946
51.8336 7.20679
51.8833 7.15991
51.9328 7.11504
51.9826 7.12921
52.0323 7.10789
52.0818 7.06963
52.1316 7.03112
52.1812 7.01313
52.231 6.97525
52.2806 6.93909
52.3304 6.94855
52.38 6.85894
52.4298 6.84974
52.4794 6.79992
52.5293 6.78757
52.5789 6.82216
52.6288 6.76683
52.6785 6.69781
52.7284 6.69106
52.7781 6.65081
52.828 6.6248
52.8777 6.62334
52.9276 6.61506
52.9774 6.57093
53.0273 6.51958
53.0771 6.50692
53.1271 6.50228
53.1769 6.44209
53.2269 6.43738
53.2767 6.38759
53.3267 6.38456
53.3765 6.34556
53.4266 6.29442
53.4766 6.2717
53.5265 6.26425
53.5765 6.24964
53.6264 6.24352
53.6765 6.21436
53.7264 6.16702
53.7765 6.1324
53.8265 6.08962
53.8766 6.06751
53.9266 6.06424
53.9767 5.97672
54.0267 6.05359
54.0769 5.96233
54.1269 5.90839
54.1771 5.87888
54.2271 5.89561
54.2773 5.84608
54.3274 5.8399
54.3776 5.78424
54.4277 5.75664
54.478 5.72111
54.528 5.68608
54.5783 5.63883
54.6285 5.60993
54.6788 5.55256
54.7289 5.5125
54.7792 5.51698
54.8296 5.41875
54.8798 5.41026
54.9301 5.40823
54.9803 5.33098
55.0307 5.34979
55.0809 5.24125
55.1314 5.26007
55.1816 5.19239
55.232 5.11192
55.2823 5.08742
55.3328 5.02043
55.383 5.00958
55.4335 4.94307
55.4838 4.92231
55.5344 4.86442
55.5847 4.83041
55.6352 4.78872
55.6856 4.73475
55.7361 4.72469