File: XRD/Ni3Fe_FD0704.xy
TT I
1.27165 7.54936
1.31627 6.49951
1.36089 6.66926
1.40551 6.98971
1.45013 5.89169
1.49476 5.94926
1.53938 5.66626
1.584 5.20369
1.62863 5.03758
1.67325 5.05773
1.71787 4.60625
1.7625 4.99339
1.80712 5.20638
1.85174 4.46082
1.89636 4.12626
1.94099 4.96817
1.98562 4.895
2.03025 4.18994
2.07487 3.80779
2.11949 5.03708
2.16411 4.62434
2.20874 9.08913
2.25338 11.6264
2.298 5.72419
2.34263 5.66801
2.38725 5.88987
2.43188 5.91512
2.4765 6.48981
2.52115 6.98385
2.56577 7.58188
2.6104 7.94978
2.65503 6.95053
2.69965 7.52981
2.7443 7.83358
2.78893 7.67617
2.83356 7.62836
2.87818 8.19219
2.92281 8.87761
2.96744 9.54936
3.01209 10.1567
3.05672 10.92
3.10135 12.0416
3.14599 12.9443
3.19062 14.1666
3.23527 15.0517
3.2799 15.6388
3.32454 16.6114
3.36917 17.1393
3.4138 18.3638
3.45844 19.3557
3.50309 20.7647
3.54773 21.8251
3.59237 23.5641
3.637 52.1772
3.68164 37.0784
3.7263 25.7464
3.77094 25.8925
3.81558 26.3053
3.86022 27.5961
3.90486 28.5759
3.9495 29.4362
3.99416 30.5608
4.0388 31.7702
4.08344 33.3036
4.12809 34.5234
4.17273 36.3086
4.21738 39.402
4.26204 124.538
4.30669 107.846
4.35133 44.2241
4.39598 43.368
4.44063 49.2489
4.4853 54.4707
4.52995 55.9172
4.5746 56.6142
4.61925 54.0909
4.6639 55.8464
4.70855 58.5928
4.75322 61.5969
4.79788 68.0327
4.84253 68.6516
4.88719 74.8523
4.93184 76.3968
4.97652 81.4298
5.02118 88.1334
5.06583 96.2247
5.11049 108.155
5.15515 158.284
5.19981 438.89
5.24449 3083.22
5.28916 12585.1
5.33382 2647.5
5.37848 195.251
5.42315 131.506
5.46783 119.431
5.5125 111.904
5.55716 102.71
5.60183 98.4154
5.6465 96.3475
5.69117 95.0671
5.73586 93.6173
5.78053 97.8996
5.8252 97.6256
5.86988 100.102
5.91455 96.0568
5.95924 106.623
6.00392 257.573
6.0486 1039.91
6.09328 4655.06
6.13795 3083.16
6.18263 217.3
6.22733 91.3926
6.27201 81.1245
6.3167 85.2762
6.36138 74.7704
6.40606 70.4673
6.45075 69.8779
6.49545 65.5394
6.54014 63.5735
6.58483 63.0049
6.62952 63.0129
6.67421 74.6819
6.71892 92.9375
6.76361 62.0801
6.8083 59.0681
6.853 59.8098
6.89769 56.8391
6.94239 56.4245
6.98711 55.8319
7.03181 55.7625
7.07651 54.8684
7.12121 54.4036
7.16591 56.0011
7.21063 55.0241
7.25533 60.8662
7.30004 103.921
7.34475 68.2186
7.38945 55.028
7.43416 53.7062
7.47889 53.7266
7.5236 54.2595
7.56831 55.0611
7.61303 55.9578
7.65774 56.1296
7.70247 56.932
7.74719 56.3447
7.79191 56.6058
7.83663 56.8521
7.88135 57.7031
7.92607 58.5918
7.97081 60.0256
8.01553 61.2064
8.06026 62.6072
8.10498 64.4155
8.14971 70.6606
8.19446 70.6727
8.23919 69.4346
8.28392 71.9197
8.32865 74.4536
8.37339 79.0913
8.41812 84.6846
8.46288 105.211
8.50761 188.926
8.55235 414.493
8.59709 1257.01
8.64183 2173.57
8.68658 841.695
8.73134 148.206
8.77609 98.4045
8.82083 92.837
8.86558 92.7324
8.91033 92.2398
8.9551 90.0395
8.99985 85.283
9.04461 83.8099
9.08936 84.4592
9.13412 82.9991
9.17888 82.3833
9.22365 82.4346
9.26841 82.3951
9.31318 84.9455
9.35794 86.4229
9.4027 86.0979
9.44749 85.2107
9.49226 85.4589
9.53703 86.1472
9.5818 89.4117
9.62657 94.2967
9.67134 95.7971
9.71614 93.2624
9.76091 95.2099
9.80569 98.8087
9.85047 101.651
9.89525 113.194
9.94005 130.173
9.98484 201.434
10.0296 369.399
10.0744 866.82
10.1192 1809.81
10.164 1518.89
10.2088 354.088
10.2536 121.935
10.2984 109.487
10.3432 109.053
10.388 106.073
10.4328 124.828
10.4776 167.449
10.5224 297.034
10.5672 519.673
10.612 492.22
10.6568 190.167
10.7017 94.1208
10.7465 86.2954
10.7913 83.3628
10.8361 80.6975
10.8809 78.8455
10.9257 77.8577
10.9706 78.2305
11.0154 75.3963
11.0602 72.724
11.105 71.4577
11.1499 72.3099
11.1947 74.6386
11.2395 70.2816
11.2844 68.4453
11.3292 67.1582
11.374 66.1
11.4189 65.7519
11.4637 64.8037
11.5086 64.5357
11.5534 65.5845
11.5983 64.3865
11.6431 63.4801
11.688 62.6554
11.7328 62.6805
11.7777 62.7475
11.8225 63.0075
11.8674 62.5391
11.9122 62.7916
11.9571 63.1604
12.002 64.6986
12.0468 69.762
12.0917 79.7376
12.1366 105.838
12.1814 156.052
12.2263 205.456
12.2712 156.826
12.3161 87.3029
12.3609 67.0109
12.4058 63.9526
12.4507 64.3871
12.4956 64.7655
12.5405 64.7299
12.5853 65.2438
12.6302 68.3278
12.6751 71.3452
12.72 68.1052
12.7649 67.6353
12.8098 68.6789
12.8547 69.9709
12.8996 71.4615
12.9445 73.1567
12.9894 74.9473
13.0343 76.501
13.0792 80.9883
13.1242 94.2804
13.1691 114.492
13.214 154.219
13.2589 252.519
13.3038 383.296
13.3487 417.244
13.3937 243.751
13.4386 120.05
13.4835 108.671
13.5285 123.693
13.5734 165.725
13.6183 258.988
13.6633 357.212
13.7082 327.803
13.7531 171.85
13.7981 93.8306
13.843 81.5214
13.888 79.7871
13.9329 76.9762
13.9779 76.1134
14.0228 74.4531
14.0678 73.2259
14.1127 72.5584
14.1577 72.0094
14.2027 71.2831
14.2476 70.6369
14.2926 70.349
14.3376 70.4308
14.3825 69.5617
14.4275 69.1211
14.4725 68.9519
14.5175 69.0444
14.5624 69.2028
14.6074 69.9515
14.6524 70.6956
14.6974 71.0007
14.7424 74.4488
14.7874 80.6809
14.8324 90.8382
14.8774 114.652
14.9224 160.341
14.9674 214.623
15.0124 215.832
15.0574 138.759
15.1024 86.1739
15.1474 71.586
15.1924 70.269
15.2374 69.7184
15.2824 68.5159
15.3274 67.4665
15.3725 66.8338
15.4175 66.35
15.4625 66.0283
15.5076 65.9003
15.5526 66.0126
15.5976 66.0084
15.6426 68.6368
15.6877 73.7842
15.7327 81.2412
15.7778 97.342
15.8228 131.063
15.8679 176.182
15.9129 193.41
15.958 147.437
16.003 90.5801
16.0481 66.3378
16.0931 62.9405
16.1382 61.2805
16.1833 59.9874
16.2283 58.7319
16.2734 58.1675
16.3185 57.7481
16.3636 57.6529
16.4086 56.8096
16.4537 55.9973
16.4988 55.2248
16.5439 55.475
16.589 55.02
16.6341 54.9363
16.6792 54.3984
16.7243 54.586
16.7694 54.8635
16.8145 54.4407
16.8596 54.955
16.9047 55.6244
16.9498 55.6928
16.9949 55.3475
17.04 56.0277
17.0851 57.5781
17.1302 58.9439
17.1754 61.9299
17.2205 67.6118
17.2656 75.4939
17.3108 83.1155
17.3559 81.2045
17.401 69.4013
17.4462 61.4123
17.4913 59.1735
17.5365 59.0473
17.5815 59.2574
17.6268 59.7158
17.6718 60.4308
17.7171 60.6463
17.7622 61.4644
17.8074 62.7919
17.8525 65.626
17.8977 69.1154
17.9428 74.5917
17.9881 84.3167
18.0331 103.21
18.0784 125.83
18.1237 141.582
18.1688 129.371
18.214 100.31
18.2591 86.0284
18.3044 91.7264
18.3495 101.424
18.3948 105.683
18.4399 93.2589
18.4852 74.6982
18.5303 64.9006
18.5756 61.9505
18.6207 61.274
18.666 60.1391
18.7112 59.6956
18.7565 58.9595
18.8016 58.5506
18.8469 58.1619
18.892 57.657
18.9374 57.1022
18.9825 57.1247
19.0278 56.6697
19.073 57.1004
19.1183 57.3874
19.1635 57.7776
19.2088 59.6335
19.254 62.4851
19.2993 67.508
19.3447 73.2257
19.3898 75.8711
19.4352 70.5404
19.4804 61.8947
19.5257 56.0708
19.5709 53.991
19.6163 53.7841
19.6615 53.8143
19.7068 53.1714
19.752 53.3998
19.7974 53.7823
19.8426 54.5112
19.888 55.0788
19.9332 56.3488
19.9786 59.3792
20.0238 63.1357
20.0692 67.648
20.1144 69.738
20.1598 67.4516
20.205 62.9876
20.2504 62.0978
20.2957 63.9783
20.3411 65.4225
20.3863 63.0126
20.4318 57.2556
20.477 53.0317
20.5224 51.1175
20.5677 50.6605
20.6131 50.1958
20.6586 49.6901
20.7038 49.3632
20.7493 48.9193
20.7945 48.9512
20.84 48.7345
20.8853 48.7127
20.9307 48.5317
20.976 48.7805
21.0215 48.6077
21.0668 48.9885
21.1122 49.5753
21.1575 50.045
21.203 50.8935
21.2483 51.4644
21.2938 51.3945
21.3391 49.8635
21.3846 48.7715
21.4299 48.273
21.4754 48.3981
21.5207 48.7096
21.5662 48.8832
21.6116 49.3502
21.6571 49.9359
21.7024 50.8355
21.7479 52.7661
21.7933 56.0217
21.8388 59.4447
21.8843 63.2387
21.9297 64.7711
21.9752 62.6583
22.0206 58.6876
22.0661 56.1932
22.1115 55.9621
22.157 55.8677
22.2024 53.6943
22.248 51.1398
22.2933 49.3409
22.3389 48.9167
22.3843 48.8319
22.4299 48.7575
22.4753 48.6224
22.5208 48.4857
22.5662 48.4874
22.6118 48.7576
22.6572 48.9086
22.7028 49.4331
22.7483 49.8304
22.7939 50.5493
22.8393 52.2386
22.8849 54.5889
22.9303 56.4627
22.9759 57.7708
23.0214 56.9027
23.067 53.8503
23.1126 50.7061
23.1581 49.0992
23.2037 48.81
23.2492 48.7781
23.2948 48.8772
23.3403 49.0811
23.3859 49.9333
23.4314 51.0215
23.477 52.8183
23.5225 55.0192
23.5682 57.2157
23.6137 57.6172
23.6593 54.7465
23.7048 50.798
23.7505 47.824
23.796 46.3917
23.8417 45.8226
23.8872 45.486
23.9329 45.0827
23.9784 44.9347
24.0241 44.6142
24.0697 44.3137
24.1154 43.9577
24.1609 43.9176
24.2066 43.6899
24.2522 43.6887
24.2979 43.3785
24.3434 43.2308
24.3892 43.0004
24.4349 43.0995
24.4805 43.0085
24.5262 43.0354
24.5718 42.933
24.6175 42.8515
24.6631 42.6919
24.7089 42.3342
24.7545 42.2797
24.8002 42.1577
24.8458 42.0575
24.8916 41.9944
24.9372 42.3136
24.983 42.5418
25.0286 42.9406
25.0744 43.4043
25.12 43.7526
25.1658 44.3075
25.2114 44.8028
25.2572 44.743
25.3029 44.7406
25.3487 44.9448
25.3943 44.5654
25.4402 43.2692
25.4858 42.1765
25.5316 41.3755
25.5773 40.8741
25.6231 40.7866
25.669 40.5178
25.7147 40.4268
25.7605 40.3733
25.8062 40.4533
25.8521 40.5045
25.8977 40.5738
25.9436 40.8268
25.9893 40.9104
26.0352 41.4443
26.0809 41.6755
26.1268 41.6858
26.1725 41.1396
26.2184 40.6921
26.2641 40.2267
26.31 39.973
26.3557 40.1206
26.4017 40.1262
26.4474 40.4692
26.4933 40.8879
26.5391 41.3636
26.585 41.7248
26.6308 42.1266
26.6767 42.0721
26.7225 41.8339
26.7684 41.2594
26.8142 40.8074
26.8601 40.3977
26.9059 39.886
26.9519 39.3338
26.9979 39.0477
27.0437 38.7837
27.0896 38.6857
27.1354 38.6634
27.1814 38.5636
27.2272 38.4421
27.2732 38.4898
27.3191 38.23
27.3651 38.4169
27.4109 38.3538
27.4569 38.5393
27.5027 38.5249
27.5488 38.544
27.5946 38.2902
27.6407 38.0279
27.6865 38.0547
27.7326 37.7023
27.7784 37.8075
27.8245 37.7367
27.8703 37.9758
27.9164 38.3129
27.9623 38.4727
28.0084 38.7527
28.0543 39.0587
28.1003 39.0052
28.1462 38.6566
28.1923 38.2769
28.2384 37.6822
28.2843 37.4602
28.3304 36.9762
28.3764 36.5638
28.4225 36.2953
28.4684 36.2958
28.5145 35.7733
28.5605 35.8429
28.6066 35.6193
28.6526 35.5101
28.6987 35.4747
28.7447 35.443
28.7908 35.3413
28.8368 35.3302
28.8829 35.3493
28.9289 35.288
28.9751 35.0683
29.0211 34.879
29.0673 34.6976
29.1133 34.5462
29.1595 34.3566
29.2055 34.2026
29.2517 34.3399
29.2977 34.3545
29.3439 34.1699
29.3899 34.264
29.4361 34.1665
29.4824 33.9066
29.5284 33.6714
29.5746 33.269
29.6207 33.0098
29.6669 33.0221
29.713 32.9348
29.7593 32.8244
29.8053 32.755
29.8516 32.7904
29.8977 32.7559
29.9439 32.5279
29.99 32.4956
30.0363 32.4086
30.0824 32.4746
30.1287 32.4373
30.1748 32.413
30.2211 32.3757
30.2673 32.092
30.3136 32.2736
30.3597 32.288
30.406 32.1456
30.4522 32.0141
30.4985 32.0056
30.5447 32.2298
30.591 32.0645
30.6372 32.2052
30.6835 32.1546
30.7297 32.171
30.7761 32.1413
30.8224 32.0033
30.8686 31.8942
30.915 31.5443
30.9612 31.3372
31.0076 31.2254
31.0538 31.0678
31.1002 31.1008
31.1464 30.8767
31.1928 30.9204
31.2391 30.8743
31.2855 30.7292
31.3317 30.803
31.3781 30.9325
31.4244 30.878
31.4708 30.7453
31.5171 30.747
31.5636 30.7014
31.6098 30.4246
31.6563 30.2602
31.7026 30.2091
31.7491 30.0326
31.7953 30.158
31.8418 30.1686
31.8881 30.1589
31.9346 30.0486
31.9809 29.9815
32.0275 29.8842
32.074 29.7115
32.1203 29.5324
32.1668 29.4189
32.2132 29.2839
32.2597 29.2007
32.306 29.1232
32.3526 29.0086
32.399 28.9258
32.4455 28.7492
32.4919 28.6248
32.5385 28.5665
32.5848 28.4739
32.6314 28.4789
32.6778 28.3019
32.7244 28.1795
32.7708 28.1623
32.8174 28.1086
32.8638 27.9495
32.9104 28.0177
32.9569 27.9838
33.0035 27.8689
33.0499 27.7597
33.0966 27.8
33.143 27.6412
33.1897 27.728
33.2361 27.5648
33.2828 27.542
33.3293 27.3804
33.3759 27.3887
33.4226 27.1552
33.4691 27.1194
33.5158 26.8581
33.5623 26.8795
33.609 26.7199
33.6555 26.6048
33.7022 26.5701
33.7487 26.3899
33.7954 26.3784
33.842 26.2657
33.8887 26.2916
33.9353 26.2029
33.982 26.0575
34.0286 26.041
34.0753 25.9011
34.1219 25.8958
34.1687 25.8245
34.2152 25.7794
34.262 25.5586
34.3086 25.5308
34.3554 25.5183
34.402 25.262
34.4488 25.3072
34.4954 25.1756
34.5422 25.0616
34.5889 25.0415
34.6357 24.9451
34.6825 24.9391
34.7292 24.8492
34.776 24.672
34.8227 24.684
34.8695 24.6248
34.9162 24.533
34.9631 24.367
35.0098 24.5142
35.0566 24.2782
35.1033 24.2369
35.1502 24.2307
35.1969 24.1507
35.2438 24.0906
35.2906 23.9772
35.3375 24.0753
35.3842 23.9985
35.4311 23.9288
35.4779 23.9109
35.5248 23.8016
35.5716 23.7131
35.6185 23.6945
35.6653 23.5891
35.7123 23.5274
35.759 23.4637
35.806 23.2811
35.8528 23.2378
35.8998 23.1604
35.9468 23.0954
35.9936 23.0709
36.0406 22.9776
36.0874 22.9004
36.1345 22.8378
36.1813 22.8415
36.2283 22.6742
36.2752 22.5508
36.3222 22.5988
36.3691 22.5126
36.4161 22.4345
36.463 22.3893
36.5101 22.462
36.557 22.3053
36.6041 22.1611
36.651 22.1169
36.6981 22.0942
36.745 21.9368
36.7921 21.9248
36.839 21.8141
36.8861 21.7184
36.9331 21.6252
36.9802 21.646
37.0272 21.5366
37.0743 21.4675
37.1213 21.4158
37.1684 21.3986
37.2154 21.2711
37.2626 21.193
37.3098 21.1767
37.3568 21.061
37.404 21.0275
37.451 20.9267
37.4982 20.887
37.5452 20.756
37.5924 20.8156
37.6395 20.755
37.6867 20.597
37.7337 20.5541
37.781 20.4512
37.8281 20.4075
37.8753 20.3461
37.9224 20.3432
37.9697 20.2156
38.0168 20.1292
38.064 20.0708
38.1111 20.0647
38.1584 20.0062
38.2056 19.9495
38.2529 19.8886
38.3 19.7986
38.3473 19.7
38.3945 19.5948
38.4418 19.5626
38.489 19.549
38.5363 19.5036
38.5837 19.3777
38.6309 19.4299
38.6782 19.269
38.7254 19.1601
38.7728 19.1212
38.82 19.0753
38.8674 19.0964
38.9146 18.9865
38.9621 18.9778
39.0093 18.8897
39.0567 18.8904
39.104 18.8266
39.1514 18.6607
39.1987 18.6517
39.2461 18.6084
39.2934 18.4995
39.3409 18.4864
39.3882 18.3677
39.4356 18.3557
39.483 18.2277
39.5304 18.2605
39.5778 18.1754
39.6253 18.125
39.6726 18.0382
39.7201 18.0677
39.7675 17.9281
39.815 17.9105
39.8624 17.8041
39.9099 17.7599
39.9575 17.7078
40.0049 17.6684
40.0525 17.6099
40.0999 17.5586
40.1474 17.4939
40.1949 17.3983
40.2425 17.3473
40.2899 17.3111
40.3375 17.2491
40.385 17.1831
40.4326 17.1875
40.48 17.0558
40.5277 17.026
40.5752 16.9614
40.6228 16.8693
40.6703 16.8889
40.718 16.886
40.7655 16.7394
40.8132 16.684
40.8607 16.7293
40.9084 16.6274
40.9559 16.5673
41.0036 16.5308
41.0512 16.4999
41.0989 16.4427
41.1465 16.371
41.1942 16.2726
41.242 16.2718
41.2896 16.1674
41.3373 16.1247
41.3849 16.0165
41.4327 15.9844
41.4803 15.9388
41.5281 15.8697
41.5758 15.8235
41.6236 15.7616
41.6712 15.7429
41.7191 15.7561
41.7667 15.6468
41.8146 15.6031
41.8622 15.5557
41.9101 15.5098
41.9578 15.3972
42.0057 15.3594
42.0534 15.3754
42.1013 15.2685
42.149 15.1973
42.1969 15.1368
42.2446 15.1241
42.2925 15.047
42.3403 15.0058
42.3882 15.002
42.436 14.932
42.4839 14.8391
42.5319 14.8887
42.5797 14.7624
42.6277 14.768
42.6755 14.6457
42.7235 14.6284
42.7713 14.5793
42.8193 14.5242
42.8671 14.498
42.9152 14.424
42.963 14.3791
43.0111 14.3217
43.0589 14.2562
43.107 14.2707
43.1549 14.174
43.2029 14.1015
43.2508 14.1132
43.2989 14.041
43.3468 13.9968
43.3949 13.9249
43.4429 13.8909
43.491 13.8329
43.5389 13.814
43.5871 13.7608
43.635 13.7074
43.6832 13.5963
43.7312 13.5796
43.7793 13.5746
43.8273 13.5212
43.8755 13.4385
43.9237 13.3829
43.9717 13.37
44.0199 13.3459
44.068 13.2688
44.1162 13.1978
44.1642 13.2135
44.2125 13.177
44.2606 13.0873
44.3088 13.0593
44.3569 12.981
44.4052 12.9924
44.4533 12.8854
44.5016 12.852
44.5497 12.8563
44.598 12.8283
44.6461 12.7243
44.6945 12.6698
44.7426 12.6584
44.791 12.5496
44.8391 12.5956
44.8875 12.4969
44.9357 12.4926
44.984 12.4016
45.0322 12.3796
45.0806 12.3608
45.1288 12.2882
45.1773 12.2378
45.2257 12.2009
45.2739 12.1267
45.3224 12.1464
45.3706 12.089
45.4191 12.0247
45.4673 11.9886
45.5158 11.9717
45.5641 11.9279
45.6126 11.8634
45.6609 11.8574
45.7094 11.7866
45.7577 11.7426
45.8063 11.6388
45.8546 11.6694
45.9031 11.6222
45.9515 11.5885
46.0001 11.5169
46.0484 11.4828
46.097 11.4568
46.1454 11.4193
46.194 11.4036
46.2424 11.3279
46.291 11.2821
46.3395 11.2556
46.3881 11.2201
46.4365 11.1831
46.4852 11.1187
46.5337 11.111
46.5823 11.0598
46.631 10.9643
46.6795 10.9738
46.7282 10.9435
46.7767 10.8843
46.8254 10.8348
46.8739 10.8259
46.9226 10.7432
46.9712 10.7225
47.0199 10.6915
47.0685 10.6612
47.1173 10.6016
47.1658 10.5383
47.2146 10.5605
47.2632 10.464
47.312 10.4535
47.3606 10.3816
47.4095 10.3571
47.4581 10.345
47.5069 10.3189
47.5556 10.2098
47.6044 10.2096
47.6531 10.2032
47.702 10.1428
47.7507 10.1075
47.7996 10.0618
47.8483 10.034
47.8972 9.97983
47.9461 9.9372
47.9948 9.9137
48.0438 9.89385
48.0925 9.86248
48.1415 9.80669
48.1902 9.74655
48.2392 9.7701
48.288 9.75957
48.337 9.67578
48.3858 9.63907
48.4348 9.5901
48.4837 9.59912
48.5327 9.54776
48.5815 9.53631
48.6306 9.45594
48.6795 9.42753
48.7285 9.39501
48.7774 9.39425
48.8265 9.32811
48.8754 9.20871
48.9245 9.26176
48.9734 9.20041
49.0226 9.18123
49.0715 9.17176
49.1206 9.10297
49.1696 9.10061
49.2188 9.03596
49.2679 8.97613
49.3169 8.93203
49.3661 8.95781
49.4151 8.93253
49.4643 8.88791
49.5134 8.85173
49.5626 8.78831
49.6117 8.81497
49.6609 8.75033
49.71 8.67478
49.7592 8.66325
49.8083 8.61278
49.8576 8.57057
49.9067 8.57228
49.956 8.55102
50.0052 8.48186
50.0545 8.46257
50.1036 8.42417
50.153 8.42326
50.2022 8.36972
50.2515 8.32488
50.3007 8.30144
50.3501 8.2385
50.3993 8.23069
50.4487 8.21405
50.498 8.18929
50.5474 8.15535
50.5966 8.10978
50.6461 8.0951
50.6955 8.0756
50.7448 8.0236
50.7943 8.0192
50.8436 7.97715
50.8931 7.93348
50.9424 7.92187
50.9919 7.87291
51.0413 7.86794
51.0908 7.8049
51.1402 7.77742
51.1897 7.77866
51.2391 7.72267
51.2887 7.67591
51.3381 7.67243
51.3877 7.62161
51.4371 7.61308
51.4867 7.56437
51.5362 7.51969
51.5858 7.49997
51.6353 7.46841
51.6849 7.43229
51.7344 7.41182
51.7841 7.37073
51.8336 7.33412
51.8833 7.29783
51.9328 7.29584
51.9826 7.22305
52.0323 7.25116
52.0818 7.16914
52.1316 7.13381
52.1812 7.17602
52.231 7.10585
52.2806 7.07819
52.3304 7.06258
52.38 6.98997
52.4298 6.99632
52.4794 6.95367
52.5293 6.93848
52.5789 6.90446
52.6288 6.91826
52.6785 6.84192
52.7284 6.84068
52.7781 6.77357
52.828 6.77914
52.8777 6.75971
52.9276 6.6892
52.9774 6.69131
53.0273 6.62238
53.0771 6.63083
53.1271 6.63428
53.1769 6.55314
53.2269 6.52189
53.2767 6.50329
53.3267 6.46955
53.3765 6.4356
53.4266 6.44893
53.4766 6.45421
53.5265 6.361
53.5765 6.34523
53.6264 6.3436
53.6765 6.31635
53.7264 6.21059
53.7765 6.22393
53.8265 6.20901
53.8766 6.18633
53.9266 6.14579
53.9767 6.14605
54.0267 6.07797
54.0769 6.04335
54.1269 6.05814
54.1771 6.0469
54.2271 5.97814
54.2773 5.9517
54.3274 5.92391
54.3776 5.91895
54.4277 5.87071
54.478 5.83508
54.528 5.80072
54.5783 5.74479
54.6285 5.66412
54.6788 5.6503
54.7289 5.63563
54.7792 5.57433
54.8296 5.55663
54.8798 5.50279
54.9301 5.47745
54.9803 5.4443
55.0307 5.44123
55.0809 5.33804
55.1314 5.36595
55.1816 5.332
55.232 5.20545
55.2823 5.18615
55.3328 5.10703
55.383 5.06296
55.4335 5.08351
55.4838 4.99586
55.5344 4.90942
55.5847 4.92928
55.6352 4.92136
55.6856 4.84249
55.7361 4.86685