File: XRD/Ni3Fe_FD0724.xy
TT I
1.27165 7.02896
1.31627 6.36869
1.36089 7.09469
1.40551 6.79027
1.45013 6.16467
1.49476 6.2077
1.53938 6.54721
1.584 5.37254
1.62863 5.24218
1.67325 5.01478
1.71787 4.8103
1.7625 4.84933
1.80712 4.794
1.85174 4.8886
1.89636 4.55412
1.94099 5.43183
1.98562 4.87401
2.03025 5.26475
2.07487 4.80357
2.11949 4.95037
2.16411 4.57626
2.20874 12.5813
2.25338 18.2909
2.298 6.0221
2.34263 5.97044
2.38725 5.79217
2.43188 5.80595
2.4765 6.96285
2.52115 7.28999
2.56577 7.51098
2.6104 8.12088
2.65503 7.99428
2.69965 8.06498
2.7443 8.19926
2.78893 8.02763
2.83356 8.17097
2.87818 8.30795
2.92281 8.76341
2.96744 9.27763
3.01209 10.5361
3.05672 11.2084
3.10135 12.0463
3.14599 12.8637
3.19062 14.0724
3.23527 15.2333
3.2799 15.5249
3.32454 16.7579
3.36917 17.8976
3.4138 19.1984
3.45844 19.6018
3.50309 20.6411
3.54773 21.7355
3.59237 23.6229
3.637 78.4064
3.68164 50.8127
3.7263 26.0923
3.77094 25.9921
3.81558 26.3529
3.86022 27.4281
3.90486 28.9011
3.9495 29.4152
3.99416 30.7809
4.0388 32.2265
4.08344 33.8675
4.12809 34.5554
4.17273 36.8044
4.21738 42.5935
4.26204 205.404
4.30669 176.376
4.35133 47.4394
4.39598 44.4331
4.44063 52.504
4.4853 61.598
4.52995 50.9175
4.5746 51.7033
4.61925 53.2112
4.6639 55.4357
4.70855 58.6191
4.75322 60.9718
4.79788 64.2857
4.84253 67.3831
4.88719 71.6705
4.93184 75.493
4.97652 80.7599
5.02118 86.9744
5.06583 94.7323
5.11049 105.593
5.15515 162.259
5.19981 346.232
5.24449 2881.37
5.28916 12630.7
5.33382 2859.99
5.37848 186.331
5.42315 128.793
5.46783 113.716
5.5125 106.424
5.55716 102.058
5.60183 98.4124
5.6465 96.4345
5.69117 93.8002
5.73586 92.5302
5.78053 91.7929
5.8252 91.7655
5.86988 92.6758
5.91455 93.9604
5.95924 101.163
6.00392 205.59
6.0486 957.839
6.09328 4443.03
6.13795 3139.35
6.18263 234.652
6.22733 91.7622
6.27201 82.2657
6.3167 95.3402
6.36138 78.4457
6.40606 68.9982
6.45075 67.5489
6.49545 65.7664
6.54014 63.5703
6.58483 62.9173
6.62952 62.4575
6.67421 87.9545
6.71892 123.413
6.76361 65.9555
6.8083 58.6908
6.853 57.412
6.89769 56.5361
6.94239 56.4061
6.98711 55.4622
7.03181 55.5298
7.07651 55.3368
7.12121 55.0256
7.16591 55.2234
7.21063 55.2696
7.25533 67.5046
7.30004 149.583
7.34475 82.1207
7.38945 56.3188
7.43416 54.41
7.47889 54.2473
7.5236 54.5304
7.56831 55.3358
7.61303 56.6608
7.65774 56.8443
7.70247 56.1734
7.74719 55.923
7.79191 56.4515
7.83663 56.6084
7.88135 57.9546
7.92607 58.8398
7.97081 59.7843
8.01553 61.1099
8.06026 62.0373
8.10498 64.1921
8.14971 71.7069
8.19446 70.8995
8.23919 69.5545
8.28392 71.69
8.32865 74.1062
8.37339 78.4102
8.41812 85.0414
8.46288 108.471
8.50761 162.851
8.55235 386.744
8.59709 1225.58
8.64183 2134.23
8.68658 959.214
8.73134 166.038
8.77609 99.2068
8.82083 92.7014
8.86558 89.7122
8.91033 89.5729
8.9551 90.0951
8.99985 85.2693
9.04461 83.5924
9.08936 82.6655
9.13412 82.0868
9.17888 81.8119
9.22365 82.7925
9.26841 81.828
9.31318 82.8432
9.35794 82.8593
9.4027 83.4916
9.44749 84.3174
9.49226 84.9013
9.53703 85.4995
9.5818 87.4485
9.62657 91.3577
9.67134 96.8189
9.71614 93.3713
9.76091 93.7527
9.80569 96.5989
9.85047 99.6452
9.89525 119.702
9.94005 130.66
9.98484 176.039
10.0296 344.321
10.0744 830.517
10.1192 1763.09
10.164 1571.6
10.2088 402.911
10.2536 126.06
10.2984 112.025
10.3432 112.05
10.388 103.85
10.4328 117.927
10.4776 160.21
10.5224 288.425
10.5672 507.15
10.612 507.064
10.6568 204.138
10.7017 96.5973
10.7465 86.2621
10.7913 83.0197
10.8361 80.985
10.8809 79.0426
10.9257 78.0277
10.9706 78.2072
11.0154 74.6448
11.0602 72.6081
11.105 71.376
11.1499 74.9985
11.1947 80.0062
11.2395 72.6528
11.2844 69.6284
11.3292 66.7757
11.374 65.9428
11.4189 65.1576
11.4637 64.6852
11.5086 65.2683
11.5534 67.4187
11.5983 65.0183
11.6431 63.3467
11.688 62.8195
11.7328 63.2088
11.7777 62.9855
11.8225 62.1245
11.8674 62.0328
11.9122 62.4901
11.9571 62.846
12.002 63.4752
12.0468 67.6503
12.0917 78.2541
12.1366 103.759
12.1814 154.781
12.2263 202.805
12.2712 161.068
12.3161 94.5374
12.3609 69.2204
12.4058 64.3659
12.4507 63.9361
12.4956 64.1392
12.5405 64.1471
12.5853 65.1877
12.6302 71.5583
12.6751 75.453
12.72 69.2387
12.7649 67.9437
12.8098 68.3408
12.8547 69.4086
12.8996 70.8696
12.9445 72.0304
12.9894 73.6108
13.0343 75.5675
13.0792 78.8646
13.1242 87.8925
13.1691 110.732
13.214 148.904
13.2589 243.597
13.3038 372.338
13.3487 410.916
13.3937 264.234
13.4386 125.807
13.4835 105.339
13.5285 119.977
13.5734 160.622
13.6183 255.742
13.6633 347.385
13.7082 330.508
13.7531 184.181
13.7981 97.292
13.843 81.5865
13.888 79.4353
13.9329 76.9539
13.9779 75.8058
14.0228 74.3865
14.0678 72.729
14.1127 72.3618
14.1577 72.4642
14.2027 71.3477
14.2476 70.2955
14.2926 70.216
14.3376 71.1907
14.3825 70.0981
14.4275 68.693
14.4725 68.2367
14.5175 68.8861
14.5624 68.9451
14.6074 70.6333
14.6524 71.1446
14.6974 70.3674
14.7424 71.8041
14.7874 78.5285
14.8324 89.1899
14.8774 111.748
14.9224 156.328
14.9674 208.03
15.0124 214.315
15.0574 147.253
15.1024 90.7638
15.1474 72.2504
15.1924 70.0493
15.2374 70.5693
15.2824 69.488
15.3274 67.7544
15.3725 66.6885
15.4175 66.3558
15.4625 65.9572
15.5076 66.2321
15.5526 66.087
15.5976 65.7523
15.6426 66.828
15.6877 71.9364
15.7327 79.6587
15.7778 95.5367
15.8228 128.513
15.8679 171.778
15.9129 189.306
15.958 153.536
16.003 97.3372
16.0481 68.0373
16.0931 64.0579
16.1382 62.1527
16.1833 60.3983
16.2283 58.9139
16.2734 58.2022
16.3185 58.0056
16.3636 58.5892
16.4086 57.4022
16.4537 56.0761
16.4988 55.3071
16.5439 55.2761
16.589 54.9207
16.6341 54.7655
16.6792 54.3524
16.7243 54.8114
16.7694 54.4854
16.8145 54.7729
16.8596 55.1744
16.9047 56.1153
16.9498 56.3498
16.9949 55.6249
17.04 55.5076
17.0851 57.003
17.1302 58.5151
17.1754 61.6247
17.2205 66.8867
17.2656 74.745
17.3108 82.1447
17.3559 81.3114
17.401 70.7024
17.4462 62.1876
17.4913 59.1727
17.5365 59.0368
17.5815 59.0227
17.6268 59.3456
17.6718 60.1905
17.7171 60.6336
17.7622 61.0705
17.8074 61.7656
17.8525 64.2592
17.8977 67.9735
17.9428 73.6635
17.9881 82.9169
18.0331 101.543
18.0784 122.665
18.1237 137.77
18.1688 130.365
18.214 103.543
18.2591 87.4372
18.3044 91.597
18.3495 100.153
18.3948 105.469
18.4399 95.6095
18.4852 77.2258
18.5303 65.6234
18.5756 62.0592
18.6207 61.0089
18.666 60.3014
18.7112 59.5368
18.7565 58.7377
18.8016 58.6262
18.8469 58.1053
18.892 57.5264
18.9374 57.2647
18.9825 57.0354
19.0278 56.7603
19.073 56.6432
19.1183 57.2131
19.1635 57.9024
19.2088 59.3942
19.254 62.1235
19.2993 66.9712
19.3447 72.788
19.3898 75.5684
19.4352 71.2718
19.4804 63.068
19.5257 56.8177
19.5709 54.1845
19.6163 53.7751
19.6615 53.6354
19.7068 53.23
19.752 53.0785
19.7974 53.4692
19.8426 54.1759
19.888 54.8397
19.9332 56.237
19.9786 58.898
20.0238 62.7431
20.0692 67.2882
20.1144 69.1179
20.1598 67.9335
20.205 63.5398
20.2504 62.5754
20.2957 64.0756
20.3411 65.2058
20.3863 63.3979
20.4318 58.2619
20.477 53.6538
20.5224 51.572
20.5677 50.9855
20.6131 50.2087
20.6586 49.4364
20.7038 49.6308
20.7493 49.1147
20.7945 48.9699
20.84 48.7383
20.8853 48.6104
20.9307 48.6631
20.976 48.6518
21.0215 48.5339
21.0668 48.9762
21.1122 49.2685
21.1575 50.1462
21.203 50.843
21.2483 51.1441
21.2938 51.3271
21.3391 50.0683
21.3846 48.8674
21.4299 48.2077
21.4754 48.2177
21.5207 48.443
21.5662 48.7085
21.6116 49.0366
21.6571 49.774
21.7024 50.7496
21.7479 52.8386
21.7933 55.4656
21.8388 59.1546
21.8843 62.6632
21.9297 64.4521
21.9752 62.9906
22.0206 59.6268
22.0661 56.6206
22.1115 55.667
22.157 55.6417
22.2024 54.0332
22.248 51.3147
22.2933 49.7989
22.3389 48.9208
22.3843 48.9886
22.4299 48.7614
22.4753 48.7081
22.5208 48.621
22.5662 48.2706
22.6118 48.4055
22.6572 48.8925
22.7028 49.1337
22.7483 49.5835
22.7939 50.4203
22.8393 52.0587
22.8849 54.2865
22.9303 56.3582
22.9759 57.6696
23.0214 56.9217
23.067 54.2747
23.1126 51.1354
23.1581 49.0411
23.2037 48.7485
23.2492 48.6895
23.2948 48.7844
23.3403 49.0108
23.3859 49.5728
23.4314 50.7513
23.477 52.8419
23.5225 54.9617
23.5682 56.835
23.6137 57.4032
23.6593 55.3319
23.7048 51.555
23.7505 48.3287
23.796 46.5111
23.8417 45.8648
23.8872 45.4835
23.9329 45.1202
23.9784 44.8229
24.0241 44.5222
24.0697 44.4098
24.1154 43.8045
24.1609 43.9577
24.2066 43.7015
24.2522 43.6428
24.2979 43.2947
24.3434 43.3096
24.3892 43.1852
24.4349 43.1241
24.4805 42.802
24.5262 42.9928
24.5718 42.8817
24.6175 42.7264
24.6631 42.6928
24.7089 42.5068
24.7545 42.3937
24.8002 42.221
24.8458 42.1996
24.8916 42.0584
24.9372 42.2118
24.983 42.5061
25.0286 42.7944
25.0744 43.2807
25.12 43.7993
25.1658 44.146
25.2114 44.5643
25.2572 44.8048
25.3029 44.7373
25.3487 44.6381
25.3943 44.3125
25.4402 43.447
25.4858 42.3516
25.5316 41.4408
25.5773 40.8065
25.6231 40.8332
25.669 40.4297
25.7147 40.5112
25.7605 40.5178
25.8062 40.3731
25.8521 40.5695
25.8977 40.4141
25.9436 40.7104
25.9893 40.9672
26.0352 41.3358
26.0809 41.4246
26.1268 41.4756
26.1725 41.1914
26.2184 40.7979
26.2641 40.2914
26.31 40.1174
26.3557 40.1046
26.4017 40.0097
26.4474 40.3163
26.4933 40.7544
26.5391 41.1809
26.585 41.6877
26.6308 41.9194
26.6767 41.8955
26.7225 41.7994
26.7684 41.4378
26.8142 40.7877
26.8601 40.2917
26.9059 39.9648
26.9519 39.4531
26.9979 39.2025
27.0437 38.7385
27.0896 38.6623
27.1354 38.6543
27.1814 38.5696
27.2272 38.3185
27.2732 38.4993
27.3191 38.363
27.3651 38.4097
27.4109 38.3233
27.4569 38.4205
27.5027 38.428
27.5488 38.4315
27.5946 38.2591
27.6407 38.1294
27.6865 38.0704
27.7326 37.7291
27.7784 37.86
27.8245 37.8465
27.8703 38.0077
27.9164 38.2184
27.9623 38.4305
28.0084 38.6302
28.0543 38.9879
28.1003 38.7944
28.1462 38.8196
28.1923 38.4312
28.2384 37.8752
28.2843 37.5454
28.3304 37.1071
28.3764 36.5953
28.4225 36.3519
28.4684 36.2372
28.5145 35.9913
28.5605 35.8197
28.6066 35.6203
28.6526 35.5062
28.6987 35.5443
28.7447 35.4715
28.7908 35.3369
28.8368 35.4332
28.8829 35.3079
28.9289 35.3445
28.9751 35.2111
29.0211 34.9579
29.0673 34.598
29.1133 34.5384
29.1595 34.238
29.2055 34.2694
29.2517 34.3505
29.2977 34.1608
29.3439 34.3517
29.3899 34.1072
29.4361 34.1486
29.4824 33.9806
29.5284 33.7925
29.5746 33.3458
29.6207 32.9906
29.6669 32.9857
29.713 32.9815
29.7593 32.7707
29.8053 32.8465
29.8516 32.8355
29.8977 32.7721
29.9439 32.5079
29.99 32.569
30.0363 32.3901
30.0824 32.4931
30.1287 32.4742
30.1748 32.2342
30.2211 32.3429
30.2673 32.1116
30.3136 32.2918
30.3597 32.2446
30.406 32.1365
30.4522 31.998
30.4985 31.9795
30.5447 32.136
30.591 31.9645
30.6372 32.1264
30.6835 32.1094
30.7297 32.1254
30.7761 32.0394
30.8224 31.8851
30.8686 31.7687
30.915 31.6156
30.9612 31.4886
31.0076 31.2682
31.0538 31.1513
31.1002 31.1233
31.1464 30.9009
31.1928 30.912
31.2391 30.8695
31.2855 30.7828
31.3317 30.832
31.3781 30.8943
31.4244 30.7713
31.4708 30.7325
31.5171 30.7275
31.5636 30.6698
31.6098 30.5366
31.6563 30.3972
31.7026 30.2433
31.7491 30.1112
31.7953 30.07
31.8418 30.1056
31.8881 30.1091
31.9346 30.01
31.9809 29.9171
32.0275 29.9146
32.074 29.7721
32.1203 29.598
32.1668 29.4648
32.2132 29.3748
32.2597 29.1784
32.306 29.0794
32.3526 28.9614
32.399 28.8884
32.4455 28.7905
32.4919 28.6432
32.5385 28.6256
32.5848 28.4077
32.6314 28.4804
32.6778 28.3687
32.7244 28.2213
32.7708 28.1256
32.8174 28.0775
32.8638 27.9954
32.9104 28.0687
32.9569 27.9594
33.0035 27.7381
33.0499 27.815
33.0966 27.72
33.143 27.6985
33.1897 27.6112
33.2361 27.5474
33.2828 27.5327
33.3293 27.3939
33.3759 27.3619
33.4226 27.2344
33.4691 27.005
33.5158 27.0172
33.5623 26.8353
33.609 26.6877
33.6555 26.5946
33.7022 26.553
33.7487 26.4446
33.7954 26.4275
33.842 26.3008
33.8887 26.1885
33.9353 26.2921
33.982 26.1203
34.0286 26.0373
34.0753 25.9793
34.1219 25.8869
34.1687 25.747
34.2152 25.7005
34.262 25.641
34.3086 25.6032
34.3554 25.4691
34.402 25.3874
34.4488 25.1966
34.4954 25.1801
34.5422 25.1199
34.5889 24.9523
34.6357 24.8827
34.6825 24.8541
34.7292 24.8448
34.776 24.7436
34.8227 24.6582
34.8695 24.6054
34.9162 24.5713
34.9631 24.4632
35.0098 24.4173
35.0566 24.263
35.1033 24.3023
35.1502 24.2048
35.1969 24.0854
35.2438 24.0884
35.2906 24.0618
35.3375 24.0472
35.3842 23.9812
35.4311 23.9484
35.4779 23.8464
35.5248 23.8482
35.5716 23.7805
35.6185 23.6837
35.6653 23.5742
35.7123 23.5593
35.759 23.4622
35.806 23.3797
35.8528 23.2537
35.8998 23.1372
35.9468 23.1036
35.9936 22.9677
36.0406 22.9717
36.0874 22.9351
36.1345 22.9215
36.1813 22.7943
36.2283 22.7101
36.2752 22.6142
36.3222 22.621
36.3691 22.5183
36.4161 22.3968
36.463 22.4429
36.5101 22.3657
36.557 22.301
36.6041 22.1406
36.651 22.1413
36.6981 22.0542
36.745 21.9581
36.7921 21.8533
36.839 21.7252
36.8861 21.7202
36.9331 21.7116
36.9802 21.5855
37.0272 21.5524
37.0743 21.5284
37.1213 21.4123
37.1684 21.402
37.2154 21.284
37.2626 21.2272
37.3098 21.1965
37.3568 21.0865
37.404 21.0975
37.451 20.9478
37.4982 20.8775
37.5452 20.8391
37.5924 20.6602
37.6395 20.8058
37.6867 20.7153
37.7337 20.6258
37.781 20.4535
37.8281 20.4649
37.8753 20.3723
37.9224 20.3008
37.9697 20.2419
38.0168 20.1669
38.064 20.0589
38.1111 20.0811
38.1584 19.9682
38.2056 19.9126
38.2529 19.8892
38.3 19.8058
38.3473 19.7762
38.3945 19.6007
38.4418 19.6335
38.489 19.5091
38.5363 19.4863
38.5837 19.4511
38.6309 19.3643
38.6782 19.3073
38.7254 19.2879
38.7728 19.2292
38.82 19.0806
38.8674 19.0636
38.9146 18.9799
38.9621 18.9327
39.0093 18.8994
39.0567 18.8662
39.104 18.8002
39.1514 18.6657
39.1987 18.6377
39.2461 18.5991
39.2934 18.575
39.3409 18.3968
39.3882 18.3319
39.4356 18.3587
39.483 18.2617
39.5304 18.1958
39.5778 18.1964
39.6253 18.1729
39.6726 18.1207
39.7201 18.0195
39.7675 17.9161
39.815 17.8492
39.8624 17.8507
39.9099 17.8501
39.9575 17.6234
40.0049 17.6563
40.0525 17.6015
40.0999 17.5855
40.1474 17.4751
40.1949 17.4041
40.2425 17.336
40.2899 17.3617
40.3375 17.2845
40.385 17.1888
40.4326 17.1056
40.48 17.071
40.5277 17.054
40.5752 16.9968
40.6228 16.929
40.6703 16.9099
40.718 16.8181
40.7655 16.7787
40.8132 16.705
40.8607 16.737
40.9084 16.6732
40.9559 16.5879
41.0036 16.6162
41.0512 16.4319
41.0989 16.4477
41.1465 16.3523
41.1942 16.3546
41.242 16.2322
41.2896 16.2071
41.3373 16.1121
41.3849 16.0671
41.4327 16.0229
41.4803 15.9501
41.5281 15.9122
41.5758 15.8851
41.6236 15.7941
41.6712 15.7194
41.7191 15.7193
41.7667 15.6482
41.8146 15.6329
41.8622 15.5586
41.9101 15.5293
41.9578 15.3853
42.0057 15.3809
42.0534 15.3555
42.1013 15.2681
42.149 15.2441
42.1969 15.1698
42.2446 15.1248
42.2925 15.1096
42.3403 15.0971
42.3882 15.0321
42.436 14.9252
42.4839 14.8712
42.5319 14.8488
42.5797 14.8066
42.6277 14.7226
42.6755 14.7088
42.7235 14.651
42.7713 14.5628
42.8193 14.528
42.8671 14.4848
42.9152 14.4499
42.963 14.387
43.0111 14.3069
43.0589 14.3463
43.107 14.2234
43.1549 14.1577
43.2029 14.1235
43.2508 14.0948
43.2989 14.0607
43.3468 14.0124
43.3949 13.8968
43.4429 13.9554
43.491 13.8607
43.5389 13.8002
43.5871 13.7862
43.635 13.6871
43.6832 13.6783
43.7312 13.5798
43.7793 13.536
43.8273 13.5521
43.8755 13.5095
43.9237 13.4266
43.9717 13.3903
44.0199 13.3168
44.068 13.289
44.1162 13.2438
44.1642 13.2264
44.2125 13.1732
44.2606 13.1357
44.3088 13.0901
44.3569 13.0167
44.4052 13.036
44.4533 12.8813
44.5016 12.835
44.5497 12.8911
44.598 12.8163
44.6461 12.7543
44.6945 12.6836
44.7426 12.6626
44.791 12.5864
44.8391 12.6089
44.8875 12.5341
44.9357 12.5006
44.984 12.4542
45.0322 12.3751
45.0806 12.3235
45.1288 12.3226
45.1773 12.2515
45.2257 12.214
45.2739 12.1658
45.3224 12.1357
45.3706 12.1049
45.4191 12.0536
45.4673 12.0548
45.5158 11.9722
45.5641 11.9333
45.6126 11.8855
45.6609 11.8331
45.7094 11.7852
45.7577 11.7724
45.8063 11.6699
45.8546 11.6668
45.9031 11.6079
45.9515 11.5673
46.0001 11.5539
46.0484 11.5367
46.097 11.4225
46.1454 11.4137
46.194 11.4154
46.2424 11.3524
46.291 11.3048
46.3395 11.2608
46.3881 11.189
46.4365 11.1749
46.4852 11.1234
46.5337 11.1263
46.5823 11.0611
46.631 10.9914
46.6795 10.9357
46.7282 10.927
46.7767 10.9275
46.8254 10.8362
46.8739 10.836
46.9226 10.7525
46.9712 10.7417
47.0199 10.6774
47.0685 10.6251
47.1173 10.5971
47.1658 10.5479
47.2146 10.5357
47.2632 10.4864
47.312 10.4518
47.3606 10.4337
47.4095 10.4235
47.4581 10.295
47.5069 10.3139
47.5556 10.2781
47.6044 10.2621
47.6531 10.1948
47.702 10.1381
47.7507 10.1469
47.7996 10.0195
47.8483 10.0175
47.8972 10.0408
47.9461 9.99045
47.9948 9.91926
48.0438 9.8847
48.0925 9.89976
48.1415 9.79727
48.1902 9.77368
48.2392 9.77385
48.288 9.7041
48.337 9.66745
48.3858 9.64206
48.4348 9.61714
48.4837 9.61593
48.5327 9.53608
48.5815 9.49469
48.6306 9.48742
48.6795 9.41431
48.7285 9.3722
48.7774 9.37533
48.8265 9.35023
48.8754 9.27859
48.9245 9.26845
48.9734 9.24848
49.0226 9.19195
49.0715 9.16327
49.1206 9.15192
49.1696 9.0808
49.2188 9.10156
49.2679 8.98335
49.3169 8.98592
49.3661 8.94855
49.4151 8.93024
49.4643 8.88173
49.5134 8.84718
49.5626 8.79105
49.6117 8.80323
49.6609 8.77591
49.71 8.72556
49.7592 8.65353
49.8083 8.61215
49.8576 8.63632
49.9067 8.57189
49.956 8.556
50.0052 8.50417
50.0545 8.45548
50.1036 8.46974
50.153 8.43227
50.2022 8.40363
50.2515 8.34438
50.3007 8.28905
50.3501 8.26628
50.3993 8.22576
50.4487 8.19161
50.498 8.19125
50.5474 8.20844
50.5966 8.13046
50.6461 8.09419
50.6955 8.0698
50.7448 8.01828
50.7943 8.03531
50.8436 7.9724
50.8931 7.93521
50.9424 7.90521
50.9919 7.89691
51.0413 7.83484
51.0908 7.8208
51.1402 7.80298
51.1897 7.75547
51.2391 7.75142
51.2887 7.7056
51.3381 7.62914
51.3877 7.6229
51.4371 7.59013
51.4867 7.56468
51.5362 7.51975
51.5858 7.5017
51.6353 7.47219
51.6849 7.46035
51.7344 7.41882
51.7841 7.42509
51.8336 7.36902
51.8833 7.32776
51.9328 7.25629
51.9826 7.2507
52.0323 7.24942
52.0818 7.19027
52.1316 7.16047
52.1812 7.14648
52.231 7.07454
52.2806 7.08675
52.3304 7.06933
52.38 7.03752
52.4298 7.0232
52.4794 6.97733
52.5293 6.92823
52.5789 6.89399
52.6288 6.8753
52.6785 6.85738
52.7284 6.81631
52.7781 6.84186
52.828 6.7551
52.8777 6.76683
52.9276 6.74125
52.9774 6.67552
53.0273 6.689
53.0771 6.63418
53.1271 6.6222
53.1769 6.55852
53.2269 6.54348
53.2767 6.51569
53.3267 6.48812
53.3765 6.46928
53.4266 6.45397
53.4766 6.41608
53.5265 6.35615
53.5765 6.3624
53.6264 6.30698
53.6765 6.32718
53.7264 6.25878
53.7765 6.25479
53.8265 6.20737
53.8766 6.21622
53.9266 6.18281
53.9767 6.12654
54.0267 6.11998
54.0769 6.06056
54.1269 6.04418
54.1771 6.07589
54.2271 6.01721
54.2773 5.97767
54.3274 5.93723
54.3776 5.89183
54.4277 5.85355
54.478 5.81857
54.528 5.80625
54.5783 5.80148
54.6285 5.72351
54.6788 5.65948
54.7289 5.66186
54.7792 5.59686
54.8296 5.55625
54.8798 5.52296
54.9301 5.44767
54.9803 5.45347
55.0307 5.45082
55.0809 5.38222
55.1314 5.41016
55.1816 5.29693
55.232 5.2405
55.2823 5.20471
55.3328 5.1408
55.383 5.10889
55.4335 5.01847
55.4838 5.02486
55.5344 4.9969
55.5847 4.95107
55.6352 4.91831
55.6856 4.80491
55.7361 4.8343