File: XRD/Ni3Fe_FD0105.xy
TT I
1.27165 8.44018
1.31627 7.92477
1.36089 7.83134
1.40551 7.13865
1.45013 6.63703
1.49476 6.84052
1.53938 6.62244
1.584 6.15123
1.62863 5.58184
1.67325 5.4848
1.71787 6.09072
1.7625 5.7405
1.80712 5.56046
1.85174 5.10011
1.89636 5.46046
1.94099 5.59051
1.98562 5.06133
2.03025 5.36334
2.07487 5.22285
2.11949 4.84758
2.16411 4.82395
2.20874 4.55962
2.25338 5.16806
2.298 5.29625
2.34263 4.29297
2.38725 4.24093
2.43188 4.34867
2.4765 3.90444
2.52115 4.38746
2.56577 3.97787
2.6104 4.57639
2.65503 4.554
2.69965 5.41774
2.7443 5.71784
2.78893 6.14053
2.83356 6.47484
2.87818 7.59954
2.92281 8.55218
2.96744 8.96219
3.01209 9.66606
3.05672 10.9595
3.10135 12.6333
3.14599 13.1252
3.19062 13.9458
3.23527 14.6687
3.2799 15.4826
3.32454 16.519
3.36917 17.4881
3.4138 18.4071
3.45844 19.3948
3.50309 20.1035
3.54773 20.7397
3.59237 21.4352
3.637 22.3126
3.68164 22.836
3.7263 24.0841
3.77094 24.9729
3.81558 25.8209
3.86022 25.6134
3.90486 27.7579
3.9495 28.2461
3.99416 28.904
4.0388 30.2097
4.08344 31.4832
4.12809 32.3562
4.17273 33.5478
4.21738 35.0283
4.26204 35.955
4.30669 37.0153
4.35133 39.426
4.39598 40.7224
4.44063 42.5647
4.4853 44.437
4.52995 47.0078
4.5746 48.5121
4.61925 50.8102
4.6639 53.5729
4.70855 55.6474
4.75322 58.8221
4.79788 61.9829
4.84253 65.6691
4.88719 70.0324
4.93184 75.4561
4.97652 82.9571
5.02118 92.1729
5.06583 103.939
5.11049 122.801
5.15515 167.865
5.19981 648.295
5.24449 3789.9
5.28916 6908.62
5.33382 6821.28
5.37848 628.214
5.42315 183.414
5.46783 135.55
5.5125 118.518
5.55716 110.834
5.60183 104.127
5.6465 101.007
5.69117 99.1822
5.73586 97.0896
5.78053 96.8111
5.8252 97.5946
5.86988 101.566
5.91455 110.247
5.95924 134.036
6.00392 328.72
6.0486 1431.62
6.09328 2266.22
6.13795 3886.89
6.18263 870.596
6.22733 141.424
6.27201 94.3648
6.3167 80.5576
6.36138 73.8508
6.40606 68.9361
6.45075 67.0478
6.49545 63.9201
6.54014 62.0094
6.58483 60.6624
6.62952 59.1104
6.67421 57.7547
6.71892 56.8887
6.76361 55.7483
6.8083 55.4921
6.853 54.3029
6.89769 54.0661
6.94239 53.5754
6.98711 52.5312
7.03181 52.191
7.07651 52.2544
7.12121 51.7818
7.16591 51.5379
7.21063 51.274
7.25533 51.1586
7.30004 51.3803
7.34475 51.229
7.38945 51.589
7.43416 51.1079
7.47889 51.4909
7.5236 57.7334
7.56831 72.7568
7.61303 57.3059
7.65774 52.9836
7.70247 53.1845
7.74719 53.5695
7.79191 54.3999
7.83663 54.5669
7.88135 55.1889
7.92607 56.623
7.97081 57.4933
8.01553 58.9311
8.06026 59.9479
8.10498 61.1043
8.14971 62.739
8.19446 64.5105
8.23919 67.1636
8.28392 70.1454
8.32865 72.8017
8.37339 78.0489
8.41812 84.1742
8.46288 97.39
8.50761 186.004
8.55235 643.88
8.59709 779.26
8.64183 1223.47
8.68658 1749.77
8.73134 547.731
8.77609 126.361
8.82083 99.8499
8.86558 91.966
8.91033 87.624
8.9551 84.8323
8.99985 83.5709
9.04461 82.5534
9.08936 81.5522
9.13412 80.5725
9.17888 81.3601
9.22365 90.7848
9.26841 112.287
9.31318 92.6315
9.35794 82.3459
9.4027 81.1533
9.44749 82.1238
9.49226 82.4492
9.53703 83.5096
9.5818 84.9159
9.62657 85.904
9.67134 87.9107
9.71614 89.53
9.76091 91.8432
9.80569 94.6098
9.85047 98.2316
9.89525 103.66
9.94005 115.585
9.98484 197.999
10.0296 584.091
10.0744 683.194
10.1192 823.629
10.164 1493.21
10.2088 1140.36
10.2536 260.875
10.2984 120.883
10.3432 108.946
10.388 104.983
10.4328 123.651
10.4776 225.235
10.5224 247.015
10.5672 274.687
10.612 442.072
10.6568 415.808
10.7017 154.511
10.7465 93.8773
10.7913 83.5482
10.8361 79.7684
10.8809 77.3533
10.9257 75.003
10.9706 73.634
11.0154 71.7265
11.0602 70.7107
11.105 69.3858
11.1499 67.5594
11.1947 66.8385
11.2395 65.898
11.2844 65.4058
11.3292 64.3972
11.374 63.6118
11.4189 63.0987
11.4637 62.7788
11.5086 61.796
11.5534 61.2537
11.5983 61.3611
11.6431 61.3879
11.688 60.5968
11.7328 60.3389
11.7777 60.509
11.8225 60.1997
11.8674 60.5659
11.9122 62.3749
11.9571 68.4413
12.002 67.924
12.0468 68.6555
12.0917 92.5152
12.1366 106.971
12.1814 106.72
12.2263 130.931
12.2712 182.632
12.3161 152.228
12.3609 79.8074
12.4058 64.1196
12.4507 62.8381
12.4956 62.4697
12.5405 61.9987
12.5853 62.8873
12.6302 62.8315
12.6751 63.5045
12.72 64.157
12.7649 65.226
12.8098 66.1317
12.8547 67.1046
12.8996 68.709
12.9445 70.1708
12.9894 72.2576
13.0343 74.4175
13.0792 78.9062
13.1242 87.6515
13.1691 137.744
13.214 192.479
13.2589 187.603
13.3038 206.618
13.3487 302.352
13.3937 389.484
13.4386 243.581
13.4835 127.765
13.5285 161.155
13.5734 183.268
13.6183 172.252
13.6633 200.602
13.7082 294.893
13.7531 320.911
13.7981 176.482
13.843 91.1567
13.888 80.1994
13.9329 76.6248
13.9779 75.3685
14.0228 73.8856
14.0678 72.1462
14.1127 72.533
14.1577 76.0051
14.2027 74.1875
14.2476 70.4125
14.2926 68.7867
14.3376 67.8384
14.3825 67.5746
14.4275 67.1947
14.4725 67.2018
14.5175 67.2906
14.5624 67.3271
14.6074 67.931
14.6524 68.2132
14.6974 68.7205
14.7424 70.6757
14.7874 81.1222
14.8324 109.615
14.8774 119.952
14.9224 115.93
14.9674 128.258
15.0124 169.346
15.0574 206.203
15.1024 155.09
15.1474 86.4848
15.1924 71.285
15.2374 68.5281
15.2824 67.1018
15.3274 66.0187
15.3725 65.4164
15.4175 65.445
15.4625 64.8522
15.5076 64.5802
15.5526 64.5923
15.5976 64.7628
15.6426 65.8299
15.6877 73.7478
15.7327 97.3013
15.7778 107.74
15.8228 102.886
15.8679 109.217
15.9129 134.255
15.958 176.653
16.003 164.922
16.0481 98.0511
16.0931 68.1663
16.1382 61.8512
16.1833 59.823
16.2283 58.1634
16.2734 57.3491
16.3185 56.5151
16.3636 55.8566
16.4086 55.0513
16.4537 54.8714
16.4988 54.1007
16.5439 54.1107
16.589 53.9269
16.6341 53.5822
16.6792 53.2936
16.7243 53.4339
16.7694 53.2934
16.8145 53.4014
16.8596 53.5008
16.9047 53.7571
16.9498 54.6065
16.9949 54.5323
17.04 54.6307
17.0851 56.0592
17.1302 60.6901
17.1754 63.9111
17.2205 63.3662
17.2656 63.9105
17.3108 67.9518
17.3559 75.0818
17.401 81.0778
17.4462 73.3457
17.4913 61.9751
17.5365 58.4151
17.5815 58.2783
17.6268 58.3234
17.6718 58.8262
17.7171 59.4784
17.7622 60.6773
17.8074 61.802
17.8525 63.2337
17.8977 72.0368
17.9428 84.6175
17.9881 87.3124
18.0331 85.4735
18.0784 88.9546
18.1237 102.894
18.1688 131.587
18.214 146.584
18.2591 118.519
18.3044 87.2761
18.3495 81.3036
18.3948 88.1508
18.4399 99.398
18.4852 98.1905
18.5303 79.9813
18.5756 65.7762
18.6207 61.6907
18.666 60.0403
18.7112 59.3215
18.7565 58.6069
18.8016 57.9934
18.8469 57.3597
18.892 57.0745
18.9374 56.4438
18.9825 56.0714
19.0278 55.857
19.073 55.9695
19.1183 56.6085
19.1635 59.1293
19.2088 61.4863
19.254 61.2597
19.2993 61.0669
19.3447 62.5359
19.3898 65.6274
19.4352 70.856
19.4804 72.9288
19.5257 65.8027
19.5709 56.6904
19.6163 53.715
19.6615 53.2666
19.7068 52.586
19.752 52.5576
19.7974 52.8724
19.8426 54.0934
19.888 56.2932
19.9332 57.839
19.9786 57.5754
20.0238 57.1552
20.0692 59.2607
20.1144 63.9774
20.1598 70.2826
20.205 70.9061
20.2504 65.5375
20.2957 59.592
20.3411 59.1774
20.3863 61.9263
20.4318 64.0861
20.477 60.3311
20.5224 53.6329
20.5677 50.5959
20.6131 49.7437
20.6586 49.2337
20.7038 49.1219
20.7493 48.5788
20.7945 48.6214
20.84 48.5283
20.8853 48.1384
20.9307 48.0038
20.976 48.1791
21.0215 48.4522
21.0668 48.8168
21.1122 48.8651
21.1575 48.449
21.203 48.6452
21.2483 49.2221
21.2938 50.3924
21.3391 50.6854
21.3846 50.139
21.4299 49.0098
21.4754 48.1735
21.5207 48.1249
21.5662 48.2946
21.6116 48.8052
21.6571 50.6788
21.7024 52.7556
21.7479 53.4954
21.7933 53.0366
21.8388 53.6356
21.8843 56.1271
21.9297 59.1468
21.9752 63.4002
22.0206 65.098
22.0661 61.4418
22.1115 55.8406
22.157 54.2578
22.2024 55.2894
22.248 55.0278
22.2933 52.6499
22.3389 49.7344
22.3843 48.6298
22.4299 48.0085
22.4753 48.098
22.5208 48.0777
22.5662 48.0443
22.6118 48.156
22.6572 48.3408
22.7028 49.8997
22.7483 50.9293
22.7939 51.2836
22.8393 50.9235
22.8849 51.1211
22.9303 51.5593
22.9759 52.9252
23.0214 54.9021
23.067 57.4447
23.1126 56.3985
23.1581 52.6428
23.2037 49.459
23.2492 48.6406
23.2948 49.0782
23.3403 50.5786
23.3859 51.3537
23.4314 50.8332
23.477 50.5609
23.5225 50.4772
23.5682 51.4389
23.6137 53.3827
23.6593 55.8961
23.7048 57.1619
23.7505 54.1587
23.796 49.4548
23.8417 46.4693
23.8872 45.4245
23.9329 45.2879
23.9784 44.8841
24.0241 44.3887
24.0697 44.2367
24.1154 43.6651
24.1609 43.4891
24.2066 43.4413
24.2522 43.2909
24.2979 43.045
24.3434 42.9443
24.3892 42.7059
24.4349 42.8098
24.4805 42.4591
24.5262 42.5805
24.5718 42.3466
24.6175 42.3695
24.6631 42.5797
24.7089 42.4504
24.7545 42.0467
24.8002 41.8998
24.8458 41.8954
24.8916 41.8201
24.9372 42.1713
24.983 42.3594
25.0286 42.3257
25.0744 42.9349
25.12 43.1223
25.1658 43.4997
25.2114 43.5685
25.2572 44.0705
25.3029 44.1868
25.3487 43.9491
25.3943 43.8108
25.4402 44.1236
25.4858 44.2504
25.5316 43.0331
25.5773 41.3743
25.6231 40.9074
25.669 40.3798
25.7147 40.2859
25.7605 40.3538
25.8062 40.4388
25.8521 40.674
25.8977 40.4214
25.9436 40.5433
25.9893 40.1722
26.0352 40.4052
26.0809 40.3372
26.1268 40.6914
26.1725 41.2108
26.2184 41.3865
26.2641 41.2381
26.31 40.7086
26.3557 40.3451
26.4017 40.1856
26.4474 40.3588
26.4933 40.3292
26.5391 40.3965
26.585 40.5787
26.6308 40.7681
26.6767 41.1291
26.7225 41.714
26.7684 42.158
26.8142 41.6461
26.8601 40.9813
26.9059 40.1952
26.9519 39.9556
26.9979 39.7407
27.0437 39.1639
27.0896 38.632
27.1354 38.6996
27.1814 38.431
27.2272 38.437
27.2732 38.4594
27.3191 38.1658
27.3651 38.205
27.4109 38.0342
27.4569 38.0752
27.5027 38.0823
27.5488 38.2301
27.5946 38.1722
27.6407 38.1731
27.6865 38.3128
27.7326 38.1677
27.7784 38.0631
27.8245 37.8711
27.8703 37.789
27.9164 37.8678
27.9623 37.7708
28.0084 37.9281
28.0543 38.1898
28.1003 38.2192
28.1462 38.5366
28.1923 38.8266
28.2384 38.4912
28.2843 37.8611
28.3304 37.6663
28.3764 37.2593
28.4225 36.6614
28.4684 36.3774
28.5145 35.9872
28.5605 35.7139
28.6066 35.5502
28.6526 35.5913
28.6987 35.4203
28.7447 35.3183
28.7908 35.0649
28.8368 35.1338
28.8829 35.0076
28.9289 34.954
28.9751 34.8883
29.0211 34.9152
29.0673 34.6356
29.1133 34.6462
29.1595 34.4327
29.2055 34.0614
29.2517 34.1059
29.2977 33.899
29.3439 33.802
29.3899 33.5874
29.4361 33.7436
29.4824 33.7346
29.5284 33.7524
29.5746 33.4342
29.6207 33.19
29.6669 32.8963
29.713 32.5842
29.7593 32.6201
29.8053 32.6654
29.8516 32.5757
29.8977 32.5761
29.9439 32.4012
29.99 32.4319
30.0363 32.2044
30.0824 32.2294
30.1287 32.0015
30.1748 32.0802
30.2211 32.0853
30.2673 32.0049
30.3136 32.1272
30.3597 32.0901
30.406 32.0587
30.4522 32.056
30.4985 31.7756
30.5447 31.8895
30.591 31.7521
30.6372 31.779
30.6835 31.6875
30.7297 31.7961
30.7761 31.7605
30.8224 31.922
30.8686 31.9446
30.915 31.679
30.9612 31.5301
31.0076 31.2693
31.0538 31.2451
31.1002 31.0488
31.1464 30.8573
31.1928 30.8042
31.2391 30.7724
31.2855 30.7078
31.3317 30.4503
31.3781 30.5393
31.4244 30.5847
31.4708 30.4211
31.5171 30.4988
31.5636 30.542
31.6098 30.5649
31.6563 30.5496
31.7026 30.3988
31.7491 29.988
31.7953 29.9464
31.8418 29.9478
31.8881 29.7702
31.9346 29.7167
31.9809 29.7106
32.0275 29.7064
32.074 29.6889
32.1203 29.6632
32.1668 29.4906
32.2132 29.3436
32.2597 29.1567
32.306 29.1108
32.3526 28.8023
32.399 28.7084
32.4455 28.5366
32.4919 28.5106
32.5385 28.4835
32.5848 28.2831
32.6314 28.3071
32.6778 28.2596
32.7244 28.1287
32.7708 28.0246
32.8174 27.9505
32.8638 27.8222
32.9104 27.8181
32.9569 27.8536
33.0035 27.5936
33.0499 27.6217
33.0966 27.5619
33.143 27.4876
33.1897 27.4593
33.2361 27.4074
33.2828 27.3776
33.3293 27.2199
33.3759 27.214
33.4226 27.0428
33.4691 27.0659
33.5158 27.0185
33.5623 26.681
33.609 26.6045
33.6555 26.5383
33.7022 26.3661
33.7487 26.2538
33.7954 26.2562
33.842 26.0601
33.8887 26.0989
33.9353 26.054
33.982 25.9664
34.0286 25.9997
34.0753 25.8705
34.1219 25.7659
34.1687 25.6066
34.2152 25.5018
34.262 25.3953
34.3086 25.3072
34.3554 25.3463
34.402 25.1826
34.4488 25.1525
34.4954 25.117
34.5422 24.9975
34.5889 24.8112
34.6357 24.806
34.6825 24.6833
34.7292 24.6819
34.776 24.4702
34.8227 24.4995
34.8695 24.4629
34.9162 24.4002
34.9631 24.2359
35.0098 24.2614
35.0566 24.137
35.1033 24.1157
35.1502 24.1118
35.1969 23.9973
35.2438 23.9856
35.2906 23.8704
35.3375 23.8225
35.3842 23.7535
35.4311 23.7164
35.4779 23.6366
35.5248 23.6587
35.5716 23.5863
35.6185 23.5661
35.6653 23.4494
35.7123 23.4255
35.759 23.2931
35.806 23.2995
35.8528 23.0655
35.8998 23.0308
35.9468 22.9198
35.9936 22.9161
36.0406 22.7762
36.0874 22.8022
36.1345 22.7103
36.1813 22.6194
36.2283 22.4706
36.2752 22.4636
36.3222 22.4664
36.3691 22.4094
36.4161 22.3284
36.463 22.287
36.5101 22.1783
36.557 22.1402
36.6041 21.9495
36.651 21.9697
36.6981 21.9686
36.745 21.9153
36.7921 21.8078
36.839 21.7084
36.8861 21.609
36.9331 21.5887
36.9802 21.5123
37.0272 21.377
37.0743 21.3007
37.1213 21.2438
37.1684 21.2266
37.2154 21.1861
37.2626 21.1467
37.3098 21.0292
37.3568 20.9914
37.404 20.9393
37.451 20.7835
37.4982 20.7895
37.5452 20.6602
37.5924 20.6039
37.6395 20.6236
37.6867 20.5581
37.7337 20.4356
37.781 20.3314
37.8281 20.2503
37.8753 20.26
37.9224 20.1571
37.9697 20.1155
38.0168 20.0637
38.064 19.9863
38.1111 19.8806
38.1584 19.9331
38.2056 19.7664
38.2529 19.7592
38.3 19.671
38.3473 19.6306
38.3945 19.5188
38.4418 19.4976
38.489 19.4146
38.5363 19.347
38.5837 19.2508
38.6309 19.2691
38.6782 19.1529
38.7254 19.0912
38.7728 19.0878
38.82 18.9787
38.8674 18.8612
38.9146 18.8948
38.9621 18.8015
39.0093 18.8059
39.0567 18.7228
39.104 18.5933
39.1514 18.4697
39.1987 18.5609
39.2461 18.4679
39.2934 18.4193
39.3409 18.2857
39.3882 18.2173
39.4356 18.2156
39.483 18.2125
39.5304 18.1443
39.5778 18.0531
39.6253 18.0075
39.6726 17.9264
39.7201 17.9613
39.7675 17.8226
39.815 17.7487
39.8624 17.702
39.9099 17.6808
39.9575 17.5284
40.0049 17.5338
40.0525 17.4809
40.0999 17.441
40.1474 17.3523
40.1949 17.3145
40.2425 17.2338
40.2899 17.2146
40.3375 17.2528
40.385 17.116
40.4326 17.1001
40.48 16.9505
40.5277 16.986
40.5752 16.904
40.6228 16.8261
40.6703 16.7876
40.718 16.6974
40.7655 16.638
40.8132 16.6128
40.8607 16.565
40.9084 16.5007
40.9559 16.521
41.0036 16.4412
41.0512 16.4144
41.0989 16.3459
41.1465 16.2588
41.1942 16.1574
41.242 16.1703
41.2896 16.0626
41.3373 16.0501
41.3849 16.0079
41.4327 15.9404
41.4803 15.8484
41.5281 15.864
41.5758 15.7594
41.6236 15.7069
41.6712 15.6624
41.7191 15.5879
41.7667 15.5533
41.8146 15.5257
41.8622 15.4741
41.9101 15.3637
41.9578 15.3535
42.0057 15.2848
42.0534 15.1837
42.1013 15.1702
42.149 15.149
42.1969 15.1395
42.2446 15.0112
42.2925 15.02
42.3403 14.9387
42.3882 14.8987
42.436 14.8358
42.4839 14.7716
42.5319 14.7479
42.5797 14.7277
42.6277 14.6878
42.6755 14.6201
42.7235 14.5462
42.7713 14.5039
42.8193 14.4523
42.8671 14.4346
42.9152 14.3555
42.963 14.2597
43.0111 14.2472
43.0589 14.1841
43.107 14.1276
43.1549 14.0961
43.2029 14.0742
43.2508 13.9759
43.2989 14.0035
43.3468 13.8678
43.3949 13.8388
43.4429 13.8262
43.491 13.7308
43.5389 13.7039
43.5871 13.6704
43.635 13.6733
43.6832 13.6308
43.7312 13.53
43.7793 13.5061
43.8273 13.4785
43.8755 13.3511
43.9237 13.3637
43.9717 13.326
44.0199 13.2775
44.068 13.2149
44.1162 13.1508
44.1642 13.119
44.2125 13.0427
44.2606 13.0266
44.3088 12.971
44.3569 12.9359
44.4052 12.9293
44.4533 12.8316
44.5016 12.7552
44.5497 12.7654
44.598 12.7207
44.6461 12.7139
44.6945 12.6369
44.7426 12.5819
44.791 12.5108
44.8391 12.4845
44.8875 12.4374
44.9357 12.3828
44.984 12.3622
45.0322 12.3463
45.0806 12.2494
45.1288 12.2203
45.1773 12.1553
45.2257 12.1242
45.2739 12.1133
45.3224 12.0378
45.3706 12.0276
45.4191 11.962
45.4673 11.9064
45.5158 11.8577
45.5641 11.8137
45.6126 11.811
45.6609 11.7158
45.7094 11.667
45.7577 11.6311
45.8063 11.6048
45.8546 11.575
45.9031 11.5503
45.9515 11.5037
46.0001 11.4489
46.0484 11.4121
46.097 11.3612
46.1454 11.3611
46.194 11.3165
46.2424 11.2502
46.291 11.2016
46.3395 11.1918
46.3881 11.1424
46.4365 11.1188
46.4852 11.0602
46.5337 11.0567
46.5823 10.984
46.631 10.953
46.6795 10.8942
46.7282 10.8584
46.7767 10.8384
46.8254 10.7564
46.8739 10.717
46.9226 10.6782
46.9712 10.6421
47.0199 10.6215
47.0685 10.5463
47.1173 10.5151
47.1658 10.4675
47.2146 10.5066
47.2632 10.4103
47.312 10.3896
47.3606 10.3205
47.4095 10.2858
47.4581 10.2605
47.5069 10.1816
47.5556 10.1817
47.6044 10.1506
47.6531 10.1059
47.702 10.075
47.7507 10.0559
47.7996 9.99932
47.8483 9.95659
47.8972 9.91036
47.9461 9.89674
47.9948 9.86468
48.0438 9.83703
48.0925 9.80006
48.1415 9.76356
48.1902 9.72699
48.2392 9.68254
48.288 9.68153
48.337 9.60725
48.3858 9.57858
48.4348 9.58137
48.4837 9.54758
48.5327 9.45615
48.5815 9.45007
48.6306 9.42764
48.6795 9.41276
48.7285 9.3708
48.7774 9.35046
48.8265 9.27759
48.8754 9.25125
48.9245 9.17548
48.9734 9.18386
49.0226 9.15387
49.0715 9.12165
49.1206 9.0459
49.1696 9.04272
49.2188 8.95163
49.2679 8.93638
49.3169 8.89823
49.3661 8.90343
49.4151 8.86074
49.4643 8.82652
49.5134 8.78589
49.5626 8.77005
49.6117 8.71117
49.6609 8.70391
49.71 8.65819
49.7592 8.64013
49.8083 8.5996
49.8576 8.57073
49.9067 8.51714
49.956 8.53141
50.0052 8.45349
50.0545 8.41371
50.1036 8.39473
50.153 8.3811
50.2022 8.37844
50.2515 8.30804
50.3007 8.28182
50.3501 8.26942
50.3993 8.19724
50.4487 8.19915
50.498 8.15902
50.5474 8.12435
50.5966 8.08753
50.6461 8.06488
50.6955 8.05008
50.7448 8.01841
50.7943 7.99493
50.8436 7.92731
50.8931 7.90593
50.9424 7.86637
50.9919 7.86342
51.0413 7.84564
51.0908 7.79355
51.1402 7.74579
51.1897 7.68609
51.2391 7.69595
51.2887 7.6457
51.3381 7.63006
51.3877 7.59743
51.4371 7.56197
51.4867 7.5031
51.5362 7.50531
51.5858 7.47398
51.6353 7.41097
51.6849 7.45165
51.7344 7.39325
51.7841 7.3384
51.8336 7.31322
51.8833 7.28754
51.9328 7.25791
51.9826 7.22713
52.0323 7.18868
52.0818 7.17046
52.1316 7.1326
52.1812 7.13233
52.231 7.06315
52.2806 7.04273
52.3304 7.02798
52.38 6.97714
52.4298 6.97331
52.4794 6.91364
52.5293 6.90168
52.5789 6.90451
52.6288 6.86607
52.6785 6.81684
52.7284 6.8091
52.7781 6.79551
52.828 6.74107
52.8777 6.70655
52.9276 6.72105
52.9774 6.65644
53.0273 6.65696
53.0771 6.60618
53.1271 6.58101
53.1769 6.5309
53.2269 6.51906
53.2767 6.48256
53.3267 6.47604
53.3765 6.40974
53.4266 6.41677
53.4766 6.3718
53.5265 6.34955
53.5765 6.29697
53.6264 6.27948
53.6765 6.27389
53.7264 6.22018
53.7765 6.20859
53.8265 6.1728
53.8766 6.10819
53.9266 6.14336
53.9767 6.12245
54.0267 6.09952
54.0769 6.02571
54.1269 6.01747
54.1771 5.98526
54.2271 5.92177
54.2773 5.9438
54.3274 5.87928
54.3776 5.82767
54.4277 5.7749
54.478 5.73543
54.528 5.71327
54.5783 5.65107
54.6285 5.58496
54.6788 5.55589
54.7289 5.53758
54.7792 5.50636
54.8296 5.42845
54.8798 5.37537
54.9301 5.38452
54.9803 5.35503
55.0307 5.33743
55.0809 5.22912
55.1314 5.23357
55.1816 5.15742
55.232 5.10039
55.2823 5.06236
55.3328 4.96384
55.383 4.92672
55.4335 4.92336
55.4838 4.87838
55.5344 4.80087
55.5847 4.71554
55.6352 4.79998
55.6856 4.71928
55.7361 4.74065