File: XRD/Ni3Fe_FD0929.xy
TT I
1.27165 7.36271
1.31627 6.39176
1.36089 6.26372
1.40551 5.88373
1.45013 6.71284
1.49476 5.98919
1.53938 6.08256
1.584 5.3299
1.62863 4.82156
1.67325 4.67613
1.71787 4.4182
1.7625 4.71556
1.80712 4.49681
1.85174 4.59111
1.89636 4.7615
1.94099 4.47176
1.98562 4.86961
2.03025 4.2467
2.07487 4.75122
2.11949 5.07603
2.16411 4.61606
2.20874 8.6852
2.25338 10.9871
2.298 5.67813
2.34263 6.17218
2.38725 6.33005
2.43188 6.25875
2.4765 7.6154
2.52115 7.66688
2.56577 7.1021
2.6104 8.7518
2.65503 8.24337
2.69965 8.90434
2.7443 8.88297
2.78893 8.27497
2.83356 8.19156
2.87818 9.21013
2.92281 8.97678
2.96744 9.7025
3.01209 10.6596
3.05672 10.9175
3.10135 12.4343
3.14599 12.6017
3.19062 14.0266
3.23527 15.3031
3.2799 15.4239
3.32454 16.7598
3.36917 17.8981
3.4138 18.7955
3.45844 19.3464
3.50309 20.4445
3.54773 21.6412
3.59237 23.306
3.637 46.5153
3.68164 35.4126
3.7263 25.1017
3.77094 25.7019
3.81558 26.2886
3.86022 26.9691
3.90486 28.5756
3.9495 29.2971
3.99416 30.3307
4.0388 31.5487
4.08344 33.3019
4.12809 34.1045
4.17273 35.6498
4.21738 38.2743
4.26204 111.382
4.30669 97.6869
4.35133 43.5526
4.39598 42.9611
4.44063 47.9349
4.4853 52.9362
4.52995 58.022
4.5746 58.4704
4.61925 53.2026
4.6639 55.0563
4.70855 57.6523
4.75322 60.8647
4.79788 68.4965
4.84253 67.5473
4.88719 75.4492
4.93184 75.7693
4.97652 79.7765
5.02118 86.1571
5.06583 93.407
5.11049 104.53
5.15515 153.208
5.19981 368.196
5.24449 2758.24
5.28916 13569.1
5.33382 2683.37
5.37848 193.695
5.42315 129.112
5.46783 119.52
5.5125 112.905
5.55716 100.37
5.60183 96.5782
5.6465 94.823
5.69117 93.4734
5.73586 91.6462
5.78053 98.6828
5.8252 98.1757
5.86988 101.399
5.91455 93.7619
5.95924 102.76
6.00392 226.016
6.0486 907.649
6.09328 4678.52
6.13795 3016.98
6.18263 194.473
6.22733 87.5972
6.27201 78.735
6.3167 81.8942
6.36138 72.8444
6.40606 69.2243
6.45075 69.4541
6.49545 64.5477
6.54014 62.549
6.58483 62.2868
6.62952 62.4691
6.67421 71.3095
6.71892 85.8419
6.76361 60.8809
6.8083 58.8408
6.853 59.8972
6.89769 56.0758
6.94239 55.4053
6.98711 55.0851
7.03181 55.4157
7.07651 54.1063
7.12121 54.329
7.16591 55.9754
7.21063 54.9024
7.25533 59.4491
7.30004 93.8909
7.34475 66.0395
7.38945 53.6565
7.43416 52.9408
7.47889 52.6378
7.5236 53.4858
7.56831 54.0175
7.61303 54.6341
7.65774 54.9809
7.70247 56.2562
7.74719 55.9067
7.79191 55.4769
7.83663 55.9301
7.88135 56.6887
7.92607 57.5419
7.97081 58.4665
8.01553 59.9928
8.06026 61.8974
8.10498 63.2742
8.14971 70.523
8.19446 70.1779
8.23919 68.4756
8.28392 70.6498
8.32865 73.019
8.37339 77.4369
8.41812 82.4195
8.46288 99.6111
8.50761 168.839
8.55235 361.64
8.59709 1205.55
8.64183 2226.7
8.68658 844.908
8.73134 139.541
8.77609 95.8095
8.82083 90.9237
8.86558 92.1868
8.91033 91.959
8.9551 88.959
8.99985 84.2027
9.04461 83.2057
9.08936 83.4198
9.13412 82.0743
9.17888 80.8896
9.22365 80.9034
9.26841 81.1208
9.31318 84.0124
9.35794 86.1097
9.4027 85.5042
9.44749 84.7162
9.49226 83.5906
9.53703 84.7612
9.5818 88.8743
9.62657 93.7031
9.67134 94.6732
9.71614 91.7656
9.76091 93.8489
9.80569 98.8017
9.85047 100.581
9.89525 110.075
9.94005 123.99
9.98484 183.747
10.0296 327.741
10.0744 820.347
10.1192 1856.83
10.164 1475.38
10.2088 326.937
10.2536 118.093
10.2984 107.408
10.3432 106.05
10.388 103.277
10.4328 119.015
10.4776 157.448
10.5224 287.99
10.5672 543.34
10.612 485.073
10.6568 178.534
10.7017 91.99
10.7465 84.753
10.7913 81.6681
10.8361 79.5752
10.8809 77.8224
10.9257 76.7044
10.9706 76.8144
11.0154 74.4805
11.0602 72.0529
11.105 70.2603
11.1499 70.7651
11.1947 72.5128
11.2395 69.0633
11.2844 67.2823
11.3292 65.8306
11.374 65.1618
11.4189 64.5863
11.4637 63.8304
11.5086 63.6199
11.5534 64.3695
11.5983 63.1377
11.6431 62.19
11.688 61.7414
11.7328 61.6197
11.7777 61.3965
11.8225 61.6483
11.8674 61.4671
11.9122 61.7277
11.9571 62.1672
12.002 63.3191
12.0468 67.5511
12.0917 76.5879
12.1366 101.083
12.1814 160.279
12.2263 211.683
12.2712 154.238
12.3161 86.2042
12.3609 65.6044
12.4058 62.8126
12.4507 63.0303
12.4956 63.8615
12.5405 64.1673
12.5853 64.2989
12.6302 66.6695
12.6751 69.2279
12.72 66.8579
12.7649 66.7434
12.8098 67.2813
12.8547 68.7505
12.8996 70.5747
12.9445 72.0771
12.9894 73.551
13.0343 74.6722
13.0792 79.2594
13.1242 90.8116
13.1691 108.442
13.214 145.013
13.2589 245.436
13.3038 391.298
13.3487 419.626
13.3937 229.622
13.4386 114.566
13.4835 103.823
13.5285 117.189
13.5734 157.207
13.6183 258.384
13.6633 370.901
13.7082 325.761
13.7531 166.585
13.7981 91.9827
13.843 80.038
13.888 78.3525
13.9329 76.1404
13.9779 74.5001
14.0228 72.8628
14.0678 71.6414
14.1127 71.1902
14.1577 70.6289
14.2027 70.039
14.2476 69.0346
14.2926 68.7478
14.3376 69.1207
14.3825 68.6364
14.4275 67.7607
14.4725 67.8092
14.5175 67.6112
14.5624 67.8475
14.6074 68.7491
14.6524 69.3713
14.6974 69.371
14.7424 72.5971
14.7874 78.183
14.8324 87.1656
14.8774 110.209
14.9224 158.365
14.9674 219.201
15.0124 214.619
15.0574 137.968
15.1024 84.193
15.1474 70.6526
15.1924 68.9186
15.2374 68.3288
15.2824 67.4733
15.3274 66.1388
15.3725 65.684
15.4175 65.312
15.4625 64.8747
15.5076 64.6316
15.5526 64.6968
15.5976 64.8628
15.6426 66.6929
15.6877 71.6782
15.7327 78.368
15.7778 93.7969
15.8228 127.86
15.8679 177.922
15.9129 196.158
15.958 146.394
16.003 87.3616
16.0481 64.6179
16.0931 61.9139
16.1382 60.4512
16.1833 58.9401
16.2283 57.5945
16.2734 57.1586
16.3185 56.9877
16.3636 56.6603
16.4086 55.7872
16.4537 54.9228
16.4988 54.49
16.5439 54.4236
16.589 54.1728
16.6341 53.9023
16.6792 53.4128
16.7243 53.5805
16.7694 53.7751
16.8145 53.6128
16.8596 54.047
16.9047 54.5008
16.9498 54.5317
16.9949 54.3393
17.04 55.0089
17.0851 56.1327
17.1302 57.4639
17.1754 60.5579
17.2205 66.0707
17.2656 74.7815
17.3108 83.1903
17.3559 80.2913
17.401 67.6726
17.4462 60.2617
17.4913 58.205
17.5365 58.2742
17.5815 58.2153
17.6268 58.5092
17.6718 59.2704
17.7171 59.6827
17.7622 60.2537
17.8074 61.4848
17.8525 63.9833
17.8977 66.9402
17.9428 72.2889
17.9881 81.7039
18.0331 100.969
18.0784 126.168
18.1237 140.523
18.1688 126.047
18.214 97.0431
18.2591 83.6602
18.3044 90.618
18.3495 101.581
18.3948 105.22
18.4399 91.0339
18.4852 72.8577
18.5303 63.7174
18.5756 60.9469
18.6207 60.0182
18.666 59.2018
18.7112 58.3696
18.7565 58.0772
18.8016 57.5645
18.8469 56.8621
18.892 56.815
18.9374 56.3923
18.9825 55.9986
19.0278 55.8839
19.073 56.051
19.1183 56.1868
19.1635 56.7401
19.2088 58.1596
19.254 61.0852
19.2993 66.0584
19.3447 72.2589
19.3898 74.8675
19.4352 69.1273
19.4804 60.2339
19.5257 54.8993
19.5709 52.9388
19.6163 52.8464
19.6615 52.8508
19.7068 52.3961
19.752 52.2514
19.7974 52.7815
19.8426 53.379
19.888 53.995
19.9332 55.3367
19.9786 58.1349
20.0238 62.5653
20.0692 67.4267
20.1144 69.7148
20.1598 66.425
20.205 61.5438
20.2504 61.5712
20.2957 64.3349
20.3411 65.3401
20.3863 62.2654
20.4318 56.1277
20.477 51.6463
20.5224 50.0408
20.5677 49.6946
20.6131 49.2159
20.6586 48.8187
20.7038 48.5647
20.7493 48.2556
20.7945 48.2618
20.84 47.9888
20.8853 47.8179
20.9307 47.8475
20.976 47.7959
21.0215 47.7656
21.0668 48.3415
21.1122 48.5479
21.1575 49.3692
21.203 50.2447
21.2483 50.6474
21.2938 50.4935
21.3391 48.9507
21.3846 47.8524
21.4299 47.3851
21.4754 47.6348
21.5207 47.7337
21.5662 48.2334
21.6116 48.5285
21.6571 49.1019
21.7024 50.0326
21.7479 51.7645
21.7933 54.8496
21.8388 59.0724
21.8843 63.1999
21.9297 64.2112
21.9752 61.4535
22.0206 57.5156
22.0661 55.2683
22.1115 55.4603
22.157 55.1201
22.2024 52.7428
22.248 49.9986
22.2933 48.5994
22.3389 48.202
22.3843 47.8712
22.4299 47.6995
22.4753 47.845
22.5208 47.7417
22.5662 47.7365
22.6118 47.9051
22.6572 48.032
22.7028 48.344
22.7483 48.7573
22.7939 49.6355
22.8393 51.3343
22.8849 53.6316
22.9303 56.0798
22.9759 57.4394
23.0214 56.2566
23.067 52.813
23.1126 49.6435
23.1581 48.2563
23.2037 47.9756
23.2492 47.9066
23.2948 48.0202
23.3403 48.1891
23.3859 48.9175
23.4314 49.9386
23.477 52.0828
23.5225 54.7305
23.5682 57.0141
23.6137 57.3174
23.6593 54.1663
23.7048 50.1055
23.7505 46.964
23.796 45.6007
23.8417 45.1612
23.8872 44.6424
23.9329 44.547
23.9784 44.053
24.0241 43.7635
24.0697 43.6486
24.1154 43.3812
24.1609 43.0282
24.2066 42.8968
24.2522 42.9307
24.2979 42.7353
24.3434 42.5815
24.3892 42.3874
24.4349 42.4672
24.4805 42.3716
24.5262 42.3877
24.5718 42.291
24.6175 42.2277
24.6631 42.0578
24.7089 41.7305
24.7545 41.6509
24.8002 41.5668
24.8458 41.4647
24.8916 41.3323
24.9372 41.5522
24.983 41.8942
25.0286 42.1106
25.0744 42.6058
25.12 43.2855
25.1658 43.72
25.2114 43.9403
25.2572 44.0925
25.3029 44.364
25.3487 44.273
25.3943 43.8578
25.4402 42.4743
25.4858 41.4496
25.5316 40.6352
25.5773 40.1534
25.6231 40.1982
25.669 39.8788
25.7147 39.8352
25.7605 39.7615
25.8062 39.7572
25.8521 39.7893
25.8977 39.8809
25.9436 40.2163
25.9893 40.2982
26.0352 40.9548
26.0809 41.0142
26.1268 41.1597
26.1725 40.6344
26.2184 40.0688
26.2641 39.4972
26.31 39.3282
26.3557 39.4644
26.4017 39.4253
26.4474 39.6313
26.4933 40.0887
26.5391 40.6112
26.585 41.1859
26.6308 41.5709
26.6767 41.5882
26.7225 41.1547
26.7684 40.6799
26.8142 40.0293
26.8601 39.7452
26.9059 39.2166
26.9519 38.8199
26.9979 38.4904
27.0437 38.2628
27.0896 38.0346
27.1354 38.0958
27.1814 38.0637
27.2272 37.8196
27.2732 37.9602
27.3191 37.7482
27.3651 37.7587
27.4109 37.7111
27.4569 37.9975
27.5027 37.8832
27.5488 38.137
27.5946 37.7974
27.6407 37.5162
27.6865 37.4923
27.7326 37.2671
27.7784 37.2873
27.8245 37.1493
27.8703 37.4998
27.9164 37.718
27.9623 37.8706
28.0084 38.2589
28.0543 38.5908
28.1003 38.5715
28.1462 38.1661
28.1923 37.8432
28.2384 37.3999
28.2843 37.0483
28.3304 36.5231
28.3764 36.0388
28.4225 35.6963
28.4684 35.5838
28.5145 35.3016
28.5605 35.2588
28.6066 34.9145
28.6526 35.1141
28.6987 35.0643
28.7447 34.9573
28.7908 34.8695
28.8368 34.8587
28.8829 34.8805
28.9289 34.708
28.9751 34.598
29.0211 34.3535
29.0673 34.0957
29.1133 33.9344
29.1595 33.8068
29.2055 33.8582
29.2517 33.76
29.2977 33.8191
29.3439 33.7043
29.3899 33.8322
29.4361 33.536
29.4824 33.295
29.5284 33.0607
29.5746 32.817
29.6207 32.5936
29.6669 32.4886
29.713 32.4402
29.7593 32.2911
29.8053 32.3284
29.8516 32.29
29.8977 32.3254
29.9439 32.0835
29.99 32.0523
30.0363 31.8978
30.0824 31.9408
30.1287 32.0215
30.1748 31.9305
30.2211 31.9785
30.2673 31.784
30.3136 31.758
30.3597 31.7202
30.406 31.6108
30.4522 31.5528
30.4985 31.5161
30.5447 31.6892
30.591 31.5185
30.6372 31.7421
30.6835 31.6556
30.7297 31.7138
30.7761 31.4528
30.8224 31.353
30.8686 31.3775
30.915 31.091
30.9612 31.0159
31.0076 30.8519
31.0538 30.5973
31.1002 30.7157
31.1464 30.4458
31.1928 30.4313
31.2391 30.4657
31.2855 30.458
31.3317 30.4038
31.3781 30.4302
31.4244 30.3985
31.4708 30.3671
31.5171 30.3075
31.5636 30.2169
31.6098 29.9172
31.6563 29.8428
31.7026 29.7128
31.7491 29.6486
31.7953 29.6641
31.8418 29.6665
31.8881 29.6721
31.9346 29.6552
31.9809 29.535
32.0275 29.4296
32.074 29.3034
32.1203 29.1638
32.1668 28.9446
32.2132 28.9349
32.2597 28.6635
32.306 28.6949
32.3526 28.5452
32.399 28.4844
32.4455 28.369
32.4919 28.285
32.5385 28.1319
32.5848 27.9943
32.6314 28.0507
32.6778 27.9369
32.7244 27.8902
32.7708 27.7106
32.8174 27.7577
32.8638 27.5712
32.9104 27.6413
32.9569 27.5585
33.0035 27.3887
33.0499 27.3816
33.0966 27.2649
33.143 27.3302
33.1897 27.2806
33.2361 27.164
33.2828 27.0985
33.3293 26.9367
33.3759 26.8845
33.4226 26.7348
33.4691 26.6735
33.5158 26.5222
33.5623 26.4192
33.609 26.2474
33.6555 26.2744
33.7022 26.12
33.7487 26.0355
33.7954 26.1651
33.842 25.9401
33.8887 25.833
33.9353 25.8323
33.982 25.5926
34.0286 25.6493
34.0753 25.5362
34.1219 25.5083
34.1687 25.3503
34.2152 25.3614
34.262 25.22
34.3086 25.1285
34.3554 25.0887
34.402 24.9882
34.4488 24.8936
34.4954 24.8517
34.5422 24.7209
34.5889 24.6172
34.6357 24.5194
34.6825 24.4604
34.7292 24.4015
34.776 24.3317
34.8227 24.2513
34.8695 24.1682
34.9162 24.1396
34.9631 24.1282
35.0098 24.0513
35.0566 23.9472
35.1033 23.8493
35.1502 23.8487
35.1969 23.7734
35.2438 23.7703
35.2906 23.6686
35.3375 23.6574
35.3842 23.6121
35.4311 23.6245
35.4779 23.5982
35.5248 23.5637
35.5716 23.3866
35.6185 23.3799
35.6653 23.2589
35.7123 23.1457
35.759 23.0798
35.806 22.9605
35.8528 22.8037
35.8998 22.7724
35.9468 22.7487
35.9936 22.6726
36.0406 22.5738
36.0874 22.6211
36.1345 22.4943
36.1813 22.4735
36.2283 22.2956
36.2752 22.2497
36.3222 22.337
36.3691 22.1637
36.4161 22.0812
36.463 22.0926
36.5101 22.1085
36.557 21.9547
36.6041 21.8234
36.651 21.8742
36.6981 21.7655
36.745 21.7405
36.7921 21.5537
36.839 21.6027
36.8861 21.4538
36.9331 21.3422
36.9802 21.3672
37.0272 21.2285
37.0743 21.1505
37.1213 21.1245
37.1684 21.1293
37.2154 20.9976
37.2626 20.9054
37.3098 20.8861
37.3568 20.7902
37.404 20.7798
37.451 20.6098
37.4982 20.5855
37.5452 20.4596
37.5924 20.4382
37.6395 20.5041
37.6867 20.3853
37.7337 20.2004
37.781 20.211
37.8281 20.1997
37.8753 20.0577
37.9224 20.0135
37.9697 19.9522
38.0168 19.9396
38.064 19.826
38.1111 19.7729
38.1584 19.6677
38.2056 19.6442
38.2529 19.5841
38.3 19.4824
38.3473 19.4893
38.3945 19.3496
38.4418 19.318
38.489 19.2461
38.5363 19.229
38.5837 19.1909
38.6309 19.1175
38.6782 18.9912
38.7254 18.9377
38.7728 18.8981
38.82 18.8139
38.8674 18.7544
38.9146 18.682
38.9621 18.6256
39.0093 18.6137
39.0567 18.517
39.104 18.4521
39.1514 18.4267
39.1987 18.3135
39.2461 18.332
39.2934 18.2004
39.3409 18.1794
39.3882 18.0862
39.4356 18.0617
39.483 18.0709
39.5304 17.9541
39.5778 17.8995
39.6253 17.8086
39.6726 17.7607
39.7201 17.7201
39.7675 17.7414
39.815 17.6263
39.8624 17.5789
39.9099 17.5601
39.9575 17.369
40.0049 17.3145
40.0525 17.3285
40.0999 17.3174
40.1474 17.2136
40.1949 17.1518
40.2425 17.1782
40.2899 17.0619
40.3375 17.0135
40.385 17.0114
40.4326 16.8651
40.48 16.8721
40.5277 16.7769
40.5752 16.7558
40.6228 16.7049
40.6703 16.6912
40.718 16.608
40.7655 16.5486
40.8132 16.5036
40.8607 16.4781
40.9084 16.3844
40.9559 16.3101
41.0036 16.2628
41.0512 16.1966
41.0989 16.1718
41.1465 16.1319
41.1942 16.108
41.242 15.9747
41.2896 15.9592
41.3373 15.887
41.3849 15.8545
41.4327 15.7542
41.4803 15.6935
41.5281 15.7223
41.5758 15.6375
41.6236 15.6111
41.6712 15.4848
41.7191 15.4674
41.7667 15.4403
41.8146 15.3758
41.8622 15.3509
41.9101 15.2413
41.9578 15.2093
42.0057 15.1619
42.0534 15.1266
42.1013 15.0193
42.149 15.0151
42.1969 15.0093
42.2446 14.8913
42.2925 14.8533
42.3403 14.8609
42.3882 14.7857
42.436 14.7114
42.4839 14.6596
42.5319 14.6222
42.5797 14.5572
42.6277 14.5292
42.6755 14.497
42.7235 14.4062
42.7713 14.3616
42.8193 14.3355
42.8671 14.2507
42.9152 14.1867
42.963 14.1498
43.0111 14.0761
43.0589 14.0396
43.107 14.0499
43.1549 13.9986
43.2029 13.921
43.2508 13.9232
43.2989 13.8252
43.3468 13.7205
43.3949 13.7543
43.4429 13.7086
43.491 13.6598
43.5389 13.5604
43.5871 13.5362
43.635 13.5173
43.6832 13.4083
43.7312 13.3991
43.7793 13.3457
43.8273 13.3245
43.8755 13.3003
43.9237 13.1831
43.9717 13.1503
44.0199 13.1167
44.068 13.0811
44.1162 13.0059
44.1642 13.0331
44.2125 12.9023
44.2606 12.9135
44.3088 12.8282
44.3569 12.8015
44.4052 12.8046
44.4533 12.7442
44.5016 12.6627
44.5497 12.6522
44.598 12.6459
44.6461 12.5587
44.6945 12.4858
44.7426 12.429
44.791 12.4003
44.8391 12.3736
44.8875 12.332
44.9357 12.2961
44.984 12.2455
45.0322 12.2233
45.0806 12.2238
45.1288 12.1169
45.1773 12.0408
45.2257 12.0193
45.2739 12.0148
45.3224 11.9767
45.3706 11.8959
45.4191 11.8629
45.4673 11.8413
45.5158 11.8133
45.5641 11.7107
45.6126 11.6697
45.6609 11.6264
45.7094 11.6176
45.7577 11.5872
45.8063 11.5196
45.8546 11.5207
45.9031 11.4558
45.9515 11.3585
46.0001 11.3596
46.0484 11.3141
46.097 11.2945
46.1454 11.2906
46.194 11.1964
46.2424 11.1285
46.291 11.1385
46.3395 11.1153
46.3881 11.03
46.4365 10.9765
46.4852 10.9605
46.5337 10.9303
46.5823 10.8864
46.631 10.831
46.6795 10.7951
46.7282 10.7801
46.7767 10.7334
46.8254 10.6845
46.8739 10.6118
46.9226 10.5716
46.9712 10.5606
47.0199 10.5584
47.0685 10.4885
47.1173 10.4457
47.1658 10.4094
47.2146 10.4175
47.2632 10.3542
47.312 10.3251
47.3606 10.2572
47.4095 10.1865
47.4581 10.1913
47.5069 10.1259
47.5556 10.074
47.6044 10.0609
47.6531 10.0441
47.702 9.95789
47.7507 9.95506
47.7996 9.90711
47.8483 9.91748
47.8972 9.87562
47.9461 9.79959
47.9948 9.7404
48.0438 9.75866
48.0925 9.76494
48.1415 9.71096
48.1902 9.62224
48.2392 9.61943
48.288 9.57618
48.337 9.55609
48.3858 9.4894
48.4348 9.4735
48.4837 9.44851
48.5327 9.4048
48.5815 9.3632
48.6306 9.37082
48.6795 9.31023
48.7285 9.24092
48.7774 9.24471
48.8265 9.20821
48.8754 9.13593
48.9245 9.11789
48.9734 9.07304
49.0226 9.09401
49.0715 9.0066
49.1206 8.99779
49.1696 8.94668
49.2188 8.90217
49.2679 8.87097
49.3169 8.81821
49.3661 8.8019
49.4151 8.7822
49.4643 8.72218
49.5134 8.71787
49.5626 8.64387
49.6117 8.66333
49.6609 8.64103
49.71 8.55569
49.7592 8.56719
49.8083 8.536
49.8576 8.47471
49.9067 8.44061
49.956 8.4123
50.0052 8.37709
50.0545 8.32375
50.1036 8.32701
50.153 8.24955
50.2022 8.26299
50.2515 8.23549
50.3007 8.16609
50.3501 8.13652
50.3993 8.1357
50.4487 8.10273
50.498 8.08042
50.5474 8.03647
50.5966 8.03555
50.6461 7.99324
50.6955 7.94338
50.7448 7.9171
50.7943 7.8628
50.8436 7.84477
50.8931 7.80137
50.9424 7.80423
50.9919 7.74289
51.0413 7.74851
51.0908 7.70006
51.1402 7.68664
51.1897 7.62951
51.2391 7.59753
51.2887 7.57807
51.3381 7.53817
51.3877 7.51776
51.4371 7.47257
51.4867 7.42198
51.5362 7.41926
51.5858 7.41614
51.6353 7.3308
51.6849 7.36947
51.7344 7.30578
51.7841 7.28599
51.8336 7.20995
51.8833 7.21507
51.9328 7.18839
51.9826 7.12739
52.0323 7.12758
52.0818 7.099
52.1316 7.09221
52.1812 7.04437
52.231 7.00209
52.2806 6.9779
52.3304 6.93406
52.38 6.92842
52.4298 6.86809
52.4794 6.86817
52.5293 6.84074
52.5789 6.7814
52.6288 6.77532
52.6785 6.73359
52.7284 6.70445
52.7781 6.7135
52.828 6.69349
52.8777 6.64972
52.9276 6.61008
52.9774 6.57288
53.0273 6.51138
53.0771 6.51689
53.1271 6.5285
53.1769 6.4538
53.2269 6.47507
53.2767 6.38854
53.3267 6.35208
53.3765 6.36797
53.4266 6.33664
53.4766 6.296
53.5265 6.26308
53.5765 6.25249
53.6264 6.24349
53.6765 6.2105
53.7264 6.18973
53.7765 6.1598
53.8265 6.0695
53.8766 6.07735
53.9266 6.06797
53.9767 6.03407
54.0267 6.00411
54.0769 5.96725
54.1269 5.92689
54.1771 5.93672
54.2271 5.92549
54.2773 5.85499
54.3274 5.81816
54.3776 5.80251
54.4277 5.77234
54.478 5.75354
54.528 5.70968
54.5783 5.65988
54.6285 5.63086
54.6788 5.58711
54.7289 5.54846
54.7792 5.55729
54.8296 5.45232
54.8798 5.41027
54.9301 5.37973
54.9803 5.33677
55.0307 5.34748
55.0809 5.35362
55.1314 5.27695
55.1816 5.26033
55.232 5.19269
55.2823 5.0671
55.3328 5.05428
55.383 5.00682
55.4335 4.96014
55.4838 4.93089
55.5344 4.86805
55.5847 4.79723
55.6352 4.8146
55.6856 4.75531
55.7361 4.73028