File: XRD/Ni3Fe_FD0912.xy
TT I
1.27165 7.40865
1.31627 6.49017
1.36089 6.47166
1.40551 5.25115
1.45013 6.17799
1.49476 6.33219
1.53938 5.93799
1.584 5.28816
1.62863 5.18037
1.67325 4.96897
1.71787 4.99303
1.7625 4.66365
1.80712 4.28841
1.85174 4.81987
1.89636 4.33329
1.94099 4.78366
1.98562 4.94738
2.03025 4.6705
2.07487 4.22269
2.11949 4.6031
2.16411 4.57383
2.20874 10.4042
2.25338 13.9021
2.298 5.77638
2.34263 5.34824
2.38725 6.07961
2.43188 5.79856
2.4765 6.69644
2.52115 7.61294
2.56577 7.43873
2.6104 8.32534
2.65503 8.34367
2.69965 8.77841
2.7443 8.12347
2.78893 8.71109
2.83356 8.16647
2.87818 8.75691
2.92281 8.61736
2.96744 9.6485
3.01209 10.5091
3.05672 11.1088
3.10135 11.7273
3.14599 12.8896
3.19062 14.6955
3.23527 14.8092
3.2799 15.0656
3.32454 16.6627
3.36917 17.7638
3.4138 18.8856
3.45844 19.7652
3.50309 20.4999
3.54773 21.4386
3.59237 23.3175
3.637 59.0069
3.68164 40.8211
3.7263 25.3574
3.77094 25.5305
3.81558 25.9859
3.86022 27.0319
3.90486 28.5479
3.9495 29.4931
3.99416 30.4595
4.0388 31.3104
4.08344 32.4274
4.12809 34.8252
4.17273 35.934
4.21738 39.8635
4.26204 147.11
4.30669 124.384
4.35133 44.6356
4.39598 42.9754
4.44063 49.5189
4.4853 56.0634
4.52995 54.0497
4.5746 55.1816
4.61925 53.0083
4.6639 54.9889
4.70855 57.6967
4.75322 61.0511
4.79788 66.1539
4.84253 67.409
4.88719 73.1143
4.93184 75.1982
4.97652 80.1963
5.02118 86.5087
5.06583 93.5878
5.11049 104.271
5.15515 155.36
5.19981 353.109
5.24449 2758.1
5.28916 13517.2
5.33382 2591.95
5.37848 179.844
5.42315 126.153
5.46783 115.609
5.5125 108.292
5.55716 100.824
5.60183 96.8318
5.6465 95.2091
5.69117 93.1347
5.73586 91.3733
5.78053 94.7547
5.8252 94.0534
5.86988 96.8174
5.91455 93.2494
5.95924 102.064
6.00392 216.692
6.0486 951.706
6.09328 4722.49
6.13795 2987.91
6.18263 190.431
6.22733 87.9567
6.27201 79.785
6.3167 87.0586
6.36138 74.7414
6.40606 68.795
6.45075 68.0395
6.49545 64.3871
6.54014 62.5887
6.58483 61.9187
6.62952 62.0689
6.67421 78.6654
6.71892 100.34
6.76361 62.6805
6.8083 58.4382
6.853 58.4385
6.89769 56.0076
6.94239 55.838
6.98711 54.803
7.03181 55.1361
7.07651 54.0037
7.12121 54.2888
7.16591 55.1633
7.21063 54.6463
7.25533 62.639
7.30004 113.905
7.34475 71.7179
7.38945 54.5226
7.43416 53.5975
7.47889 53.1428
7.5236 53.5931
7.56831 54.5774
7.61303 55.2564
7.65774 55.8903
7.70247 56.0139
7.74719 55.416
7.79191 55.7295
7.83663 56.0077
7.88135 56.8388
7.92607 57.7078
7.97081 59.1045
8.01553 60.3983
8.06026 61.7206
8.10498 62.9261
8.14971 70.3223
8.19446 70.1669
8.23919 68.5472
8.28392 71.0284
8.32865 73.3333
8.37339 77.5097
8.41812 83.2174
8.46288 103.195
8.50761 168.458
8.55235 366.506
8.59709 1214.62
8.64183 2298.93
8.68658 828.218
8.73134 141.21
8.77609 96.0435
8.82083 90.7998
8.86558 90.101
8.91033 90.2467
8.9551 88.5367
8.99985 83.988
9.04461 82.9449
9.08936 82.7454
9.13412 81.167
9.17888 81.0173
9.22365 81.1266
9.26841 81.0145
9.31318 82.6832
9.35794 84.309
9.4027 83.8828
9.44749 83.8336
9.49226 83.4806
9.53703 84.506
9.5818 87.3873
9.62657 92.7551
9.67134 94.6218
9.71614 91.8518
9.76091 93.7004
9.80569 97.1528
9.85047 99.5209
9.89525 113.794
9.94005 126.158
9.98484 181.62
10.0296 333.937
10.0744 825.541
10.1192 1875.85
10.164 1465.04
10.2088 319.791
10.2536 118.018
10.2984 108.216
10.3432 108.053
10.388 102.966
10.4328 118.99
10.4776 157.433
10.5224 290.742
10.5672 555.174
10.612 488.22
10.6568 173.984
10.7017 91.9757
10.7465 84.7928
10.7913 81.8869
10.8361 79.688
10.8809 77.5746
10.9257 76.9034
10.9706 76.7857
11.0154 73.9083
11.0602 71.7446
11.105 70.4787
11.1499 72.0911
11.1947 74.9859
11.2395 70.0935
11.2844 68.0014
11.3292 65.9797
11.374 65.2679
11.4189 64.6797
11.4637 63.9336
11.5086 64.0252
11.5534 65.2063
11.5983 63.5041
11.6431 62.5977
11.688 61.8462
11.7328 61.8258
11.7777 61.7445
11.8225 61.7132
11.8674 61.369
11.9122 61.9031
11.9571 62.0726
12.002 63.1706
12.0468 67.3839
12.0917 77.6347
12.1366 101.743
12.1814 157.994
12.2263 209.938
12.2712 151.947
12.3161 85.4611
12.3609 66.171
12.4058 63.1331
12.4507 63.1511
12.4956 63.466
12.5405 63.7969
12.5853 64.3173
12.6302 68.309
12.6751 71.2081
12.72 67.3115
12.7649 66.7745
12.8098 67.1313
12.8547 68.7367
12.8996 70.4477
12.9445 71.7493
12.9894 73.2115
13.0343 74.8574
13.0792 78.751
13.1242 89.3573
13.1691 109.592
13.214 145.474
13.2589 245.034
13.3038 392.156
13.3487 421.04
13.3937 229.286
13.4386 113.234
13.4835 103.892
13.5285 117.892
13.5734 156.625
13.6183 257.611
13.6633 374.308
13.7082 322.653
13.7531 165.104
13.7981 91.4199
13.843 79.8239
13.888 78.1951
13.9329 75.83
13.9779 74.7853
14.0228 73.328
14.0678 71.7773
14.1127 71.4975
14.1577 70.8023
14.2027 70.225
14.2476 69.1027
14.2926 68.8847
14.3376 69.6141
14.3825 68.7024
14.4275 68.0398
14.4725 67.4134
14.5175 67.968
14.5624 67.9028
14.6074 69.231
14.6524 69.634
14.6974 69.504
14.7424 72.0991
14.7874 78.2882
14.8324 87.3979
14.8774 110.109
14.9224 158.22
14.9674 216.444
15.0124 213.053
15.0574 136.211
15.1024 83.5132
15.1474 70.5336
15.1924 69.0213
15.2374 68.7557
15.2824 67.8603
15.3274 66.5227
15.3725 65.7838
15.4175 65.4575
15.4625 64.6646
15.5076 65.0336
15.5526 64.9974
15.5976 64.8788
15.6426 66.5638
15.6877 71.4579
15.7327 78.4652
15.7778 93.9644
15.8228 129.569
15.8679 178.265
15.9129 193.465
15.958 143.27
16.003 86.2372
16.0481 64.8695
16.0931 62.2348
16.1382 60.6006
16.1833 59.3111
16.2283 57.6581
16.2734 57.2589
16.3185 57.0094
16.3636 57.0794
16.4086 56.0582
16.4537 54.9629
16.4988 54.4343
16.5439 54.3689
16.589 54.1043
16.6341 53.8653
16.6792 53.5625
16.7243 53.945
16.7694 53.7925
16.8145 53.8264
16.8596 53.9856
16.9047 54.9075
16.9498 55.1948
16.9949 54.6792
17.04 54.9577
17.0851 56.1426
17.1302 57.6067
17.1754 60.6661
17.2205 66.1807
17.2656 74.684
17.3108 83.3768
17.3559 79.4893
17.401 67.3223
17.4462 60.091
17.4913 58.1301
17.5365 58.3748
17.5815 58.2331
17.6268 58.5168
17.6718 59.1758
17.7171 59.8043
17.7622 60.3998
17.8074 61.0848
17.8525 63.8094
17.8977 67.2216
17.9428 72.2708
17.9881 81.6018
18.0331 100.654
18.0784 126.192
18.1237 140.075
18.1688 124.63
18.214 95.5383
18.2591 83.4151
18.3044 90.574
18.3495 102.55
18.3948 105.142
18.4399 90.5543
18.4852 72.9125
18.5303 63.7934
18.5756 61.0383
18.6207 60.0291
18.666 59.1036
18.7112 58.5307
18.7565 58.1662
18.8016 57.7626
18.8469 57.0602
18.892 56.7388
18.9374 56.2772
18.9825 56.1698
19.0278 55.788
19.073 55.977
19.1183 56.438
19.1635 56.9352
19.2088 58.4333
19.254 61.1489
19.2993 66.319
19.3447 72.3786
19.3898 75.3504
19.4352 69.1738
19.4804 60.4819
19.5257 54.9893
19.5709 53.2327
19.6163 53.0246
19.6615 52.8221
19.7068 52.5288
19.752 52.4161
19.7974 52.8958
19.8426 53.4388
19.888 53.948
19.9332 55.4786
19.9786 58.0101
20.0238 62.4691
20.0692 67.6516
20.1144 69.3968
20.1598 66.1641
20.205 61.6083
20.2504 61.3925
20.2957 63.7668
20.3411 65.0339
20.3863 62.0081
20.4318 55.9446
20.477 51.8469
20.5224 50.1699
20.5677 49.8773
20.6131 49.3543
20.6586 48.6885
20.7038 48.6258
20.7493 48.3006
20.7945 48.305
20.84 47.8923
20.8853 47.8838
20.9307 47.8837
20.976 48.1245
21.0215 47.8791
21.0668 48.1569
21.1122 48.6225
21.1575 49.3995
21.203 50.2324
21.2483 50.862
21.2938 50.6714
21.3391 49.1433
21.3846 48.0604
21.4299 47.552
21.4754 47.6442
21.5207 47.8288
21.5662 48.0513
21.6116 48.5689
21.6571 48.8622
21.7024 49.9499
21.7479 51.9088
21.7933 54.9547
21.8388 58.9837
21.8843 62.8808
21.9297 63.9877
21.9752 61.1596
22.0206 57.4799
22.0661 55.3067
22.1115 55.5018
22.157 54.9664
22.2024 52.6915
22.248 49.8925
22.2933 48.7656
22.3389 48.0932
22.3843 48.0597
22.4299 47.8753
22.4753 47.839
22.5208 47.8181
22.5662 47.7149
22.6118 47.8873
22.6572 48.071
22.7028 48.4896
22.7483 48.6992
22.7939 49.5541
22.8393 51.1493
22.8849 53.6464
22.9303 55.7516
22.9759 57.4551
23.0214 56.0898
23.067 52.6835
23.1126 49.6132
23.1581 48.1321
23.2037 47.7984
23.2492 47.9145
23.2948 47.7879
23.3403 48.3331
23.3859 48.904
23.4314 50.2168
23.477 52.1259
23.5225 54.6817
23.5682 56.8082
23.6137 57.1491
23.6593 53.9023
23.7048 49.6916
23.7505 47.0036
23.796 45.629
23.8417 45.1143
23.8872 44.7607
23.9329 44.4197
23.9784 43.971
24.0241 43.8868
24.0697 43.7933
24.1154 43.3212
24.1609 43.1572
24.2066 43.0221
24.2522 42.9832
24.2979 42.7097
24.3434 42.5244
24.3892 42.3427
24.4349 42.3187
24.4805 42.2153
24.5262 42.4933
24.5718 42.3749
24.6175 42.2354
24.6631 42.1048
24.7089 41.7717
24.7545 41.7311
24.8002 41.5303
24.8458 41.5366
24.8916 41.2912
24.9372 41.393
24.983 41.8785
25.0286 42.1881
25.0744 42.7544
25.12 43.2267
25.1658 43.7381
25.2114 43.874
25.2572 43.9512
25.3029 44.1992
25.3487 44.2608
25.3943 43.7054
25.4402 42.5123
25.4858 41.3623
25.5316 40.5845
25.5773 40.1649
25.6231 40.1606
25.669 39.8202
25.7147 39.8893
25.7605 39.7692
25.8062 39.7949
25.8521 39.8682
25.8977 39.7612
25.9436 40.1199
25.9893 40.3589
26.0352 40.8826
26.0809 41.1471
26.1268 40.9831
26.1725 40.5807
26.2184 39.9946
26.2641 39.6698
26.31 39.3787
26.3557 39.4364
26.4017 39.4614
26.4474 39.7778
26.4933 40.1719
26.5391 40.5647
26.585 41.3233
26.6308 41.6269
26.6767 41.494
26.7225 41.1575
26.7684 40.5718
26.8142 40.0661
26.8601 39.6963
26.9059 39.3454
26.9519 38.7074
26.9979 38.4454
27.0437 38.1802
27.0896 38.0498
27.1354 38.1682
27.1814 37.7984
27.2272 37.7699
27.2732 37.9221
27.3191 37.7932
27.3651 37.8956
27.4109 37.9418
27.4569 37.8751
27.5027 37.9549
27.5488 37.9173
27.5946 37.7561
27.6407 37.5171
27.6865 37.5258
27.7326 37.2055
27.7784 37.277
27.8245 37.0687
27.8703 37.354
27.9164 37.5976
27.9623 37.8912
28.0084 38.2831
28.0543 38.5975
28.1003 38.3347
28.1462 38.1668
28.1923 37.7264
28.2384 37.2524
28.2843 37.0018
28.3304 36.4328
28.3764 35.876
28.4225 35.6958
28.4684 35.5594
28.5145 35.3734
28.5605 35.2663
28.6066 35.0943
28.6526 35.0686
28.6987 35.032
28.7447 34.9246
28.7908 34.9216
28.8368 34.882
28.8829 34.8175
28.9289 34.7591
28.9751 34.4795
29.0211 34.2533
29.0673 33.9883
29.1133 33.9587
29.1595 33.8096
29.2055 33.6573
29.2517 33.7872
29.2977 33.7023
29.3439 33.6117
29.3899 33.7693
29.4361 33.54
29.4824 33.3753
29.5284 33.1255
29.5746 32.7335
29.6207 32.5991
29.6669 32.522
29.713 32.4033
29.7593 32.3347
29.8053 32.2222
29.8516 32.2081
29.8977 32.1305
29.9439 32.08
29.99 32.0643
30.0363 31.9343
30.0824 31.9869
30.1287 31.7945
30.1748 31.9531
30.2211 31.9095
30.2673 31.8191
30.3136 31.8421
30.3597 31.7713
30.406 31.5952
30.4522 31.4862
30.4985 31.412
30.5447 31.6497
30.591 31.5871
30.6372 31.6491
30.6835 31.591
30.7297 31.7262
30.7761 31.5595
30.8224 31.3886
30.8686 31.2628
30.915 30.9758
30.9612 30.9238
31.0076 30.7535
31.0538 30.7186
31.1002 30.6587
31.1464 30.4183
31.1928 30.4683
31.2391 30.4166
31.2855 30.3169
31.3317 30.3244
31.3781 30.4143
31.4244 30.3317
31.4708 30.3139
31.5171 30.1907
31.5636 30.225
31.6098 29.9601
31.6563 29.8085
31.7026 29.7098
31.7491 29.5873
31.7953 29.6357
31.8418 29.5458
31.8881 29.6488
31.9346 29.645
31.9809 29.5362
32.0275 29.3211
32.074 29.2773
32.1203 29.1494
32.1668 29.0275
32.2132 28.9264
32.2597 28.7449
32.306 28.6928
32.3526 28.4629
32.399 28.4384
32.4455 28.302
32.4919 28.1825
32.5385 28.1589
32.5848 28.0918
32.6314 28.0001
32.6778 28.0104
32.7244 27.7927
32.7708 27.5761
32.8174 27.585
32.8638 27.5428
32.9104 27.6435
32.9569 27.5428
33.0035 27.4113
33.0499 27.3539
33.0966 27.3635
33.143 27.3515
33.1897 27.1829
33.2361 27.0974
33.2828 27.1149
33.3293 26.8694
33.3759 26.9117
33.4226 26.7862
33.4691 26.5861
33.5158 26.5744
33.5623 26.4191
33.609 26.2241
33.6555 26.2108
33.7022 26.1516
33.7487 26.0793
33.7954 26.0193
33.842 25.9742
33.8887 25.8334
33.9353 25.8696
33.982 25.7115
34.0286 25.6189
34.0753 25.5678
34.1219 25.4206
34.1687 25.3757
34.2152 25.3397
34.262 25.2522
34.3086 25.1673
34.3554 25.0839
34.402 24.906
34.4488 24.8223
34.4954 24.8463
34.5422 24.6985
34.5889 24.6562
34.6357 24.4441
34.6825 24.4747
34.7292 24.3896
34.776 24.356
34.8227 24.234
34.8695 24.1195
34.9162 24.1659
34.9631 24.0437
35.0098 24.017
35.0566 23.8898
35.1033 23.9304
35.1502 23.9281
35.1969 23.831
35.2438 23.7841
35.2906 23.6788
35.3375 23.6556
35.3842 23.5897
35.4311 23.6078
35.4779 23.6254
35.5248 23.5176
35.5716 23.3666
35.6185 23.276
35.6653 23.2109
35.7123 23.1006
35.759 23.1052
35.806 22.9789
35.8528 22.8749
35.8998 22.7978
35.9468 22.7165
35.9936 22.6109
36.0406 22.6764
36.0874 22.5969
36.1345 22.5179
36.1813 22.3921
36.2283 22.3875
36.2752 22.2567
36.3222 22.2727
36.3691 22.1869
36.4161 22.0628
36.463 22.0668
36.5101 22.0501
36.557 21.9322
36.6041 21.8503
36.651 21.8212
36.6981 21.6932
36.745 21.6687
36.7921 21.6547
36.839 21.5222
36.8861 21.4196
36.9331 21.3433
36.9802 21.3213
37.0272 21.1775
37.0743 21.1323
37.1213 21.0939
37.1684 21.055
37.2154 20.997
37.2626 20.9108
37.3098 20.8306
37.3568 20.7789
37.404 20.7235
37.451 20.5822
37.4982 20.5836
37.5452 20.5298
37.5924 20.4544
37.6395 20.4484
37.6867 20.3453
37.7337 20.2752
37.781 20.186
37.8281 20.086
37.8753 20.0321
37.9224 19.9795
37.9697 19.8657
38.0168 19.8887
38.064 19.7972
38.1111 19.7509
38.1584 19.6012
38.2056 19.6798
38.2529 19.498
38.3 19.5208
38.3473 19.4486
38.3945 19.2838
38.4418 19.3094
38.489 19.2296
38.5363 19.1787
38.5837 19.1265
38.6309 19.0635
38.6782 19.0035
38.7254 18.9758
38.7728 18.8752
38.82 18.7936
38.8674 18.7515
38.9146 18.721
38.9621 18.6223
39.0093 18.5848
39.0567 18.5113
39.104 18.4626
39.1514 18.4307
39.1987 18.3726
39.2461 18.3338
39.2934 18.2997
39.3409 18.129
39.3882 18.0977
39.4356 18.0557
39.483 18.0164
39.5304 17.8888
39.5778 17.9286
39.6253 17.8923
39.6726 17.8454
39.7201 17.7465
39.7675 17.6615
39.815 17.5967
39.8624 17.5709
39.9099 17.5466
39.9575 17.433
40.0049 17.3994
40.0525 17.3325
40.0999 17.2354
40.1474 17.2077
40.1949 17.2088
40.2425 17.1254
40.2899 17.0831
40.3375 17.0036
40.385 16.9373
40.4326 16.9072
40.48 16.779
40.5277 16.8414
40.5752 16.7625
40.6228 16.6539
40.6703 16.696
40.718 16.5542
40.7655 16.5291
40.8132 16.4761
40.8607 16.4027
40.9084 16.3794
40.9559 16.2831
41.0036 16.2802
41.0512 16.2384
41.0989 16.1696
41.1465 16.1193
41.1942 16.0775
41.242 15.9582
41.2896 15.9027
41.3373 15.8927
41.3849 15.837
41.4327 15.795
41.4803 15.7272
41.5281 15.6998
41.5758 15.6019
41.6236 15.6374
41.6712 15.5161
41.7191 15.4463
41.7667 15.3945
41.8146 15.4205
41.8622 15.3383
41.9101 15.2479
41.9578 15.1625
42.0057 15.1721
42.0534 15.0927
42.1013 15.0839
42.149 15.0317
42.1969 14.9723
42.2446 14.9089
42.2925 14.8519
42.3403 14.804
42.3882 14.756
42.436 14.7146
42.4839 14.6818
42.5319 14.6796
42.5797 14.5637
42.6277 14.5267
42.6755 14.5119
42.7235 14.4155
42.7713 14.4381
42.8193 14.3175
42.8671 14.2441
42.9152 14.2179
42.963 14.1334
43.0111 14.1245
43.0589 14.1065
43.107 14.0668
43.1549 13.9458
43.2029 13.9685
43.2508 13.919
43.2989 13.8217
43.3468 13.8101
43.3949 13.7509
43.4429 13.6923
43.491 13.6421
43.5389 13.5905
43.5871 13.5277
43.635 13.4789
43.6832 13.4666
43.7312 13.3613
43.7793 13.384
43.8273 13.3348
43.8755 13.2379
43.9237 13.2257
43.9717 13.2225
44.0199 13.1107
44.068 13.0939
44.1162 13.0243
44.1642 13.0254
44.2125 12.9811
44.2606 12.9062
44.3088 12.9152
44.3569 12.8066
44.4052 12.7711
44.4533 12.717
44.5016 12.6542
44.5497 12.6602
44.598 12.626
44.6461 12.5457
44.6945 12.5529
44.7426 12.461
44.791 12.418
44.8391 12.4036
44.8875 12.3491
44.9357 12.2923
44.984 12.2981
45.0322 12.2021
45.0806 12.1303
45.1288 12.1393
45.1773 12.0833
45.2257 12.0619
45.2739 12.0057
45.3224 11.9809
45.3706 11.8893
45.4191 11.8482
45.4673 11.8375
45.5158 11.7627
45.5641 11.721
45.6126 11.7043
45.6609 11.6237
45.7094 11.6166
45.7577 11.5654
45.8063 11.5015
45.8546 11.526
45.9031 11.4218
45.9515 11.414
46.0001 11.3547
46.0484 11.3202
46.097 11.3136
46.1454 11.2697
46.194 11.2042
46.2424 11.1384
46.291 11.096
46.3395 11.0672
46.3881 11.0498
46.4365 11.0524
46.4852 10.9419
46.5337 10.9182
46.5823 10.909
46.631 10.8696
46.6795 10.8156
46.7282 10.774
46.7767 10.7046
46.8254 10.688
46.8739 10.6695
46.9226 10.5982
46.9712 10.5453
47.0199 10.5267
47.0685 10.4489
47.1173 10.4512
47.1658 10.4076
47.2146 10.384
47.2632 10.3219
47.312 10.3333
47.3606 10.248
47.4095 10.2162
47.4581 10.1799
47.5069 10.1196
47.5556 10.0697
47.6044 10.0612
47.6531 10.0272
47.702 9.99198
47.7507 9.98693
47.7996 9.93104
47.8483 9.85391
47.8972 9.86636
47.9461 9.81286
47.9948 9.77153
48.0438 9.71089
48.0925 9.69678
48.1415 9.6887
48.1902 9.61877
48.2392 9.63048
48.288 9.59165
48.337 9.54868
48.3858 9.48422
48.4348 9.48728
48.4837 9.47482
48.5327 9.4046
48.5815 9.37358
48.6306 9.33833
48.6795 9.2797
48.7285 9.24886
48.7774 9.26946
48.8265 9.20977
48.8754 9.15328
48.9245 9.13963
48.9734 9.08515
49.0226 9.05821
49.0715 9.04294
49.1206 8.95538
49.1696 8.94746
49.2188 8.9433
49.2679 8.8677
49.3169 8.82478
49.3661 8.81233
49.4151 8.79387
49.4643 8.72706
49.5134 8.72292
49.5626 8.67992
49.6117 8.65179
49.6609 8.63988
49.71 8.59491
49.7592 8.52409
49.8083 8.49734
49.8576 8.50558
49.9067 8.4685
49.956 8.42747
50.0052 8.36475
50.0545 8.38415
50.1036 8.30978
50.153 8.28727
50.2022 8.2361
50.2515 8.21066
50.3007 8.17903
50.3501 8.1715
50.3993 8.13993
50.4487 8.11997
50.498 8.04356
50.5474 8.02707
50.5966 7.98765
50.6461 7.98484
50.6955 7.93381
50.7448 7.93337
50.7943 7.86043
50.8436 7.87545
50.8931 7.83979
50.9424 7.78769
50.9919 7.76002
51.0413 7.74939
51.0908 7.71132
51.1402 7.7096
51.1897 7.61868
51.2391 7.63621
51.2887 7.57258
51.3381 7.55944
51.3877 7.50788
51.4371 7.45729
51.4867 7.44007
51.5362 7.4514
51.5858 7.382
51.6353 7.34427
51.6849 7.31905
51.7344 7.33464
51.7841 7.27944
51.8336 7.23854
51.8833 7.20822
51.9328 7.16881
51.9826 7.16983
52.0323 7.12695
52.0818 7.10257
52.1316 7.06884
52.1812 7.01917
52.231 7.01778
52.2806 6.94671
52.3304 6.92087
52.38 6.91335
52.4298 6.88874
52.4794 6.88475
52.5293 6.8602
52.5789 6.80149
52.6288 6.81366
52.6785 6.73962
52.7284 6.73451
52.7781 6.70478
52.828 6.70067
52.8777 6.60848
52.9276 6.58651
52.9774 6.60503
53.0273 6.52232
53.0771 6.51796
53.1271 6.50479
53.1769 6.48503
53.2269 6.43317
53.2767 6.41754
53.3267 6.36556
53.3765 6.31092
53.4266 6.32124
53.4766 6.32188
53.5265 6.2627
53.5765 6.2615
53.6264 6.25728
53.6765 6.22143
53.7264 6.17257
53.7765 6.18283
53.8265 6.13944
53.8766 6.12128
53.9266 6.10246
53.9767 6.09619
54.0267 6.02377
54.0769 6.01472
54.1269 5.96119
54.1771 5.91083
54.2271 5.92334
54.2773 5.85011
54.3274 5.83656
54.3776 5.77586
54.4277 5.81103
54.478 5.73643
54.528 5.67808
54.5783 5.68176
54.6285 5.6305
54.6788 5.63935
54.7289 5.56474
54.7792 5.51302
54.8296 5.45651
54.8798 5.40392
54.9301 5.34229
54.9803 5.39737
55.0307 5.34784
55.0809 5.2884
55.1314 5.24822
55.1816 5.19731
55.232 5.18616
55.2823 5.12882
55.3328 5.09046
55.383 5.00531
55.4335 4.98753
55.4838 4.89841
55.5344 4.93257
55.5847 4.87036
55.6352 4.85287
55.6856 4.78837
55.7361 4.74266