File: XRD/Ni3Fe_FD0674.xy
TT I
1.27165 7.46449
1.31627 6.37233
1.36089 7.22098
1.40551 6.30886
1.45013 6.28813
1.49476 5.58216
1.53938 5.50994
1.584 5.50402
1.62863 4.93676
1.67325 4.86291
1.71787 4.87922
1.7625 5.12231
1.80712 4.95614
1.85174 4.41024
1.89636 4.43113
1.94099 4.56577
1.98562 5.03846
2.03025 4.61668
2.07487 4.07726
2.11949 5.44046
2.16411 5.07719
2.20874 11.3736
2.25338 17.1762
2.298 5.4134
2.34263 5.97089
2.38725 5.38534
2.43188 5.61278
2.4765 6.76228
2.52115 6.46766
2.56577 8.00087
2.6104 7.64337
2.65503 7.7249
2.69965 7.98578
2.7443 8.18787
2.78893 8.52049
2.83356 8.5363
2.87818 9.05231
2.92281 8.79574
2.96744 9.48581
3.01209 10.8209
3.05672 11.1002
3.10135 12.0539
3.14599 13.2427
3.19062 14.2864
3.23527 14.807
3.2799 15.7499
3.32454 17.1129
3.36917 17.6461
3.4138 19.0511
3.45844 19.5376
3.50309 20.6945
3.54773 21.5268
3.59237 23.3998
3.637 70.8317
3.68164 47.3656
3.7263 25.8428
3.77094 26.0023
3.81558 26.4721
3.86022 28.059
3.90486 29.1174
3.9495 29.7774
3.99416 30.4218
4.0388 32.0232
4.08344 33.2766
4.12809 34.5667
4.17273 36.5914
4.21738 40.8503
4.26204 183.424
4.30669 158.061
4.35133 46.6217
4.39598 43.5485
4.44063 51.3811
4.4853 59.5203
4.52995 50.9017
4.5746 52.2624
4.61925 53.2321
4.6639 55.2149
4.70855 58.0299
4.75322 60.9669
4.79788 64.217
4.84253 67.447
4.88719 71.864
4.93184 75.3027
4.97652 81.2372
5.02118 87.7133
5.06583 95.1607
5.11049 106.491
5.15515 162.023
5.19981 389.584
5.24449 2989.42
5.28916 12424.1
5.33382 2673.74
5.37848 182.276
5.42315 127.887
5.46783 113.538
5.5125 106.285
5.55716 102.194
5.60183 98.4611
5.6465 96.5169
5.69117 94.0608
5.73586 92.6657
5.78053 92.537
5.8252 92.2333
5.86988 93.1956
5.91455 94.7859
5.95924 104.446
6.00392 229.232
6.0486 1005.94
6.09328 4558.91
6.13795 3222.43
6.18263 224.95
6.22733 91.8464
6.27201 81.5233
6.3167 93.2034
6.36138 77.3377
6.40606 68.774
6.45075 67.2108
6.49545 65.315
6.54014 63.6435
6.58483 62.4671
6.62952 62.0761
6.67421 83.5332
6.71892 117.187
6.76361 65.4469
6.8083 58.2957
6.853 57.3753
6.89769 56.6517
6.94239 56.2997
6.98711 55.4737
7.03181 55.2133
7.07651 55.0413
7.12121 54.9153
7.16591 54.8872
7.21063 55.2745
7.25533 65.6283
7.30004 139.518
7.34475 79.3719
7.38945 55.8236
7.43416 54.1747
7.47889 54.3882
7.5236 54.6938
7.56831 55.2849
7.61303 56.5063
7.65774 56.7287
7.70247 56.1503
7.74719 55.7714
7.79191 56.3771
7.83663 57.0276
7.88135 57.8039
7.92607 58.7654
7.97081 59.9757
8.01553 61.0638
8.06026 62.7111
8.10498 63.7297
8.14971 70.8873
8.19446 70.8568
8.23919 69.267
8.28392 71.987
8.32865 74.0774
8.37339 78.6948
8.41812 85.2474
8.46288 108.656
8.50761 177.827
8.55235 408.715
8.59709 1227.87
8.64183 2212.45
8.68658 909.126
8.73134 153.455
8.77609 98.3335
8.82083 92.5235
8.86558 89.969
8.91033 89.4412
8.9551 89.2262
8.99985 85.2437
9.04461 83.5279
9.08936 83.2051
9.13412 82.1363
9.17888 81.9822
9.22365 82.4091
9.26841 81.8976
9.31318 82.6521
9.35794 82.8703
9.4027 83.3
9.44749 84.6338
9.49226 84.8034
9.53703 85.6328
9.5818 87.8108
9.62657 91.3986
9.67134 96.0322
9.71614 93.2164
9.76091 94.4221
9.80569 96.6912
9.85047 99.6318
9.89525 117.811
9.94005 131.995
9.98484 189.733
10.0296 362.68
10.0744 843.163
10.1192 1789.27
10.164 1569.86
10.2088 374.588
10.2536 123.975
10.2984 110.806
10.3432 111.695
10.388 104.652
10.4328 122.148
10.4776 164.833
10.5224 289.944
10.5672 513.565
10.612 495.828
10.6568 189.285
10.7017 94.9145
10.7465 86.3827
10.7913 82.6802
10.8361 81.1361
10.8809 78.514
10.9257 77.7279
10.9706 77.9767
11.0154 74.5233
11.0602 72.7694
11.105 71.4486
11.1499 74.2514
11.1947 78.366
11.2395 72.4703
11.2844 69.1477
11.3292 66.9545
11.374 65.9127
11.4189 65.5278
11.4637 64.3642
11.5086 64.8486
11.5534 66.5792
11.5983 64.8061
11.6431 63.4484
11.688 62.8457
11.7328 62.9273
11.7777 62.7509
11.8225 62.3462
11.8674 62.5071
11.9122 62.6658
11.9571 63.1659
12.002 64.1028
12.0468 68.7281
12.0917 79.8106
12.1366 104.325
12.1814 154.13
12.2263 204.532
12.2712 159.123
12.3161 90.2614
12.3609 68.4555
12.4058 64.3744
12.4507 63.82
12.4956 64.041
12.5405 64.3959
12.5853 65.2313
12.6302 70.664
12.6751 74.439
12.72 68.7723
12.7649 67.71
12.8098 68.5249
12.8547 69.6761
12.8996 70.9114
12.9445 72.3224
12.9894 74.1634
13.0343 76.0274
13.0792 79.7393
13.1242 90.505
13.1691 114.106
13.214 152.582
13.2589 247.307
13.3038 378.997
13.3487 420.357
13.3937 251.175
13.4386 119.911
13.4835 107.393
13.5285 122.822
13.5734 162.63
13.6183 254.661
13.6633 356.581
13.7082 328.027
13.7531 171.225
13.7981 93.6117
13.843 81.1968
13.888 79.4222
13.9329 76.7268
13.9779 75.5892
14.0228 74.2981
14.0678 72.8083
14.1127 72.193
14.1577 71.9689
14.2027 71.3019
14.2476 70.0983
14.2926 70.2534
14.3376 71.0787
14.3825 69.8783
14.4275 68.9632
14.4725 68.661
14.5175 69.0439
14.5624 68.985
14.6074 70.3551
14.6524 71.1379
14.6974 70.4147
14.7424 72.7856
14.7874 80.1961
14.8324 90.3217
14.8774 113.017
14.9224 158.179
14.9674 213.019
15.0124 216.659
15.0574 141.341
15.1024 86.7933
15.1474 71.7972
15.1924 70.0709
15.2374 69.857
15.2824 69.3259
15.3274 67.7956
15.3725 66.5531
15.4175 66.0406
15.4625 65.9676
15.5076 65.8068
15.5526 66.0002
15.5976 65.8702
15.6426 67.5978
15.6877 73.0457
15.7327 80.6181
15.7778 96.425
15.8228 129.505
15.8679 175.595
15.9129 194.566
15.958 152.08
16.003 92.3442
16.0481 66.6143
16.0931 63.6171
16.1382 61.8927
16.1833 60.1974
16.2283 58.797
16.2734 58.2216
16.3185 58.0435
16.3636 58.3965
16.4086 57.0616
16.4537 56.1395
16.4988 55.4071
16.5439 55.2609
16.589 54.8969
16.6341 54.5826
16.6792 54.4889
16.7243 54.8155
16.7694 54.8369
16.8145 54.5522
16.8596 54.8508
16.9047 56.0935
16.9498 56.3759
16.9949 55.5312
17.04 55.9131
17.0851 57.3014
17.1302 58.5942
17.1754 61.8999
17.2205 67.196
17.2656 75.0054
17.3108 83.5191
17.3559 81.8427
17.401 69.8721
17.4462 61.5144
17.4913 58.9399
17.5365 58.9101
17.5815 59.1364
17.6268 59.5332
17.6718 60.339
17.7171 60.7111
17.7622 61.2659
17.8074 62.2515
17.8525 64.8328
17.8977 68.9598
17.9428 74.3671
17.9881 83.4812
18.0331 101.719
18.0784 124.523
18.1237 142.798
18.1688 130.738
18.214 101.001
18.2591 86.1234
18.3044 91.1707
18.3495 100.806
18.3948 105.746
18.4399 94.3372
18.4852 75.4761
18.5303 65.2157
18.5756 61.9299
18.6207 61.1818
18.666 60.3393
18.7112 59.3658
18.7565 58.94
18.8016 58.5165
18.8469 57.9896
18.892 57.6559
18.9374 57.012
18.9825 56.9905
19.0278 56.6072
19.073 56.8633
19.1183 57.4317
19.1635 58.0832
19.2088 59.4786
19.254 62.6252
19.2993 67.3385
19.3447 73.325
19.3898 76.4363
19.4352 71.5799
19.4804 62.3318
19.5257 56.3619
19.5709 54.0412
19.6163 53.6392
19.6615 53.7334
19.7068 53.2754
19.752 53.3724
19.7974 53.6993
19.8426 54.365
19.888 55.0059
19.9332 56.3911
19.9786 59.0437
20.0238 62.729
20.0692 67.7121
20.1144 69.7943
20.1598 67.6223
20.205 63.0
20.2504 62.0361
20.2957 64.1521
20.3411 65.5069
20.3863 63.3221
20.4318 57.6072
20.477 52.8475
20.5224 51.1828
20.5677 50.8229
20.6131 50.0265
20.6586 49.5086
20.7038 49.3461
20.7493 49.0402
20.7945 48.8858
20.84 48.798
20.8853 48.7767
20.9307 48.4455
20.976 48.6863
21.0215 48.5536
21.0668 48.9969
21.1122 49.5081
21.1575 49.905
21.203 50.9521
21.2483 51.293
21.2938 51.2045
21.3391 49.8225
21.3846 48.6467
21.4299 48.2612
21.4754 48.3019
21.5207 48.5798
21.5662 48.8687
21.6116 49.3744
21.6571 50.0061
21.7024 50.9955
21.7479 52.7246
21.7933 55.6239
21.8388 59.4215
21.8843 63.2213
21.9297 64.8942
21.9752 62.8327
22.0206 58.9541
22.0661 56.3433
22.1115 55.9852
22.157 55.8192
22.2024 53.954
22.248 51.0134
22.2933 49.7427
22.3389 48.9165
22.3843 48.8055
22.4299 48.6399
22.4753 48.5628
22.5208 48.4809
22.5662 48.4093
22.6118 48.7759
22.6572 48.9704
22.7028 49.2455
22.7483 49.697
22.7939 50.5994
22.8393 52.1292
22.8849 54.3046
22.9303 56.3709
22.9759 58.0906
23.0214 57.1885
23.067 53.8313
23.1126 50.8672
23.1581 49.0565
23.2037 48.5279
23.2492 48.9005
23.2948 48.9656
23.3403 49.1964
23.3859 49.6642
23.4314 51.0245
23.477 52.9681
23.5225 55.0719
23.5682 57.427
23.6137 57.822
23.6593 54.9382
23.7048 51.0121
23.7505 47.8567
23.796 46.4542
23.8417 45.9152
23.8872 45.4736
23.9329 45.1147
23.9784 44.744
24.0241 44.4697
24.0697 44.3929
24.1154 44.0008
24.1609 43.9208
24.2066 43.9251
24.2522 43.5979
24.2979 43.2556
24.3434 43.2121
24.3892 42.9767
24.4349 43.0004
24.4805 43.0771
24.5262 42.9465
24.5718 42.9244
24.6175 42.8321
24.6631 42.753
24.7089 42.2192
24.7545 42.3774
24.8002 42.1195
24.8458 42.1255
24.8916 42.0199
24.9372 42.2186
24.983 42.5735
25.0286 42.8523
25.0744 43.2585
25.12 43.8215
25.1658 44.3438
25.2114 44.6966
25.2572 44.8059
25.3029 44.642
25.3487 44.9143
25.3943 44.4882
25.4402 43.3495
25.4858 42.2049
25.5316 41.3879
25.5773 40.8183
25.6231 40.7664
25.669 40.5155
25.7147 40.6165
25.7605 40.4293
25.8062 40.5144
25.8521 40.7376
25.8977 40.5887
25.9436 40.9068
25.9893 40.9795
26.0352 41.4192
26.0809 41.5889
26.1268 41.5756
26.1725 41.2126
26.2184 40.7698
26.2641 40.1933
26.31 40.098
26.3557 40.0065
26.4017 40.1329
26.4474 40.4784
26.4933 40.7825
26.5391 41.2273
26.585 41.6705
26.6308 42.1857
26.6767 42.1543
26.7225 41.8277
26.7684 41.1918
26.8142 40.7863
26.8601 40.3326
26.9059 39.8659
26.9519 39.2132
26.9979 39.0653
27.0437 38.7584
27.0896 38.8326
27.1354 38.7534
27.1814 38.5627
27.2272 38.5845
27.2732 38.5399
27.3191 38.2495
27.3651 38.4086
27.4109 38.4446
27.4569 38.5061
27.5027 38.5034
27.5488 38.5032
27.5946 38.4289
27.6407 38.0232
27.6865 37.956
27.7326 37.7072
27.7784 37.8174
27.8245 37.8624
27.8703 37.9585
27.9164 38.2694
27.9623 38.4643
28.0084 38.7366
28.0543 39.1528
28.1003 38.9745
28.1462 38.6502
28.1923 38.3317
28.2384 37.8964
28.2843 37.5549
28.3304 36.9592
28.3764 36.6709
28.4225 36.4066
28.4684 36.2785
28.5145 35.8275
28.5605 35.8302
28.6066 35.5157
28.6526 35.5065
28.6987 35.6095
28.7447 35.3819
28.7908 35.373
28.8368 35.3371
28.8829 35.4028
28.9289 35.2856
28.9751 35.0892
29.0211 34.823
29.0673 34.5764
29.1133 34.4732
29.1595 34.4834
29.2055 34.3533
29.2517 34.24
29.2977 34.2544
29.3439 34.2088
29.3899 34.267
29.4361 34.0601
29.4824 33.9586
29.5284 33.6338
29.5746 33.3863
29.6207 33.0053
29.6669 33.0279
29.713 33.0081
29.7593 32.7225
29.8053 32.8182
29.8516 32.6585
29.8977 32.6592
29.9439 32.6134
29.99 32.4774
30.0363 32.3754
30.0824 32.5848
30.1287 32.3968
30.1748 32.4218
30.2211 32.3971
30.2673 32.2099
30.3136 32.3333
30.3597 32.2529
30.406 32.0844
30.4522 32.0669
30.4985 32.017
30.5447 32.0604
30.591 32.1202
30.6372 32.1136
30.6835 32.1358
30.7297 32.1576
30.7761 32.0839
30.8224 31.8792
30.8686 31.7735
30.915 31.4802
30.9612 31.4429
31.0076 31.2445
31.0538 31.0754
31.1002 31.0903
31.1464 30.9642
31.1928 30.8784
31.2391 30.903
31.2855 30.8199
31.3317 30.7985
31.3781 30.8658
31.4244 31.0073
31.4708 30.7973
31.5171 30.7439
31.5636 30.6065
31.6098 30.4358
31.6563 30.3672
31.7026 30.1964
31.7491 30.1163
31.7953 30.1314
31.8418 30.0821
31.8881 30.0877
31.9346 30.1204
31.9809 30.0315
32.0275 29.798
32.074 29.7496
32.1203 29.6156
32.1668 29.4792
32.2132 29.4426
32.2597 29.1155
32.306 29.1119
32.3526 28.9889
32.399 28.8954
32.4455 28.7767
32.4919 28.6982
32.5385 28.6275
32.5848 28.4058
32.6314 28.3884
32.6778 28.3239
32.7244 28.2308
32.7708 28.0191
32.8174 28.1607
32.8638 28.0051
32.9104 28.0373
32.9569 28.0986
33.0035 27.8334
33.0499 27.7915
33.0966 27.7924
33.143 27.784
33.1897 27.6846
33.2361 27.6076
33.2828 27.5589
33.3293 27.3622
33.3759 27.3309
33.4226 27.1511
33.4691 27.1134
33.5158 27.012
33.5623 26.8795
33.609 26.7219
33.6555 26.57
33.7022 26.4525
33.7487 26.5027
33.7954 26.4909
33.842 26.3515
33.8887 26.317
33.9353 26.2135
33.982 26.1191
34.0286 26.0006
34.0753 25.977
34.1219 25.8666
34.1687 25.7604
34.2152 25.7749
34.262 25.5295
34.3086 25.456
34.3554 25.4689
34.402 25.3662
34.4488 25.2913
34.4954 25.2809
34.5422 25.2026
34.5889 25.0081
34.6357 24.8901
34.6825 24.8842
34.7292 24.8051
34.776 24.6849
34.8227 24.6577
34.8695 24.6767
34.9162 24.5285
34.9631 24.4072
35.0098 24.4474
35.0566 24.3362
35.1033 24.2619
35.1502 24.2357
35.1969 24.0914
35.2438 24.0985
35.2906 24.0005
35.3375 23.9938
35.3842 24.014
35.4311 23.9848
35.4779 23.9389
35.5248 23.898
35.5716 23.6932
35.6185 23.5755
35.6653 23.5662
35.7123 23.4706
35.759 23.381
35.806 23.3268
35.8528 23.2618
35.8998 23.2084
35.9468 23.1496
35.9936 23.0618
36.0406 23.0577
36.0874 22.9989
36.1345 22.9063
36.1813 22.8717
36.2283 22.748
36.2752 22.6123
36.3222 22.5923
36.3691 22.5096
36.4161 22.3648
36.463 22.4262
36.5101 22.3803
36.557 22.2944
36.6041 22.1827
36.651 22.1451
36.6981 22.087
36.745 22.0437
36.7921 21.9081
36.839 21.8391
36.8861 21.759
36.9331 21.701
36.9802 21.5728
37.0272 21.507
37.0743 21.4887
37.1213 21.394
37.1684 21.3496
37.2154 21.2415
37.2626 21.2182
37.3098 21.1301
37.3568 21.0954
37.404 21.1258
37.451 20.9987
37.4982 20.9476
37.5452 20.7935
37.5924 20.7883
37.6395 20.8532
37.6867 20.6809
37.7337 20.5433
37.781 20.5245
37.8281 20.4736
37.8753 20.3509
37.9224 20.284
37.9697 20.2551
38.0168 20.1494
38.064 20.133
38.1111 20.0391
38.1584 20.0031
38.2056 19.9184
38.2529 19.906
38.3 19.8067
38.3473 19.6995
38.3945 19.6441
38.4418 19.6302
38.489 19.5892
38.5363 19.4917
38.5837 19.4523
38.6309 19.3576
38.6782 19.31
38.7254 19.1874
38.7728 19.1429
38.82 19.1564
38.8674 19.0303
38.9146 18.977
38.9621 18.924
39.0093 18.933
39.0567 18.8432
39.104 18.7962
39.1514 18.7347
39.1987 18.6337
39.2461 18.6304
39.2934 18.5103
39.3409 18.4517
39.3882 18.3375
39.4356 18.3296
39.483 18.1976
39.5304 18.2937
39.5778 18.2155
39.6253 18.0907
39.6726 18.0284
39.7201 18.0568
39.7675 17.9617
39.815 17.8847
39.8624 17.7786
39.9099 17.8205
39.9575 17.7367
40.0049 17.7285
40.0525 17.5962
40.0999 17.5662
40.1474 17.4882
40.1949 17.4372
40.2425 17.3029
40.2899 17.337
40.3375 17.2783
40.385 17.2147
40.4326 17.1938
40.48 17.0616
40.5277 17.0755
40.5752 16.9796
40.6228 16.9149
40.6703 16.9098
40.718 16.8343
40.7655 16.8096
40.8132 16.7091
40.8607 16.7037
40.9084 16.6834
40.9559 16.5879
41.0036 16.5485
41.0512 16.5137
41.0989 16.4351
41.1465 16.3158
41.1942 16.3437
41.242 16.21
41.2896 16.2282
41.3373 16.2011
41.3849 16.1027
41.4327 16.0446
41.4803 15.9089
41.5281 15.912
41.5758 15.8823
41.6236 15.8104
41.6712 15.76
41.7191 15.707
41.7667 15.6625
41.8146 15.6739
41.8622 15.5842
41.9101 15.5179
41.9578 15.4674
42.0057 15.37
42.0534 15.3555
42.1013 15.3106
42.149 15.2417
42.1969 15.2336
42.2446 15.14
42.2925 15.0822
42.3403 15.0406
42.3882 14.9931
42.436 14.9396
42.4839 14.9057
42.5319 14.8769
42.5797 14.7638
42.6277 14.7975
42.6755 14.669
42.7235 14.6474
42.7713 14.6299
42.8193 14.5122
42.8671 14.4411
42.9152 14.4466
42.963 14.3358
43.0111 14.3406
43.0589 14.3419
43.107 14.208
43.1549 14.1994
43.2029 14.0956
43.2508 14.1084
43.2989 14.0678
43.3468 14.0231
43.3949 14.0002
43.4429 13.9614
43.491 13.8624
43.5389 13.824
43.5871 13.7548
43.635 13.7493
43.6832 13.6577
43.7312 13.6318
43.7793 13.5502
43.8273 13.5259
43.8755 13.4709
43.9237 13.432
43.9717 13.3652
44.0199 13.3444
44.068 13.3138
44.1162 13.2286
44.1642 13.2082
44.2125 13.1383
44.2606 13.1185
44.3088 13.0353
44.3569 13.0208
44.4052 13.0261
44.4533 12.9519
44.5016 12.8865
44.5497 12.8435
44.598 12.7695
44.6461 12.7623
44.6945 12.7184
44.7426 12.6705
44.791 12.5962
44.8391 12.5967
44.8875 12.56
44.9357 12.5143
44.984 12.4813
45.0322 12.3903
45.0806 12.3717
45.1288 12.3364
45.1773 12.2697
45.2257 12.2203
45.2739 12.2326
45.3224 12.1044
45.3706 12.0776
45.4191 12.0404
45.4673 12.0507
45.5158 12.0038
45.5641 11.8865
45.6126 11.9102
45.6609 11.7984
45.7094 11.8407
45.7577 11.7238
45.8063 11.6564
45.8546 11.6871
45.9031 11.6314
45.9515 11.6119
46.0001 11.5559
46.0484 11.4851
46.097 11.4804
46.1454 11.4308
46.194 11.3764
46.2424 11.3599
46.291 11.2809
46.3395 11.2977
46.3881 11.1889
46.4365 11.1705
46.4852 11.1633
46.5337 11.0967
46.5823 11.0992
46.631 11.0155
46.6795 10.9934
46.7282 10.9377
46.7767 10.9062
46.8254 10.8408
46.8739 10.7555
46.9226 10.7738
46.9712 10.731
47.0199 10.7186
47.0685 10.6811
47.1173 10.6203
47.1658 10.5607
47.2146 10.5597
47.2632 10.4687
47.312 10.4637
47.3606 10.4279
47.4095 10.3747
47.4581 10.3733
47.5069 10.3018
47.5556 10.2255
47.6044 10.2424
47.6531 10.2189
47.702 10.1514
47.7507 10.0998
47.7996 10.0708
47.8483 10.0281
47.8972 9.97531
47.9461 9.97555
47.9948 9.92177
48.0438 9.88104
48.0925 9.88477
48.1415 9.81174
48.1902 9.81983
48.2392 9.79377
48.288 9.76082
48.337 9.66417
48.3858 9.64962
48.4348 9.61144
48.4837 9.63215
48.5327 9.58023
48.5815 9.48957
48.6306 9.49785
48.6795 9.45016
48.7285 9.42134
48.7774 9.39232
48.8265 9.34982
48.8754 9.28013
48.9245 9.25092
48.9734 9.22267
49.0226 9.19939
49.0715 9.15095
49.1206 9.11974
49.1696 9.10058
49.2188 9.06554
49.2679 9.02204
49.3169 8.95509
49.3661 8.91955
49.4151 8.91902
49.4643 8.88647
49.5134 8.87759
49.5626 8.80009
49.6117 8.75896
49.6609 8.75363
49.71 8.69309
49.7592 8.69321
49.8083 8.65195
49.8576 8.61194
49.9067 8.56423
49.956 8.55225
50.0052 8.50893
50.0545 8.47137
50.1036 8.45672
50.153 8.40815
50.2022 8.36564
50.2515 8.37395
50.3007 8.32878
50.3501 8.26438
50.3993 8.26391
50.4487 8.25537
50.498 8.17442
50.5474 8.18071
50.5966 8.0943
50.6461 8.11464
50.6955 8.05563
50.7448 8.03494
50.7943 8.02026
50.8436 7.9766
50.8931 7.90175
50.9424 7.91823
50.9919 7.90529
51.0413 7.84754
51.0908 7.80263
51.1402 7.77137
51.1897 7.76308
51.2391 7.73284
51.2887 7.66485
51.3381 7.64271
51.3877 7.64357
51.4371 7.58188
51.4867 7.54043
51.5362 7.53299
51.5858 7.50919
51.6353 7.47377
51.6849 7.43137
51.7344 7.40265
51.7841 7.38408
51.8336 7.39314
51.8833 7.37472
51.9328 7.27408
51.9826 7.28329
52.0323 7.22418
52.0818 7.23187
52.1316 7.14152
52.1812 7.15142
52.231 7.13941
52.2806 7.09314
52.3304 7.09198
52.38 7.02615
52.4298 6.98333
52.4794 6.97197
52.5293 6.91743
52.5789 6.95091
52.6288 6.87014
52.6785 6.81294
52.7284 6.83657
52.7781 6.84818
52.828 6.79629
52.8777 6.72979
52.9276 6.66144
52.9774 6.67374
53.0273 6.63593
53.0771 6.59228
53.1271 6.60671
53.1769 6.57697
53.2269 6.5419
53.2767 6.48268
53.3267 6.4945
53.3765 6.48337
53.4266 6.41652
53.4766 6.41007
53.5265 6.37914
53.5765 6.36122
53.6264 6.3168
53.6765 6.31223
53.7264 6.27966
53.7765 6.29264
53.8265 6.19035
53.8766 6.22447
53.9266 6.17684
53.9767 6.14286
54.0267 6.10696
54.0769 6.06335
54.1269 6.0743
54.1771 6.04454
54.2271 5.95166
54.2773 5.92142
54.3274 5.92888
54.3776 5.94187
54.4277 5.86148
54.478 5.85585
54.528 5.75642
54.5783 5.76687
54.6285 5.713
54.6788 5.69116
54.7289 5.59012
54.7792 5.60442
54.8296 5.50033
54.8798 5.4756
54.9301 5.45575
54.9803 5.44345
55.0307 5.44093
55.0809 5.31634
55.1314 5.32952
55.1816 5.27085
55.232 5.28011
55.2823 5.15583
55.3328 5.14814
55.383 5.12949
55.4335 5.0859
55.4838 4.976
55.5344 4.94025
55.5847 4.88179
55.6352 4.8958
55.6856 4.83341
55.7361 4.81544