File: XRD/Ni3Fe_FD0482.xy
TT I
1.27165 7.42848
1.31627 6.51071
1.36089 6.92693
1.40551 5.97232
1.45013 6.59703
1.49476 6.0657
1.53938 6.14534
1.584 4.97541
1.62863 5.23002
1.67325 5.78477
1.71787 5.60425
1.7625 4.5872
1.80712 4.66414
1.85174 4.90727
1.89636 4.47147
1.94099 4.76856
1.98562 5.25395
2.03025 4.71482
2.07487 4.24088
2.11949 5.19409
2.16411 4.85765
2.20874 9.04623
2.25338 11.9358
2.298 5.55964
2.34263 5.51225
2.38725 5.01682
2.43188 5.4417
2.4765 6.77988
2.52115 6.59424
2.56577 7.09227
2.6104 7.88725
2.65503 7.43673
2.69965 7.79571
2.7443 7.34478
2.78893 8.07966
2.83356 8.42643
2.87818 8.86867
2.92281 8.39217
2.96744 9.48155
3.01209 9.83098
3.05672 10.9347
3.10135 12.025
3.14599 12.7002
3.19062 13.6314
3.23527 14.943
3.2799 15.598
3.32454 16.6495
3.36917 17.9437
3.4138 18.7849
3.45844 19.5599
3.50309 20.8625
3.54773 21.5117
3.59237 23.338
3.637 50.7609
3.68164 37.7977
3.7263 25.4484
3.77094 25.8769
3.81558 26.8804
3.86022 27.5551
3.90486 29.1004
3.9495 29.8928
3.99416 31.3086
4.0388 32.458
4.08344 33.6636
4.12809 34.8714
4.17273 36.3503
4.21738 40.0414
4.26204 123.504
4.30669 107.909
4.35133 45.6316
4.39598 44.1295
4.44063 48.6562
4.4853 54.8161
4.52995 54.5277
4.5746 55.5158
4.61925 54.0955
4.6639 56.5127
4.70855 59.4298
4.75322 62.5828
4.79788 67.5686
4.84253 69.3981
4.88719 75.0092
4.93184 78.364
4.97652 83.4469
5.02118 90.2658
5.06583 98.6815
5.11049 112.042
5.15515 164.469
5.19981 540.627
5.24449 3512.76
5.28916 11707.2
5.33382 2840.41
5.37848 207.358
5.42315 135.567
5.46783 120.9
5.5125 111.658
5.55716 104.984
5.60183 100.513
5.6465 98.6767
5.69117 96.9472
5.73586 95.0455
5.78053 98.2828
5.8252 97.822
5.86988 99.8946
5.91455 99.5747
5.95924 112.474
6.00392 301.414
6.0486 1193.08
6.09328 4232.59
6.13795 3250.15
6.18263 252.159
6.22733 95.8433
6.27201 82.9059
6.3167 87.0492
6.36138 76.3278
6.40606 70.5626
6.45075 69.8975
6.49545 66.3805
6.54014 64.2235
6.58483 63.798
6.62952 63.334
6.67421 74.4237
6.71892 92.8141
6.76361 63.4189
6.8083 59.7744
6.853 59.4214
6.89769 57.314
6.94239 56.7791
6.98711 56.3429
7.03181 56.2739
7.07651 55.6908
7.12121 55.5097
7.16591 56.2322
7.21063 55.3296
7.25533 61.455
7.30004 103.256
7.34475 69.4773
7.38945 55.8095
7.43416 54.5917
7.47889 54.5744
7.5236 55.1705
7.56831 55.8423
7.61303 56.413
7.65774 56.7185
7.70247 57.4257
7.74719 57.2739
7.79191 57.4735
7.83663 57.4409
7.88135 58.8343
7.92607 59.7273
7.97081 60.7013
8.01553 62.0876
8.06026 63.5315
8.10498 64.8578
8.14971 71.1912
8.19446 71.1324
8.23919 70.9952
8.28392 73.1821
8.32865 75.7456
8.37339 80.3225
8.41812 86.8208
8.46288 108.522
8.50761 212.538
8.55235 467.767
8.59709 1245.43
8.64183 2166.01
8.68658 960.015
8.73134 165.344
8.77609 101.703
8.82083 94.6553
8.86558 93.1311
8.91033 92.1089
8.9551 90.368
8.99985 86.738
9.04461 85.6459
9.08936 85.3094
9.13412 84.075
9.17888 83.6163
9.22365 83.6391
9.26841 83.5712
9.31318 85.7076
9.35794 86.3985
9.4027 86.1692
9.44749 86.5072
9.49226 86.3408
9.53703 87.5357
9.5818 90.4267
9.62657 94.241
9.67134 96.2622
9.71614 94.6165
9.76091 96.5682
9.80569 100.557
9.85047 102.915
9.89525 114.961
9.94005 134.639
9.98484 224.693
10.0296 414.403
10.0744 891.622
10.1192 1701.08
10.164 1605.03
10.2088 399.748
10.2536 129.183
10.2984 112.388
10.3432 110.903
10.388 108.619
10.4328 132.305
10.4776 180.379
10.5224 304.407
10.5672 501.36
10.612 495.961
10.6568 200.614
10.7017 97.1071
10.7465 87.7751
10.7913 84.5058
10.8361 82.2872
10.8809 79.7705
10.9257 78.9624
10.9706 78.8212
11.0154 75.9519
11.0602 73.5209
11.105 72.5424
11.1499 73.175
11.1947 75.547
11.2395 71.5092
11.2844 69.7072
11.3292 68.1705
11.374 66.9134
11.4189 66.4639
11.4637 66.0911
11.5086 65.6558
11.5534 66.7369
11.5983 65.2571
11.6431 64.5826
11.688 64.0755
11.7328 63.5604
11.7777 63.7917
11.8225 63.6118
11.8674 63.3998
11.9122 63.7424
11.9571 64.1629
12.002 65.9042
12.0468 72.7744
12.0917 84.1012
12.1366 109.598
12.1814 156.474
12.2263 202.349
12.2712 167.623
12.3161 90.7962
12.3609 68.3359
12.4058 65.3618
12.4507 65.0994
12.4956 65.6355
12.5405 65.7664
12.5853 65.9804
12.6302 69.0905
12.6751 72.1465
12.72 69.1932
12.7649 68.7324
12.8098 69.6708
12.8547 71.123
12.8996 72.4167
12.9445 74.1812
12.9894 75.9687
13.0343 77.7411
13.0792 82.5799
13.1242 98.2432
13.1691 122.67
13.214 163.699
13.2589 253.252
13.3038 370.313
13.3487 422.071
13.3937 258.813
13.4386 125.45
13.4835 114.367
13.5285 131.495
13.5734 172.766
13.6183 255.592
13.6633 342.665
13.7082 337.856
13.7531 188.31
13.7981 97.6871
13.843 83.1005
13.888 80.9998
13.9329 78.4962
13.9779 77.0263
14.0228 75.6181
14.0678 74.3331
14.1127 73.8121
14.1577 73.0215
14.2027 72.5738
14.2476 71.5193
14.2926 71.1881
14.3376 71.6161
14.3825 70.6737
14.4275 70.3238
14.4725 70.0891
14.5175 70.3406
14.5624 70.2842
14.6074 71.2149
14.6524 71.8132
14.6974 71.865
14.7424 76.3369
14.7874 84.0304
14.8324 95.4444
14.8774 118.761
14.9224 158.478
14.9674 204.127
15.0124 215.5
15.0574 148.709
15.1024 90.6546
15.1474 73.2473
15.1924 71.1716
15.2374 70.6444
15.2824 69.8974
15.3274 68.7643
15.3725 67.9747
15.4175 67.7279
15.4625 67.1757
15.5076 66.6811
15.5526 67.0451
15.5976 67.4992
15.6426 70.5174
15.6877 76.6094
15.7327 85.1375
15.7778 101.744
15.8228 131.557
15.8679 168.945
15.9129 191.748
15.958 154.388
16.003 95.7228
16.0481 68.1283
16.0931 64.2226
16.1382 62.4411
16.1833 61.2549
16.2283 59.9529
16.2734 59.3963
16.3185 58.7856
16.3636 58.7679
16.4086 57.7257
16.4537 56.7344
16.4988 56.3025
16.5439 56.1388
16.589 56.2092
16.6341 55.6846
16.6792 55.2054
16.7243 55.5892
16.7694 55.6591
16.8145 55.6923
16.8596 55.8434
16.9047 56.6288
16.9498 56.6646
16.9949 56.2873
17.04 57.3106
17.0851 58.7108
17.1302 60.5938
17.1754 63.5481
17.2205 68.7338
17.2656 75.3282
17.3108 82.1364
17.3559 81.7762
17.401 71.774
17.4462 62.9399
17.4913 60.221
17.5365 60.2087
17.5815 60.3367
17.6268 60.6145
17.6718 61.5242
17.7171 61.7776
17.7622 62.4736
17.8074 64.0162
17.8525 67.6309
17.8977 71.4222
17.9428 77.41
17.9881 87.2443
18.0331 103.358
18.0784 122.494
18.1237 140.453
18.1688 133.196
18.214 105.119
18.2591 88.8168
18.3044 92.3979
18.3495 100.617
18.3948 106.444
18.4399 96.5841
18.4852 77.7906
18.5303 66.7897
18.5756 63.16
18.6207 62.3073
18.666 61.2149
18.7112 60.5605
18.7565 60.0166
18.8016 59.5138
18.8469 58.9838
18.892 58.6704
18.9374 58.0714
18.9825 57.9999
19.0278 57.8364
19.073 58.2815
19.1183 58.7059
19.1635 59.2581
19.2088 60.8523
19.254 63.8637
19.2993 67.82
19.3447 72.6957
19.3898 76.5519
19.4352 72.7299
19.4804 63.9497
19.5257 57.1506
19.5709 55.1127
19.6163 54.8457
19.6615 54.5282
19.7068 54.3003
19.752 54.1327
19.7974 54.6953
19.8426 55.6996
19.888 56.1575
19.9332 57.6882
19.9786 60.3775
20.0238 63.7282
20.0692 67.9718
20.1144 70.5181
20.1598 69.1385
20.205 64.6329
20.2504 63.0654
20.2957 64.4345
20.3411 66.1093
20.3863 64.4805
20.4318 58.7809
20.477 54.1507
20.5224 52.0226
20.5677 51.5497
20.6131 50.9647
20.6586 50.3688
20.7038 50.3262
20.7493 49.7579
20.7945 49.5771
20.84 49.5391
20.8853 49.592
20.9307 49.4842
20.976 49.418
21.0215 49.4896
21.0668 49.9518
21.1122 50.4803
21.1575 50.9639
21.203 51.6505
21.2483 52.1049
21.2938 52.1835
21.3391 50.7571
21.3846 49.7566
21.4299 49.2093
21.4754 49.1805
21.5207 49.5959
21.5662 49.9615
21.6116 50.5471
21.6571 51.1351
21.7024 52.1923
21.7479 53.9372
21.7933 56.8441
21.8388 59.9056
21.8843 63.2301
21.9297 65.422
21.9752 63.9483
22.0206 60.2865
22.0661 57.0223
22.1115 56.3176
22.157 56.5629
22.2024 54.9058
22.248 52.1699
22.2933 50.4618
22.3389 49.7489
22.3843 49.6304
22.4299 49.3804
22.4753 49.6249
22.5208 49.3534
22.5662 49.1473
22.6118 49.6663
22.6572 49.8228
22.7028 50.3392
22.7483 50.7773
22.7939 51.6414
22.8393 53.0675
22.8849 54.9754
22.9303 56.8005
22.9759 58.2497
23.0214 57.9357
23.067 55.0373
23.1126 51.7021
23.1581 49.8232
23.2037 49.6073
23.2492 49.8844
23.2948 49.8332
23.3403 50.1009
23.3859 50.9804
23.4314 51.9731
23.477 53.6545
23.5225 55.5873
23.5682 57.403
23.6137 58.3354
23.6593 56.1191
23.7048 52.0474
23.7505 48.917
23.796 47.1557
23.8417 46.766
23.8872 46.2294
23.9329 45.8823
23.9784 45.5394
24.0241 45.3207
24.0697 45.0977
24.1154 44.7581
24.1609 44.545
24.2066 44.3589
24.2522 44.3741
24.2979 44.0507
24.3434 43.866
24.3892 43.8287
24.4349 43.7172
24.4805 43.6857
24.5262 43.8073
24.5718 43.5614
24.6175 43.575
24.6631 43.578
24.7089 43.1757
24.7545 43.0756
24.8002 42.8446
24.8458 42.9348
24.8916 42.7846
24.9372 42.9729
24.983 43.2893
25.0286 43.611
25.0744 44.002
25.12 44.3611
25.1658 44.9938
25.2114 45.4314
25.2572 45.3629
25.3029 45.413
25.3487 45.4103
25.3943 45.2188
25.4402 44.0166
25.4858 42.9768
25.5316 42.0096
25.5773 41.5256
25.6231 41.568
25.669 41.1012
25.7147 41.1836
25.7605 41.0779
25.8062 41.0469
25.8521 41.216
25.8977 41.2784
25.9436 41.6204
25.9893 41.4886
26.0352 42.2169
26.0809 42.1655
26.1268 42.3422
26.1725 41.9322
26.2184 41.4291
26.2641 41.0
26.31 40.6625
26.3557 40.7819
26.4017 40.8045
26.4474 41.1068
26.4933 41.3581
26.5391 41.8815
26.585 42.235
26.6308 42.6457
26.6767 42.7796
26.7225 42.4775
26.7684 42.0192
26.8142 41.5291
26.8601 40.9767
26.9059 40.4831
26.9519 40.1688
26.9979 39.9064
27.0437 39.5493
27.0896 39.3621
27.1354 39.2644
27.1814 39.2062
27.2272 39.0726
27.2732 39.1277
27.3191 38.8983
27.3651 39.1684
27.4109 39.1146
27.4569 39.1284
27.5027 39.1694
27.5488 39.1376
27.5946 38.9658
27.6407 38.7454
27.6865 38.6501
27.7326 38.343
27.7784 38.532
27.8245 38.4998
27.8703 38.5693
27.9164 38.9069
27.9623 38.9615
28.0084 39.3189
28.0543 39.6474
28.1003 39.644
28.1462 39.4017
28.1923 38.9687
28.2384 38.4901
28.2843 38.1134
28.3304 37.711
28.3764 37.2592
28.4225 36.8596
28.4684 36.7992
28.5145 36.4989
28.5605 36.3759
28.6066 36.1326
28.6526 36.2383
28.6987 36.1035
28.7447 36.011
28.7908 35.7983
28.8368 35.852
28.8829 35.9544
28.9289 35.8947
28.9751 35.7488
29.0211 35.505
29.0673 35.1658
29.1133 35.0613
29.1595 34.9238
29.2055 34.7834
29.2517 34.8908
29.2977 34.9275
29.3439 34.8045
29.3899 34.7166
29.4361 34.639
29.4824 34.3744
29.5284 34.2318
29.5746 33.9316
29.6207 33.6311
29.6669 33.5738
29.713 33.567
29.7593 33.4067
29.8053 33.3671
29.8516 33.257
29.8977 33.2671
29.9439 33.0833
29.99 32.9994
30.0363 32.841
30.0824 32.9905
30.1287 32.8979
30.1748 32.934
30.2211 32.865
30.2673 32.719
30.3136 32.778
30.3597 32.6634
30.406 32.6332
30.4522 32.5333
30.4985 32.4879
30.5447 32.6979
30.591 32.6338
30.6372 32.5938
30.6835 32.6328
30.7297 32.7138
30.7761 32.5441
30.8224 32.4834
30.8686 32.4066
30.915 32.0253
30.9612 32.0981
31.0076 31.7754
31.0538 31.6451
31.1002 31.6291
31.1464 31.3461
31.1928 31.4326
31.2391 31.3308
31.2855 31.3968
31.3317 31.2816
31.3781 31.2802
31.4244 31.3502
31.4708 31.3348
31.5171 31.1989
31.5636 31.2778
31.6098 30.9949
31.6563 30.8062
31.7026 30.7065
31.7491 30.5673
31.7953 30.6449
31.8418 30.5698
31.8881 30.6179
31.9346 30.5031
31.9809 30.4354
32.0275 30.2785
32.074 30.2583
32.1203 30.0466
32.1668 29.9945
32.2132 29.9009
32.2597 29.7234
32.306 29.6616
32.3526 29.3267
32.399 29.4021
32.4455 29.1868
32.4919 29.1924
32.5385 29.0708
32.5848 28.9545
32.6314 28.8581
32.6778 28.7831
32.7244 28.6043
32.7708 28.5259
32.8174 28.605
32.8638 28.4557
32.9104 28.4853
32.9569 28.4474
33.0035 28.2394
33.0499 28.4167
33.0966 28.2296
33.143 28.2012
33.1897 28.0257
33.2361 28.0281
33.2828 27.912
33.3293 27.7354
33.3759 27.7032
33.4226 27.7192
33.4691 27.3733
33.5158 27.4736
33.5623 27.2543
33.609 27.0615
33.6555 27.0682
33.7022 27.0051
33.7487 26.8533
33.7954 26.8509
33.842 26.7599
33.8887 26.6252
33.9353 26.6691
33.982 26.5394
34.0286 26.3824
34.0753 26.3075
34.1219 26.2006
34.1687 26.1772
34.2152 26.0762
34.262 25.9865
34.3086 25.9136
34.3554 25.9369
34.402 25.7095
34.4488 25.6525
34.4954 25.5927
34.5422 25.5543
34.5889 25.4769
34.6357 25.3385
34.6825 25.2384
34.7292 25.1977
34.776 25.0673
34.8227 25.0407
34.8695 24.9659
34.9162 24.942
34.9631 24.9344
35.0098 24.7933
35.0566 24.6951
35.1033 24.6916
35.1502 24.6191
35.1969 24.5426
35.2438 24.5205
35.2906 24.4162
35.3375 24.3632
35.3842 24.3549
35.4311 24.3407
35.4779 24.3247
35.5248 24.3097
35.5716 24.139
35.6185 24.0139
35.6653 23.9259
35.7123 23.8081
35.759 23.7261
35.806 23.6965
35.8528 23.5514
35.8998 23.5766
35.9468 23.4062
35.9936 23.442
36.0406 23.3509
36.0874 23.2537
36.1345 23.1986
36.1813 23.1838
36.2283 23.0627
36.2752 22.9276
36.3222 22.9504
36.3691 22.8893
36.4161 22.7112
36.463 22.8139
36.5101 22.753
36.557 22.6828
36.6041 22.513
36.651 22.483
36.6981 22.4748
36.745 22.3634
36.7921 22.2791
36.839 22.1623
36.8861 22.1086
36.9331 22.0563
36.9802 21.9281
37.0272 21.8472
37.0743 21.8446
37.1213 21.8006
37.1684 21.7523
37.2154 21.6205
37.2626 21.5301
37.3098 21.5099
37.3568 21.4803
37.404 21.4252
37.451 21.2644
37.4982 21.2229
37.5452 21.14
37.5924 21.1289
37.6395 21.147
37.6867 20.9489
37.7337 20.911
37.781 20.8334
37.8281 20.7649
37.8753 20.67
37.9224 20.6334
37.9697 20.5878
38.0168 20.4613
38.064 20.4624
38.1111 20.3938
38.1584 20.3358
38.2056 20.2676
38.2529 20.2062
38.3 20.1414
38.3473 20.068
38.3945 19.9966
38.4418 19.9155
38.489 19.8707
38.5363 19.7709
38.5837 19.7498
38.6309 19.6747
38.6782 19.657
38.7254 19.5357
38.7728 19.5098
38.82 19.3957
38.8674 19.3455
38.9146 19.3228
38.9621 19.254
39.0093 19.1608
39.0567 19.0945
39.104 19.0781
39.1514 18.957
39.1987 18.9591
39.2461 18.8872
39.2934 18.8197
39.3409 18.7188
39.3882 18.6684
39.4356 18.5696
39.483 18.5707
39.5304 18.4631
39.5778 18.5
39.6253 18.363
39.6726 18.3871
39.7201 18.3263
39.7675 18.2343
39.815 18.2077
39.8624 18.1445
39.9099 18.0906
39.9575 17.9386
40.0049 17.9328
40.0525 17.9006
40.0999 17.8267
40.1474 17.8074
40.1949 17.706
40.2425 17.577
40.2899 17.6362
40.3375 17.58
40.385 17.5163
40.4326 17.3866
40.48 17.3443
40.5277 17.3964
40.5752 17.2875
40.6228 17.2083
40.6703 17.1575
40.718 17.0882
40.7655 17.0824
40.8132 17.002
40.8607 16.9594
40.9084 16.9234
40.9559 16.8303
41.0036 16.7835
41.0512 16.7631
41.0989 16.7053
41.1465 16.642
41.1942 16.6241
41.242 16.4865
41.2896 16.4487
41.3373 16.3996
41.3849 16.3517
41.4327 16.2287
41.4803 16.2276
41.5281 16.1864
41.5758 16.132
41.6236 16.0828
41.6712 15.9964
41.7191 15.9846
41.7667 15.9666
41.8146 15.9204
41.8622 15.8542
41.9101 15.7257
41.9578 15.6172
42.0057 15.6943
42.0534 15.6466
42.1013 15.544
42.149 15.4686
42.1969 15.4156
42.2446 15.3363
42.2925 15.315
42.3403 15.3121
42.3882 15.2364
42.436 15.1676
42.4839 15.0532
42.5319 15.1385
42.5797 15.0424
42.6277 14.9947
42.6755 14.9626
42.7235 14.8836
42.7713 14.8364
42.8193 14.8088
42.8671 14.6981
42.9152 14.6666
42.963 14.584
43.0111 14.5658
43.0589 14.5443
43.107 14.4332
43.1549 14.4228
43.2029 14.339
43.2508 14.3107
43.2989 14.2281
43.3468 14.2046
43.3949 14.2075
43.4429 14.145
43.491 14.0808
43.5389 13.9938
43.5871 14.0315
43.635 13.9205
43.6832 13.9075
43.7312 13.8241
43.7793 13.7593
43.8273 13.7517
43.8755 13.6598
43.9237 13.6257
43.9717 13.5793
44.0199 13.5231
44.068 13.5146
44.1162 13.4507
44.1642 13.4757
44.2125 13.364
44.2606 13.2966
44.3088 13.2666
44.3569 13.1795
44.4052 13.1808
44.4533 13.084
44.5016 13.0218
44.5497 13.0524
44.598 12.974
44.6461 12.8738
44.6945 12.8613
44.7426 12.8438
44.791 12.7641
44.8391 12.7624
44.8875 12.6912
44.9357 12.679
44.984 12.6221
45.0322 12.5329
45.0806 12.516
45.1288 12.4651
45.1773 12.4611
45.2257 12.4135
45.2739 12.3473
45.3224 12.3353
45.3706 12.2627
45.4191 12.1962
45.4673 12.2023
45.5158 12.1479
45.5641 12.0898
45.6126 12.0689
45.6609 11.9741
45.7094 11.9694
45.7577 11.9312
45.8063 11.9042
45.8546 11.8667
45.9031 11.7859
45.9515 11.7587
46.0001 11.6952
46.0484 11.6535
46.097 11.6299
46.1454 11.6197
46.194 11.5684
46.2424 11.4726
46.291 11.4867
46.3395 11.4302
46.3881 11.3409
46.4365 11.3613
46.4852 11.2504
46.5337 11.2157
46.5823 11.1904
46.631 11.1734
46.6795 11.1439
46.7282 11.0715
46.7767 11.0589
46.8254 11.0018
46.8739 10.9613
46.9226 10.9343
46.9712 10.8719
47.0199 10.8516
47.0685 10.8179
47.1173 10.7614
47.1658 10.7312
47.2146 10.741
47.2632 10.5903
47.312 10.6347
47.3606 10.5589
47.4095 10.5132
47.4581 10.4764
47.5069 10.4619
47.5556 10.4659
47.6044 10.3705
47.6531 10.3246
47.702 10.3101
47.7507 10.2563
47.7996 10.2212
47.8483 10.1888
47.8972 10.1946
47.9461 10.1241
47.9948 10.049
48.0438 10.0701
48.0925 10.0035
48.1415 9.99201
48.1902 9.90693
48.2392 9.88524
48.288 9.84902
48.337 9.83126
48.3858 9.76008
48.4348 9.76765
48.4837 9.73321
48.5327 9.71211
48.5815 9.67275
48.6306 9.59237
48.6795 9.53399
48.7285 9.58358
48.7774 9.5521
48.8265 9.49387
48.8754 9.45158
48.9245 9.36718
48.9734 9.3744
49.0226 9.36012
49.0715 9.26768
49.1206 9.27575
49.1696 9.20119
49.2188 9.21177
49.2679 9.16407
49.3169 9.12877
49.3661 9.07856
49.4151 8.99795
49.4643 9.02957
49.5134 8.97309
49.5626 8.94489
49.6117 8.91108
49.6609 8.90469
49.71 8.81707
49.7592 8.79208
49.8083 8.7474
49.8576 8.76896
49.9067 8.71793
49.956 8.67807
50.0052 8.6238
50.0545 8.61585
50.1036 8.59976
50.153 8.55825
50.2022 8.52356
50.2515 8.46767
50.3007 8.41602
50.3501 8.41518
50.3993 8.35014
50.4487 8.34996
50.498 8.29928
50.5474 8.29589
50.5966 8.20629
50.6461 8.21802
50.6955 8.21537
50.7448 8.14799
50.7943 8.12112
50.8436 8.10321
50.8931 8.06752
50.9424 8.03005
50.9919 7.99854
51.0413 7.95656
51.0908 7.97557
51.1402 7.92629
51.1897 7.85641
51.2391 7.81859
51.2887 7.77775
51.3381 7.77404
51.3877 7.79303
51.4371 7.72433
51.4867 7.69664
51.5362 7.66988
51.5858 7.63639
51.6353 7.59266
51.6849 7.55184
51.7344 7.52912
51.7841 7.5167
51.8336 7.45355
51.8833 7.44272
51.9328 7.42277
51.9826 7.38454
52.0323 7.34254
52.0818 7.30411
52.1316 7.2808
52.1812 7.24189
52.231 7.21275
52.2806 7.18002
52.3304 7.15086
52.38 7.14441
52.4298 7.1176
52.4794 7.08522
52.5293 7.01613
52.5789 7.01322
52.6288 6.9963
52.6785 6.9391
52.7284 6.93697
52.7781 6.91241
52.828 6.84309
52.8777 6.83008
52.9276 6.81044
52.9774 6.79282
53.0273 6.75643
53.0771 6.72176
53.1271 6.71222
53.1769 6.64488
53.2269 6.63741
53.2767 6.60944
53.3267 6.58039
53.3765 6.58867
53.4266 6.53053
53.4766 6.49655
53.5265 6.47958
53.5765 6.46262
53.6264 6.43825
53.6765 6.39455
53.7264 6.33842
53.7765 6.32528
53.8265 6.30003
53.8766 6.29848
53.9266 6.22754
53.9767 6.22664
54.0267 6.21349
54.0769 6.17476
54.1269 6.13799
54.1771 6.10159
54.2271 6.08208
54.2773 6.00893
54.3274 5.99461
54.3776 5.98457
54.4277 5.96393
54.478 5.87732
54.528 5.90075
54.5783 5.83339
54.6285 5.7766
54.6788 5.77267
54.7289 5.75088
54.7792 5.68117
54.8296 5.61699
54.8798 5.55152
54.9301 5.59684
54.9803 5.52352
55.0307 5.50165
55.0809 5.41348
55.1314 5.47394
55.1816 5.35086
55.232 5.31787
55.2823 5.29835
55.3328 5.18764
55.383 5.19287
55.4335 5.10368
55.4838 5.02508
55.5344 5.03289
55.5847 5.01347
55.6352 4.9978
55.6856 4.90202
55.7361 4.91057