File: XRD/Ni3Fe_FD0363.xy
TT I
1.27165 7.80822
1.31627 7.39744
1.36089 6.98752
1.40551 6.16461
1.45013 6.71543
1.49476 6.33993
1.53938 5.74257
1.584 5.55582
1.62863 5.48613
1.67325 5.3655
1.71787 5.69946
1.7625 5.48943
1.80712 4.80063
1.85174 5.32467
1.89636 4.86737
1.94099 5.18706
1.98562 4.45046
2.03025 4.44335
2.07487 4.67996
2.11949 4.78675
2.16411 4.82608
2.20874 8.33473
2.25338 11.0015
2.298 5.32983
2.34263 5.21245
2.38725 5.13618
2.43188 5.15809
2.4765 6.0921
2.52115 5.73954
2.56577 6.59989
2.6104 7.12985
2.65503 7.11174
2.69965 7.53517
2.7443 7.17165
2.78893 7.43991
2.83356 7.8635
2.87818 7.90943
2.92281 9.21761
2.96744 10.1354
3.01209 10.1669
3.05672 11.0779
3.10135 12.4119
3.14599 13.1314
3.19062 13.8538
3.23527 15.1851
3.2799 15.7227
3.32454 16.6091
3.36917 17.8306
3.4138 18.5829
3.45844 19.5883
3.50309 20.7458
3.54773 21.5209
3.59237 23.2676
3.637 52.5034
3.68164 37.9954
3.7263 25.4023
3.77094 26.0763
3.81558 26.6016
3.86022 27.2499
3.90486 29.0276
3.9495 30.0057
3.99416 31.2162
4.0388 32.1081
4.08344 33.8928
4.12809 34.5824
4.17273 37.1959
4.21738 40.0504
4.26204 123.848
4.30669 112.059
4.35133 45.7036
4.39598 44.4514
4.44063 49.2772
4.4853 54.9147
4.52995 53.0823
4.5746 53.9735
4.61925 54.882
4.6639 57.1827
4.70855 60.305
4.75322 63.323
4.79788 66.4834
4.84253 70.0704
4.88719 75.0515
4.93184 78.7617
4.97652 84.5263
5.02118 91.5115
5.06583 100.841
5.11049 115.322
5.15515 168.918
5.19981 615.332
5.24449 3680.63
5.28916 11366.0
5.33382 3294.79
5.37848 220.931
5.42315 139.524
5.46783 121.845
5.5125 112.267
5.55716 106.226
5.60183 102.73
5.6465 100.047
5.69117 98.1214
5.73586 96.5816
5.78053 97.8178
5.8252 97.746
5.86988 99.5101
5.91455 101.775
5.95924 117.5
6.00392 330.436
6.0486 1286.92
6.09328 4063.67
6.13795 3374.29
6.18263 283.553
6.22733 99.3478
6.27201 85.247
6.3167 88.5273
6.36138 77.1279
6.40606 71.5475
6.45075 69.6433
6.49545 66.9945
6.54014 65.4401
6.58483 64.2915
6.62952 63.7209
6.67421 75.1237
6.71892 95.1818
6.76361 63.7424
6.8083 60.0929
6.853 59.0558
6.89769 57.8231
6.94239 57.579
6.98711 56.7295
7.03181 56.6361
7.07651 56.1642
7.12121 55.7017
7.16591 56.4674
7.21063 55.8992
7.25533 62.2264
7.30004 106.069
7.34475 70.6368
7.38945 56.3669
7.43416 54.9724
7.47889 54.8999
7.5236 55.2737
7.56831 56.2639
7.61303 57.0197
7.65774 57.2496
7.70247 57.2897
7.74719 57.0852
7.79191 57.8822
7.83663 58.5179
7.88135 58.9614
7.92607 60.3047
7.97081 61.1915
8.01553 62.1947
8.06026 63.9773
8.10498 65.5452
8.14971 71.0972
8.19446 71.779
8.23919 71.1799
8.28392 74.195
8.32865 76.5641
8.37339 81.4135
8.41812 87.3903
8.46288 110.354
8.50761 228.695
8.55235 507.445
8.59709 1190.28
8.64183 2091.87
8.68658 1047.07
8.73134 179.49
8.77609 104.115
8.82083 95.8781
8.86558 93.0486
8.91033 92.4712
8.9551 91.2344
8.99985 87.4918
9.04461 86.2459
9.08936 86.0464
9.13412 84.8143
9.17888 84.2382
9.22365 84.5606
9.26841 84.3915
9.31318 85.7736
9.35794 86.4919
9.4027 86.6545
9.44749 86.958
9.49226 87.2947
9.53703 88.3555
9.5818 90.3745
9.62657 94.1182
9.67134 96.4863
9.71614 95.474
9.76091 97.6824
9.80569 100.453
9.85047 103.579
9.89525 116.253
9.94005 136.329
9.98484 239.378
10.0296 445.366
10.0744 872.508
10.1192 1599.01
10.164 1621.28
10.2088 455.232
10.2536 135.017
10.2984 114.269
10.3432 112.82
10.388 110.454
10.4328 137.66
10.4776 188.762
10.5224 300.678
10.5672 482.361
10.612 512.306
10.6568 211.701
10.7017 99.5927
10.7465 89.1279
10.7913 85.5886
10.8361 83.1561
10.8809 80.9116
10.9257 79.6594
10.9706 79.3808
11.0154 76.3742
11.0602 74.5172
11.105 73.2617
11.1499 74.1795
11.1947 76.7647
11.2395 72.3606
11.2844 70.5041
11.3292 68.498
11.374 67.577
11.4189 67.1898
11.4637 66.5018
11.5086 66.1854
11.5534 67.1211
11.5983 66.0159
11.6431 65.2856
11.688 64.1875
11.7328 64.3636
11.7777 64.4274
11.8225 63.8145
11.8674 63.9598
11.9122 64.4813
11.9571 64.8227
12.002 66.5988
12.0468 74.0051
12.0917 86.9852
12.1366 110.317
12.1814 151.323
12.2263 202.419
12.2712 172.923
12.3161 96.1611
12.3609 69.6674
12.4058 65.9979
12.4507 65.839
12.4956 66.0103
12.5405 66.1383
12.5853 66.8393
12.6302 69.7584
12.6751 72.8036
12.72 69.7719
12.7649 69.5661
12.8098 70.3223
12.8547 71.7389
12.8996 73.1104
12.9445 74.7913
12.9894 76.7185
13.0343 78.4116
13.0792 82.9486
13.1242 100.285
13.1691 128.366
13.214 168.996
13.2589 247.738
13.3038 351.999
13.3487 421.241
13.3937 276.757
13.4386 132.772
13.4835 118.517
13.5285 137.506
13.5734 175.598
13.6183 245.152
13.6633 333.744
13.7082 344.479
13.7531 198.113
13.7981 101.84
13.843 84.2269
13.888 82.0009
13.9329 79.4172
13.9779 78.0064
14.0228 76.4845
14.0678 75.063
14.1127 74.4664
14.1577 74.0656
14.2027 73.457
14.2476 72.4623
14.2926 72.2246
14.3376 72.3012
14.3825 71.457
14.4275 70.6371
14.4725 70.5507
14.5175 70.8893
14.5624 71.0511
14.6074 71.9698
14.6524 72.6617
14.6974 72.8524
14.7424 77.1585
14.7874 86.5531
14.8324 98.7282
14.8774 120.588
14.9224 155.553
14.9674 199.903
15.0124 216.618
15.0574 152.349
15.1024 93.4631
15.1474 74.1058
15.1924 72.1419
15.2374 71.5913
15.2824 70.9511
15.3274 69.0917
15.3725 68.7041
15.4175 68.2244
15.4625 67.7236
15.5076 67.9422
15.5526 67.8384
15.5976 68.2595
15.6426 71.3925
15.6877 78.9837
15.7327 87.8805
15.7778 103.849
15.8228 129.852
15.8679 164.367
15.9129 191.328
15.958 161.446
16.003 100.99
16.0481 69.5918
16.0931 65.0614
16.1382 63.3167
16.1833 61.8289
16.2283 60.183
16.2734 59.8934
16.3185 59.4919
16.3636 59.2894
16.4086 58.497
16.4537 57.516
16.4988 56.8071
16.5439 56.8116
16.589 56.7639
16.6341 56.3916
16.6792 55.8673
16.7243 56.3002
16.7694 56.1965
16.8145 56.1625
16.8596 56.3925
16.9047 57.1645
16.9498 57.3907
16.9949 57.1047
17.04 57.9788
17.0851 59.6306
17.1302 61.36
17.1754 64.4201
17.2205 69.0868
17.2656 75.2038
17.3108 83.0147
17.3559 83.5225
17.401 73.2495
17.4462 64.1602
17.4913 60.9722
17.5365 60.8322
17.5815 60.9143
17.6268 61.1886
17.6718 61.9313
17.7171 62.4912
17.7622 63.2276
17.8074 64.7646
17.8525 68.7209
17.8977 72.9177
17.9428 79.2755
17.9881 88.1683
18.0331 102.589
18.0784 120.04
18.1237 139.764
18.1688 136.895
18.214 110.374
18.2591 90.8742
18.3044 91.7195
18.3495 99.2162
18.3948 106.191
18.4399 98.0059
18.4852 79.138
18.5303 67.4977
18.5756 64.05
18.6207 62.84
18.666 62.0796
18.7112 61.3367
18.7565 60.546
18.8016 60.0481
18.8469 59.4708
18.892 59.3275
18.9374 58.8748
18.9825 58.6958
19.0278 58.398
19.073 58.9284
19.1183 59.6769
19.1635 60.4574
19.2088 61.7542
19.254 64.418
19.2993 67.798
19.3447 72.4475
19.3898 76.8367
19.4352 73.9721
19.4804 65.5255
19.5257 58.4898
19.5709 55.8447
19.6163 55.361
19.6615 55.2983
19.7068 54.846
19.752 54.8923
19.7974 55.5621
19.8426 56.5569
19.888 57.1741
19.9332 58.4699
19.9786 60.8942
20.0238 64.0151
20.0692 68.3845
20.1144 71.4139
20.1598 70.7393
20.205 65.8824
20.2504 63.5321
20.2957 64.4737
20.3411 66.319
20.3863 65.7605
20.4318 60.2574
20.477 55.1378
20.5224 52.7107
20.5677 52.0668
20.6131 51.4629
20.6586 50.8617
20.7038 50.8302
20.7493 50.4864
20.7945 50.4059
20.84 50.2378
20.8853 50.2581
20.9307 50.0722
20.976 50.2695
21.0215 50.0316
21.0668 50.5963
21.1122 50.9891
21.1575 51.4716
21.203 52.0372
21.2483 52.6939
21.2938 52.9433
21.3391 51.6527
21.3846 50.4695
21.4299 49.5895
21.4754 49.7826
21.5207 50.0038
21.5662 50.7438
21.6116 51.1631
21.6571 51.9677
21.7024 52.8856
21.7479 54.7248
21.7933 57.0133
21.8388 60.0236
21.8843 63.3179
21.9297 65.8974
21.9752 65.1288
22.0206 61.2226
22.0661 57.6439
22.1115 57.178
22.157 57.2955
22.2024 55.7931
22.248 52.9566
22.2933 51.1102
22.3389 50.4455
22.3843 50.2567
22.4299 50.1119
22.4753 50.1074
22.5208 49.9106
22.5662 50.0845
22.6118 50.3245
22.6572 50.4991
22.7028 51.0112
22.7483 51.4889
22.7939 52.2858
22.8393 53.5618
22.8849 55.4512
22.9303 57.0839
22.9759 58.7847
23.0214 58.7564
23.067 56.2005
23.1126 52.64
23.1581 50.4851
23.2037 50.253
23.2492 50.6104
23.2948 50.539
23.3403 50.921
23.3859 51.5868
23.4314 52.6605
23.477 54.0436
23.5225 55.6877
23.5682 57.5983
23.6137 58.9816
23.6593 57.3459
23.7048 53.3113
23.7505 49.5485
23.796 47.9839
23.8417 47.1697
23.8872 46.7719
23.9329 46.4885
23.9784 46.1526
24.0241 45.7515
24.0697 45.7225
24.1154 45.3454
24.1609 45.2366
24.2066 45.2087
24.2522 44.8399
24.2979 44.6555
24.3434 44.5699
24.3892 44.3935
24.4349 44.2243
24.4805 44.1767
24.5262 44.2941
24.5718 44.2332
24.6175 44.1133
24.6631 43.8531
24.7089 43.7611
24.7545 43.6684
24.8002 43.5499
24.8458 43.4828
24.8916 43.2801
24.9372 43.5483
24.983 43.9921
25.0286 44.2123
25.0744 44.6049
25.12 44.9295
25.1658 45.6029
25.2114 46.0283
25.2572 45.9056
25.3029 45.6069
25.3487 45.8164
25.3943 45.8183
25.4402 44.8238
25.4858 43.707
25.5316 42.6299
25.5773 42.1576
25.6231 42.0962
25.669 41.6792
25.7147 41.74
25.7605 41.6195
25.8062 41.5885
25.8521 41.8015
25.8977 41.7795
25.9436 41.949
25.9893 42.0
26.0352 42.4696
26.0809 42.5847
26.1268 42.773
26.1725 42.554
26.2184 41.8379
26.2641 41.4933
26.31 41.3633
26.3557 41.263
26.4017 41.2216
26.4474 41.7502
26.4933 41.8413
26.5391 42.3304
26.585 42.6707
26.6308 43.0797
26.6767 43.268
26.7225 43.1062
26.7684 42.5649
26.8142 41.868
26.8601 41.5036
26.9059 41.1274
26.9519 40.4928
26.9979 40.2658
27.0437 40.0016
27.0896 39.8938
27.1354 39.8138
27.1814 39.6231
27.2272 39.6037
27.2732 39.6677
27.3191 39.3069
27.3651 39.6003
27.4109 39.5586
27.4569 39.4919
27.5027 39.6081
27.5488 39.5901
27.5946 39.4196
27.6407 39.2621
27.6865 39.1509
27.7326 38.849
27.7784 38.9868
27.8245 38.9254
27.8703 39.0837
27.9164 39.3446
27.9623 39.4787
28.0084 39.6588
28.0543 40.0865
28.1003 40.102
28.1462 39.7984
28.1923 39.5135
28.2384 38.9144
28.2843 38.6704
28.3304 38.2287
28.3764 37.6187
28.4225 37.3391
28.4684 37.2332
28.5145 37.0202
28.5605 36.8117
28.6066 36.6801
28.6526 36.6266
28.6987 36.5762
28.7447 36.407
28.7908 36.3617
28.8368 36.285
28.8829 36.3846
28.9289 36.3035
28.9751 36.0356
29.0211 35.956
29.0673 35.646
29.1133 35.5269
29.1595 35.4328
29.2055 35.1734
29.2517 35.2984
29.2977 35.2894
29.3439 35.1749
29.3899 35.017
29.4361 35.0708
29.4824 34.8276
29.5284 34.5957
29.5746 34.251
29.6207 34.0724
29.6669 33.9484
29.713 33.8611
29.7593 33.7951
29.8053 33.7306
29.8516 33.6543
29.8977 33.6471
29.9439 33.5218
29.99 33.4239
30.0363 33.3611
30.0824 33.3473
30.1287 33.3226
30.1748 33.4009
30.2211 33.2296
30.2673 33.1577
30.3136 33.3027
30.3597 33.1698
30.406 33.1626
30.4522 33.0473
30.4985 32.9132
30.5447 33.0
30.591 32.7576
30.6372 33.1271
30.6835 32.9164
30.7297 33.0806
30.7761 33.0617
30.8224 32.8138
30.8686 32.6622
30.915 32.4092
30.9612 32.3154
31.0076 32.1847
31.0538 32.0142
31.1002 31.9932
31.1464 31.8208
31.1928 31.8429
31.2391 31.8881
31.2855 31.6367
31.3317 31.6698
31.3781 31.7819
31.4244 31.7469
31.4708 31.5956
31.5171 31.5951
31.5636 31.5836
31.6098 31.3067
31.6563 31.1827
31.7026 31.0553
31.7491 30.9036
31.7953 31.0582
31.8418 30.887
31.8881 30.907
31.9346 30.8887
31.9809 30.8166
32.0275 30.7293
32.074 30.5481
32.1203 30.4606
32.1668 30.1583
32.2132 30.2065
32.2597 30.0285
32.306 29.9521
32.3526 29.7356
32.399 29.7571
32.4455 29.5096
32.4919 29.4774
32.5385 29.4879
32.5848 29.3418
32.6314 29.2133
32.6778 29.1653
32.7244 29.0528
32.7708 28.9187
32.8174 28.9544
32.8638 28.7038
32.9104 28.7666
32.9569 28.7978
33.0035 28.5611
33.0499 28.6038
33.0966 28.5475
33.143 28.4747
33.1897 28.4065
33.2361 28.3583
33.2828 28.2963
33.3293 28.1358
33.3759 28.1197
33.4226 27.9543
33.4691 27.8186
33.5158 27.62
33.5623 27.6471
33.609 27.4072
33.6555 27.3191
33.7022 27.2985
33.7487 27.2392
33.7954 27.2544
33.842 27.0247
33.8887 27.0717
33.9353 27.0137
33.982 26.8777
34.0286 26.6989
34.0753 26.6691
34.1219 26.6232
34.1687 26.5259
34.2152 26.5128
34.262 26.2024
34.3086 26.2109
34.3554 26.2044
34.402 26.0504
34.4488 26.003
34.4954 25.9265
34.5422 25.7664
34.5889 25.6875
34.6357 25.6883
34.6825 25.5638
34.7292 25.6302
34.776 25.4136
34.8227 25.3376
34.8695 25.2573
34.9162 25.2621
34.9631 25.1004
35.0098 25.167
35.0566 25.021
35.1033 24.9845
35.1502 24.9087
35.1969 24.8634
35.2438 24.7822
35.2906 24.6728
35.3375 24.6175
35.3842 24.5901
35.4311 24.6147
35.4779 24.5243
35.5248 24.4566
35.5716 24.4668
35.6185 24.2997
35.6653 24.1466
35.7123 24.2415
35.759 24.0257
35.806 23.9397
35.8528 23.8492
35.8998 23.85
35.9468 23.7435
35.9936 23.6859
36.0406 23.6522
36.0874 23.5921
36.1345 23.4682
36.1813 23.3997
36.2283 23.2682
36.2752 23.2492
36.3222 23.244
36.3691 23.173
36.4161 23.0302
36.463 22.9691
36.5101 23.0247
36.557 22.8975
36.6041 22.6994
36.651 22.7807
36.6981 22.7237
36.745 22.6266
36.7921 22.5205
36.839 22.429
36.8861 22.342
36.9331 22.3929
36.9802 22.2609
37.0272 22.1224
37.0743 22.0461
37.1213 22.093
37.1684 21.9691
37.2154 21.8923
37.2626 21.8623
37.3098 21.7583
37.3568 21.7037
37.404 21.701
37.451 21.4689
37.4982 21.4778
37.5452 21.4124
37.5924 21.2706
37.6395 21.3728
37.6867 21.1952
37.7337 21.1371
37.781 21.0306
37.8281 21.0265
37.8753 20.9165
37.9224 20.8004
37.9697 20.8119
38.0168 20.7888
38.064 20.6196
38.1111 20.5961
38.1584 20.5619
38.2056 20.4382
38.2529 20.4301
38.3 20.3315
38.3473 20.3204
38.3945 20.2047
38.4418 20.1612
38.489 20.0392
38.5363 19.9703
38.5837 19.9644
38.6309 19.8985
38.6782 19.7757
38.7254 19.7022
38.7728 19.6843
38.82 19.6369
38.8674 19.5641
38.9146 19.5127
38.9621 19.5255
39.0093 19.408
39.0567 19.3382
39.104 19.3223
39.1514 19.1651
39.1987 19.1284
39.2461 19.1099
39.2934 19.0142
39.3409 18.9883
39.3882 18.8491
39.4356 18.9306
39.483 18.7425
39.5304 18.745
39.5778 18.7388
39.6253 18.5908
39.6726 18.5279
39.7201 18.4729
39.7675 18.4441
39.815 18.3536
39.8624 18.339
39.9099 18.298
39.9575 18.1618
40.0049 18.0599
40.0525 18.0557
40.0999 18.0738
40.1474 17.9808
40.1949 17.872
40.2425 17.8243
40.2899 17.7947
40.3375 17.7674
40.385 17.6707
40.4326 17.641
40.48 17.5715
40.5277 17.5721
40.5752 17.4959
40.6228 17.3685
40.6703 17.3576
40.718 17.3154
40.7655 17.2638
40.8132 17.1536
40.8607 17.1557
40.9084 17.0816
40.9559 17.0544
41.0036 17.0684
41.0512 16.9759
41.0989 16.9028
41.1465 16.8349
41.1942 16.7609
41.242 16.62
41.2896 16.6173
41.3373 16.5424
41.3849 16.549
41.4327 16.4613
41.4803 16.3264
41.5281 16.4174
41.5758 16.2389
41.6236 16.2329
41.6712 16.1776
41.7191 16.1166
41.7667 16.0766
41.8146 16.0088
41.8622 15.9397
41.9101 15.9331
41.9578 15.8072
42.0057 15.8094
42.0534 15.8062
42.1013 15.7232
42.149 15.6022
42.1969 15.6313
42.2446 15.6035
42.2925 15.4936
42.3403 15.4296
42.3882 15.3912
42.436 15.395
42.4839 15.2568
42.5319 15.3127
42.5797 15.2366
42.6277 15.141
42.6755 15.1068
42.7235 14.9863
42.7713 14.9744
42.8193 14.9808
42.8671 14.908
42.9152 14.8284
42.963 14.763
43.0111 14.6454
43.0589 14.6445
43.107 14.5614
43.1549 14.5971
43.2029 14.5052
43.2508 14.5011
43.2989 14.4069
43.3468 14.3681
43.3949 14.3075
43.4429 14.3226
43.491 14.2169
43.5389 14.2033
43.5871 14.1511
43.635 14.0732
43.6832 14.0369
43.7312 13.9804
43.7793 13.9423
43.8273 13.8426
43.8755 13.8313
43.9237 13.8101
43.9717 13.7576
44.0199 13.6739
44.068 13.6454
44.1162 13.6013
44.1642 13.6032
44.2125 13.5361
44.2606 13.488
44.3088 13.4054
44.3569 13.3534
44.4052 13.3117
44.4533 13.2799
44.5016 13.1632
44.5497 13.2029
44.598 13.1596
44.6461 13.0484
44.6945 13.0357
44.7426 12.9756
44.791 12.9434
44.8391 12.8991
44.8875 12.8339
44.9357 12.7978
44.984 12.7695
45.0322 12.7364
45.0806 12.6787
45.1288 12.6561
45.1773 12.5826
45.2257 12.5523
45.2739 12.4919
45.3224 12.4109
45.3706 12.4272
45.4191 12.3534
45.4673 12.3497
45.5158 12.3177
45.5641 12.2484
45.6126 12.1907
45.6609 12.1495
45.7094 12.0369
45.7577 12.0702
45.8063 11.9883
45.8546 11.9678
45.9031 11.8954
45.9515 11.8947
46.0001 11.8498
46.0484 11.8138
46.097 11.7474
46.1454 11.7229
46.194 11.6782
46.2424 11.6505
46.291 11.6061
46.3395 11.5653
46.3881 11.4944
46.4365 11.4939
46.4852 11.4324
46.5337 11.4186
46.5823 11.3765
46.631 11.3121
46.6795 11.2481
46.7282 11.2315
46.7767 11.1725
46.8254 11.1189
46.8739 11.0834
46.9226 11.0552
46.9712 11.0246
47.0199 10.9254
47.0685 10.9521
47.1173 10.8631
47.1658 10.834
47.2146 10.8116
47.2632 10.7472
47.312 10.7475
47.3606 10.6815
47.4095 10.6704
47.4581 10.6494
47.5069 10.5452
47.5556 10.531
47.6044 10.4748
47.6531 10.4377
47.702 10.3784
47.7507 10.3986
47.7996 10.3243
47.8483 10.2711
47.8972 10.2726
47.9461 10.2494
47.9948 10.2012
48.0438 10.1053
48.0925 10.12
48.1415 10.0813
48.1902 10.0034
48.2392 10.0257
48.288 9.97211
48.337 9.96363
48.3858 9.93615
48.4348 9.87446
48.4837 9.8817
48.5327 9.80737
48.5815 9.76589
48.6306 9.72806
48.6795 9.68862
48.7285 9.67689
48.7774 9.63583
48.8265 9.58938
48.8754 9.54968
48.9245 9.48464
48.9734 9.44138
49.0226 9.46987
49.0715 9.40681
49.1206 9.35943
49.1696 9.32033
49.2188 9.26979
49.2679 9.26742
49.3169 9.22377
49.3661 9.18914
49.4151 9.15173
49.4643 9.10653
49.5134 9.10657
49.5626 9.01836
49.6117 9.03447
49.6609 8.9895
49.71 8.91912
49.7592 8.89626
49.8083 8.84317
49.8576 8.85724
49.9067 8.81551
49.956 8.75543
50.0052 8.69371
50.0545 8.70111
50.1036 8.67703
50.153 8.66685
50.2022 8.6141
50.2515 8.61407
50.3007 8.52441
50.3501 8.52792
50.3993 8.47741
50.4487 8.4469
50.498 8.42603
50.5474 8.36837
50.5966 8.32625
50.6461 8.28678
50.6955 8.23558
50.7448 8.23785
50.7943 8.20719
50.8436 8.19811
50.8931 8.17682
50.9424 8.13369
50.9919 8.08298
51.0413 8.0809
51.0908 7.99797
51.1402 7.96827
51.1897 7.96173
51.2391 7.94732
51.2887 7.87901
51.3381 7.8549
51.3877 7.83128
51.4371 7.76309
51.4867 7.77295
51.5362 7.73321
51.5858 7.69198
51.6353 7.63499
51.6849 7.64762
51.7344 7.60565
51.7841 7.59436
51.8336 7.51014
51.8833 7.4773
51.9328 7.4646
51.9826 7.45638
52.0323 7.39433
52.0818 7.40932
52.1316 7.36029
52.1812 7.29432
52.231 7.2991
52.2806 7.26304
52.3304 7.2331
52.38 7.20409
52.4298 7.16143
52.4794 7.14949
52.5293 7.10191
52.5789 7.10347
52.6288 7.03446
52.6785 7.01408
52.7284 7.00981
52.7781 6.97268
52.828 6.92772
52.8777 6.88687
52.9276 6.8794
52.9774 6.88397
53.0273 6.86299
53.0771 6.79222
53.1271 6.80707
53.1769 6.74293
53.2269 6.72338
53.2767 6.67053
53.3267 6.67495
53.3765 6.64492
53.4266 6.59255
53.4766 6.56317
53.5265 6.53175
53.5765 6.51623
53.6264 6.45982
53.6765 6.45534
53.7264 6.41006
53.7765 6.36819
53.8265 6.36635
53.8766 6.31517
53.9266 6.3391
53.9767 6.23823
54.0267 6.29325
54.0769 6.20751
54.1269 6.19659
54.1771 6.1906
54.2271 6.11708
54.2773 6.10801
54.3274 6.09136
54.3776 6.05596
54.4277 6.01213
54.478 5.95853
54.528 5.95068
54.5783 5.94295
54.6285 5.82224
54.6788 5.79254
54.7289 5.79156
54.7792 5.68119
54.8296 5.70013
54.8798 5.64775
54.9301 5.59303
54.9803 5.56039
55.0307 5.55406
55.0809 5.47567
55.1314 5.45537
55.1816 5.4112
55.232 5.3821
55.2823 5.30413
55.3328 5.21351
55.383 5.20453
55.4335 5.19527
55.4838 5.10976
55.5344 5.0359
55.5847 5.02523
55.6352 4.99396
55.6856 4.95682
55.7361 4.91286