File: XRD/Ni3Fe_FD0358.xy
TT I
1.27165 7.58045
1.31627 7.12105
1.36089 6.79135
1.40551 5.72609
1.45013 5.9622
1.49476 6.16389
1.53938 6.14338
1.584 5.50256
1.62863 4.86682
1.67325 5.7558
1.71787 5.17589
1.7625 4.83505
1.80712 5.13047
1.85174 4.35673
1.89636 4.79156
1.94099 5.28311
1.98562 5.11336
2.03025 4.52671
2.07487 5.12266
2.11949 5.11193
2.16411 4.26123
2.20874 8.90128
2.25338 12.439
2.298 5.37224
2.34263 4.39016
2.38725 5.07789
2.43188 5.67146
2.4765 6.16123
2.52115 6.16038
2.56577 6.76145
2.6104 7.47871
2.65503 7.16161
2.69965 6.84487
2.7443 7.98886
2.78893 7.12557
2.83356 8.0452
2.87818 8.19096
2.92281 8.41998
2.96744 9.18086
3.01209 10.3708
3.05672 11.2037
3.10135 12.0266
3.14599 12.7741
3.19062 13.7264
3.23527 14.5973
3.2799 16.0556
3.32454 16.6997
3.36917 17.3909
3.4138 18.8107
3.45844 19.3688
3.50309 21.0357
3.54773 21.4036
3.59237 23.3434
3.637 53.8748
3.68164 39.3388
3.7263 25.4414
3.77094 26.0395
3.81558 27.0162
3.86022 27.7929
3.90486 29.3679
3.9495 30.2232
3.99416 30.9222
4.0388 32.4265
4.08344 33.9724
4.12809 34.4461
4.17273 36.7527
4.21738 40.5574
4.26204 132.052
4.30669 118.909
4.35133 45.7384
4.39598 44.9439
4.44063 49.6766
4.4853 56.4232
4.52995 52.8768
4.5746 53.3906
4.61925 54.4989
4.6639 57.2525
4.70855 60.1548
4.75322 62.4647
4.79788 66.6178
4.84253 69.2424
4.88719 74.675
4.93184 78.1794
4.97652 84.8387
5.02118 91.8723
5.06583 100.866
5.11049 115.469
5.15515 169.976
5.19981 611.454
5.24449 3677.73
5.28916 11416.2
5.33382 3355.37
5.37848 220.027
5.42315 139.171
5.46783 121.688
5.5125 111.686
5.55716 106.554
5.60183 102.594
5.6465 100.116
5.69117 98.4467
5.73586 96.9459
5.78053 97.4963
5.8252 96.9835
5.86988 99.4682
5.91455 101.353
5.95924 117.244
6.00392 327.893
6.0486 1277.68
6.09328 4022.29
6.13795 3425.13
6.18263 287.283
6.22733 99.7018
6.27201 85.7577
6.3167 90.2856
6.36138 78.1105
6.40606 71.1375
6.45075 69.4287
6.49545 67.1363
6.54014 65.2071
6.58483 64.3521
6.62952 63.5536
6.67421 76.0213
6.71892 97.8341
6.76361 64.3441
6.8083 59.5161
6.853 58.9857
6.89769 57.9721
6.94239 57.5894
6.98711 56.7244
7.03181 56.834
7.07651 56.3021
7.12121 56.1739
7.16591 56.45
7.21063 55.9233
7.25533 62.5405
7.30004 111.0
7.34475 72.2833
7.38945 56.4891
7.43416 54.9896
7.47889 55.1555
7.5236 55.6203
7.56831 56.4084
7.61303 57.0671
7.65774 57.4623
7.70247 57.4649
7.74719 57.6563
7.79191 57.7475
7.83663 58.1346
7.88135 59.2212
7.92607 59.9894
7.97081 61.1371
8.01553 62.3558
8.06026 64.4069
8.10498 65.5899
8.14971 71.3343
8.19446 71.4987
8.23919 71.5223
8.28392 74.3324
8.32865 76.9895
8.37339 81.5827
8.41812 88.1
8.46288 111.453
8.50761 226.569
8.55235 505.95
8.59709 1188.27
8.64183 2093.66
8.68658 1045.75
8.73134 180.399
8.77609 104.053
8.82083 96.2258
8.86558 93.2071
8.91033 92.0767
8.9551 91.2675
8.99985 87.7328
9.04461 86.0496
9.08936 85.7083
9.13412 84.6816
9.17888 84.4143
9.22365 84.7457
9.26841 84.7138
9.31318 85.9735
9.35794 85.775
9.4027 85.8145
9.44749 86.4672
9.49226 87.1918
9.53703 88.5903
9.5818 90.6607
9.62657 93.5487
9.67134 96.7605
9.71614 95.782
9.76091 97.5457
9.80569 100.519
9.85047 103.488
9.89525 117.316
9.94005 137.007
9.98484 237.968
10.0296 443.343
10.0744 872.098
10.1192 1596.71
10.164 1624.89
10.2088 457.746
10.2536 135.169
10.2984 114.771
10.3432 113.714
10.388 110.312
10.4328 137.286
10.4776 188.613
10.5224 299.278
10.5672 488.514
10.612 523.286
10.6568 217.289
10.7017 99.9227
10.7465 89.1888
10.7913 85.6842
10.8361 83.2455
10.8809 80.8489
10.9257 79.7538
10.9706 79.4284
11.0154 76.3889
11.0602 74.3897
11.105 73.3031
11.1499 74.5825
11.1947 77.4137
11.2395 72.8396
11.2844 70.7274
11.3292 68.7963
11.374 67.7174
11.4189 67.1832
11.4637 66.5165
11.5086 66.3312
11.5534 67.3806
11.5983 66.1028
11.6431 65.2964
11.688 64.3168
11.7328 64.4512
11.7777 64.3437
11.8225 64.3829
11.8674 64.0367
11.9122 64.4825
11.9571 64.351
12.002 66.4992
12.0468 73.9513
12.0917 86.7786
12.1366 109.762
12.1814 151.597
12.2263 201.961
12.2712 171.793
12.3161 96.3984
12.3609 69.9408
12.4058 66.0239
12.4507 65.9787
12.4956 65.9446
12.5405 66.1525
12.5853 67.1498
12.6302 70.551
12.6751 73.4424
12.72 69.9715
12.7649 69.5927
12.8098 70.1695
12.8547 71.7254
12.8996 73.2421
12.9445 74.9028
12.9894 76.7075
13.0343 78.3351
13.0792 83.0918
13.1242 100.266
13.1691 128.463
13.214 168.647
13.2589 246.42
13.3038 350.826
13.3487 420.342
13.3937 277.855
13.4386 133.187
13.4835 118.485
13.5285 137.344
13.5734 175.108
13.6183 244.608
13.6633 330.931
13.7082 344.138
13.7531 199.163
13.7981 101.902
13.843 84.3969
13.888 81.8444
13.9329 79.3845
13.9779 78.1213
14.0228 76.4473
14.0678 74.9918
14.1127 74.5203
14.1577 74.0053
14.2027 73.0965
14.2476 72.2764
14.2926 72.1932
14.3376 72.4717
14.3825 71.7311
14.4275 70.9208
14.4725 70.6063
14.5175 70.7616
14.5624 70.9915
14.6074 72.2871
14.6524 72.8824
14.6974 72.962
14.7424 76.9637
14.7874 86.5511
14.8324 98.5009
14.8774 120.381
14.9224 155.134
14.9674 199.981
15.0124 217.272
15.0574 152.869
15.1024 93.7696
15.1474 74.6087
15.1924 72.2713
15.2374 71.7435
15.2824 70.9413
15.3274 69.4226
15.3725 68.5954
15.4175 68.3334
15.4625 67.8176
15.5076 67.7833
15.5526 67.9489
15.5976 68.0771
15.6426 71.2114
15.6877 78.8793
15.7327 87.84
15.7778 103.401
15.8228 129.311
15.8679 164.077
15.9129 192.771
15.958 162.256
16.003 101.448
16.0481 69.7671
16.0931 65.1639
16.1382 63.2501
16.1833 61.9616
16.2283 60.6731
16.2734 59.8543
16.3185 59.5897
16.3636 59.2747
16.4086 58.5102
16.4537 57.6622
16.4988 57.022
16.5439 56.922
16.589 56.8129
16.6341 56.5411
16.6792 56.0924
16.7243 56.333
16.7694 56.2353
16.8145 56.4007
16.8596 56.539
16.9047 57.343
16.9498 57.442
16.9949 56.8567
17.04 57.9359
17.0851 59.6501
17.1302 61.4337
17.1754 64.5147
17.2205 69.47
17.2656 75.208
17.3108 82.6925
17.3559 83.8399
17.401 73.3119
17.4462 64.1962
17.4913 60.8126
17.5365 60.9322
17.5815 60.9876
17.6268 61.4111
17.6718 61.9283
17.7171 62.3863
17.7622 63.3316
17.8074 64.592
17.8525 68.6172
17.8977 73.037
17.9428 79.2879
17.9881 88.2605
18.0331 102.407
18.0784 120.267
18.1237 140.009
18.1688 136.938
18.214 110.842
18.2591 90.8544
18.3044 91.975
18.3495 99.3073
18.3948 106.107
18.4399 98.0501
18.4852 79.0976
18.5303 67.5325
18.5756 63.8398
18.6207 63.1218
18.666 62.0883
18.7112 61.2576
18.7565 60.6138
18.8016 60.3341
18.8469 59.673
18.892 59.4359
18.9374 58.8616
18.9825 58.5099
19.0278 58.5575
19.073 58.9318
19.1183 59.5722
19.1635 60.2858
19.2088 61.9119
19.254 64.3613
19.2993 67.6016
19.3447 72.5333
19.3898 77.0377
19.4352 74.3911
19.4804 65.8145
19.5257 58.5736
19.5709 55.6873
19.6163 55.4652
19.6615 55.2554
19.7068 54.8207
19.752 55.0521
19.7974 55.4349
19.8426 56.3506
19.888 57.1418
19.9332 58.4535
19.9786 61.2575
20.0238 64.268
20.0692 68.0851
20.1144 71.3848
20.1598 70.9542
20.205 65.9417
20.2504 63.5549
20.2957 64.3891
20.3411 66.4725
20.3863 65.9046
20.4318 60.4167
20.477 55.0225
20.5224 52.5398
20.5677 52.2157
20.6131 51.6328
20.6586 51.0023
20.7038 50.9073
20.7493 50.6062
20.7945 50.2989
20.84 50.0869
20.8853 50.2678
20.9307 50.2308
20.976 50.2851
21.0215 50.2882
21.0668 50.6793
21.1122 51.0232
21.1575 51.603
21.203 51.9968
21.2483 52.7935
21.2938 53.0536
21.3391 51.6935
21.3846 50.4112
21.4299 49.873
21.4754 49.8507
21.5207 50.1471
21.5662 50.6797
21.6116 51.1648
21.6571 51.9145
21.7024 52.9403
21.7479 54.7252
21.7933 57.2384
21.8388 60.077
21.8843 63.3432
21.9297 66.0528
21.9752 65.2988
22.0206 61.5143
22.0661 57.551
22.1115 57.1901
22.157 57.2829
22.2024 55.9352
22.248 53.1599
22.2933 51.1473
22.3389 50.5058
22.3843 50.2225
22.4299 50.1711
22.4753 50.1045
22.5208 50.1141
22.5662 49.7785
22.6118 50.3417
22.6572 50.8219
22.7028 51.101
22.7483 51.5305
22.7939 52.2174
22.8393 53.6206
22.8849 55.2983
22.9303 56.965
22.9759 58.9001
23.0214 58.8275
23.067 56.2587
23.1126 52.7909
23.1581 50.8279
23.2037 50.2299
23.2492 50.6091
23.2948 50.5863
23.3403 50.9617
23.3859 51.7278
23.4314 52.5581
23.477 54.1554
23.5225 55.5921
23.5682 57.4899
23.6137 59.0723
23.6593 57.3299
23.7048 53.312
23.7505 49.8183
23.796 47.9926
23.8417 47.3359
23.8872 46.8542
23.9329 46.5052
23.9784 46.1015
24.0241 45.9472
24.0697 45.7537
24.1154 45.3463
24.1609 45.1033
24.2066 44.9521
24.2522 44.8294
24.2979 44.7719
24.3434 44.5205
24.3892 44.2786
24.4349 44.4206
24.4805 44.1981
24.5262 44.2328
24.5718 44.1243
24.6175 44.0645
24.6631 44.0571
24.7089 43.6689
24.7545 43.588
24.8002 43.4127
24.8458 43.5646
24.8916 43.338
24.9372 43.5569
24.983 44.0192
25.0286 44.1339
25.0744 44.6113
25.12 44.9286
25.1658 45.6909
25.2114 45.9002
25.2572 45.8245
25.3029 45.7733
25.3487 45.973
25.3943 45.8204
25.4402 44.9023
25.4858 43.7729
25.5316 42.7182
25.5773 42.1701
25.6231 41.9699
25.669 41.7556
25.7147 41.5741
25.7605 41.5733
25.8062 41.6467
25.8521 41.8905
25.8977 41.8255
25.9436 42.0972
25.9893 42.0978
26.0352 42.5008
26.0809 42.6903
26.1268 42.8377
26.1725 42.5045
26.2184 42.1119
26.2641 41.4717
26.31 41.3453
26.3557 41.3589
26.4017 41.2425
26.4474 41.6602
26.4933 42.0092
26.5391 42.3354
26.585 42.6945
26.6308 43.1677
26.6767 43.3169
26.7225 43.1144
26.7684 42.5581
26.8142 41.9461
26.8601 41.5074
26.9059 41.1108
26.9519 40.669
26.9979 40.3817
27.0437 39.941
27.0896 39.8617
27.1354 39.8397
27.1814 39.6516
27.2272 39.6673
27.2732 39.733
27.3191 39.443
27.3651 39.5665
27.4109 39.6461
27.4569 39.5524
27.5027 39.5162
27.5488 39.7685
27.5946 39.4004
27.6407 39.1564
27.6865 39.2135
27.7326 39.0178
27.7784 38.9502
27.8245 38.918
27.8703 39.0929
27.9164 39.3374
27.9623 39.4202
28.0084 39.733
28.0543 40.165
28.1003 40.2071
28.1462 39.9771
28.1923 39.4895
28.2384 38.999
28.2843 38.642
28.3304 38.1485
28.3764 37.7155
28.4225 37.3912
28.4684 37.225
28.5145 36.9892
28.5605 36.9024
28.6066 36.6268
28.6526 36.7249
28.6987 36.5151
28.7447 36.4606
28.7908 36.4218
28.8368 36.3242
28.8829 36.2366
28.9289 36.2639
28.9751 36.1226
29.0211 35.9672
29.0673 35.6873
29.1133 35.5846
29.1595 35.349
29.2055 35.2975
29.2517 35.2578
29.2977 35.1748
29.3439 35.1149
29.3899 35.1102
29.4361 35.209
29.4824 34.9647
29.5284 34.7756
29.5746 34.3327
29.6207 33.9678
29.6669 33.9356
29.713 33.8962
29.7593 33.7814
29.8053 33.7204
29.8516 33.658
29.8977 33.6165
29.9439 33.4912
29.99 33.5968
30.0363 33.2698
30.0824 33.4039
30.1287 33.225
30.1748 33.3087
30.2211 33.2807
30.2673 33.0658
30.3136 33.2642
30.3597 33.173
30.406 33.0534
30.4522 32.8975
30.4985 32.8807
30.5447 33.066
30.591 33.0318
30.6372 33.0197
30.6835 32.9555
30.7297 33.0491
30.7761 32.9198
30.8224 32.8724
30.8686 32.6591
30.915 32.5561
30.9612 32.505
31.0076 32.2437
31.0538 32.0025
31.1002 31.9528
31.1464 31.8156
31.1928 31.8367
31.2391 31.7818
31.2855 31.7192
31.3317 31.7515
31.3781 31.6943
31.4244 31.7407
31.4708 31.5517
31.5171 31.5975
31.5636 31.5664
31.6098 31.3613
31.6563 31.1729
31.7026 31.1159
31.7491 30.9069
31.7953 30.9191
31.8418 30.9774
31.8881 31.0106
31.9346 30.8635
31.9809 30.9109
32.0275 30.8118
32.074 30.6128
32.1203 30.4534
32.1668 30.3534
32.2132 30.2197
32.2597 30.0617
32.306 30.0186
32.3526 29.8086
32.399 29.7559
32.4455 29.6178
32.4919 29.444
32.5385 29.4447
32.5848 29.2415
32.6314 29.2871
32.6778 29.1973
32.7244 29.0702
32.7708 28.807
32.8174 28.9591
32.8638 28.7583
32.9104 28.8233
32.9569 28.746
33.0035 28.5707
33.0499 28.6374
33.0966 28.5287
33.143 28.5375
33.1897 28.4065
33.2361 28.3079
33.2828 28.3243
33.3293 28.1061
33.3759 28.1534
33.4226 27.9391
33.4691 27.8415
33.5158 27.8015
33.5623 27.6078
33.609 27.5138
33.6555 27.4245
33.7022 27.3834
33.7487 27.2448
33.7954 27.1916
33.842 27.013
33.8887 27.0146
33.9353 26.9393
33.982 26.8161
34.0286 26.7906
34.0753 26.6779
34.1219 26.5035
34.1687 26.5865
34.2152 26.4137
34.262 26.2998
34.3086 26.1698
34.3554 26.2887
34.402 26.0423
34.4488 25.9645
34.4954 26.02
34.5422 25.8216
34.5889 25.7593
34.6357 25.705
34.6825 25.584
34.7292 25.5069
34.776 25.4111
34.8227 25.3556
34.8695 25.3276
34.9162 25.2092
34.9631 25.1966
35.0098 25.1009
35.0566 25.0263
35.1033 24.9825
35.1502 24.8938
35.1969 24.8848
35.2438 24.8363
35.2906 24.7793
35.3375 24.6557
35.3842 24.6046
35.4311 24.5629
35.4779 24.6175
35.5248 24.5551
35.5716 24.4079
35.6185 24.3507
35.6653 24.1619
35.7123 24.182
35.759 24.0705
35.806 23.9353
35.8528 23.8278
35.8998 23.7505
35.9468 23.6589
35.9936 23.6902
36.0406 23.6089
36.0874 23.5522
36.1345 23.511
36.1813 23.3866
36.2283 23.2681
36.2752 23.2309
36.3222 23.2514
36.3691 23.1211
36.4161 23.0876
36.463 23.0137
36.5101 23.0149
36.557 22.9959
36.6041 22.8019
36.651 22.7557
36.6981 22.7482
36.745 22.6738
36.7921 22.5529
36.839 22.4247
36.8861 22.3631
36.9331 22.3497
36.9802 22.2135
37.0272 22.1619
37.0743 22.0847
37.1213 21.9993
37.1684 21.9078
37.2154 21.8908
37.2626 21.8734
37.3098 21.7845
37.3568 21.7183
37.404 21.7115
37.451 21.5575
37.4982 21.5066
37.5452 21.3995
37.5924 21.3441
37.6395 21.3487
37.6867 21.2572
37.7337 21.1898
37.781 21.1094
37.8281 21.0044
37.8753 20.937
37.9224 20.867
37.9697 20.7563
38.0168 20.7611
38.064 20.7115
38.1111 20.6049
38.1584 20.5597
38.2056 20.5317
38.2529 20.3823
38.3 20.3737
38.3473 20.3714
38.3945 20.1296
38.4418 20.1718
38.489 20.1495
38.5363 20.0087
38.5837 20.0156
38.6309 19.8723
38.6782 19.8572
38.7254 19.8291
38.7728 19.7562
38.82 19.6656
38.8674 19.6052
38.9146 19.5621
38.9621 19.41
39.0093 19.4061
39.0567 19.3482
39.104 19.2949
39.1514 19.2102
39.1987 19.1826
39.2461 19.1261
39.2934 19.0499
39.3409 18.9594
39.3882 18.8968
39.4356 18.8645
39.483 18.7567
39.5304 18.7286
39.5778 18.7037
39.6253 18.6005
39.6726 18.5842
39.7201 18.5318
39.7675 18.4449
39.815 18.4232
39.8624 18.3092
39.9099 18.2931
39.9575 18.2264
40.0049 18.1656
40.0525 18.1406
40.0999 18.0108
40.1474 17.9621
40.1949 17.9376
40.2425 17.7944
40.2899 17.8535
40.3375 17.7391
40.385 17.7462
40.4326 17.6376
40.48 17.6192
40.5277 17.5609
40.5752 17.5011
40.6228 17.3735
40.6703 17.4004
40.718 17.3057
40.7655 17.2252
40.8132 17.1864
40.8607 17.1917
40.9084 17.0809
40.9559 16.9964
41.0036 17.0228
41.0512 16.9106
41.0989 16.9143
41.1465 16.8019
41.1942 16.7926
41.242 16.7
41.2896 16.705
41.3373 16.6327
41.3849 16.5544
41.4327 16.4885
41.4803 16.3657
41.5281 16.4286
41.5758 16.3042
41.6236 16.2778
41.6712 16.212
41.7191 16.1048
41.7667 16.129
41.8146 16.0617
41.8622 15.9334
41.9101 15.9785
41.9578 15.8915
42.0057 15.8639
42.0534 15.7745
42.1013 15.7
42.149 15.6329
42.1969 15.6412
42.2446 15.6121
42.2925 15.5256
42.3403 15.45
42.3882 15.4427
42.436 15.3777
42.4839 15.3426
42.5319 15.2323
42.5797 15.1784
42.6277 15.1451
42.6755 15.0764
42.7235 15.0174
42.7713 15.0202
42.8193 14.9274
42.8671 14.9076
42.9152 14.8197
42.963 14.7961
43.0111 14.749
43.0589 14.6781
43.107 14.6421
43.1549 14.6046
43.2029 14.523
43.2508 14.5157
43.2989 14.4464
43.3468 14.3688
43.3949 14.3233
43.4429 14.3166
43.491 14.2371
43.5389 14.1896
43.5871 14.1298
43.635 14.0562
43.6832 14.0504
43.7312 14.0031
43.7793 13.9289
43.8273 13.8871
43.8755 13.8149
43.9237 13.7778
43.9717 13.7934
44.0199 13.7176
44.068 13.6907
44.1162 13.6218
44.1642 13.5744
44.2125 13.5234
44.2606 13.4504
44.3088 13.408
44.3569 13.3762
44.4052 13.3357
44.4533 13.2668
44.5016 13.26
44.5497 13.1724
44.598 13.208
44.6461 13.1067
44.6945 13.0578
44.7426 13.0203
44.791 12.9556
44.8391 12.8882
44.8875 12.8567
44.9357 12.8152
44.984 12.7688
45.0322 12.7057
45.0806 12.6811
45.1288 12.6615
45.1773 12.6064
45.2257 12.5781
45.2739 12.5102
45.3224 12.482
45.3706 12.4329
45.4191 12.3726
45.4673 12.3604
45.5158 12.3151
45.5641 12.2254
45.6126 12.1725
45.6609 12.1839
45.7094 12.1094
45.7577 12.1054
45.8063 12.0115
45.8546 12.0024
45.9031 11.9038
45.9515 11.8868
46.0001 11.8659
46.0484 11.8066
46.097 11.796
46.1454 11.7675
46.194 11.6902
46.2424 11.6399
46.291 11.621
46.3395 11.5641
46.3881 11.5117
46.4365 11.5366
46.4852 11.4428
46.5337 11.4318
46.5823 11.3759
46.631 11.3002
46.6795 11.2892
46.7282 11.2602
46.7767 11.1569
46.8254 11.1628
46.8739 11.1342
46.9226 11.0828
46.9712 10.9771
47.0199 11.0169
47.0685 10.9249
47.1173 10.8998
47.1658 10.8494
47.2146 10.8364
47.2632 10.7176
47.312 10.752
47.3606 10.6947
47.4095 10.6434
47.4581 10.5979
47.5069 10.5821
47.5556 10.5189
47.6044 10.4844
47.6531 10.4613
47.702 10.438
47.7507 10.4072
47.7996 10.3832
47.8483 10.3205
47.8972 10.286
47.9461 10.26
47.9948 10.1907
48.0438 10.1875
48.0925 10.1404
48.1415 10.1024
48.1902 10.0451
48.2392 10.0446
48.288 10.0439
48.337 9.95954
48.3858 9.88813
48.4348 9.90492
48.4837 9.89321
48.5327 9.82129
48.5815 9.78822
48.6306 9.79519
48.6795 9.68253
48.7285 9.64204
48.7774 9.60912
48.8265 9.62838
48.8754 9.57088
48.9245 9.53768
48.9734 9.49348
49.0226 9.45786
49.0715 9.41546
49.1206 9.40246
49.1696 9.32691
49.2188 9.31408
49.2679 9.27741
49.3169 9.24966
49.3661 9.1718
49.4151 9.15235
49.4643 9.13429
49.5134 9.1118
49.5626 9.01578
49.6117 9.02458
49.6609 8.99874
49.71 8.95121
49.7592 8.93697
49.8083 8.86639
49.8576 8.85402
49.9067 8.78654
49.956 8.78279
50.0052 8.73849
50.0545 8.70775
50.1036 8.7058
50.153 8.64886
50.2022 8.6175
50.2515 8.6018
50.3007 8.48962
50.3501 8.50703
50.3993 8.47792
50.4487 8.44613
50.498 8.41857
50.5474 8.41091
50.5966 8.31934
50.6461 8.34936
50.6955 8.28094
50.7448 8.25085
50.7943 8.26033
50.8436 8.22355
50.8931 8.14994
50.9424 8.1318
50.9919 8.11589
51.0413 8.05498
51.0908 8.01001
51.1402 7.98731
51.1897 7.96156
51.2391 7.90169
51.2887 7.88901
51.3381 7.84286
51.3877 7.84177
51.4371 7.7818
51.4867 7.76108
51.5362 7.75371
51.5858 7.69674
51.6353 7.66012
51.6849 7.63641
51.7344 7.60118
51.7841 7.58075
51.8336 7.56801
51.8833 7.52828
51.9328 7.50064
51.9826 7.43187
52.0323 7.42293
52.0818 7.38775
52.1316 7.34146
52.1812 7.33493
52.231 7.27079
52.2806 7.29597
52.3304 7.28046
52.38 7.21754
52.4298 7.22461
52.4794 7.142
52.5293 7.10166
52.5789 7.05181
52.6288 7.0266
52.6785 7.0116
52.7284 6.97585
52.7781 6.99477
52.828 6.92223
52.8777 6.91448
52.9276 6.87998
52.9774 6.8649
53.0273 6.83126
53.0771 6.82803
53.1271 6.81473
53.1769 6.74997
53.2269 6.72593
53.2767 6.64901
53.3267 6.62097
53.3765 6.62576
53.4266 6.58142
53.4766 6.55232
53.5265 6.53081
53.5765 6.54315
53.6264 6.46956
53.6765 6.45067
53.7264 6.47073
53.7765 6.42418
53.8265 6.36348
53.8766 6.32367
53.9266 6.33377
53.9767 6.28512
54.0267 6.28624
54.0769 6.23073
54.1269 6.18971
54.1771 6.21692
54.2271 6.11914
54.2773 6.10133
54.3274 6.0829
54.3776 6.03124
54.4277 6.00765
54.478 5.96688
54.528 5.95234
54.5783 5.89444
54.6285 5.85697
54.6788 5.83942
54.7289 5.74975
54.7792 5.74279
54.8296 5.68115
54.8798 5.64088
54.9301 5.59026
54.9803 5.5919
55.0307 5.54158
55.0809 5.49128
55.1314 5.49529
55.1816 5.38794
55.232 5.3827
55.2823 5.39195
55.3328 5.29363
55.383 5.20272
55.4335 5.1641
55.4838 5.12771
55.5344 5.08989
55.5847 5.05717
55.6352 5.02328
55.6856 4.98804
55.7361 4.95409