File: XRD/Ni3Fe_FD0246.xy
TT I
1.27165 8.08571
1.31627 7.867
1.36089 7.26998
1.40551 6.52252
1.45013 6.52355
1.49476 6.32335
1.53938 6.22991
1.584 5.97719
1.62863 6.03802
1.67325 5.19531
1.71787 5.52373
1.7625 5.18196
1.80712 4.8525
1.85174 5.01887
1.89636 5.24016
1.94099 5.15463
1.98562 5.33367
2.03025 4.50286
2.07487 4.30007
2.11949 4.70741
2.16411 4.83708
2.20874 4.67053
2.25338 4.66481
2.298 4.88851
2.34263 4.41975
2.38725 5.47997
2.43188 5.26718
2.4765 5.5971
2.52115 5.21164
2.56577 5.42202
2.6104 5.68028
2.65503 5.48313
2.69965 6.02586
2.7443 7.08517
2.78893 6.90649
2.83356 7.82317
2.87818 7.98095
2.92281 8.81722
2.96744 9.27977
3.01209 10.2047
3.05672 11.0701
3.10135 12.003
3.14599 13.2765
3.19062 14.0057
3.23527 15.2566
3.2799 16.1584
3.32454 17.029
3.36917 18.0095
3.4138 18.5393
3.45844 20.0352
3.50309 20.9717
3.54773 21.5619
3.59237 22.2305
3.637 23.1707
3.68164 24.0118
3.7263 25.186
3.77094 25.7447
3.81558 26.6158
3.86022 27.87
3.90486 29.0936
3.9495 30.2396
3.99416 31.0223
4.0388 32.7971
4.08344 34.2321
4.12809 35.7216
4.17273 36.1817
4.21738 38.266
4.26204 39.4681
4.30669 40.3724
4.35133 42.8918
4.39598 43.8985
4.44063 46.38
4.4853 48.2921
4.52995 52.9136
4.5746 54.4225
4.61925 56.0297
4.6639 57.8659
4.70855 61.1488
4.75322 64.8025
4.79788 68.6086
4.84253 71.6965
4.88719 77.2958
4.93184 81.0438
4.97652 88.1148
5.02118 96.2799
5.06583 106.802
5.11049 123.588
5.15515 169.093
5.19981 892.271
5.24449 3969.2
5.28916 10578.4
5.33382 4010.88
5.37848 266.31
5.42315 151.884
5.46783 128.686
5.5125 117.741
5.55716 112.201
5.60183 106.576
5.6465 104.211
5.69117 102.398
5.73586 100.648
5.78053 101.982
5.8252 102.543
5.86988 104.394
5.91455 109.786
5.95924 132.919
6.00392 445.399
6.0486 1429.71
6.09328 3739.14
6.13795 3624.26
6.18263 343.312
6.22733 107.928
6.27201 88.4043
6.3167 80.8108
6.36138 75.6145
6.40606 73.1783
6.45075 71.3482
6.49545 68.3774
6.54014 66.1959
6.58483 65.1527
6.62952 64.1852
6.67421 62.4348
6.71892 61.3731
6.76361 60.8927
6.8083 60.091
6.853 59.4666
6.89769 58.5796
6.94239 58.273
6.98711 57.334
7.03181 57.1952
7.07651 56.7496
7.12121 56.5008
7.16591 56.3221
7.21063 55.8598
7.25533 55.6179
7.30004 55.8362
7.34475 55.9579
7.38945 56.1475
7.43416 55.513
7.47889 55.5291
7.5236 56.1026
7.56831 57.1865
7.61303 57.295
7.65774 57.3283
7.70247 58.1644
7.74719 58.2802
7.79191 58.7729
7.83663 59.0601
7.88135 60.2907
7.92607 61.2425
7.97081 62.5345
8.01553 63.7261
8.06026 65.2853
8.10498 66.4265
8.14971 68.8
8.19446 70.8128
8.23919 73.3102
8.28392 76.1853
8.32865 79.498
8.37339 84.3966
8.41812 90.2512
8.46288 111.621
8.50761 292.525
8.55235 580.566
8.59709 1087.07
8.64183 2012.18
8.68658 1166.44
8.73134 213.653
8.77609 109.937
8.82083 99.7755
8.86558 96.3399
8.91033 93.5812
8.9551 90.9649
8.99985 89.1811
9.04461 88.3121
9.08936 87.9385
9.13412 86.9447
9.17888 86.2512
9.22365 86.4703
9.26841 86.8602
9.31318 88.4517
9.35794 87.9837
9.4027 88.3302
9.44749 89.0169
9.49226 89.1791
9.53703 90.5107
9.5818 93.158
9.62657 95.049
9.67134 95.6631
9.71614 97.6089
9.76091 100.091
9.80569 103.943
9.85047 106.681
9.89525 112.623
9.94005 137.861
9.98484 304.123
10.0296 512.141
10.0744 811.369
10.1192 1476.69
10.164 1696.07
10.2088 533.847
10.2536 146.642
10.2984 117.007
10.3432 112.392
10.388 115.614
10.4328 158.842
10.4776 210.482
10.5224 285.059
10.5672 452.275
10.612 536.269
10.6568 247.773
10.7017 106.578
10.7465 92.0796
10.7913 87.8782
10.8361 85.6266
10.8809 82.46
10.9257 80.7544
10.9706 79.579
11.0154 77.6997
11.0602 76.1998
11.105 74.8268
11.1499 72.9863
11.1947 72.5099
11.2395 70.9645
11.2844 70.6528
11.3292 69.8944
11.374 69.0169
11.4189 68.5865
11.4637 67.7719
11.5086 67.2006
11.5534 66.2656
11.5983 66.0164
11.6431 66.233
11.688 65.6396
11.7328 65.5274
11.7777 65.2734
11.8225 65.1737
11.8674 65.2736
11.9122 66.1283
11.9571 66.0505
12.002 68.7915
12.0468 80.3156
12.0917 93.3821
12.1366 109.597
12.1814 141.733
12.2263 194.451
12.2712 182.317
12.3161 101.53
12.3609 69.7561
12.4058 67.095
12.4507 67.3333
12.4956 67.3
12.5405 67.3537
12.5853 67.816
12.6302 68.3808
12.6751 68.57
12.72 69.6057
12.7649 70.9711
12.8098 71.6505
12.8547 73.2722
12.8996 74.5137
12.9445 76.3384
12.9894 78.554
13.0343 80.5822
13.0792 86.4552
13.1242 111.5
13.1691 145.759
13.214 174.798
13.2589 232.948
13.3038 328.869
13.3487 423.342
13.3937 303.852
13.4386 147.81
13.4835 133.376
13.5285 152.15
13.5734 175.582
13.6183 228.925
13.6633 316.449
13.7082 359.569
13.7531 221.591
13.7981 109.186
13.843 86.9481
13.888 83.8611
13.9329 80.9989
13.9779 79.9742
14.0228 78.3828
14.0678 76.6672
14.1127 76.2405
14.1577 75.1427
14.2027 74.6914
14.2476 73.9825
14.2926 73.2853
14.3376 72.8549
14.3825 72.6957
14.4275 72.1706
14.4725 72.3957
14.5175 72.5144
14.5624 72.489
14.6074 72.778
14.6524 73.2685
14.6974 74.3846
14.7424 81.1934
14.7874 95.0625
14.8324 105.975
14.8774 120.167
14.9224 146.525
14.9674 189.504
15.0124 221.873
15.0574 167.081
15.1024 100.122
15.1474 76.7941
15.1924 73.4651
15.2374 71.9853
15.2824 71.4599
15.3274 70.2972
15.3725 69.9517
15.4175 69.848
15.4625 69.3291
15.5076 69.0982
15.5526 68.9715
15.5976 69.8873
15.6426 75.268
15.6877 85.9901
15.7327 94.4182
15.7778 103.876
15.8228 123.197
15.8679 153.952
15.9129 190.248
15.958 170.379
16.003 109.255
16.0481 71.9639
16.0931 65.6839
16.1382 63.9373
16.1833 62.9426
16.2283 61.5351
16.2734 60.8483
16.3185 60.164
16.3636 59.4692
16.4086 58.8961
16.4537 58.3846
16.4988 57.9937
16.5439 58.0009
16.589 57.6727
16.6341 57.1725
16.6792 56.8553
16.7243 57.2919
16.7694 57.0085
16.8145 57.161
16.8596 57.2788
16.9047 57.4574
16.9498 57.5691
16.9949 57.85
17.04 59.3975
17.0851 61.6326
17.1302 63.6483
17.1754 65.4142
17.2205 69.2008
17.2656 74.3011
17.3108 82.5009
17.3559 85.2984
17.401 76.8795
17.4462 66.3468
17.4913 62.2517
17.5365 61.9802
17.5815 62.0456
17.6268 62.558
17.6718 62.9534
17.7171 63.3862
17.7622 64.737
17.8074 66.6581
17.8525 72.4201
17.8977 77.8773
17.9428 82.6275
17.9881 88.2954
18.0331 99.7638
18.0784 116.234
18.1237 139.494
18.1688 143.308
18.214 116.307
18.2591 92.9811
18.3044 90.5324
18.3495 97.3236
18.3948 106.761
18.4399 101.026
18.4852 82.7779
18.5303 69.8093
18.5756 65.2645
18.6207 64.0015
18.666 63.4465
18.7112 62.6088
18.7565 61.8761
18.8016 61.6382
18.8469 60.8321
18.892 60.5582
18.9374 60.0621
18.9825 59.6253
19.0278 59.5238
19.073 60.1103
19.1183 61.0617
19.1635 61.7319
19.2088 62.58
19.254 64.7922
19.2993 67.4235
19.3447 71.4999
19.3898 76.3707
19.4352 75.768
19.4804 67.9178
19.5257 59.9243
19.5709 56.9698
19.6163 56.4004
19.6615 56.2323
19.7068 55.9461
19.752 56.0898
19.7974 57.0834
19.8426 58.2806
19.888 58.6847
19.9332 59.6203
19.9786 61.5312
20.0238 64.0726
20.0692 68.6689
20.1144 72.6625
20.1598 72.5839
20.205 67.5925
20.2504 64.3466
20.2957 64.5091
20.3411 66.7697
20.3863 67.0712
20.4318 62.0217
20.477 56.434
20.5224 53.5935
20.5677 52.9022
20.6131 52.4446
20.6586 52.0874
20.7038 51.8222
20.7493 51.4041
20.7945 51.123
20.84 51.0013
20.8853 50.9981
20.9307 51.0956
20.976 51.1968
21.0215 51.3422
21.0668 51.4938
21.1122 51.6082
21.1575 51.9841
21.203 52.5962
21.2483 53.3044
21.2938 53.7624
21.3391 52.6452
21.3846 51.4734
21.4299 50.8725
21.4754 50.7228
21.5207 51.022
21.5662 51.8741
21.6116 52.6596
21.6571 53.5641
21.7024 54.2752
21.7479 55.4187
21.7933 57.6676
21.8388 60.2984
21.8843 63.7486
21.9297 66.8925
21.9752 66.8229
22.0206 63.0428
22.0661 58.6433
22.1115 57.8253
22.157 58.3901
22.2024 57.234
22.248 54.3391
22.2933 52.3606
22.3389 51.3575
22.3843 50.9487
22.4299 50.8807
22.4753 50.7929
22.5208 50.8735
22.5662 50.7702
22.6118 51.403
22.6572 51.773
22.7028 52.3224
22.7483 52.7058
22.7939 53.2494
22.8393 54.2379
22.8849 55.4906
22.9303 57.053
22.9759 59.2942
23.0214 59.9983
23.067 57.7282
23.1126 54.0594
23.1581 51.7958
23.2037 51.355
23.2492 51.7782
23.2948 51.7914
23.3403 52.1514
23.3859 52.3999
23.4314 53.0366
23.477 54.1609
23.5225 55.6261
23.5682 57.633
23.6137 59.6531
23.6593 58.6029
23.7048 54.8856
23.7505 51.0116
23.796 48.7691
23.8417 48.2243
23.8872 47.5396
23.9329 47.2976
23.9784 46.9602
24.0241 46.687
24.0697 46.4089
24.1154 46.0607
24.1609 45.9764
24.2066 45.6859
24.2522 45.6666
24.2979 45.3504
24.3434 45.1794
24.3892 45.0818
24.4349 44.9567
24.4805 44.7795
24.5262 44.9077
24.5718 44.8524
24.6175 44.7513
24.6631 44.7416
24.7089 44.413
24.7545 44.3326
24.8002 44.2366
24.8458 44.2873
24.8916 44.1456
24.9372 44.2752
24.983 44.7524
25.0286 44.8199
25.0744 45.2293
25.12 45.6642
25.1658 45.9967
25.2114 46.4402
25.2572 46.5732
25.3029 46.3695
25.3487 46.4197
25.3943 46.5475
25.4402 45.6927
25.4858 44.5784
25.5316 43.4391
25.5773 42.8433
25.6231 42.7336
25.669 42.2916
25.7147 42.4282
25.7605 42.4712
25.8062 42.3645
25.8521 42.5544
25.8977 42.4129
25.9436 42.4838
25.9893 42.5731
26.0352 43.0574
26.0809 43.1656
26.1268 43.4967
26.1725 43.4576
26.2184 42.8743
26.2641 42.3024
26.31 42.0718
26.3557 42.0581
26.4017 42.0155
26.4474 42.3125
26.4933 42.4796
26.5391 42.8307
26.585 43.1645
26.6308 43.6188
26.6767 43.9139
26.7225 43.8554
26.7684 43.3181
26.8142 42.7566
26.8601 42.1135
26.9059 41.904
26.9519 41.4367
26.9979 41.0792
27.0437 40.6039
27.0896 40.5153
27.1354 40.5021
27.1814 40.4707
27.2272 40.3426
27.2732 40.3188
27.3191 40.068
27.3651 40.1992
27.4109 39.9942
27.4569 40.0536
27.5027 40.074
27.5488 40.3029
27.5946 40.1865
27.6407 40.0227
27.6865 40.006
27.7326 39.6869
27.7784 39.7312
27.8245 39.4884
27.8703 39.7141
27.9164 39.9272
27.9623 39.9604
28.0084 40.2464
28.0543 40.6136
28.1003 40.7342
28.1462 40.6325
28.1923 40.0797
28.2384 39.5078
28.2843 39.325
28.3304 38.9679
28.3764 38.3416
28.4225 38.1498
28.4684 37.8789
28.5145 37.4898
28.5605 37.3701
28.6066 37.3493
28.6526 37.1788
28.6987 37.1734
28.7447 37.0728
28.7908 36.9052
28.8368 36.7742
28.8829 36.9013
28.9289 36.8091
28.9751 36.8215
29.0211 36.5043
29.0673 36.2885
29.1133 36.2002
29.1595 36.0215
29.2055 35.773
29.2517 35.7969
29.2977 35.7247
29.3439 35.6047
29.3899 35.5803
29.4361 35.5425
29.4824 35.4934
29.5284 35.3173
29.5746 34.8971
29.6207 34.6346
29.6669 34.6317
29.713 34.4403
29.7593 34.2375
29.8053 34.3699
29.8516 34.2145
29.8977 34.2471
29.9439 34.0412
29.99 34.0222
30.0363 33.779
30.0824 34.013
30.1287 33.8843
30.1748 33.9285
30.2211 33.7666
30.2673 33.7069
30.3136 33.8784
30.3597 33.7145
30.406 33.5565
30.4522 33.5612
30.4985 33.4785
30.5447 33.6156
30.591 33.4352
30.6372 33.4968
30.6835 33.4733
30.7297 33.5007
30.7761 33.474
30.8224 33.4407
30.8686 33.2709
30.915 33.0217
30.9612 32.88
31.0076 32.7365
31.0538 32.5265
31.1002 32.4659
31.1464 32.3056
31.1928 32.3472
31.2391 32.3323
31.2855 32.1699
31.3317 32.1624
31.3781 32.2381
31.4244 32.0975
31.4708 32.1582
31.5171 32.2113
31.5636 32.154
31.6098 31.8882
31.6563 31.6201
31.7026 31.5712
31.7491 31.4621
31.7953 31.4843
31.8418 31.4478
31.8881 31.3956
31.9346 31.3415
31.9809 31.3165
32.0275 31.2557
32.074 31.0745
32.1203 30.9737
32.1668 30.805
32.2132 30.6829
32.2597 30.5172
32.306 30.5182
32.3526 30.2223
32.399 30.1705
32.4455 30.0544
32.4919 29.9747
32.5385 29.8811
32.5848 29.7671
32.6314 29.7571
32.6778 29.7729
32.7244 29.4672
32.7708 29.4828
32.8174 29.4301
32.8638 29.3032
32.9104 29.296
32.9569 29.2542
33.0035 29.1274
33.0499 29.0407
33.0966 29.0245
33.143 28.9861
33.1897 28.8652
33.2361 28.7958
33.2828 28.7413
33.3293 28.5384
33.3759 28.5239
33.4226 28.3601
33.4691 28.3041
33.5158 28.1721
33.5623 28.0291
33.609 27.8628
33.6555 27.8272
33.7022 27.7812
33.7487 27.6994
33.7954 27.6279
33.842 27.5512
33.8887 27.4233
33.9353 27.3761
33.982 27.3238
34.0286 27.2103
34.0753 27.1473
34.1219 27.0623
34.1687 26.9481
34.2152 26.8893
34.262 26.7195
34.3086 26.6351
34.3554 26.6505
34.402 26.5131
34.4488 26.4868
34.4954 26.3977
34.5422 26.265
34.5889 26.2009
34.6357 26.0716
34.6825 25.9445
34.7292 25.8682
34.776 25.8241
34.8227 25.7752
34.8695 25.7096
34.9162 25.6082
34.9631 25.5607
35.0098 25.5908
35.0566 25.4444
35.1033 25.3348
35.1502 25.3065
35.1969 25.2874
35.2438 25.2444
35.2906 25.049
35.3375 25.0415
35.3842 25.0208
35.4311 25.081
35.4779 24.9492
35.5248 24.8899
35.5716 24.8017
35.6185 24.718
35.6653 24.6468
35.7123 24.5958
35.759 24.5444
35.806 24.392
35.8528 24.2223
35.8998 24.1278
35.9468 24.0509
35.9936 24.0372
36.0406 24.0423
36.0874 23.9424
36.1345 23.8623
36.1813 23.8322
36.2283 23.6943
36.2752 23.6579
36.3222 23.7015
36.3691 23.5507
36.4161 23.4593
36.463 23.3721
36.5101 23.3927
36.557 23.3759
36.6041 23.0939
36.651 23.1371
36.6981 23.045
36.745 22.9705
36.7921 22.9183
36.839 22.7764
36.8861 22.7256
36.9331 22.677
36.9802 22.6112
37.0272 22.5039
37.0743 22.4695
37.1213 22.401
37.1684 22.3157
37.2154 22.3152
37.2626 22.1597
37.3098 22.1114
37.3568 22.0551
37.404 21.9646
37.451 21.831
37.4982 21.8689
37.5452 21.7242
37.5924 21.7217
37.6395 21.7591
37.6867 21.6499
37.7337 21.5288
37.781 21.4233
37.8281 21.3373
37.8753 21.258
37.9224 21.2104
37.9697 21.1629
38.0168 21.0407
38.064 21.0402
38.1111 20.981
38.1584 20.874
38.2056 20.8383
38.2529 20.8158
38.3 20.625
38.3473 20.6985
38.3945 20.498
38.4418 20.5111
38.489 20.4704
38.5363 20.3342
38.5837 20.2722
38.6309 20.1703
38.6782 20.1704
38.7254 20.0644
38.7728 20.0034
38.82 19.9372
38.8674 19.8988
38.9146 19.8957
38.9621 19.8228
39.0093 19.7038
39.0567 19.7159
39.104 19.5597
39.1514 19.5026
39.1987 19.4515
39.2461 19.4043
39.2934 19.3716
39.3409 19.2491
39.3882 19.1804
39.4356 19.1115
39.483 19.1457
39.5304 19.0378
39.5778 19.0163
39.6253 18.8999
39.6726 18.8776
39.7201 18.8295
39.7675 18.7334
39.815 18.716
39.8624 18.5892
39.9099 18.5979
39.9575 18.4689
40.0049 18.4771
40.0525 18.338
40.0999 18.388
40.1474 18.3064
40.1949 18.1838
40.2425 18.1252
40.2899 18.1646
40.3375 18.0169
40.385 17.9991
40.4326 17.9265
40.48 17.8407
40.5277 17.8688
40.5752 17.7543
40.6228 17.6567
40.6703 17.6693
40.718 17.536
40.7655 17.567
40.8132 17.4573
40.8607 17.4477
40.9084 17.4073
40.9559 17.3545
41.0036 17.3099
41.0512 17.1814
41.0989 17.1998
41.1465 17.0874
41.1942 17.038
41.242 16.9756
41.2896 16.8726
41.3373 16.8134
41.3849 16.8273
41.4327 16.733
41.4803 16.6419
41.5281 16.6074
41.5758 16.533
41.6236 16.5336
41.6712 16.422
41.7191 16.4251
41.7667 16.2919
41.8146 16.2887
41.8622 16.2129
41.9101 16.1915
41.9578 16.0632
42.0057 16.1096
42.0534 16.072
42.1013 15.9593
42.149 15.9106
42.1969 15.8805
42.2446 15.8248
42.2925 15.7702
42.3403 15.7264
42.3882 15.6825
42.436 15.6482
42.4839 15.5177
42.5319 15.5117
42.5797 15.4063
42.6277 15.4465
42.6755 15.318
42.7235 15.225
42.7713 15.2583
42.8193 15.1871
42.8671 15.1591
42.9152 15.0567
42.963 15.0334
43.0111 14.9572
43.0589 14.9303
43.107 14.86
43.1549 14.8536
43.2029 14.7602
43.2508 14.7414
43.2989 14.6967
43.3468 14.6055
43.3949 14.523
43.4429 14.548
43.491 14.4619
43.5389 14.4319
43.5871 14.3532
43.635 14.2718
43.6832 14.2808
43.7312 14.148
43.7793 14.1828
43.8273 14.1118
43.8755 14.0975
43.9237 14.0594
43.9717 13.9276
44.0199 13.9006
44.068 13.9069
44.1162 13.8286
44.1642 13.7739
44.2125 13.7131
44.2606 13.671
44.3088 13.6191
44.3569 13.5546
44.4052 13.5614
44.4533 13.5026
44.5016 13.465
44.5497 13.434
44.598 13.3471
44.6461 13.3001
44.6945 13.2834
44.7426 13.2022
44.791 13.1277
44.8391 13.1106
44.8875 13.0635
44.9357 13.0394
44.984 12.9837
45.0322 12.9286
45.0806 12.9277
45.1288 12.8222
45.1773 12.8202
45.2257 12.7692
45.2739 12.6956
45.3224 12.659
45.3706 12.6025
45.4191 12.5651
45.4673 12.5552
45.5158 12.4997
45.5641 12.391
45.6126 12.4009
45.6609 12.332
45.7094 12.271
45.7577 12.2559
45.8063 12.1988
45.8546 12.2046
45.9031 12.099
45.9515 12.0424
46.0001 12.0636
46.0484 11.9827
46.097 11.9826
46.1454 11.9216
46.194 11.8314
46.2424 11.845
46.291 11.7817
46.3395 11.7364
46.3881 11.6437
46.4365 11.6895
46.4852 11.6189
46.5337 11.5598
46.5823 11.5452
46.631 11.4577
46.6795 11.4025
46.7282 11.399
46.7767 11.3436
46.8254 11.2587
46.8739 11.2623
46.9226 11.2317
46.9712 11.1445
47.0199 11.1707
47.0685 11.1402
47.1173 11.0818
47.1658 10.9951
47.2146 10.962
47.2632 10.8983
47.312 10.8905
47.3606 10.8583
47.4095 10.7771
47.4581 10.7909
47.5069 10.7122
47.5556 10.6704
47.6044 10.6299
47.6531 10.6433
47.702 10.5438
47.7507 10.5598
47.7996 10.5099
47.8483 10.4692
47.8972 10.4322
47.9461 10.3862
47.9948 10.3624
48.0438 10.2914
48.0925 10.2885
48.1415 10.2582
48.1902 10.2109
48.2392 10.1858
48.288 10.1559
48.337 10.1069
48.3858 10.0829
48.4348 10.0122
48.4837 9.97496
48.5327 9.96189
48.5815 9.9276
48.6306 9.90932
48.6795 9.83001
48.7285 9.81677
48.7774 9.80308
48.8265 9.74256
48.8754 9.67851
48.9245 9.64313
48.9734 9.63103
49.0226 9.59186
49.0715 9.51747
49.1206 9.52229
49.1696 9.45949
49.2188 9.42342
49.2679 9.41268
49.3169 9.38701
49.3661 9.32695
49.4151 9.30994
49.4643 9.26535
49.5134 9.24704
49.5626 9.18547
49.6117 9.15061
49.6609 9.13977
49.71 9.06692
49.7592 9.03235
49.8083 9.0284
49.8576 9.02331
49.9067 8.9309
49.956 8.90923
50.0052 8.86585
50.0545 8.8647
50.1036 8.80309
50.153 8.81686
50.2022 8.74788
50.2515 8.68583
50.3007 8.67104
50.3501 8.66135
50.3993 8.61996
50.4487 8.56379
50.498 8.54274
50.5474 8.50684
50.5966 8.49841
50.6461 8.44386
50.6955 8.41735
50.7448 8.3823
50.7943 8.33401
50.8436 8.32713
50.8931 8.27529
50.9424 8.22225
50.9919 8.20566
51.0413 8.21014
51.0908 8.17219
51.1402 8.12077
51.1897 8.08937
51.2391 8.01984
51.2887 8.02418
51.3381 7.97178
51.3877 7.95407
51.4371 7.91715
51.4867 7.89461
51.5362 7.85392
51.5858 7.839
51.6353 7.76794
51.6849 7.74492
51.7344 7.71651
51.7841 7.68369
51.8336 7.66699
51.8833 7.64995
51.9328 7.58098
51.9826 7.53091
52.0323 7.5182
52.0818 7.48081
52.1316 7.47051
52.1812 7.42428
52.231 7.40733
52.2806 7.36237
52.3304 7.31151
52.38 7.32274
52.4298 7.31539
52.4794 7.22712
52.5293 7.19879
52.5789 7.16711
52.6288 7.17818
52.6785 7.11187
52.7284 7.07195
52.7781 7.06817
52.828 7.0443
52.8777 7.00476
52.9276 6.95812
52.9774 6.98688
53.0273 6.93588
53.0771 6.87742
53.1271 6.8752
53.1769 6.822
53.2269 6.80994
53.2767 6.76834
53.3267 6.74654
53.3765 6.73684
53.4266 6.71126
53.4766 6.64075
53.5265 6.65488
53.5765 6.61271
53.6264 6.5973
53.6765 6.54684
53.7264 6.50702
53.7765 6.48732
53.8265 6.45876
53.8766 6.4104
53.9266 6.36171
53.9767 6.39683
54.0267 6.37155
54.0769 6.3056
54.1269 6.29818
54.1771 6.24303
54.2271 6.2351
54.2773 6.17186
54.3274 6.1797
54.3776 6.08968
54.4277 6.06527
54.478 6.06222
54.528 5.98585
54.5783 5.9377
54.6285 5.9091
54.6788 5.8613
54.7289 5.8108
54.7792 5.8068
54.8296 5.70566
54.8798 5.70362
54.9301 5.69008
54.9803 5.66386
55.0307 5.60879
55.0809 5.54499
55.1314 5.5295
55.1816 5.45988
55.232 5.39095
55.2823 5.36449
55.3328 5.27488
55.383 5.25515
55.4335 5.24852
55.4838 5.14408
55.5344 5.09299
55.5847 5.08394
55.6352 5.0569
55.6856 5.01474
55.7361 4.97968