File: XRD/Ni3Fe_FD0239.xy
TT I
1.27165 7.69921
1.31627 7.07196
1.36089 7.3335
1.40551 6.86552
1.45013 6.9235
1.49476 6.49422
1.53938 6.3123
1.584 5.72924
1.62863 5.8127
1.67325 5.70088
1.71787 5.41537
1.7625 5.48109
1.80712 5.46886
1.85174 4.98902
1.89636 5.22849
1.94099 4.87004
1.98562 4.65334
2.03025 5.06153
2.07487 4.68596
2.11949 4.87554
2.16411 5.04242
2.20874 5.14706
2.25338 4.39297
2.298 4.55278
2.34263 5.03989
2.38725 4.714
2.43188 4.18292
2.4765 6.00226
2.52115 5.16631
2.56577 5.77975
2.6104 6.19399
2.65503 6.39463
2.69965 6.69848
2.7443 7.08571
2.78893 7.11685
2.83356 7.341
2.87818 8.22046
2.92281 8.02361
2.96744 10.0981
3.01209 9.97919
3.05672 11.3532
3.10135 11.9959
3.14599 12.6504
3.19062 14.2718
3.23527 15.1858
3.2799 16.2661
3.32454 16.7754
3.36917 17.7202
3.4138 18.892
3.45844 19.7703
3.50309 20.858
3.54773 21.7327
3.59237 22.1538
3.637 23.3384
3.68164 24.0086
3.7263 25.0007
3.77094 25.705
3.81558 27.1943
3.86022 27.6079
3.90486 29.2927
3.9495 29.8413
3.99416 30.6407
4.0388 32.3733
4.08344 34.0723
4.12809 35.0312
4.17273 36.4904
4.21738 37.7048
4.26204 39.2118
4.30669 40.6412
4.35133 42.8769
4.39598 44.5268
4.44063 46.2852
4.4853 48.6138
4.52995 52.7431
4.5746 54.4219
4.61925 55.7459
4.6639 58.1989
4.70855 60.9292
4.75322 64.4308
4.79788 68.3946
4.84253 72.0764
4.88719 77.0046
4.93184 81.446
4.97652 88.4887
5.02118 96.4809
5.06583 106.699
5.11049 123.967
5.15515 169.292
5.19981 890.534
5.24449 3964.69
5.28916 10556.0
5.33382 4053.13
5.37848 270.296
5.42315 152.171
5.46783 129.189
5.5125 117.895
5.55716 112.03
5.60183 106.193
5.6465 104.306
5.69117 102.324
5.73586 101.391
5.78053 101.788
5.8252 102.49
5.86988 105.127
5.91455 110.215
5.95924 132.845
6.00392 448.365
6.0486 1430.29
6.09328 3672.24
6.13795 3676.94
6.18263 349.083
6.22733 108.679
6.27201 89.1451
6.3167 80.9315
6.36138 76.0663
6.40606 72.9651
6.45075 71.0906
6.49545 68.4738
6.54014 66.6269
6.58483 65.1478
6.62952 64.2372
6.67421 62.6454
6.71892 61.2037
6.76361 60.7812
6.8083 60.288
6.853 59.5167
6.89769 58.6212
6.94239 57.8389
6.98711 57.2789
7.03181 57.4194
7.07651 56.8603
7.12121 56.2375
7.16591 56.8026
7.21063 55.9315
7.25533 55.4543
7.30004 55.5341
7.34475 55.7365
7.38945 56.2921
7.43416 55.5861
7.47889 55.6869
7.5236 55.9195
7.56831 57.1279
7.61303 57.1041
7.65774 57.1001
7.70247 57.7367
7.74719 58.3931
7.79191 58.8934
7.83663 59.397
7.88135 60.1148
7.92607 61.1243
7.97081 62.3371
8.01553 64.0163
8.06026 65.34
8.10498 66.5209
8.14971 68.8967
8.19446 70.4606
8.23919 72.8917
8.28392 76.2412
8.32865 79.3759
8.37339 84.0393
8.41812 90.2988
8.46288 111.371
8.50761 293.256
8.55235 581.097
8.59709 1079.55
8.64183 1971.42
8.68658 1191.11
8.73134 213.991
8.77609 110.208
8.82083 100.189
8.86558 96.3106
8.91033 93.962
8.9551 90.546
8.99985 89.3439
9.04461 88.3954
9.08936 87.7623
9.13412 86.9664
9.17888 86.6539
9.22365 86.2961
9.26841 86.8172
9.31318 88.1384
9.35794 88.3762
9.4027 88.4321
9.44749 89.0656
9.49226 89.4835
9.53703 91.0231
9.5818 93.0311
9.62657 94.2765
9.67134 95.6978
9.71614 97.7461
9.76091 100.394
9.80569 103.397
9.85047 106.986
9.89525 112.518
9.94005 137.893
9.98484 304.19
10.0296 513.548
10.0744 807.677
10.1192 1462.38
10.164 1685.52
10.2088 537.634
10.2536 147.131
10.2984 117.348
10.3432 112.61
10.388 115.387
10.4328 159.381
10.4776 210.972
10.5224 283.673
10.5672 453.191
10.612 534.826
10.6568 253.82
10.7017 107.549
10.7465 91.8791
10.7913 88.2264
10.8361 85.2416
10.8809 82.8714
10.9257 80.8629
10.9706 79.4741
11.0154 77.7156
11.0602 76.2821
11.105 74.7841
11.1499 72.9374
11.1947 72.2018
11.2395 70.948
11.2844 70.5827
11.3292 69.9357
11.374 68.9066
11.4189 68.6258
11.4637 67.711
11.5086 67.0918
11.5534 66.7282
11.5983 66.1445
11.6431 66.3034
11.688 65.472
11.7328 65.5167
11.7777 65.4197
11.8225 65.256
11.8674 65.1576
11.9122 65.7214
11.9571 66.1916
12.002 68.6999
12.0468 80.1199
12.0917 94.0197
12.1366 109.468
12.1814 141.542
12.2263 193.715
12.2712 181.781
12.3161 102.23
12.3609 69.7351
12.4058 67.0178
12.4507 67.3318
12.4956 67.3444
12.5405 67.2868
12.5853 68.0877
12.6302 68.3821
12.6751 68.8619
12.72 69.5334
12.7649 70.9189
12.8098 71.3559
12.8547 73.0089
12.8996 74.5458
12.9445 76.2645
12.9894 78.464
13.0343 80.6675
13.0792 86.5804
13.1242 111.542
13.1691 146.617
13.214 174.533
13.2589 231.355
13.3038 325.416
13.3487 420.175
13.3937 306.165
13.4386 149.358
13.4835 133.644
13.5285 152.187
13.5734 175.101
13.6183 228.253
13.6633 313.176
13.7082 355.239
13.7531 224.582
13.7981 110.285
13.843 87.0387
13.888 84.0591
13.9329 81.1023
13.9779 79.8624
14.0228 78.444
14.0678 76.7492
14.1127 76.0577
14.1577 75.1244
14.2027 74.6293
14.2476 74.0016
14.2926 73.1467
14.3376 72.9437
14.3825 72.8842
14.4275 72.4266
14.4725 72.2471
14.5175 72.4185
14.5624 72.3369
14.6074 72.7322
14.6524 73.3735
14.6974 74.518
14.7424 81.4044
14.7874 95.1814
14.8324 106.392
14.8774 119.801
14.9224 146.361
14.9674 188.848
15.0124 222.608
15.0574 169.98
15.1024 101.622
15.1474 76.8866
15.1924 73.7256
15.2374 72.1241
15.2824 71.1779
15.3274 70.5697
15.3725 70.0573
15.4175 69.7263
15.4625 69.0968
15.5076 68.906
15.5526 69.2354
15.5976 69.6181
15.6426 75.0863
15.6877 86.0671
15.7327 94.2243
15.7778 103.999
15.8228 122.584
15.8679 153.544
15.9129 189.83
15.958 173.444
16.003 110.135
16.0481 72.4614
16.0931 65.6685
16.1382 63.5882
16.1833 63.0653
16.2283 61.4473
16.2734 60.9332
16.3185 60.0712
16.3636 59.4826
16.4086 58.7182
16.4537 58.5533
16.4988 58.0089
16.5439 57.6066
16.589 57.5806
16.6341 57.3534
16.6792 56.7901
16.7243 57.0697
16.7694 57.2353
16.8145 56.9904
16.8596 57.3206
16.9047 57.3705
16.9498 57.7503
16.9949 58.07
17.04 59.2274
17.0851 61.6502
17.1302 63.6361
17.1754 65.4372
17.2205 68.9794
17.2656 74.1132
17.3108 82.2661
17.3559 86.1391
17.401 76.7553
17.4462 66.4545
17.4913 62.2091
17.5365 61.7395
17.5815 62.1569
17.6268 62.6331
17.6718 63.1336
17.7171 63.6387
17.7622 64.3986
17.8074 66.3774
17.8525 72.3564
17.8977 78.0197
17.9428 82.329
17.9881 88.4617
18.0331 99.3246
18.0784 115.695
18.1237 138.952
18.1688 144.354
18.214 117.78
18.2591 93.1773
18.3044 90.3157
18.3495 97.1271
18.3948 106.541
18.4399 101.14
18.4852 83.1815
18.5303 69.8221
18.5756 65.1343
18.6207 64.2135
18.666 63.3659
18.7112 62.3718
18.7565 61.8479
18.8016 61.5352
18.8469 60.8508
18.892 60.4531
18.9374 59.8996
18.9825 59.7708
19.0278 59.4958
19.073 60.2971
19.1183 61.1787
19.1635 61.7596
19.2088 62.8398
19.254 64.7457
19.2993 67.339
19.3447 71.3311
19.3898 76.4318
19.4352 75.9462
19.4804 68.0056
19.5257 60.2107
19.5709 57.0194
19.6163 56.3052
19.6615 56.2095
19.7068 55.8902
19.752 56.0138
19.7974 56.8223
19.8426 58.1073
19.888 58.5569
19.9332 59.398
19.9786 61.3849
20.0238 64.1016
20.0692 68.4783
20.1144 72.6133
20.1598 72.889
20.205 67.7725
20.2504 64.3134
20.2957 64.4315
20.3411 66.8648
20.3863 67.0061
20.4318 61.9601
20.477 56.6026
20.5224 53.5044
20.5677 52.8028
20.6131 52.3302
20.6586 52.0876
20.7038 51.7169
20.7493 51.2878
20.7945 51.2079
20.84 51.1677
20.8853 51.2438
20.9307 50.9987
20.976 51.504
21.0215 51.2453
21.0668 51.2694
21.1122 51.785
21.1575 52.0811
21.203 52.5857
21.2483 53.3671
21.2938 53.8702
21.3391 52.8254
21.3846 51.5061
21.4299 50.7666
21.4754 50.7507
21.5207 51.0007
21.5662 51.829
21.6116 52.6315
21.6571 53.5805
21.7024 54.1778
21.7479 55.5672
21.7933 57.5812
21.8388 60.2542
21.8843 63.5513
21.9297 66.7191
21.9752 66.7654
22.0206 63.0367
22.0661 58.8888
22.1115 57.6816
22.157 58.3416
22.2024 57.2663
22.248 54.5974
22.2933 52.4573
22.3389 51.3785
22.3843 51.1212
22.4299 51.0144
22.4753 50.9288
22.5208 50.812
22.5662 50.8705
22.6118 51.592
22.6572 51.9489
22.7028 52.4571
22.7483 52.621
22.7939 53.1836
22.8393 54.2219
22.8849 55.621
22.9303 57.2362
22.9759 59.1887
23.0214 59.9897
23.067 57.7549
23.1126 54.2787
23.1581 51.8616
23.2037 51.2775
23.2492 51.8659
23.2948 52.1014
23.3403 52.2199
23.3859 52.5894
23.4314 53.1607
23.477 54.4401
23.5225 55.6286
23.5682 57.7161
23.6137 59.6481
23.6593 58.8521
23.7048 54.7582
23.7505 51.2393
23.796 49.0875
23.8417 48.3299
23.8872 47.6644
23.9329 47.4694
23.9784 46.8951
24.0241 46.6178
24.0697 46.5001
24.1154 46.168
24.1609 46.1345
24.2066 45.734
24.2522 45.7125
24.2979 45.4856
24.3434 45.2665
24.3892 45.1484
24.4349 45.0384
24.4805 44.7356
24.5262 44.9113
24.5718 44.8388
24.6175 45.0319
24.6631 44.8141
24.7089 44.5401
24.7545 44.4422
24.8002 44.2353
24.8458 44.3291
24.8916 44.1239
24.9372 44.5284
24.983 44.6395
25.0286 45.0055
25.0744 45.2092
25.12 45.6186
25.1658 46.2851
25.2114 46.4571
25.2572 46.5027
25.3029 46.3569
25.3487 46.6034
25.3943 46.7617
25.4402 45.7965
25.4858 44.7077
25.5316 43.5336
25.5773 42.9585
25.6231 42.8008
25.669 42.4489
25.7147 42.5467
25.7605 42.312
25.8062 42.4625
25.8521 42.4814
25.8977 42.418
25.9436 42.6412
25.9893 42.608
26.0352 42.9921
26.0809 43.3142
26.1268 43.5627
26.1725 43.4317
26.2184 42.9199
26.2641 42.3519
26.31 42.1878
26.3557 42.1232
26.4017 42.0826
26.4474 42.3705
26.4933 42.5288
26.5391 42.9298
26.585 43.1585
26.6308 43.6317
26.6767 43.9181
26.7225 43.8648
26.7684 43.3243
26.8142 42.6541
26.8601 42.3073
26.9059 42.0037
26.9519 41.3542
26.9979 41.2013
27.0437 40.7566
27.0896 40.48
27.1354 40.5193
27.1814 40.3966
27.2272 40.2817
27.2732 40.4498
27.3191 40.1264
27.3651 40.2854
27.4109 40.0814
27.4569 40.2014
27.5027 40.2435
27.5488 40.3132
27.5946 40.1586
27.6407 40.1486
27.6865 39.9666
27.7326 39.8349
27.7784 39.7789
27.8245 39.6377
27.8703 39.7967
27.9164 39.9184
27.9623 39.968
28.0084 40.2775
28.0543 40.5713
28.1003 40.726
28.1462 40.5882
28.1923 40.1524
28.2384 39.7492
28.2843 39.4278
28.3304 38.9571
28.3764 38.4647
28.4225 38.0503
28.4684 37.7663
28.5145 37.6161
28.5605 37.5113
28.6066 37.378
28.6526 37.2135
28.6987 37.29
28.7447 37.0388
28.7908 36.9719
28.8368 36.8855
28.8829 36.9142
28.9289 36.8704
28.9751 36.6941
29.0211 36.7176
29.0673 36.39
29.1133 36.1397
29.1595 36.0449
29.2055 35.8036
29.2517 35.8187
29.2977 35.7116
29.3439 35.7059
29.3899 35.6989
29.4361 35.6423
29.4824 35.4487
29.5284 35.2643
29.5746 34.9276
29.6207 34.7899
29.6669 34.6114
29.713 34.4593
29.7593 34.3794
29.8053 34.4177
29.8516 34.2744
29.8977 34.3164
29.9439 34.1847
29.99 34.0582
30.0363 33.9705
30.0824 34.0092
30.1287 33.8366
30.1748 33.8885
30.2211 33.7711
30.2673 33.7811
30.3136 33.9085
30.3597 33.7237
30.406 33.6262
30.4522 33.4723
30.4985 33.4947
30.5447 33.6335
30.591 33.4699
30.6372 33.5523
30.6835 33.5196
30.7297 33.6069
30.7761 33.5517
30.8224 33.4229
30.8686 33.2089
30.915 33.0067
30.9612 32.9562
31.0076 32.7688
31.0538 32.6787
31.1002 32.59
31.1464 32.3569
31.1928 32.3297
31.2391 32.4072
31.2855 32.2054
31.3317 32.1562
31.3781 32.268
31.4244 32.273
31.4708 32.2083
31.5171 32.1024
31.5636 32.22
31.6098 31.9663
31.6563 31.819
31.7026 31.589
31.7491 31.4476
31.7953 31.5071
31.8418 31.4567
31.8881 31.3774
31.9346 31.4376
31.9809 31.4151
32.0275 31.2264
32.074 31.1302
32.1203 31.0607
32.1668 30.9409
32.2132 30.7413
32.2597 30.5564
32.306 30.4824
32.3526 30.2964
32.399 30.2763
32.4455 30.1014
32.4919 30.017
32.5385 30.0214
32.5848 29.8595
32.6314 29.8109
32.6778 29.7789
32.7244 29.6243
32.7708 29.446
32.8174 29.4743
32.8638 29.2782
32.9104 29.3987
32.9569 29.2975
33.0035 29.0873
33.0499 29.1105
33.0966 29.0786
33.143 29.0488
33.1897 28.8895
33.2361 28.8476
33.2828 28.8664
33.3293 28.6386
33.3759 28.6089
33.4226 28.4876
33.4691 28.2858
33.5158 28.2554
33.5623 28.181
33.609 28.0149
33.6555 27.9553
33.7022 27.7568
33.7487 27.7165
33.7954 27.6412
33.842 27.578
33.8887 27.5005
33.9353 27.4211
33.982 27.3309
34.0286 27.2508
34.0753 27.2376
34.1219 27.0814
34.1687 27.0069
34.2152 26.8878
34.262 26.7816
34.3086 26.688
34.3554 26.7048
34.402 26.5186
34.4488 26.4315
34.4954 26.3918
34.5422 26.3019
34.5889 26.1457
34.6357 26.1346
34.6825 26.0784
34.7292 25.9721
34.776 25.8759
34.8227 25.8076
34.8695 25.722
34.9162 25.661
34.9631 25.5737
35.0098 25.5466
35.0566 25.4202
35.1033 25.4735
35.1502 25.3523
35.1969 25.2585
35.2438 25.2501
35.2906 25.1266
35.3375 25.1278
35.3842 24.9941
35.4311 25.0622
35.4779 24.9301
35.5248 24.9498
35.5716 24.8941
35.6185 24.7219
35.6653 24.7058
35.7123 24.54
35.759 24.5146
35.806 24.4018
35.8528 24.2668
35.8998 24.2046
35.9468 24.1861
35.9936 24.2049
36.0406 24.0928
36.0874 23.9924
36.1345 23.9269
36.1813 23.8163
36.2283 23.6534
36.2752 23.6042
36.3222 23.6173
36.3691 23.5398
36.4161 23.4061
36.463 23.5174
36.5101 23.4087
36.557 23.3037
36.6041 23.2448
36.651 23.1459
36.6981 23.0488
36.745 22.9648
36.7921 22.9878
36.839 22.8092
36.8861 22.778
36.9331 22.6959
36.9802 22.6256
37.0272 22.5777
37.0743 22.449
37.1213 22.4483
37.1684 22.2875
37.2154 22.2765
37.2626 22.185
37.3098 22.1613
37.3568 22.0823
37.404 22.1013
37.451 21.8874
37.4982 21.858
37.5452 21.8083
37.5924 21.7742
37.6395 21.7789
37.6867 21.6174
37.7337 21.4797
37.781 21.3748
37.8281 21.413
37.8753 21.234
37.9224 21.2644
37.9697 21.1809
38.0168 21.1102
38.064 21.0185
38.1111 20.9306
38.1584 20.8347
38.2056 20.8164
38.2529 20.7626
38.3 20.7087
38.3473 20.7
38.3945 20.5448
38.4418 20.5319
38.489 20.5246
38.5363 20.327
38.5837 20.2931
38.6309 20.1965
38.6782 20.1616
38.7254 20.0959
38.7728 20.0723
38.82 19.9998
38.8674 19.8998
38.9146 19.8481
38.9621 19.8484
39.0093 19.74
39.0567 19.722
39.104 19.5662
39.1514 19.6307
39.1987 19.544
39.2461 19.4774
39.2934 19.4
39.3409 19.2994
39.3882 19.2498
39.4356 19.1214
39.483 19.1143
39.5304 19.0565
39.5778 18.9691
39.6253 18.9762
39.6726 18.8534
39.7201 18.862
39.7675 18.789
39.815 18.6912
39.8624 18.5473
39.9099 18.6471
39.9575 18.4752
40.0049 18.4263
40.0525 18.3548
40.0999 18.3362
40.1474 18.3146
40.1949 18.2029
40.2425 18.1632
40.2899 18.1941
40.3375 18.081
40.385 17.9886
40.4326 17.989
40.48 17.8641
40.5277 17.8933
40.5752 17.7588
40.6228 17.7009
40.6703 17.6583
40.718 17.6047
40.7655 17.5684
40.8132 17.4721
40.8607 17.5107
40.9084 17.4085
40.9559 17.3451
41.0036 17.3003
41.0512 17.2301
41.0989 17.1485
41.1465 17.1193
41.1942 17.0599
41.242 16.9646
41.2896 16.9012
41.3373 16.8894
41.3849 16.7784
41.4327 16.7275
41.4803 16.6712
41.5281 16.624
41.5758 16.5383
41.6236 16.4643
41.6712 16.4788
41.7191 16.4269
41.7667 16.4158
41.8146 16.3246
41.8622 16.2422
41.9101 16.2278
41.9578 16.0675
42.0057 16.091
42.0534 16.0495
42.1013 16.022
42.149 15.9601
42.1969 15.8661
42.2446 15.8148
42.2925 15.8011
42.3403 15.682
42.3882 15.7415
42.436 15.6615
42.4839 15.57
42.5319 15.5043
42.5797 15.4453
42.6277 15.4539
42.6755 15.3904
42.7235 15.2889
42.7713 15.2403
42.8193 15.1544
42.8671 15.1662
42.9152 15.0832
42.963 15.0656
43.0111 14.9733
43.0589 14.9419
43.107 14.8919
43.1549 14.8123
43.2029 14.75
43.2508 14.7541
43.2989 14.643
43.3468 14.5777
43.3949 14.5463
43.4429 14.5118
43.491 14.4819
43.5389 14.4168
43.5871 14.3711
43.635 14.2773
43.6832 14.2727
43.7312 14.1997
43.7793 14.1823
43.8273 14.1887
43.8755 14.0577
43.9237 14.0179
43.9717 13.998
44.0199 13.942
44.068 13.8875
44.1162 13.8437
44.1642 13.8144
44.2125 13.7428
44.2606 13.6921
44.3088 13.6416
44.3569 13.5845
44.4052 13.5426
44.4533 13.5232
44.5016 13.4422
44.5497 13.4779
44.598 13.3398
44.6461 13.3255
44.6945 13.2383
44.7426 13.1769
44.791 13.1543
44.8391 13.1614
44.8875 13.0739
44.9357 13.0373
44.984 12.9773
45.0322 12.9419
45.0806 12.8638
45.1288 12.8979
45.1773 12.8464
45.2257 12.757
45.2739 12.7506
45.3224 12.7016
45.3706 12.6328
45.4191 12.5943
45.4673 12.5702
45.5158 12.4974
45.5641 12.4274
45.6126 12.4298
45.6609 12.3337
45.7094 12.3038
45.7577 12.2998
45.8063 12.188
45.8546 12.1888
45.9031 12.1201
45.9515 12.0906
46.0001 12.0695
46.0484 12.0044
46.097 11.996
46.1454 11.945
46.194 11.9273
46.2424 11.7855
46.291 11.7822
46.3395 11.7715
46.3881 11.7123
46.4365 11.7013
46.4852 11.6449
46.5337 11.5766
46.5823 11.5635
46.631 11.4939
46.6795 11.4767
46.7282 11.4161
46.7767 11.3581
46.8254 11.2907
46.8739 11.277
46.9226 11.2735
46.9712 11.1875
47.0199 11.1468
47.0685 11.1101
47.1173 11.0472
47.1658 11.0167
47.2146 11.008
47.2632 10.941
47.312 10.8959
47.3606 10.854
47.4095 10.8105
47.4581 10.7642
47.5069 10.7232
47.5556 10.7368
47.6044 10.6832
47.6531 10.6232
47.702 10.5459
47.7507 10.5395
47.7996 10.4958
47.8483 10.5003
47.8972 10.4665
47.9461 10.3946
47.9948 10.3349
48.0438 10.3241
48.0925 10.296
48.1415 10.214
48.1902 10.205
48.2392 10.1895
48.288 10.1582
48.337 10.1231
48.3858 10.0567
48.4348 10.0304
48.4837 9.99944
48.5327 9.94876
48.5815 9.93968
48.6306 9.90164
48.6795 9.87129
48.7285 9.81834
48.7774 9.75668
48.8265 9.74327
48.8754 9.69028
48.9245 9.68491
48.9734 9.59861
49.0226 9.63389
49.0715 9.5121
49.1206 9.50811
49.1696 9.44946
49.2188 9.45476
49.2679 9.4373
49.3169 9.38084
49.3661 9.31062
49.4151 9.3013
49.4643 9.30134
49.5134 9.26118
49.5626 9.17482
49.6117 9.14895
49.6609 9.12993
49.71 9.07087
49.7592 9.06948
49.8083 8.99798
49.8576 8.98306
49.9067 8.94685
49.956 8.92675
50.0052 8.84851
50.0545 8.87751
50.1036 8.80953
50.153 8.77151
50.2022 8.76058
50.2515 8.75386
50.3007 8.64698
50.3501 8.64363
50.3993 8.62868
50.4487 8.56951
50.498 8.56029
50.5474 8.52891
50.5966 8.49221
50.6461 8.4408
50.6955 8.40343
50.7448 8.36955
50.7943 8.35778
50.8436 8.3098
50.8931 8.30699
50.9424 8.26015
50.9919 8.18262
51.0413 8.19866
51.0908 8.18129
51.1402 8.10167
51.1897 8.11269
51.2391 8.04636
51.2887 8.00116
51.3381 7.98715
51.3877 7.96249
51.4371 7.90289
51.4867 7.89547
51.5362 7.88283
51.5858 7.83549
51.6353 7.76402
51.6849 7.75697
51.7344 7.74549
51.7841 7.69891
51.8336 7.65688
51.8833 7.6347
51.9328 7.5767
51.9826 7.58826
52.0323 7.54982
52.0818 7.53771
52.1316 7.47455
52.1812 7.45245
52.231 7.40856
52.2806 7.39461
52.3304 7.36403
52.38 7.33258
52.4298 7.2762
52.4794 7.24668
52.5293 7.2149
52.5789 7.2079
52.6288 7.20495
52.6785 7.11042
52.7284 7.15949
52.7781 7.08546
52.828 7.07377
52.8777 7.02056
52.9276 6.99177
52.9774 6.991
53.0273 6.90697
53.0771 6.92181
53.1271 6.90478
53.1769 6.87045
53.2269 6.8511
53.2767 6.80879
53.3267 6.74884
53.3765 6.74968
53.4266 6.74719
53.4766 6.71469
53.5265 6.64101
53.5765 6.63151
53.6264 6.59395
53.6765 6.54321
53.7264 6.52742
53.7765 6.5178
53.8265 6.47902
53.8766 6.44994
53.9266 6.41567
53.9767 6.36881
54.0267 6.30753
54.0769 6.316
54.1269 6.3153
54.1771 6.28059
54.2271 6.17962
54.2773 6.19188
54.3274 6.14968
54.3776 6.11985
54.4277 6.09738
54.478 6.07507
54.528 5.98375
54.5783 5.94807
54.6285 5.85499
54.6788 5.90645
54.7289 5.83984
54.7792 5.81336
54.8296 5.71233
54.8798 5.73161
54.9301 5.67876
54.9803 5.63327
55.0307 5.62604
55.0809 5.578
55.1314 5.50837
55.1816 5.45655
55.232 5.43314
55.2823 5.35902
55.3328 5.30186
55.383 5.26551
55.4335 5.24314
55.4838 5.11308
55.5344 5.12598
55.5847 5.0545
55.6352 5.0319
55.6856 5.0085
55.7361 5.00147