File: XRD/Ni3Fe_FD0878.xy
TT I
1.27165 7.22487
1.31627 6.59925
1.36089 6.95372
1.40551 6.33879
1.45013 6.32757
1.49476 6.1569
1.53938 5.83488
1.584 5.14878
1.62863 5.06452
1.67325 4.89698
1.71787 5.06058
1.7625 5.27053
1.80712 5.0507
1.85174 4.64032
1.89636 4.70773
1.94099 4.96356
1.98562 5.24633
2.03025 4.53261
2.07487 4.47477
2.11949 4.76035
2.16411 5.06012
2.20874 16.2693
2.25338 27.1764
2.298 6.49952
2.34263 5.37785
2.38725 6.37974
2.43188 6.15993
2.4765 7.27527
2.52115 7.71823
2.56577 7.66535
2.6104 8.05882
2.65503 8.187
2.69965 8.6725
2.7443 8.35642
2.78893 8.30156
2.83356 8.56036
2.87818 9.2477
2.92281 9.10664
2.96744 9.6733
3.01209 10.6538
3.05672 11.1007
3.10135 12.1574
3.14599 12.9517
3.19062 14.115
3.23527 15.1487
3.2799 15.8647
3.32454 16.8232
3.36917 17.6389
3.4138 19.1391
3.45844 19.3668
3.50309 21.0128
3.54773 22.007
3.59237 24.0665
3.637 106.228
3.68164 67.1775
3.7263 26.2669
3.77094 26.1024
3.81558 27.0373
3.86022 27.6543
3.90486 28.9087
3.9495 29.5425
3.99416 30.5862
4.0388 32.219
4.08344 33.7335
4.12809 35.1908
4.17273 37.2772
4.21738 43.7901
4.26204 288.621
4.30669 260.971
4.35133 49.9942
4.39598 44.2421
4.44063 55.0512
4.4853 69.448
4.52995 50.1457
4.5746 50.5285
4.61925 52.4423
4.6639 54.8787
4.70855 57.7565
4.75322 60.1999
4.79788 62.489
4.84253 66.1247
4.88719 69.8738
4.93184 73.3914
4.97652 78.5908
5.02118 84.5284
5.06583 91.6974
5.11049 101.357
5.15515 174.339
5.19981 289.308
5.24449 2363.87
5.28916 12907.5
5.33382 2968.48
5.37848 179.999
5.42315 125.157
5.46783 110.835
5.5125 103.684
5.55716 99.8627
5.60183 96.7495
5.6465 95.2024
5.69117 92.8759
5.73586 90.1404
5.78053 89.3003
5.8252 88.7925
5.86988 89.3351
5.91455 90.723
5.95924 96.3469
6.00392 168.732
6.0486 810.985
6.09328 4343.47
6.13795 3251.38
6.18263 233.065
6.22733 90.472
6.27201 81.6237
6.3167 106.44
6.36138 81.6543
6.40606 68.1835
6.45075 66.5177
6.49545 64.6202
6.54014 63.3756
6.58483 62.3915
6.62952 62.2059
6.67421 98.4026
6.71892 160.863
6.76361 71.0286
6.8083 58.1781
6.853 56.9089
6.89769 56.4562
6.94239 56.2694
6.98711 55.2151
7.03181 54.9838
7.07651 55.147
7.12121 54.7807
7.16591 54.9004
7.21063 55.1472
7.25533 72.6108
7.30004 203.098
7.34475 99.8189
7.38945 56.877
7.43416 54.4328
7.47889 54.0817
7.5236 54.4937
7.56831 54.8587
7.61303 56.8949
7.65774 57.0223
7.70247 55.5086
7.74719 55.4885
7.79191 56.0319
7.83663 55.9756
7.88135 57.2764
7.92607 57.886
7.97081 59.0791
8.01553 60.0285
8.06026 61.4887
8.10498 63.1594
8.14971 74.0723
8.19446 72.8316
8.23919 68.4893
8.28392 70.8884
8.32865 72.653
8.37339 76.5164
8.41812 83.5301
8.46288 114.643
8.50761 144.164
8.55235 320.564
8.59709 1091.35
8.64183 2259.18
8.68658 997.432
8.73134 171.324
8.77609 97.6838
8.82083 90.9181
8.86558 88.2041
8.91033 89.1513
8.9551 91.5342
8.99985 84.0088
9.04461 82.3179
9.08936 81.6447
9.13412 80.7159
9.17888 80.6339
9.22365 81.6886
9.26841 80.33
9.31318 81.3543
9.35794 81.1805
9.4027 81.6276
9.44749 82.2624
9.49226 83.0321
9.53703 83.6097
9.5818 85.6012
9.62657 91.0185
9.67134 98.8066
9.71614 92.5668
9.76091 92.0927
9.80569 94.4491
9.85047 98.0504
9.89525 125.136
9.94005 138.005
9.98484 155.193
10.0296 293.11
10.0744 734.357
10.1192 1741.79
10.164 1643.27
10.2088 409.334
10.2536 125.022
10.2984 112.137
10.3432 115.432
10.388 102.95
10.4328 110.556
10.4776 145.83
10.5224 262.984
10.5672 516.633
10.612 510.043
10.6568 202.034
10.7017 95.7389
10.7465 85.304
10.7913 81.9175
10.8361 79.753
10.8809 77.6813
10.9257 77.4943
10.9706 78.6932
11.0154 73.9539
11.0602 71.7903
11.105 70.7503
11.1499 76.4534
11.1947 85.2397
11.2395 75.1447
11.2844 70.1535
11.3292 66.4209
11.374 65.543
11.4189 64.6279
11.4637 64.2471
11.5086 64.773
11.5534 68.2928
11.5983 65.2744
11.6431 62.8882
11.688 62.0807
11.7328 62.2602
11.7777 62.1023
11.8225 61.6029
11.8674 61.718
11.9122 61.9127
11.9571 61.7816
12.002 62.293
12.0468 65.195
12.0917 74.9131
12.1366 97.0352
12.1814 148.443
12.2263 209.253
12.2712 169.84
12.3161 99.0265
12.3609 71.3109
12.4058 64.0261
12.4507 63.3766
12.4956 63.3566
12.5405 63.6161
12.5853 65.0037
12.6302 73.9136
12.6751 80.5835
12.72 69.9908
12.7649 66.9526
12.8098 67.0492
12.8547 68.6842
12.8996 69.6779
12.9445 70.7496
12.9894 72.7607
13.0343 74.1885
13.0792 76.9883
13.1242 83.7603
13.1691 104.318
13.214 136.601
13.2589 223.112
13.3038 369.389
13.3487 430.152
13.3937 264.829
13.4386 124.041
13.4835 100.294
13.5285 112.26
13.5734 146.955
13.6183 238.339
13.6633 353.485
13.7082 349.762
13.7531 186.141
13.7981 96.1242
13.843 80.4003
13.888 78.1956
13.9329 76.1028
13.9779 74.7492
14.0228 73.1722
14.0678 71.7918
14.1127 71.3927
14.1577 71.5995
14.2027 70.6249
14.2476 69.2044
14.2926 69.4896
14.3376 71.1629
14.3825 69.4028
14.4275 67.7246
14.4725 67.6681
14.5175 67.8196
14.5624 68.1675
14.6074 70.3691
14.6524 70.9949
14.6974 69.2525
14.7424 70.0394
14.7874 75.0916
14.8324 84.0345
14.8774 104.295
14.9224 147.579
14.9674 208.143
15.0124 217.704
15.0574 147.879
15.1024 89.9983
15.1474 71.3732
15.1924 69.4163
15.2374 70.5607
15.2824 69.6539
15.3274 67.3921
15.3725 66.0525
15.4175 65.255
15.4625 64.9803
15.5076 65.3794
15.5526 65.4373
15.5976 64.7581
15.6426 64.9666
15.6877 69.2318
15.7327 75.7275
15.7778 89.8404
15.8228 121.004
15.8679 167.577
15.9129 194.942
15.958 156.439
16.003 95.1173
16.0481 67.2676
16.0931 64.0659
16.1382 62.3013
16.1833 59.9529
16.2283 58.0742
16.2734 57.5744
16.3185 58.0931
16.3636 59.1721
16.4086 57.3682
16.4537 55.4469
16.4988 54.7846
16.5439 54.7264
16.589 54.2929
16.6341 54.0351
16.6792 53.7127
16.7243 54.1439
16.7694 54.1015
16.8145 54.0865
16.8596 54.7215
16.9047 56.3333
16.9498 56.716
16.9949 54.9577
17.04 54.9456
17.0851 55.8892
17.1302 57.3017
17.1754 60.0994
17.2205 64.8258
17.2656 72.7717
17.3108 82.4439
17.3559 81.6557
17.401 70.0928
17.4462 60.9176
17.4913 58.0651
17.5365 58.0222
17.5815 58.2448
17.6268 58.5995
17.6718 59.4383
17.7171 60.0961
17.7622 60.1933
17.8074 60.6862
17.8525 62.2736
17.8977 65.8317
17.9428 70.5551
17.9881 78.7934
18.0331 95.9623
18.0784 119.805
18.1237 138.462
18.1688 129.879
18.214 101.823
18.2591 84.3924
18.3044 88.5575
18.3495 99.7526
18.3948 105.515
18.4399 95.7299
18.4852 76.6626
18.5303 65.1135
18.5756 61.4164
18.6207 60.5171
18.666 59.3704
18.7112 58.8259
18.7565 58.2612
18.8016 57.6508
18.8469 57.2284
18.892 56.7485
18.9374 56.2111
18.9825 56.0656
19.0278 55.9928
19.073 56.1912
19.1183 56.3344
19.1635 57.1146
19.2088 58.166
19.254 60.5983
19.2993 65.1357
19.3447 72.0985
19.3898 76.4041
19.4352 71.9342
19.4804 62.5342
19.5257 56.0553
19.5709 53.565
19.6163 53.0526
19.6615 53.0153
19.7068 52.6713
19.752 52.4662
19.7974 52.4968
19.8426 53.4962
19.888 53.8734
19.9332 55.102
19.9786 57.3261
20.0238 61.0505
20.0692 66.2702
20.1144 69.476
20.1598 67.2328
20.205 62.3488
20.2504 61.1676
20.2957 63.3741
20.3411 65.3128
20.3863 63.8139
20.4318 57.9622
20.477 53.2013
20.5224 51.2358
20.5677 50.43
20.6131 49.5812
20.6586 48.8525
20.7038 48.8742
20.7493 48.5411
20.7945 48.2216
20.84 48.3549
20.8853 48.0687
20.9307 47.8612
20.976 47.9197
21.0215 47.8812
21.0668 48.2264
21.1122 48.831
21.1575 49.3813
21.203 50.2684
21.2483 50.8045
21.2938 50.7181
21.3391 49.3976
21.3846 48.3045
21.4299 47.8792
21.4754 47.7653
21.5207 47.8271
21.5662 47.8955
21.6116 48.1862
21.6571 48.9228
21.7024 49.6221
21.7479 51.3099
21.7933 54.0609
21.8388 57.8574
21.8843 61.9506
21.9297 63.9827
21.9752 62.393
22.0206 58.9765
22.0661 56.0695
22.1115 55.6085
22.157 55.3074
22.2024 53.7077
22.248 50.9182
22.2933 49.2523
22.3389 48.4462
22.3843 48.4827
22.4299 48.5012
22.4753 48.177
22.5208 47.9859
22.5662 47.8683
22.6118 47.8866
22.6572 47.9988
22.7028 48.6195
22.7483 48.7943
22.7939 49.4287
22.8393 50.9477
22.8849 53.1048
22.9303 55.379
22.9759 57.4165
23.0214 56.9617
23.067 53.9627
23.1126 50.4883
23.1581 48.6473
23.2037 48.1387
23.2492 48.0029
23.2948 47.8968
23.3403 48.3195
23.3859 48.7425
23.4314 49.7559
23.477 51.4132
23.5225 53.8547
23.5682 56.3701
23.6137 57.5074
23.6593 55.2319
23.7048 51.0783
23.7505 47.868
23.796 46.1809
23.8417 45.5252
23.8872 44.9205
23.9329 44.7109
23.9784 44.2412
24.0241 44.2121
24.0697 43.8289
24.1154 43.5251
24.1609 43.4867
24.2066 43.2337
24.2522 43.0919
24.2979 42.9512
24.3434 42.7976
24.3892 42.6275
24.4349 42.4406
24.4805 42.4791
24.5262 42.7598
24.5718 42.2788
24.6175 42.4871
24.6631 42.3578
24.7089 42.0306
24.7545 41.7127
24.8002 41.6025
24.8458 41.5153
24.8916 41.4633
24.9372 41.7057
24.983 41.8525
25.0286 42.216
25.0744 42.693
25.12 43.2109
25.1658 43.7027
25.2114 44.0669
25.2572 44.1903
25.3029 44.2059
25.3487 44.4944
25.3943 44.0565
25.4402 42.9874
25.4858 41.945
25.5316 40.8869
25.5773 40.4185
25.6231 40.3144
25.669 39.9011
25.7147 39.963
25.7605 39.9585
25.8062 40.009
25.8521 40.0832
25.8977 40.0254
25.9436 40.2618
25.9893 40.4109
26.0352 40.8844
26.0809 40.9066
26.1268 41.1352
26.1725 40.8391
26.2184 40.2143
26.2641 39.6687
26.31 39.6347
26.3557 39.6038
26.4017 39.5957
26.4474 39.7966
26.4933 40.0639
26.5391 40.627
26.585 41.0919
26.6308 41.5758
26.6767 41.6864
26.7225 41.4074
26.7684 40.9454
26.8142 40.344
26.8601 39.936
26.9059 39.6054
26.9519 38.7744
26.9979 38.7128
27.0437 38.2798
27.0896 38.1992
27.1354 38.2067
27.1814 38.0168
27.2272 38.023
27.2732 38.0922
27.3191 37.7236
27.3651 38.0021
27.4109 37.9231
27.4569 38.0347
27.5027 38.0241
27.5488 38.0948
27.5946 37.7941
27.6407 37.7231
27.6865 37.7056
27.7326 37.3838
27.7784 37.3577
27.8245 37.3086
27.8703 37.4562
27.9164 37.7523
27.9623 37.8859
28.0084 38.1806
28.0543 38.6651
28.1003 38.5981
28.1462 38.2956
28.1923 38.0011
28.2384 37.5314
28.2843 37.1136
28.3304 36.7746
28.3764 36.2794
28.4225 35.8952
28.4684 35.7245
28.5145 35.5473
28.5605 35.4824
28.6066 35.2257
28.6526 35.2029
28.6987 35.212
28.7447 34.996
28.7908 34.9476
28.8368 35.0344
28.8829 34.9303
28.9289 34.7932
28.9751 34.747
29.0211 34.473
29.0673 34.1457
29.1133 34.0815
29.1595 33.9212
29.2055 33.9458
29.2517 33.9454
29.2977 33.8124
29.3439 33.8422
29.3899 33.8965
29.4361 33.7595
29.4824 33.585
29.5284 33.2671
29.5746 32.9911
29.6207 32.7436
29.6669 32.6868
29.713 32.6443
29.7593 32.3911
29.8053 32.5336
29.8516 32.302
29.8977 32.3676
29.9439 32.2333
29.99 32.1165
30.0363 32.1339
30.0824 32.1522
30.1287 31.966
30.1748 32.0894
30.2211 32.0498
30.2673 31.9071
30.3136 31.973
30.3597 31.867
30.406 31.6927
30.4522 31.6735
30.4985 31.6247
30.5447 31.7462
30.591 31.6971
30.6372 31.8654
30.6835 31.7681
30.7297 31.8207
30.7761 31.8292
30.8224 31.6031
30.8686 31.4258
30.915 31.1972
30.9612 31.0992
31.0076 30.9242
31.0538 30.7574
31.1002 30.6929
31.1464 30.4437
31.1928 30.4964
31.2391 30.567
31.2855 30.4809
31.3317 30.5025
31.3781 30.5166
31.4244 30.4782
31.4708 30.4139
31.5171 30.405
31.5636 30.3295
31.6098 30.0906
31.6563 30.052
31.7026 29.8608
31.7491 29.7401
31.7953 29.7972
31.8418 29.7804
31.8881 29.8267
31.9346 29.7273
31.9809 29.6923
32.0275 29.5257
32.074 29.4624
32.1203 29.3017
32.1668 29.192
32.2132 29.0056
32.2597 28.8677
32.306 28.8234
32.3526 28.6562
32.399 28.5227
32.4455 28.4336
32.4919 28.3666
32.5385 28.2464
32.5848 28.1623
32.6314 28.1294
32.6778 28.205
32.7244 27.9198
32.7708 27.7867
32.8174 27.8055
32.8638 27.6057
32.9104 27.7448
32.9569 27.6889
33.0035 27.5008
33.0499 27.5046
33.0966 27.4467
33.143 27.4389
33.1897 27.3117
33.2361 27.2482
33.2828 27.2688
33.3293 27.0621
33.3759 27.0527
33.4226 26.8986
33.4691 26.6941
33.5158 26.6945
33.5623 26.5099
33.609 26.4297
33.6555 26.3953
33.7022 26.246
33.7487 26.1603
33.7954 26.1404
33.842 26.0727
33.8887 26.0619
33.9353 25.9274
33.982 25.836
34.0286 25.7414
34.0753 25.6309
34.1219 25.636
34.1687 25.5546
34.2152 25.4307
34.262 25.2429
34.3086 25.3338
34.3554 25.1723
34.402 25.1186
34.4488 24.9662
34.4954 24.9039
34.5422 24.786
34.5889 24.8166
34.6357 24.6235
34.6825 24.6102
34.7292 24.5746
34.776 24.4165
34.8227 24.345
34.8695 24.3447
34.9162 24.2055
34.9631 24.1569
35.0098 24.1822
35.0566 24.0257
35.1033 24.0713
35.1502 23.988
35.1969 23.9481
35.2438 23.8639
35.2906 23.8837
35.3375 23.7413
35.3842 23.7272
35.4311 23.713
35.4779 23.7422
35.5248 23.6164
35.5716 23.5202
35.6185 23.4317
35.6653 23.3917
35.7123 23.2732
35.759 23.1862
35.806 23.0361
35.8528 23.0135
35.8998 22.9974
35.9468 22.8169
35.9936 22.7572
36.0406 22.6878
36.0874 22.6309
36.1345 22.6758
36.1813 22.5438
36.2283 22.4422
36.2752 22.2283
36.3222 22.4177
36.3691 22.2999
36.4161 22.1518
36.463 22.2478
36.5101 22.0977
36.557 22.0886
36.6041 21.8603
36.651 21.9263
36.6981 21.872
36.745 21.7967
36.7921 21.7139
36.839 21.5536
36.8861 21.5401
36.9331 21.488
36.9802 21.4167
37.0272 21.2991
37.0743 21.2173
37.1213 21.2209
37.1684 21.1379
37.2154 21.1133
37.2626 21.0223
37.3098 20.9192
37.3568 20.8648
37.404 20.8706
37.451 20.7017
37.4982 20.6907
37.5452 20.5711
37.5924 20.4827
37.6395 20.5744
37.6867 20.4798
37.7337 20.3712
37.781 20.2844
37.8281 20.2536
37.8753 20.1362
37.9224 20.0802
37.9697 19.9709
38.0168 20.0182
38.064 19.8525
38.1111 19.8477
38.1584 19.7561
38.2056 19.6952
38.2529 19.7314
38.3 19.5939
38.3473 19.5729
38.3945 19.3792
38.4418 19.4556
38.489 19.4618
38.5363 19.2662
38.5837 19.1588
38.6309 19.1392
38.6782 19.0927
38.7254 19.0467
38.7728 18.956
38.82 18.9282
38.8674 18.8671
38.9146 18.7927
38.9621 18.7405
39.0093 18.7067
39.0567 18.6128
39.104 18.525
39.1514 18.4037
39.1987 18.421
39.2461 18.3756
39.2934 18.3203
39.3409 18.248
39.3882 18.1652
39.4356 18.1204
39.483 18.1173
39.5304 18.0434
39.5778 17.9924
39.6253 17.9358
39.6726 17.8726
39.7201 17.8121
39.7675 17.7739
39.815 17.7295
39.8624 17.6084
39.9099 17.6272
39.9575 17.5067
40.0049 17.5077
40.0525 17.4053
40.0999 17.4134
40.1474 17.2769
40.1949 17.2491
40.2425 17.1733
40.2899 17.2128
40.3375 17.079
40.385 16.9736
40.4326 16.9697
40.48 16.9034
40.5277 16.9189
40.5752 16.8244
40.6228 16.7191
40.6703 16.734
40.718 16.6996
40.7655 16.6144
40.8132 16.5291
40.8607 16.5219
40.9084 16.4833
40.9559 16.4179
41.0036 16.3323
41.0512 16.3211
41.0989 16.3043
41.1465 16.2113
41.1942 16.167
41.242 16.0899
41.2896 16.1031
41.3373 15.9356
41.3849 15.905
41.4327 15.9078
41.4803 15.7778
41.5281 15.7876
41.5758 15.6686
41.6236 15.6549
41.6712 15.6439
41.7191 15.5702
41.7667 15.553
41.8146 15.4804
41.8622 15.3803
41.9101 15.3361
41.9578 15.2502
42.0057 15.2315
42.0534 15.2102
42.1013 15.1927
42.149 15.0895
42.1969 15.0214
42.2446 14.9879
42.2925 14.9599
42.3403 14.8879
42.3882 14.8688
42.436 14.8325
42.4839 14.7549
42.5319 14.7223
42.5797 14.6395
42.6277 14.5768
42.6755 14.5416
42.7235 14.4504
42.7713 14.4708
42.8193 14.41
42.8671 14.3076
42.9152 14.3219
42.963 14.2616
43.0111 14.1618
43.0589 14.2013
43.107 14.0642
43.1549 14.0533
43.2029 14.0031
43.2508 13.997
43.2989 13.9187
43.3468 13.8516
43.3949 13.7971
43.4429 13.7805
43.491 13.6782
43.5389 13.6763
43.5871 13.6411
43.635 13.5875
43.6832 13.5379
43.7312 13.5188
43.7793 13.436
43.8273 13.3923
43.8755 13.3905
43.9237 13.3282
43.9717 13.2416
44.0199 13.2006
44.068 13.1444
44.1162 13.0844
44.1642 13.0644
44.2125 13.0483
44.2606 12.9938
44.3088 12.9692
44.3569 12.8808
44.4052 12.872
44.4533 12.8262
44.5016 12.7101
44.5497 12.7131
44.598 12.6516
44.6461 12.6001
44.6945 12.5983
44.7426 12.5638
44.791 12.449
44.8391 12.4157
44.8875 12.3771
44.9357 12.3888
44.984 12.3151
45.0322 12.3296
45.0806 12.2265
45.1288 12.1762
45.1773 12.1327
45.2257 12.095
45.2739 12.0505
45.3224 12.0025
45.3706 11.9685
45.4191 11.9288
45.4673 11.8981
45.5158 11.9246
45.5641 11.8296
45.6126 11.7566
45.6609 11.7203
45.7094 11.654
45.7577 11.6515
45.8063 11.5788
45.8546 11.5823
45.9031 11.5145
45.9515 11.5158
46.0001 11.4136
46.0484 11.374
46.097 11.3825
46.1454 11.319
46.194 11.288
46.2424 11.229
46.291 11.2
46.3395 11.1416
46.3881 11.1007
46.4365 11.0665
46.4852 11.0071
46.5337 10.9811
46.5823 10.9731
46.631 10.9049
46.6795 10.8164
46.7282 10.8364
46.7767 10.7981
46.8254 10.7247
46.8739 10.7152
46.9226 10.6739
46.9712 10.5936
47.0199 10.5967
47.0685 10.5649
47.1173 10.4761
47.1658 10.4965
47.2146 10.4572
47.2632 10.3697
47.312 10.3777
47.3606 10.3273
47.4095 10.2571
47.4581 10.2602
47.5069 10.2095
47.5556 10.1611
47.6044 10.1239
47.6531 10.099
47.702 10.0402
47.7507 10.0103
47.7996 10.0021
47.8483 9.92456
47.8972 9.93177
47.9461 9.90321
47.9948 9.82379
48.0438 9.82982
48.0925 9.80881
48.1415 9.75155
48.1902 9.68707
48.2392 9.69344
48.288 9.64297
48.337 9.59473
48.3858 9.53412
48.4348 9.53986
48.4837 9.49418
48.5327 9.45625
48.5815 9.43421
48.6306 9.38888
48.6795 9.3613
48.7285 9.32399
48.7774 9.28622
48.8265 9.2678
48.8754 9.20262
48.9245 9.17443
48.9734 9.13527
49.0226 9.09157
49.0715 9.11438
49.1206 9.05171
49.1696 9.00956
49.2188 8.99456
49.2679 8.9532
49.3169 8.90692
49.3661 8.86371
49.4151 8.84741
49.4643 8.8228
49.5134 8.73025
49.5626 8.73542
49.6117 8.6935
49.6609 8.66896
49.71 8.66645
49.7592 8.58772
49.8083 8.55457
49.8576 8.52851
49.9067 8.49376
49.956 8.48361
50.0052 8.45227
50.0545 8.43067
50.1036 8.35669
50.153 8.32435
50.2022 8.33378
50.2515 8.27145
50.3007 8.24262
50.3501 8.18175
50.3993 8.16772
50.4487 8.15312
50.498 8.13031
50.5474 8.07988
50.5966 8.05615
50.6461 8.02886
50.6955 8.02283
50.7448 7.9665
50.7943 7.90007
50.8436 7.90956
50.8931 7.84219
50.9424 7.88849
50.9919 7.79576
51.0413 7.78016
51.0908 7.75318
51.1402 7.73007
51.1897 7.68369
51.2391 7.66953
51.2887 7.62714
51.3381 7.56774
51.3877 7.55271
51.4371 7.55485
51.4867 7.50114
51.5362 7.45923
51.5858 7.45372
51.6353 7.38053
51.6849 7.38127
51.7344 7.3425
51.7841 7.32252
51.8336 7.27751
51.8833 7.27713
51.9328 7.21049
51.9826 7.22385
52.0323 7.19214
52.0818 7.1171
52.1316 7.10806
52.1812 7.11448
52.231 7.05503
52.2806 7.02834
52.3304 6.99446
52.38 6.99509
52.4298 6.89809
52.4794 6.89801
52.5293 6.88285
52.5789 6.84177
52.6288 6.82936
52.6785 6.77073
52.7284 6.75906
52.7781 6.6946
52.828 6.71218
52.8777 6.70393
52.9276 6.639
52.9774 6.62587
53.0273 6.60651
53.0771 6.57698
53.1271 6.58089
53.1769 6.49725
53.2269 6.49854
53.2767 6.45636
53.3267 6.38695
53.3765 6.38346
53.4266 6.38578
53.4766 6.35986
53.5265 6.28963
53.5765 6.28903
53.6264 6.24687
53.6765 6.20886
53.7264 6.21783
53.7765 6.2254
53.8265 6.20376
53.8766 6.11201
53.9266 6.0936
53.9767 6.07799
54.0267 6.05703
54.0769 6.00819
54.1269 5.96704
54.1771 5.9732
54.2271 5.92746
54.2773 5.87853
54.3274 5.86429
54.3776 5.83286
54.4277 5.8152
54.478 5.75148
54.528 5.79
54.5783 5.73116
54.6285 5.65857
54.6788 5.67378
54.7289 5.57179
54.7792 5.57249
54.8296 5.49069
54.8798 5.45412
54.9301 5.43885
54.9803 5.41904
55.0307 5.40518
55.0809 5.32077
55.1314 5.2769
55.1816 5.22516
55.232 5.18118
55.2823 5.16374
55.3328 5.13049
55.383 5.00222
55.4335 5.04623
55.4838 4.95703
55.5344 4.86482
55.5847 4.8951
55.6352 4.86905
55.6856 4.85477
55.7361 4.75311