File: XRD/Ni3Fe_FD0496.xy
TT I
1.27165 7.16488
1.31627 6.81827
1.36089 7.01577
1.40551 5.60437
1.45013 6.17622
1.49476 5.52664
1.53938 5.84922
1.584 5.56155
1.62863 5.7319
1.67325 4.74307
1.71787 5.21901
1.7625 5.10483
1.80712 5.23439
1.85174 5.4757
1.89636 4.53348
1.94099 5.12906
1.98562 4.43901
2.03025 4.67641
2.07487 4.5703
2.11949 5.02726
2.16411 4.73291
2.20874 13.0118
2.25338 19.8874
2.298 5.78128
2.34263 5.4751
2.38725 6.13401
2.43188 6.01219
2.4765 6.1852
2.52115 6.71534
2.56577 7.05655
2.6104 7.75299
2.65503 7.4303
2.69965 8.11325
2.7443 7.59887
2.78893 7.24426
2.83356 8.55091
2.87818 8.71421
2.92281 8.90393
2.96744 9.68713
3.01209 10.2708
3.05672 11.3745
3.10135 12.3801
3.14599 12.9302
3.19062 14.1806
3.23527 15.2
3.2799 15.7155
3.32454 17.1819
3.36917 17.8813
3.4138 18.82
3.45844 19.7665
3.50309 21.181
3.54773 21.8578
3.59237 24.064
3.637 83.7484
3.68164 53.655
3.7263 26.352
3.77094 26.4147
3.81558 26.7788
3.86022 27.8462
3.90486 29.3224
3.9495 29.685
3.99416 31.3237
4.0388 32.8494
4.08344 33.943
4.12809 35.4007
4.17273 37.4187
4.21738 43.7061
4.26204 220.797
4.30669 187.918
4.35133 48.8722
4.39598 45.0409
4.44063 53.7815
4.4853 63.2273
4.52995 51.334
4.5746 51.7553
4.61925 53.9979
4.6639 56.2684
4.70855 59.1397
4.75322 61.4922
4.79788 64.7082
4.84253 68.1611
4.88719 72.9728
4.93184 76.3478
4.97652 82.7192
5.02118 88.7764
5.06583 96.7771
5.11049 109.351
5.15515 174.971
5.19981 411.379
5.24449 3140.54
5.28916 11764.1
5.33382 3176.52
5.37848 204.27
5.42315 134.188
5.46783 116.747
5.5125 108.665
5.55716 104.274
5.60183 100.943
5.6465 98.3658
5.69117 96.1111
5.73586 93.7416
5.78053 93.8789
5.8252 93.1245
5.86988 94.2083
5.91455 96.6971
5.95924 106.29
6.00392 231.705
6.0486 1068.0
6.09328 4202.18
6.13795 3526.65
6.18263 287.812
6.22733 97.4279
6.27201 84.9893
6.3167 100.169
6.36138 80.3283
6.40606 70.3473
6.45075 68.4427
6.49545 66.1902
6.54014 64.6791
6.58483 63.8613
6.62952 63.8632
6.67421 90.6928
6.71892 132.2
6.76361 67.9431
6.8083 59.4005
6.853 58.0298
6.89769 57.4864
6.94239 56.8707
6.98711 56.499
7.03181 56.2412
7.07651 56.2748
7.12121 55.5826
7.16591 55.8057
7.21063 56.099
7.25533 69.1719
7.30004 159.939
7.34475 86.5123
7.38945 56.8496
7.43416 55.3081
7.47889 55.0872
7.5236 55.2659
7.56831 56.1199
7.61303 57.5568
7.65774 57.8252
7.70247 56.7752
7.74719 57.0175
7.79191 57.6104
7.83663 58.1305
7.88135 58.8353
7.92607 59.4834
7.97081 60.8529
8.01553 61.6077
8.06026 63.1763
8.10498 64.8141
8.14971 73.5179
8.19446 72.2124
8.23919 70.1638
8.28392 72.83
8.32865 75.1084
8.37339 79.3915
8.41812 86.3466
8.46288 113.241
8.50761 176.487
8.55235 421.501
8.59709 1202.49
8.64183 2129.28
8.68658 1060.61
8.73134 183.164
8.77609 102.105
8.82083 94.5822
8.86558 91.2449
8.91033 91.0241
8.9551 92.0583
8.99985 86.4234
9.04461 84.7181
9.08936 83.8537
9.13412 83.2224
9.17888 83.0664
9.22365 83.972
9.26841 83.4136
9.31318 83.8989
9.35794 83.9862
9.4027 84.4213
9.44749 85.3848
9.49226 85.7905
9.53703 87.1914
9.5818 88.8853
9.62657 93.022
9.67134 98.8526
9.71614 94.9175
9.76091 95.4157
9.80569 97.7789
9.85047 101.515
9.89525 122.743
9.94005 135.57
9.98484 189.871
10.0296 372.705
10.0744 843.862
10.1192 1656.45
10.164 1655.42
10.2088 458.977
10.2536 135.85
10.2984 115.119
10.3432 115.402
10.388 106.671
10.4328 122.748
10.4776 167.493
10.5224 292.095
10.5672 500.161
10.612 499.132
10.6568 223.832
10.7017 99.9016
10.7465 88.1153
10.7913 84.7499
10.8361 82.0027
10.8809 80.1156
10.9257 79.6754
10.9706 79.6353
11.0154 75.7648
11.0602 73.8307
11.105 72.7253
11.1499 76.3258
11.1947 82.1797
11.2395 74.1816
11.2844 70.9255
11.3292 68.1338
11.374 67.2093
11.4189 66.6325
11.4637 65.8733
11.5086 66.2807
11.5534 68.909
11.5983 66.2665
11.6431 64.5275
11.688 64.0149
11.7328 63.9031
11.7777 63.6602
11.8225 63.4146
11.8674 63.3194
11.9122 63.6485
11.9571 63.73
12.002 64.4943
12.0468 69.597
12.0917 81.823
12.1366 106.625
12.1814 155.444
12.2263 198.07
12.2712 167.994
12.3161 100.323
12.3609 71.0495
12.4058 65.6048
12.4507 65.2022
12.4956 65.389
12.5405 65.5447
12.5853 66.3583
12.6302 73.4849
12.6751 77.7704
12.72 70.2843
12.7649 68.7276
12.8098 69.2824
12.8547 70.8002
12.8996 71.9961
12.9445 73.1193
12.9894 75.169
13.0343 76.795
13.0792 80.0302
13.1242 90.6554
13.1691 116.164
13.214 154.504
13.2589 242.944
13.3038 360.941
13.3487 416.72
13.3937 278.415
13.4386 131.841
13.4835 109.14
13.5285 125.117
13.5734 164.863
13.6183 249.797
13.6633 332.297
13.7082 342.105
13.7531 203.499
13.7981 103.783
13.843 83.5405
13.888 81.0057
13.9329 78.2505
13.9779 76.7341
14.0228 75.5725
14.0678 74.2757
14.1127 73.9156
14.1577 73.428
14.2027 72.4071
14.2476 71.5257
14.2926 71.7594
14.3376 72.5197
14.3825 71.199
14.4275 69.7987
14.4725 69.7646
14.5175 69.9905
14.5624 70.1158
14.6074 71.8921
14.6524 72.5404
14.6974 71.3845
14.7424 73.1644
14.7874 80.7205
14.8324 91.7694
14.8774 114.158
14.9224 154.759
14.9674 200.455
15.0124 214.112
15.0574 156.917
15.1024 96.1678
15.1474 73.9942
15.1924 71.5576
15.2374 72.0726
15.2824 70.9389
15.3274 69.2554
15.3725 67.8684
15.4175 67.2949
15.4625 67.0708
15.5076 67.3041
15.5526 67.1881
15.5976 66.7709
15.6426 67.9792
15.6877 74.0518
15.7327 82.3686
15.7778 98.1345
15.8228 128.2
15.8679 167.15
15.9129 188.266
15.958 159.059
16.003 102.41
16.0481 70.2651
16.0931 65.5368
16.1382 63.5772
16.1833 61.515
16.2283 59.8285
16.2734 59.126
16.3185 59.4975
16.3636 59.9575
16.4086 58.3259
16.4537 57.1582
16.4988 56.2292
16.5439 56.272
16.589 56.0633
16.6341 55.844
16.6792 55.4816
16.7243 55.7546
16.7694 55.6704
16.8145 55.3855
16.8596 55.8508
16.9047 57.4861
16.9498 57.5725
16.9949 56.5874
17.04 56.7421
17.0851 57.8974
17.1302 59.6628
17.1754 62.8861
17.2205 68.1398
17.2656 75.0671
17.3108 81.4521
17.3559 82.0466
17.401 72.9689
17.4462 63.7497
17.4913 60.2168
17.5365 59.8338
17.5815 60.1166
17.6268 60.2637
17.6718 61.0867
17.7171 61.6911
17.7622 62.1919
17.8074 62.7635
17.8525 65.3676
17.8977 69.8061
17.9428 75.5548
17.9881 84.8846
18.0331 101.441
18.0784 120.595
18.1237 136.442
18.1688 133.181
18.214 107.845
18.2591 89.9091
18.3044 91.6229
18.3495 99.6507
18.3948 104.826
18.4399 98.3371
18.4852 80.5304
18.5303 68.0651
18.5756 63.2906
18.6207 62.1127
18.666 61.5982
18.7112 60.4486
18.7565 59.8177
18.8016 59.4938
18.8469 59.0171
18.892 58.5609
18.9374 58.1731
18.9825 57.8508
19.0278 57.9881
19.073 57.6005
19.1183 58.3732
19.1635 59.2447
19.2088 60.5772
19.254 63.317
19.2993 67.4442
19.3447 72.5344
19.3898 76.3284
19.4352 73.1279
19.4804 65.0055
19.5257 57.8936
19.5709 55.1001
19.6163 54.5018
19.6615 54.5866
19.7068 53.9121
19.752 54.0043
19.7974 54.5054
19.8426 55.3618
19.888 56.1088
19.9332 57.3435
19.9786 59.8294
20.0238 63.1237
20.0692 67.3368
20.1144 69.9562
20.1598 69.0321
20.205 65.2729
20.2504 63.3202
20.2957 64.2956
20.3411 65.7331
20.3863 64.8388
20.4318 59.9141
20.477 55.0853
20.5224 52.5792
20.5677 51.8526
20.6131 51.0341
20.6586 50.5701
20.7038 50.2593
20.7493 49.9729
20.7945 49.6603
20.84 49.359
20.8853 49.4273
20.9307 49.2263
20.976 49.5249
21.0215 49.3617
21.0668 49.7972
21.1122 50.4106
21.1575 50.8366
21.203 51.4033
21.2483 51.9654
21.2938 52.0631
21.3391 51.0309
21.3846 49.709
21.4299 49.2777
21.4754 49.1712
21.5207 49.3103
21.5662 49.5659
21.6116 49.9292
21.6571 50.7545
21.7024 51.761
21.7479 53.6168
21.7933 56.4431
21.8388 59.5293
21.8843 62.8627
21.9297 64.7561
21.9752 64.0558
22.0206 61.0819
22.0661 57.5721
22.1115 56.6341
22.157 56.5175
22.2024 55.157
22.248 52.5304
22.2933 50.6636
22.3389 49.9288
22.3843 49.9105
22.4299 49.5471
22.4753 49.5416
22.5208 49.3043
22.5662 49.061
22.6118 49.4676
22.6572 49.6917
22.7028 50.0144
22.7483 50.5059
22.7939 51.3915
22.8393 52.7855
22.8849 54.79
22.9303 56.4592
22.9759 57.8682
23.0214 57.9971
23.067 55.7163
23.1126 52.1393
23.1581 50.1337
23.2037 49.5629
23.2492 49.465
23.2948 49.688
23.3403 49.9329
23.3859 50.5257
23.4314 51.6238
23.477 53.4155
23.5225 55.3403
23.5682 57.0059
23.6137 58.0026
23.6593 56.4521
23.7048 52.6039
23.7505 49.278
23.796 47.4833
23.8417 46.8701
23.8872 46.2793
23.9329 45.9403
23.9784 45.5627
24.0241 45.2623
24.0697 45.0642
24.1154 44.8337
24.1609 44.6857
24.2066 44.3087
24.2522 44.4387
24.2979 44.1437
24.3434 44.0253
24.3892 43.7752
24.4349 43.7672
24.4805 43.54
24.5262 43.6452
24.5718 43.4778
24.6175 43.5741
24.6631 43.4323
24.7089 43.1378
24.7545 42.9431
24.8002 42.8432
24.8458 42.837
24.8916 42.6624
24.9372 42.8783
24.983 43.2111
25.0286 43.4379
25.0744 44.0098
25.12 44.3442
25.1658 44.8687
25.2114 45.3261
25.2572 45.4039
25.3029 45.3884
25.3487 45.4352
25.3943 45.0979
25.4402 44.2261
25.4858 43.1417
25.5316 42.4205
25.5773 41.532
25.6231 41.4106
25.669 41.1192
25.7147 41.1559
25.7605 40.9769
25.8062 41.0556
25.8521 41.2418
25.8977 41.1439
25.9436 41.4675
25.9893 41.5679
26.0352 42.0857
26.0809 42.1404
26.1268 42.2972
26.1725 41.9472
26.2184 41.4994
26.2641 40.9979
26.31 40.7989
26.3557 40.6745
26.4017 40.7109
26.4474 41.1046
26.4933 41.313
26.5391 41.8479
26.585 42.2506
26.6308 42.465
26.6767 42.6133
26.7225 42.5826
26.7684 42.0987
26.8142 41.5212
26.8601 41.0117
26.9059 40.5844
26.9519 40.1565
26.9979 39.9269
27.0437 39.3891
27.0896 39.2435
27.1354 39.2162
27.1814 39.1732
27.2272 39.0179
27.2732 39.2184
27.3191 38.9734
27.3651 39.0011
27.4109 38.9209
27.4569 38.9834
27.5027 39.037
27.5488 39.1003
27.5946 39.0317
27.6407 38.8341
27.6865 38.6323
27.7326 38.4537
27.7784 38.3302
27.8245 38.4146
27.8703 38.6913
27.9164 38.8414
27.9623 38.9201
28.0084 39.1868
28.0543 39.6141
28.1003 39.4946
28.1462 39.3392
28.1923 39.0218
28.2384 38.3888
28.2843 38.2952
28.3304 37.6819
28.3764 37.2493
28.4225 37.0507
28.4684 36.7448
28.5145 36.5376
28.5605 36.4256
28.6066 36.1824
28.6526 36.0479
28.6987 36.1345
28.7447 36.0206
28.7908 36.0117
28.8368 35.895
28.8829 35.9076
28.9289 35.7917
28.9751 35.6711
29.0211 35.597
29.0673 35.1582
29.1133 35.0801
29.1595 34.8405
29.2055 34.8899
29.2517 34.8993
29.2977 34.7141
29.3439 34.7175
29.3899 34.6889
29.4361 34.6094
29.4824 34.5028
29.5284 34.2759
29.5746 33.9615
29.6207 33.7022
29.6669 33.4988
29.713 33.5033
29.7593 33.3065
29.8053 33.3857
29.8516 33.2441
29.8977 33.2435
29.9439 33.1612
29.99 33.0041
30.0363 32.8493
30.0824 33.0102
30.1287 32.9469
30.1748 32.9533
30.2211 32.8795
30.2673 32.7361
30.3136 32.975
30.3597 32.7048
30.406 32.5385
30.4522 32.6261
30.4985 32.5583
30.5447 32.6662
30.591 32.4782
30.6372 32.6055
30.6835 32.5263
30.7297 32.5891
30.7761 32.5893
30.8224 32.3861
30.8686 32.3636
30.915 32.1231
30.9612 31.993
31.0076 31.7132
31.0538 31.662
31.1002 31.5472
31.1464 31.4641
31.1928 31.3795
31.2391 31.4211
31.2855 31.3046
31.3317 31.3554
31.3781 31.3442
31.4244 31.3305
31.4708 31.2305
31.5171 31.2958
31.5636 31.1832
31.6098 31.0057
31.6563 30.7699
31.7026 30.7281
31.7491 30.5046
31.7953 30.6649
31.8418 30.5109
31.8881 30.5947
31.9346 30.474
31.9809 30.4413
32.0275 30.3677
32.074 30.2497
32.1203 30.0479
32.1668 29.958
32.2132 29.7219
32.2597 29.7291
32.306 29.5403
32.3526 29.4365
32.399 29.2635
32.4455 29.2066
32.4919 29.0908
32.5385 29.1176
32.5848 28.9083
32.6314 28.9659
32.6778 28.9039
32.7244 28.6964
32.7708 28.5029
32.8174 28.5302
32.8638 28.4095
32.9104 28.4095
32.9569 28.3594
33.0035 28.3078
33.0499 28.2609
33.0966 28.2927
33.143 28.1658
33.1897 28.0943
33.2361 28.0135
33.2828 28.0067
33.3293 27.8559
33.3759 27.8218
33.4226 27.7071
33.4691 27.4584
33.5158 27.4603
33.5623 27.2764
33.609 27.1551
33.6555 27.0301
33.7022 26.9338
33.7487 26.9493
33.7954 26.9017
33.842 26.7505
33.8887 26.6831
33.9353 26.6173
33.982 26.4063
34.0286 26.4712
34.0753 26.3829
34.1219 26.3259
34.1687 26.229
34.2152 26.1073
34.262 26.0299
34.3086 25.9972
34.3554 25.9207
34.402 25.817
34.4488 25.6114
34.4954 25.5519
34.5422 25.5045
34.5889 25.4067
34.6357 25.3341
34.6825 25.2895
34.7292 25.1959
34.776 25.0704
34.8227 25.0994
34.8695 24.9202
34.9162 25.0078
34.9631 24.8059
35.0098 24.8424
35.0566 24.7655
35.1033 24.6191
35.1502 24.6147
35.1969 24.5206
35.2438 24.5806
35.2906 24.4348
35.3375 24.3659
35.3842 24.4252
35.4311 24.2777
35.4779 24.2253
35.5248 24.2667
35.5716 24.1699
35.6185 24.0815
35.6653 23.9362
35.7123 23.8107
35.759 23.752
35.806 23.7214
35.8528 23.5976
35.8998 23.5798
35.9468 23.4141
35.9936 23.409
36.0406 23.2976
36.0874 23.2802
36.1345 23.15
36.1813 23.1548
36.2283 23.0954
36.2752 22.964
36.3222 22.9848
36.3691 22.8634
36.4161 22.8451
36.463 22.7874
36.5101 22.7677
36.557 22.7078
36.6041 22.5541
36.651 22.498
36.6981 22.3896
36.745 22.3562
36.7921 22.3773
36.839 22.2029
36.8861 22.1588
36.9331 22.0634
36.9802 21.9512
37.0272 21.8986
37.0743 21.8478
37.1213 21.8359
37.1684 21.6685
37.2154 21.6816
37.2626 21.4994
37.3098 21.4354
37.3568 21.412
37.404 21.4812
37.451 21.2779
37.4982 21.2604
37.5452 21.1626
37.5924 21.1012
37.6395 21.1659
37.6867 21.046
37.7337 20.9462
37.781 20.8032
37.8281 20.808
37.8753 20.6831
37.9224 20.6721
37.9697 20.5444
38.0168 20.5171
38.064 20.4971
38.1111 20.3622
38.1584 20.2929
38.2056 20.2698
38.2529 20.2236
38.3 20.0803
38.3473 20.1489
38.3945 20.0223
38.4418 19.9863
38.489 19.8784
38.5363 19.8195
38.5837 19.7535
38.6309 19.6754
38.6782 19.6667
38.7254 19.5383
38.7728 19.5241
38.82 19.357
38.8674 19.3768
38.9146 19.356
38.9621 19.1998
39.0093 19.2221
39.0567 19.1565
39.104 19.0907
39.1514 19.0744
39.1987 18.953
39.2461 18.9211
39.2934 18.8646
39.3409 18.6879
39.3882 18.695
39.4356 18.6033
39.483 18.5496
39.5304 18.4906
39.5778 18.525
39.6253 18.4627
39.6726 18.4209
39.7201 18.3579
39.7675 18.2566
39.815 18.1797
39.8624 18.143
39.9099 18.1624
39.9575 18.0071
40.0049 17.9466
40.0525 17.8955
40.0999 17.8294
40.1474 17.817
40.1949 17.7364
40.2425 17.6684
40.2899 17.6412
40.3375 17.5733
40.385 17.5263
40.4326 17.4081
40.48 17.4
40.5277 17.3645
40.5752 17.2969
40.6228 17.1688
40.6703 17.1667
40.718 17.1047
40.7655 17.0547
40.8132 16.9476
40.8607 17.0412
40.9084 16.9076
40.9559 16.8807
41.0036 16.7967
41.0512 16.7763
41.0989 16.7377
41.1465 16.6122
41.1942 16.5686
41.242 16.5189
41.2896 16.4872
41.3373 16.3715
41.3849 16.4086
41.4327 16.322
41.4803 16.1852
41.5281 16.2024
41.5758 16.1247
41.6236 15.9749
41.6712 16.0545
41.7191 15.928
41.7667 15.9092
41.8146 15.8489
41.8622 15.8139
41.9101 15.7495
41.9578 15.7184
42.0057 15.7151
42.0534 15.5424
42.1013 15.5611
42.149 15.5007
42.1969 15.4571
42.2446 15.3682
42.2925 15.3795
42.3403 15.2889
42.3882 15.2308
42.436 15.2208
42.4839 15.1136
42.5319 15.0737
42.5797 15.0392
42.6277 15.0085
42.6755 14.8993
42.7235 14.8525
42.7713 14.843
42.8193 14.7662
42.8671 14.7367
42.9152 14.6711
42.963 14.609
43.0111 14.5711
43.0589 14.4904
43.107 14.3933
43.1549 14.4782
43.2029 14.398
43.2508 14.3501
43.2989 14.2435
43.3468 14.2192
43.3949 14.1587
43.4429 14.1775
43.491 14.0833
43.5389 14.0522
43.5871 13.9986
43.635 13.8935
43.6832 13.8919
43.7312 13.8459
43.7793 13.7455
43.8273 13.7847
43.8755 13.6698
43.9237 13.6895
43.9717 13.5911
44.0199 13.5808
44.068 13.5073
44.1162 13.4594
44.1642 13.4521
44.2125 13.4009
44.2606 13.3061
44.3088 13.2169
44.3569 13.2257
44.4052 13.1658
44.4533 13.1
44.5016 13.0666
44.5497 13.0538
44.598 12.9833
44.6461 12.9546
44.6945 12.894
44.7426 12.865
44.791 12.7599
44.8391 12.7646
44.8875 12.7629
44.9357 12.7167
44.984 12.6401
45.0322 12.5996
45.0806 12.5539
45.1288 12.5379
45.1773 12.4635
45.2257 12.4209
45.2739 12.4024
45.3224 12.3378
45.3706 12.2861
45.4191 12.2551
45.4673 12.2048
45.5158 12.2031
45.5641 12.1186
45.6126 12.0706
45.6609 12.0208
45.7094 11.9699
45.7577 11.9746
45.8063 11.8413
45.8546 11.8717
45.9031 11.7971
45.9515 11.7733
46.0001 11.6961
46.0484 11.6978
46.097 11.6282
46.1454 11.6132
46.194 11.5454
46.2424 11.5382
46.291 11.4593
46.3395 11.4382
46.3881 11.405
46.4365 11.3957
46.4852 11.2937
46.5337 11.2691
46.5823 11.2332
46.631 11.1719
46.6795 11.1446
46.7282 11.1347
46.7767 11.0811
46.8254 11.0507
46.8739 11.0096
46.9226 10.916
46.9712 10.9301
47.0199 10.8454
47.0685 10.8336
47.1173 10.7536
47.1658 10.7159
47.2146 10.6692
47.2632 10.6656
47.312 10.6356
47.3606 10.5764
47.4095 10.5528
47.4581 10.5063
47.5069 10.4322
47.5556 10.4161
47.6044 10.3772
47.6531 10.366
47.702 10.2807
47.7507 10.3037
47.7996 10.2249
47.8483 10.2417
47.8972 10.1569
47.9461 10.0853
47.9948 10.0656
48.0438 10.0863
48.0925 10.0054
48.1415 9.92708
48.1902 9.92645
48.2392 9.92283
48.288 9.89972
48.337 9.8553
48.3858 9.80507
48.4348 9.75978
48.4837 9.75129
48.5327 9.71017
48.5815 9.65622
48.6306 9.64666
48.6795 9.59159
48.7285 9.54028
48.7774 9.50178
48.8265 9.51627
48.8754 9.46709
48.9245 9.37696
48.9734 9.34535
49.0226 9.35207
49.0715 9.27464
49.1206 9.24581
49.1696 9.23317
49.2188 9.22274
49.2679 9.18109
49.3169 9.12551
49.3661 9.05557
49.4151 9.03295
49.4643 9.04776
49.5134 8.97583
49.5626 8.94885
49.6117 8.91852
49.6609 8.89802
49.71 8.84826
49.7592 8.79358
49.8083 8.77767
49.8576 8.77981
49.9067 8.71742
49.956 8.73935
50.0052 8.66511
50.0545 8.60565
50.1036 8.58285
50.153 8.54073
50.2022 8.53601
50.2515 8.49804
50.3007 8.46378
50.3501 8.42191
50.3993 8.38548
50.4487 8.37423
50.498 8.32264
50.5474 8.31282
50.5966 8.25763
50.6461 8.21446
50.6955 8.19534
50.7448 8.1664
50.7943 8.12447
50.8436 8.08901
50.8931 8.09613
50.9424 8.04144
50.9919 7.97145
51.0413 8.00818
51.0908 7.93154
51.1402 7.90098
51.1897 7.88461
51.2391 7.83364
51.2887 7.83476
51.3381 7.77353
51.3877 7.78185
51.4371 7.70995
51.4867 7.67932
51.5362 7.65642
51.5858 7.60589
51.6353 7.60289
51.6849 7.58813
51.7344 7.53698
51.7841 7.51377
51.8336 7.46363
51.8833 7.42404
51.9328 7.4176
51.9826 7.33657
52.0323 7.35585
52.0818 7.31453
52.1316 7.28915
52.1812 7.30428
52.231 7.1945
52.2806 7.20935
52.3304 7.17673
52.38 7.14057
52.4298 7.11485
52.4794 7.06554
52.5293 6.99975
52.5789 7.04345
52.6288 7.00703
52.6785 6.9133
52.7284 6.93497
52.7781 6.89622
52.828 6.90931
52.8777 6.88019
52.9276 6.82844
52.9774 6.7757
53.0273 6.75859
53.0771 6.72031
53.1271 6.72932
53.1769 6.68014
53.2269 6.6617
53.2767 6.60583
53.3267 6.57229
53.3765 6.56835
53.4266 6.49462
53.4766 6.50899
53.5265 6.48428
53.5765 6.45515
53.6264 6.41109
53.6765 6.37542
53.7264 6.37972
53.7765 6.36113
53.8265 6.26026
53.8766 6.23909
53.9266 6.24959
53.9767 6.1738
54.0267 6.18496
54.0769 6.20608
54.1269 6.15669
54.1771 6.13669
54.2271 6.06122
54.2773 6.0087
54.3274 6.06216
54.3776 5.98728
54.4277 5.96071
54.478 5.94137
54.528 5.88272
54.5783 5.83278
54.6285 5.78778
54.6788 5.75304
54.7289 5.73909
54.7792 5.66296
54.8296 5.66268
54.8798 5.57476
54.9301 5.56647
54.9803 5.51388
55.0307 5.54364
55.0809 5.49722
55.1314 5.43851
55.1816 5.35396
55.232 5.27952
55.2823 5.30128
55.3328 5.24726
55.383 5.18587
55.4335 5.1327
55.4838 5.10747
55.5344 5.00811
55.5847 5.0304
55.6352 4.98224
55.6856 4.92295
55.7361 4.91593