File: XRD/Ni3Fe_FD0287.xy
TT I
1.27165 7.65818
1.31627 7.32978
1.36089 7.43057
1.40551 6.59858
1.45013 6.13093
1.49476 5.84716
1.53938 6.15917
1.584 6.06421
1.62863 5.97988
1.67325 4.91135
1.71787 5.12154
1.7625 5.40115
1.80712 4.95599
1.85174 4.17289
1.89636 5.0139
1.94099 5.40534
1.98562 5.07669
2.03025 4.23569
2.07487 4.98277
2.11949 5.03949
2.16411 4.78014
2.20874 15.8813
2.25338 26.9796
2.298 6.02443
2.34263 5.53309
2.38725 5.58678
2.43188 5.45155
2.4765 6.13638
2.52115 6.23128
2.56577 6.19197
2.6104 7.343
2.65503 6.27483
2.69965 7.11298
2.7443 7.40839
2.78893 6.81812
2.83356 8.03773
2.87818 7.88069
2.92281 8.37271
2.96744 9.32052
3.01209 10.665
3.05672 11.4827
3.10135 12.7876
3.14599 13.3752
3.19062 14.2862
3.23527 15.3234
3.2799 16.6459
3.32454 17.228
3.36917 18.2603
3.4138 19.2067
3.45844 19.8871
3.50309 21.6017
3.54773 22.3857
3.59237 24.9952
3.637 108.732
3.68164 68.9441
3.7263 26.8924
3.77094 26.8884
3.81558 27.4581
3.86022 28.1319
3.90486 29.412
3.9495 30.4872
3.99416 31.6192
4.0388 33.3424
4.08344 34.6416
4.12809 36.172
4.17273 38.7281
4.21738 45.3828
4.26204 292.507
4.30669 264.188
4.35133 51.4663
4.39598 46.4245
4.44063 56.91
4.4853 71.3197
4.52995 53.4637
4.5746 53.5266
4.61925 54.9266
4.6639 56.89
4.70855 59.9359
4.75322 63.1244
4.79788 65.8674
4.84253 69.3125
4.88719 74.318
4.93184 78.0524
4.97652 83.6301
5.02118 91.2456
5.06583 100.188
5.11049 115.531
5.15515 205.429
5.19981 505.727
5.24449 3147.09
5.28916 10982.8
5.33382 4252.3
5.37848 261.1
5.42315 147.596
5.46783 124.444
5.5125 113.663
5.55716 108.114
5.60183 103.784
5.6465 101.973
5.69117 98.9248
5.73586 96.83
5.78053 97.4549
5.8252 97.243
5.86988 98.0
5.91455 101.811
5.95924 113.461
6.00392 261.924
6.0486 1086.84
6.09328 3687.45
6.13795 3730.62
6.18263 383.35
6.22733 107.115
6.27201 90.2653
6.3167 112.936
6.36138 86.7093
6.40606 72.8933
6.45075 70.7316
6.49545 68.3343
6.54014 66.6889
6.58483 65.5462
6.62952 65.6798
6.67421 101.264
6.71892 167.134
6.76361 73.3586
6.8083 61.2652
6.853 59.8565
6.89769 58.6925
6.94239 58.9727
6.98711 58.0677
7.03181 57.369
7.07651 57.7578
7.12121 57.5254
7.16591 58.1618
7.21063 58.2507
7.25533 74.734
7.30004 209.477
7.34475 104.093
7.38945 58.9064
7.43416 56.9878
7.47889 56.3443
7.5236 56.3545
7.56831 57.244
7.61303 59.5373
7.65774 60.0941
7.70247 58.3597
7.74719 58.3604
7.79191 58.8021
7.83663 59.3046
7.88135 59.9719
7.92607 60.6846
7.97081 62.2391
8.01553 63.2877
8.06026 64.6753
8.10498 66.7549
8.14971 77.8891
8.19446 76.5824
8.23919 72.2047
8.28392 74.3357
8.32865 77.1275
8.37339 81.5295
8.41812 89.393
8.46288 125.73
8.50761 192.76
8.55235 448.762
8.59709 1032.14
8.64183 2059.22
8.68658 1268.63
8.73134 227.776
8.77609 108.464
8.82083 98.3301
8.86558 94.2237
8.91033 94.8059
8.9551 96.7226
8.99985 89.1363
9.04461 86.7706
9.08936 86.0383
9.13412 84.9804
9.17888 84.6578
9.22365 85.8796
9.26841 85.4447
9.31318 86.0479
9.35794 86.2259
9.4027 86.4481
9.44749 86.8351
9.49226 87.7185
9.53703 88.6256
9.5818 91.0571
9.62657 96.209
9.67134 104.33
9.71614 97.6478
9.76091 97.3317
9.80569 100.51
9.85047 104.053
9.89525 132.633
9.94005 150.697
9.98484 200.231
10.0296 395.651
10.0744 731.128
10.1192 1506.59
10.164 1777.73
10.2088 608.36
10.2536 151.728
10.2984 122.124
10.3432 123.237
10.388 110.849
10.4328 127.317
10.4776 175.063
10.5224 259.831
10.5672 453.21
10.612 555.792
10.6568 262.005
10.7017 107.742
10.7465 90.992
10.7913 87.2618
10.8361 84.3651
10.8809 82.1998
10.9257 81.989
10.9706 82.8329
11.0154 78.0387
11.0602 75.7957
11.105 74.6033
11.1499 79.8275
11.1947 89.9711
11.2395 79.0696
11.2844 74.0609
11.3292 70.1359
11.374 68.6831
11.4189 68.3169
11.4637 67.59
11.5086 68.076
11.5534 71.9936
11.5983 68.8928
11.6431 66.1964
11.688 65.2401
11.7328 65.33
11.7777 65.376
11.8225 65.1498
11.8674 64.4684
11.9122 65.2711
11.9571 65.2695
12.002 66.4708
12.0468 71.4157
12.0917 84.6797
12.1366 103.572
12.1814 139.424
12.2263 198.418
12.2712 190.627
12.3161 113.709
12.3609 76.3417
12.4058 67.5902
12.4507 66.8507
12.4956 67.1463
12.5405 67.3648
12.5853 68.0339
12.6302 77.3049
12.6751 84.6359
12.72 73.8641
12.7649 70.5467
12.8098 70.9391
12.8547 72.5146
12.8996 73.6434
12.9445 74.9022
12.9894 76.9618
13.0343 78.6576
13.0792 81.787
13.1242 93.0374
13.1691 122.527
13.214 156.448
13.2589 216.192
13.3038 325.218
13.3487 437.549
13.3937 325.077
13.4386 150.647
13.4835 115.09
13.5285 131.909
13.5734 159.27
13.6183 219.179
13.6633 317.556
13.7082 368.56
13.7531 240.042
13.7981 113.344
13.843 86.3014
13.888 83.2906
13.9329 80.1283
13.9779 78.9243
14.0228 77.5111
14.0678 76.0679
14.1127 75.2786
14.1577 75.5993
14.2027 74.5266
14.2476 72.9824
14.2926 73.3526
14.3376 75.1052
14.3825 73.6357
14.4275 71.5769
14.4725 71.2616
14.5175 71.4229
14.5624 71.8426
14.6074 73.9933
14.6524 75.096
14.6974 73.4138
14.7424 75.1233
14.7874 83.1959
14.8324 95.2321
14.8774 111.102
14.9224 140.037
14.9674 190.328
15.0124 225.829
15.0574 175.571
15.1024 104.936
15.1474 77.0253
15.1924 73.8441
15.2374 74.7806
15.2824 73.9535
15.3274 71.2808
15.3725 69.4436
15.4175 69.0215
15.4625 68.7525
15.5076 69.0092
15.5526 68.8953
15.5976 68.5321
15.6426 69.6857
15.6877 76.2335
15.7327 85.6166
15.7778 96.643
15.8228 117.452
15.8679 153.987
15.9129 192.463
15.958 177.299
16.003 116.606
16.0481 74.7987
16.0931 68.3962
16.1382 66.1744
16.1833 63.2051
16.2283 61.374
16.2734 60.741
16.3185 61.2974
16.3636 62.4274
16.4086 60.5068
16.4537 58.5763
16.4988 57.821
16.5439 57.6312
16.589 57.4354
16.6341 57.1933
16.6792 56.5541
16.7243 57.0395
16.7694 57.1491
16.8145 57.0296
16.8596 57.4182
16.9047 59.3709
16.9498 59.6255
16.9949 58.1595
17.04 58.1641
17.0851 59.5398
17.1302 61.4471
17.1754 63.9893
17.2205 67.4734
17.2656 73.0768
17.3108 81.8678
17.3559 86.1189
17.401 78.1993
17.4462 66.4851
17.4913 61.7474
17.5365 61.5202
17.5815 61.5066
17.6268 61.8524
17.6718 62.8852
17.7171 63.2397
17.7622 63.811
17.8074 64.2078
17.8525 66.9767
17.8977 71.9335
17.9428 77.9861
17.9881 84.0101
18.0331 95.6579
18.0784 113.655
18.1237 137.255
18.1688 143.592
18.214 118.396
18.2591 92.6784
18.3044 89.6966
18.3495 97.5978
18.3948 108.157
18.4399 104.703
18.4852 85.8939
18.5303 70.841
18.5756 65.0087
18.6207 63.9318
18.666 62.7856
18.7112 62.0135
18.7565 61.5611
18.8016 60.957
18.8469 60.2615
18.892 60.1453
18.9374 59.5299
18.9825 59.2889
19.0278 59.1905
19.073 59.2545
19.1183 59.8404
19.1635 61.1365
19.2088 62.3036
19.254 63.8256
19.2993 66.6434
19.3447 72.2586
19.3898 78.0497
19.4352 77.3911
19.4804 68.8814
19.5257 60.7174
19.5709 56.7486
19.6163 56.319
19.6615 55.8729
19.7068 55.6021
19.752 55.33
19.7974 55.7825
19.8426 56.7591
19.888 57.4939
19.9332 58.4884
19.9786 60.0614
20.0238 62.469
20.0692 67.2634
20.1144 71.5147
20.1598 72.5387
20.205 67.6503
20.2504 63.9394
20.2957 64.274
20.3411 66.8421
20.3863 67.7177
20.4318 62.9088
20.477 57.0689
20.5224 54.2777
20.5677 53.3209
20.6131 52.3889
20.6586 51.6507
20.7038 51.6741
20.7493 51.0095
20.7945 51.0013
20.84 50.7374
20.8853 50.558
20.9307 50.4511
20.976 50.6653
21.0215 50.5585
21.0668 50.8851
21.1122 51.1865
21.1575 51.6673
21.203 52.3716
21.2483 53.0484
21.2938 53.4615
21.3391 52.4985
21.3846 51.2845
21.4299 50.5792
21.4754 50.2557
21.5207 50.4751
21.5662 50.619
21.6116 51.1757
21.6571 52.1737
21.7024 53.0199
21.7479 54.3756
21.7933 56.2745
21.8388 59.0809
21.8843 63.0918
21.9297 66.3387
21.9752 66.8895
22.0206 63.5405
22.0661 59.0953
22.1115 57.6768
22.157 58.062
22.2024 57.1658
22.248 54.3839
22.2933 52.4319
22.3389 51.1797
22.3843 51.092
22.4299 51.1303
22.4753 50.9007
22.5208 50.3843
22.5662 50.342
22.6118 50.525
22.6572 50.7784
22.7028 51.3384
22.7483 51.642
22.7939 52.2803
22.8393 53.1729
22.8849 54.7321
22.9303 56.7922
22.9759 59.144
23.0214 60.0799
23.067 58.0563
23.1126 54.343
23.1581 51.5851
23.2037 50.7859
23.2492 50.7157
23.2948 50.9051
23.3403 51.2643
23.3859 51.7094
23.4314 52.3652
23.477 53.6046
23.5225 55.1127
23.5682 57.4947
23.6137 59.7185
23.6593 59.0831
23.7048 55.3321
23.7505 51.232
23.796 48.8151
23.8417 48.1023
23.8872 47.4075
23.9329 47.0068
23.9784 46.7916
24.0241 46.4624
24.0697 46.3704
24.1154 45.8093
24.1609 45.8857
24.2066 45.5246
24.2522 45.2921
24.2979 45.2444
24.3434 45.0961
24.3892 44.9676
24.4349 44.7974
24.4805 44.534
24.5262 44.6828
24.5718 44.5847
24.6175 44.6008
24.6631 44.5298
24.7089 44.2587
24.7545 44.2384
24.8002 43.8211
24.8458 44.0339
24.8916 43.7531
24.9372 43.8437
24.983 44.1816
25.0286 44.3997
25.0744 44.7265
25.12 45.2259
25.1658 45.7185
25.2114 46.1213
25.2572 46.1967
25.3029 46.2683
25.3487 46.4958
25.3943 46.5892
25.4402 45.7585
25.4858 44.7048
25.5316 43.4034
25.5773 42.7476
25.6231 42.6636
25.669 42.1758
25.7147 42.1547
25.7605 42.0768
25.8062 42.0401
25.8521 42.1383
25.8977 42.0853
25.9436 42.3353
25.9893 42.2788
26.0352 42.8256
26.0809 42.8634
26.1268 43.3137
26.1725 43.1144
26.2184 42.643
26.2641 42.1866
26.31 41.756
26.3557 41.7534
26.4017 41.6592
26.4474 41.9607
26.4933 42.1379
26.5391 42.5106
26.585 42.966
26.6308 43.3696
26.6767 43.6264
26.7225 43.6785
26.7684 43.1386
26.8142 42.5506
26.8601 42.0531
26.9059 41.6066
26.9519 41.1236
26.9979 40.8334
27.0437 40.3982
27.0896 40.2467
27.1354 40.1654
27.1814 40.0726
27.2272 40.0111
27.2732 40.0575
27.3191 39.8809
27.3651 39.9536
27.4109 39.865
27.4569 39.8895
27.5027 39.9651
27.5488 39.9851
27.5946 39.8739
27.6407 39.7766
27.6865 39.7608
27.7326 39.2916
27.7784 39.3922
27.8245 39.2975
27.8703 39.4575
27.9164 39.6627
27.9623 39.6626
28.0084 39.8949
28.0543 40.2947
28.1003 40.3985
28.1462 40.3427
28.1923 40.0941
28.2384 39.4511
28.2843 39.1964
28.3304 38.7016
28.3764 38.318
28.4225 37.9375
28.4684 37.6622
28.5145 37.3045
28.5605 37.266
28.6066 37.0512
28.6526 37.0597
28.6987 37.0798
28.7447 36.9384
28.7908 36.7219
28.8368 36.7232
28.8829 36.7821
28.9289 36.7749
28.9751 36.4867
29.0211 36.3365
29.0673 36.0143
29.1133 35.9582
29.1595 35.8468
29.2055 35.6085
29.2517 35.5408
29.2977 35.5323
29.3439 35.4711
29.3899 35.4971
29.4361 35.5564
29.4824 35.3896
29.5284 35.26
29.5746 34.8629
29.6207 34.4929
29.6669 34.4253
29.713 34.3277
29.7593 34.0431
29.8053 34.2535
29.8516 34.0953
29.8977 33.9638
29.9439 33.8637
29.99 33.9188
30.0363 33.7278
30.0824 33.7659
30.1287 33.6837
30.1748 33.6347
30.2211 33.7511
30.2673 33.4712
30.3136 33.6887
30.3597 33.5567
30.406 33.4458
30.4522 33.4167
30.4985 33.1285
30.5447 33.2691
30.591 33.272
30.6372 33.3523
30.6835 33.3164
30.7297 33.3425
30.7761 33.3884
30.8224 33.2518
30.8686 33.0741
30.915 32.8597
30.9612 32.7129
31.0076 32.4029
31.0538 32.3134
31.1002 32.2923
31.1464 32.1208
31.1928 32.1359
31.2391 32.1216
31.2855 32.0059
31.3317 32.0492
31.3781 32.0783
31.4244 32.1446
31.4708 32.0239
31.5171 31.9896
31.5636 32.0802
31.6098 31.7368
31.6563 31.5792
31.7026 31.372
31.7491 31.2589
31.7953 31.392
31.8418 31.2598
31.8881 31.222
31.9346 31.2817
31.9809 31.1911
32.0275 31.1848
32.074 30.9508
32.1203 30.7193
32.1668 30.6777
32.2132 30.595
32.2597 30.4383
32.306 30.3379
32.3526 30.1237
32.399 30.0422
32.4455 29.9639
32.4919 29.7973
32.5385 29.7688
32.5848 29.6066
32.6314 29.631
32.6778 29.482
32.7244 29.3281
32.7708 29.2533
32.8174 29.277
32.8638 29.0976
32.9104 29.2532
32.9569 29.112
33.0035 28.9825
33.0499 28.9025
33.0966 28.8433
33.143 28.7866
33.1897 28.8072
33.2361 28.7058
33.2828 28.6817
33.3293 28.4574
33.3759 28.4391
33.4226 28.3275
33.4691 28.2327
33.5158 28.1317
33.5623 27.9343
33.609 27.7544
33.6555 27.7194
33.7022 27.6905
33.7487 27.5372
33.7954 27.5082
33.842 27.3395
33.8887 27.3415
33.9353 27.2553
33.982 27.062
34.0286 27.1961
34.0753 26.9825
34.1219 26.9276
34.1687 26.7879
34.2152 26.8259
34.262 26.6651
34.3086 26.4995
34.3554 26.5838
34.402 26.4691
34.4488 26.3052
34.4954 26.2749
34.5422 26.2072
34.5889 26.0569
34.6357 26.0417
34.6825 25.9264
34.7292 25.8074
34.776 25.6886
34.8227 25.6745
34.8695 25.6775
34.9162 25.5613
34.9631 25.4158
35.0098 25.4832
35.0566 25.2548
35.1033 25.1277
35.1502 25.2555
35.1969 25.1082
35.2438 25.0635
35.2906 25.0341
35.3375 24.9541
35.3842 24.9957
35.4311 24.919
35.4779 24.8391
35.5248 24.7725
35.5716 24.6811
35.6185 24.6646
35.6653 24.5717
35.7123 24.4085
35.759 24.3498
35.806 24.2499
35.8528 24.1799
35.8998 24.0667
35.9468 23.9566
35.9936 23.9537
36.0406 23.8139
36.0874 23.8659
36.1345 23.7019
36.1813 23.7005
36.2283 23.5967
36.2752 23.5356
36.3222 23.5464
36.3691 23.3739
36.4161 23.2546
36.463 23.3194
36.5101 23.292
36.557 23.2387
36.6041 23.0212
36.651 23.1166
36.6981 22.9569
36.745 22.9508
36.7921 22.7462
36.839 22.7168
36.8861 22.7618
36.9331 22.5803
36.9802 22.4636
37.0272 22.4542
37.0743 22.3657
37.1213 22.3247
37.1684 22.2888
37.2154 22.2292
37.2626 22.105
37.3098 22.0077
37.3568 22.0115
37.404 21.9116
37.451 21.8596
37.4982 21.7975
37.5452 21.7075
37.5924 21.5624
37.6395 21.694
37.6867 21.5689
37.7337 21.4151
37.781 21.3394
37.8281 21.3183
37.8753 21.174
37.9224 21.1812
37.9697 21.0673
38.0168 20.9878
38.064 20.9312
38.1111 20.8543
38.1584 20.8871
38.2056 20.772
38.2529 20.6339
38.3 20.5932
38.3473 20.5345
38.3945 20.4687
38.4418 20.4039
38.489 20.41
38.5363 20.3294
38.5837 20.1917
38.6309 20.1681
38.6782 20.0645
38.7254 20.0199
38.7728 20.0257
38.82 19.8628
38.8674 19.8591
38.9146 19.8214
38.9621 19.8005
39.0093 19.6826
39.0567 19.5997
39.104 19.5777
39.1514 19.4271
39.1987 19.3862
39.2461 19.3899
39.2934 19.2728
39.3409 19.1617
39.3882 19.1151
39.4356 19.1116
39.483 19.0558
39.5304 18.9667
39.5778 18.9762
39.6253 18.8403
39.6726 18.7949
39.7201 18.7166
39.7675 18.7409
39.815 18.6321
39.8624 18.5201
39.9099 18.4977
39.9575 18.4566
40.0049 18.4157
40.0525 18.2999
40.0999 18.2173
40.1474 18.2347
40.1949 18.1802
40.2425 18.1335
40.2899 17.9705
40.3375 17.9477
40.385 17.9387
40.4326 17.8778
40.48 17.7835
40.5277 17.8158
40.5752 17.6786
40.6228 17.6464
40.6703 17.5759
40.718 17.5472
40.7655 17.4453
40.8132 17.4325
40.8607 17.4459
40.9084 17.3393
40.9559 17.2653
41.0036 17.2593
41.0512 17.1826
41.0989 17.1345
41.1465 17.0178
41.1942 16.9844
41.242 16.9137
41.2896 16.9063
41.3373 16.794
41.3849 16.7609
41.4327 16.6918
41.4803 16.6395
41.5281 16.5538
41.5758 16.4914
41.6236 16.3956
41.6712 16.3835
41.7191 16.3407
41.7667 16.2606
41.8146 16.2769
41.8622 16.1958
41.9101 16.1758
41.9578 16.0444
42.0057 15.9788
42.0534 15.9424
42.1013 15.9397
42.149 15.8785
42.1969 15.7733
42.2446 15.7251
42.2925 15.7377
42.3403 15.6747
42.3882 15.6133
42.436 15.5642
42.4839 15.4584
42.5319 15.4532
42.5797 15.3987
42.6277 15.349
42.6755 15.3719
42.7235 15.2492
42.7713 15.1837
42.8193 15.119
42.8671 15.0991
42.9152 15.0906
42.963 14.984
43.0111 14.9293
43.0589 14.9034
43.107 14.8408
43.1549 14.7484
43.2029 14.7917
43.2508 14.7235
43.2989 14.6214
43.3468 14.5186
43.3949 14.5618
43.4429 14.471
43.491 14.3975
43.5389 14.4256
43.5871 14.3572
43.635 14.2627
43.6832 14.2595
43.7312 14.1677
43.7793 14.0717
43.8273 14.0699
43.8755 14.0383
43.9237 13.9679
43.9717 13.9289
44.0199 13.8549
44.068 13.8384
44.1162 13.7975
44.1642 13.7567
44.2125 13.7108
44.2606 13.6806
44.3088 13.5367
44.3569 13.5698
44.4052 13.5436
44.4533 13.4676
44.5016 13.3987
44.5497 13.359
44.598 13.3608
44.6461 13.2742
44.6945 13.2331
44.7426 13.2088
44.791 13.1128
44.8391 13.0814
44.8875 13.0733
44.9357 13.0054
44.984 12.9603
45.0322 12.8729
45.0806 12.8376
45.1288 12.8013
45.1773 12.7419
45.2257 12.7205
45.2739 12.6757
45.3224 12.6159
45.3706 12.5868
45.4191 12.5148
45.4673 12.4974
45.5158 12.456
45.5641 12.401
45.6126 12.4266
45.6609 12.3129
45.7094 12.2508
45.7577 12.1888
45.8063 12.1983
45.8546 12.1613
45.9031 12.0973
45.9515 12.0514
46.0001 12.0112
46.0484 11.9744
46.097 11.9447
46.1454 11.9046
46.194 11.8851
46.2424 11.8002
46.291 11.7244
46.3395 11.6936
46.3881 11.6538
46.4365 11.6613
46.4852 11.6439
46.5337 11.5388
46.5823 11.4949
46.631 11.4199
46.6795 11.4004
46.7282 11.3825
46.7767 11.3342
46.8254 11.2828
46.8739 11.2424
46.9226 11.1859
46.9712 11.2023
47.0199 11.0698
47.0685 11.1041
47.1173 11.0037
47.1658 10.9934
47.2146 10.9443
47.2632 10.8841
47.312 10.8865
47.3606 10.7939
47.4095 10.7871
47.4581 10.7879
47.5069 10.6759
47.5556 10.6627
47.6044 10.6562
47.6531 10.5846
47.702 10.5627
47.7507 10.5296
47.7996 10.459
47.8483 10.4751
47.8972 10.4385
47.9461 10.363
47.9948 10.3006
48.0438 10.3148
48.0925 10.2741
48.1415 10.2629
48.1902 10.1436
48.2392 10.1686
48.288 10.1465
48.337 10.0622
48.3858 10.0106
48.4348 9.99201
48.4837 9.98745
48.5327 9.97585
48.5815 9.92875
48.6306 9.86426
48.6795 9.86742
48.7285 9.77636
48.7774 9.73214
48.8265 9.71401
48.8754 9.66762
48.9245 9.68523
48.9734 9.62916
49.0226 9.57135
49.0715 9.53314
49.1206 9.49704
49.1696 9.4812
49.2188 9.44191
49.2679 9.38569
49.3169 9.36353
49.3661 9.28825
49.4151 9.28266
49.4643 9.29098
49.5134 9.21669
49.5626 9.1807
49.6117 9.09989
49.6609 9.13122
49.71 9.04579
49.7592 9.03113
49.8083 8.97928
49.8576 8.96663
49.9067 8.93828
49.956 8.91241
50.0052 8.88936
50.0545 8.85444
50.1036 8.79233
50.153 8.76634
50.2022 8.74697
50.2515 8.70842
50.3007 8.64887
50.3501 8.6071
50.3993 8.58591
50.4487 8.55421
50.498 8.51571
50.5474 8.49909
50.5966 8.45608
50.6461 8.43928
50.6955 8.38412
50.7448 8.40339
50.7943 8.34801
50.8436 8.31293
50.8931 8.23443
50.9424 8.25673
50.9919 8.20755
51.0413 8.18146
51.0908 8.13853
51.1402 8.12192
51.1897 8.07131
51.2391 8.05319
51.2887 8.0226
51.3381 7.95037
51.3877 7.94442
51.4371 7.93403
51.4867 7.8523
51.5362 7.85761
51.5858 7.79168
51.6353 7.76198
51.6849 7.74827
51.7344 7.69362
51.7841 7.70085
51.8336 7.65976
51.8833 7.62668
51.9328 7.58956
51.9826 7.56835
52.0323 7.491
52.0818 7.49753
52.1316 7.43414
52.1812 7.42829
52.231 7.4175
52.2806 7.37024
52.3304 7.34673
52.38 7.3098
52.4298 7.25812
52.4794 7.24568
52.5293 7.23935
52.5789 7.19315
52.6288 7.14265
52.6785 7.12971
52.7284 7.1018
52.7781 7.09019
52.828 7.04507
52.8777 7.01493
52.9276 6.95121
52.9774 6.94453
53.0273 6.9311
53.0771 6.87211
53.1271 6.87758
53.1769 6.84574
53.2269 6.79986
53.2767 6.7613
53.3267 6.75635
53.3765 6.70684
53.4266 6.71644
53.4766 6.6626
53.5265 6.63372
53.5765 6.60727
53.6264 6.59656
53.6765 6.53948
53.7264 6.52185
53.7765 6.49967
53.8265 6.44218
53.8766 6.42855
53.9266 6.42379
53.9767 6.33358
54.0267 6.36902
54.0769 6.33087
54.1269 6.31117
54.1771 6.26293
54.2271 6.23786
54.2773 6.15671
54.3274 6.17338
54.3776 6.10102
54.4277 6.10474
54.478 6.07487
54.528 6.01712
54.5783 5.97108
54.6285 5.87094
54.6788 5.87856
54.7289 5.81171
54.7792 5.8557
54.8296 5.77325
54.8798 5.69278
54.9301 5.706
54.9803 5.63915
55.0307 5.60461
55.0809 5.5566
55.1314 5.56541
55.1816 5.48141
55.232 5.42459
55.2823 5.35985
55.3328 5.31936
55.383 5.27475
55.4335 5.2596
55.4838 5.1459
55.5344 5.11836
55.5847 5.0667
55.6352 5.00784
55.6856 5.02681
55.7361 5.03211