File: XRD/Ni3Fe_FD0968.xy
TT I
1.27165 6.76045
1.31627 6.45972
1.36089 6.52123
1.40551 6.17615
1.45013 5.54833
1.49476 6.21088
1.53938 5.68945
1.584 5.06803
1.62863 4.92553
1.67325 4.65375
1.71787 5.07643
1.7625 4.83411
1.80712 4.69939
1.85174 4.40167
1.89636 3.91238
1.94099 4.98007
1.98562 5.05125
2.03025 4.21346
2.07487 4.81522
2.11949 4.74886
2.16411 5.3983
2.20874 13.6115
2.25338 22.0245
2.298 6.49667
2.34263 5.83587
2.38725 6.11865
2.43188 6.09518
2.4765 7.03534
2.52115 7.26505
2.56577 8.35289
2.6104 9.00251
2.65503 7.98524
2.69965 8.43681
2.7443 8.71067
2.78893 8.38942
2.83356 8.4513
2.87818 8.53122
2.92281 9.36792
2.96744 9.64568
3.01209 10.4628
3.05672 11.0934
3.10135 12.1055
3.14599 13.2353
3.19062 14.9103
3.23527 15.0572
3.2799 15.5883
3.32454 16.8076
3.36917 17.5936
3.4138 19.0444
3.45844 19.3563
3.50309 20.672
3.54773 21.641
3.59237 23.9016
3.637 86.0191
3.68164 55.466
3.7263 26.0158
3.77094 25.6005
3.81558 26.8635
3.86022 27.1551
3.90486 28.4792
3.9495 29.7469
3.99416 30.523
4.0388 31.6875
4.08344 33.3725
4.12809 34.3045
4.17273 36.2801
4.21738 42.221
4.26204 230.181
4.30669 201.363
4.35133 47.3962
4.39598 43.9892
4.44063 53.0547
4.4853 63.1206
4.52995 49.5714
4.5746 50.7435
4.61925 52.3158
4.6639 54.5537
4.70855 57.0564
4.75322 59.9444
4.79788 62.9094
4.84253 66.0857
4.88719 69.986
4.93184 73.2223
4.97652 78.5619
5.02118 84.8099
5.06583 92.3452
5.11049 101.471
5.15515 161.123
5.19981 280.181
5.24449 2437.31
5.28916 13586.9
5.33382 2869.96
5.37848 173.317
5.42315 124.382
5.46783 110.43
5.5125 103.631
5.55716 99.8901
5.60183 96.4218
5.6465 94.842
5.69117 92.7309
5.73586 90.1313
5.78053 89.8628
5.8252 88.8449
5.86988 89.5772
5.91455 91.1961
5.95924 96.2962
6.00392 173.186
6.0486 809.437
6.09328 4613.47
6.13795 3135.65
6.18263 210.697
6.22733 89.0753
6.27201 80.2053
6.3167 97.829
6.36138 78.4928
6.40606 67.7998
6.45075 65.9736
6.49545 64.6966
6.54014 63.1602
6.58483 61.7149
6.62952 61.8029
6.67421 90.7133
6.71892 134.279
6.76361 67.0868
6.8083 57.7229
6.853 56.5752
6.89769 56.2871
6.94239 55.9522
6.98711 55.1634
7.03181 54.736
7.07651 54.3724
7.12121 54.2481
7.16591 54.6274
7.21063 54.6277
7.25533 69.1764
7.30004 166.359
7.34475 87.2972
7.38945 55.7235
7.43416 53.8434
7.47889 53.6298
7.5236 53.8928
7.56831 54.502
7.61303 56.3011
7.65774 56.5235
7.70247 55.187
7.74719 55.5043
7.79191 56.0471
7.83663 55.9464
7.88135 56.9686
7.92607 57.7137
7.97081 58.9276
8.01553 59.7442
8.06026 61.3015
8.10498 63.0028
8.14971 71.7141
8.19446 70.7382
8.23919 68.2095
8.28392 70.4794
8.32865 72.607
8.37339 76.5874
8.41812 83.1104
8.46288 108.244
8.50761 143.693
8.55235 335.725
8.59709 1147.4
8.64183 2299.82
8.68658 919.345
8.73134 157.9
8.77609 96.332
8.82083 90.4615
8.86558 88.0493
8.91033 87.9611
8.9551 89.3761
8.99985 83.8752
9.04461 81.9583
9.08936 81.4651
9.13412 80.2855
9.17888 80.5524
9.22365 81.2222
9.26841 80.4696
9.31318 81.1119
9.35794 81.0408
9.4027 81.7319
9.44749 82.399
9.49226 83.1236
9.53703 84.2599
9.5818 85.5007
9.62657 89.976
9.67134 95.9878
9.71614 92.0923
9.76091 92.0092
9.80569 94.7763
9.85047 97.7168
9.89525 119.585
9.94005 129.886
9.98484 156.37
10.0296 301.583
10.0744 776.008
10.1192 1804.45
10.164 1516.58
10.2088 356.402
10.2536 121.89
10.2984 109.859
10.3432 111.298
10.388 102.165
10.4328 110.893
10.4776 149.275
10.5224 273.074
10.5672 527.632
10.612 496.824
10.6568 197.205
10.7017 94.6622
10.7465 84.7674
10.7913 81.4899
10.8361 79.7047
10.8809 77.5823
10.9257 76.9079
10.9706 77.522
11.0154 73.5719
11.0602 71.4892
11.105 70.8113
11.1499 74.9244
11.1947 80.7817
11.2395 72.7491
11.2844 69.0257
11.3292 65.9005
11.374 65.1058
11.4189 64.3948
11.4637 63.9051
11.5086 64.3442
11.5534 66.6774
11.5983 64.3029
11.6431 62.6018
11.688 61.8404
11.7328 61.7507
11.7777 61.683
11.8225 61.0786
11.8674 61.434
11.9122 61.6202
11.9571 61.6544
12.002 62.4147
12.0468 65.2692
12.0917 75.1799
12.1366 98.617
12.1814 154.99
12.2263 207.816
12.2712 160.526
12.3161 95.4328
12.3609 68.7309
12.4058 63.5037
12.4507 63.1772
12.4956 63.1321
12.5405 63.2523
12.5853 64.3641
12.6302 71.3169
12.6751 76.3657
12.72 68.4328
12.7649 66.3696
12.8098 67.0659
12.8547 68.0486
12.8996 69.6642
12.9445 70.6282
12.9894 72.4988
13.0343 74.1294
13.0792 77.1161
13.1242 83.884
13.1691 104.273
13.214 139.472
13.2589 234.631
13.3038 381.108
13.3487 422.844
13.3937 245.675
13.4386 119.241
13.4835 100.029
13.5285 112.868
13.5734 150.787
13.6183 248.654
13.6633 361.413
13.7082 327.869
13.7531 178.399
13.7981 94.2786
13.843 79.9661
13.888 77.9542
13.9329 75.4564
13.9779 74.4452
14.0228 72.9387
14.0678 71.6364
14.1127 71.0777
14.1577 70.872
14.2027 70.0136
14.2476 69.0185
14.2926 69.2123
14.3376 70.048
14.3825 68.8542
14.4275 67.6477
14.4725 67.4221
14.5175 67.4968
14.5624 67.7037
14.6074 69.6393
14.6524 70.2236
14.6974 68.4874
14.7424 70.1265
14.7874 75.1434
14.8324 84.43
14.8774 106.136
14.9224 153.133
14.9674 215.056
15.0124 218.541
15.0574 145.426
15.1024 87.2065
15.1474 70.8083
15.1924 69.0617
15.2374 69.5034
15.2824 68.5472
15.3274 66.8139
15.3725 65.6841
15.4175 65.1695
15.4625 64.854
15.5076 65.1821
15.5526 64.9726
15.5976 64.2868
15.6426 64.8908
15.6877 69.1836
15.7327 76.1603
15.7778 90.923
15.8228 124.737
15.8679 174.606
15.9129 195.369
15.958 149.68
16.003 93.2322
16.0481 66.6698
16.0931 63.3473
16.1382 61.3256
16.1833 59.3601
16.2283 57.8785
16.2734 57.3035
16.3185 57.5685
16.3636 58.0404
16.4086 56.461
16.4537 55.2616
16.4988 54.1397
16.5439 54.4149
16.589 54.1976
16.6341 53.8531
16.6792 53.299
16.7243 53.6947
16.7694 53.947
16.8145 53.7485
16.8596 54.5359
16.9047 55.5368
16.9498 55.7021
16.9949 54.4999
17.04 54.6537
17.0851 55.5889
17.1302 57.0986
17.1754 60.1367
17.2205 65.2841
17.2656 73.9181
17.3108 82.683
17.3559 80.1576
17.401 69.2223
17.4462 60.5279
17.4913 57.8022
17.5365 57.9143
17.5815 58.0146
17.6268 58.3066
17.6718 59.1539
17.7171 59.7609
17.7622 59.9201
17.8074 60.5597
17.8525 62.2869
17.8977 65.8536
17.9428 70.9779
17.9881 79.8512
18.0331 98.7892
18.0784 123.198
18.1237 137.392
18.1688 124.453
18.214 98.9901
18.2591 83.8611
18.3044 90.0569
18.3495 101.175
18.3948 105.324
18.4399 93.3752
18.4852 75.159
18.5303 64.3116
18.5756 60.8861
18.6207 60.0417
18.666 59.2775
18.7112 58.4662
18.7565 57.9482
18.8016 57.3253
18.8469 56.9709
18.892 56.5388
18.9374 56.0893
18.9825 55.8931
19.0278 55.9615
19.073 55.7792
19.1183 55.9948
19.1635 56.8766
19.2088 58.0625
19.254 60.6428
19.2993 65.7139
19.3447 71.9713
19.3898 74.9641
19.4352 70.1406
19.4804 61.4641
19.5257 55.3142
19.5709 53.2528
19.6163 52.9132
19.6615 52.6636
19.7068 52.2435
19.752 52.0751
19.7974 52.433
19.8426 53.2115
19.888 53.8413
19.9332 54.9217
19.9786 57.5789
20.0238 61.6252
20.0692 66.7236
20.1144 68.7534
20.1598 66.1374
20.205 61.8851
20.2504 61.3411
20.2957 63.7885
20.3411 65.1243
20.3863 62.3879
20.4318 56.9531
20.477 52.5117
20.5224 50.7065
20.5677 49.6982
20.6131 49.3201
20.6586 48.7624
20.7038 48.6551
20.7493 48.2547
20.7945 48.1077
20.84 47.7772
20.8853 47.8168
20.9307 47.5662
20.976 47.8468
21.0215 47.8118
21.0668 48.0711
21.1122 48.5005
21.1575 49.1949
21.203 49.991
21.2483 50.57
21.2938 50.4784
21.3391 49.0948
21.3846 47.9929
21.4299 47.469
21.4754 47.4335
21.5207 47.5932
21.5662 47.9524
21.6116 48.2094
21.6571 48.7545
21.7024 49.5639
21.7479 51.2516
21.7933 54.25
21.8388 58.4863
21.8843 62.3079
21.9297 63.4484
21.9752 61.4248
22.0206 57.8994
22.0661 55.4696
22.1115 55.2968
22.157 54.8262
22.2024 52.9393
22.248 50.2089
22.2933 48.7854
22.3389 48.0716
22.3843 47.9677
22.4299 48.0602
22.4753 47.8349
22.5208 47.5954
22.5662 47.4708
22.6118 47.6918
22.6572 47.7888
22.7028 48.1982
22.7483 48.6849
22.7939 49.1033
22.8393 50.8524
22.8849 53.3837
22.9303 55.7136
22.9759 56.8912
23.0214 56.0193
23.067 53.246
23.1126 49.8802
23.1581 48.2723
23.2037 47.8384
23.2492 47.7571
23.2948 47.8028
23.3403 47.9583
23.3859 48.5264
23.4314 49.5824
23.477 51.6716
23.5225 54.2797
23.5682 56.4947
23.6137 56.9094
23.6593 54.4024
23.7048 50.4411
23.7505 47.1766
23.796 45.7197
23.8417 45.0945
23.8872 44.7463
23.9329 44.3825
23.9784 43.9416
24.0241 43.8426
24.0697 43.634
24.1154 43.2057
24.1609 43.2422
24.2066 42.941
24.2522 42.9403
24.2979 42.6338
24.3434 42.4808
24.3892 42.4005
24.4349 42.3865
24.4805 42.2179
24.5262 42.3823
24.5718 42.1522
24.6175 42.1278
24.6631 41.9264
24.7089 41.6516
24.7545 41.4884
24.8002 41.4128
24.8458 41.4286
24.8916 41.3189
24.9372 41.3066
24.983 41.5499
25.0286 42.0055
25.0744 42.6051
25.12 42.9187
25.1658 43.5706
25.2114 43.857
25.2572 44.0347
25.3029 44.233
25.3487 44.343
25.3943 43.7394
25.4402 42.4587
25.4858 41.579
25.5316 40.8228
25.5773 40.1678
25.6231 40.0555
25.669 39.7226
25.7147 39.6186
25.7605 39.5425
25.8062 39.7068
25.8521 39.8266
25.8977 39.7789
25.9436 40.1519
25.9893 40.2761
26.0352 40.7112
26.0809 40.8847
26.1268 40.9428
26.1725 40.5647
26.2184 39.9471
26.2641 39.4337
26.31 39.3716
26.3557 39.3099
26.4017 39.3757
26.4474 39.7259
26.4933 39.9132
26.5391 40.5438
26.585 41.0729
26.6308 41.4381
26.6767 41.3684
26.7225 40.9857
26.7684 40.6654
26.8142 40.1217
26.8601 39.7563
26.9059 39.3325
26.9519 38.6736
26.9979 38.434
27.0437 38.1817
27.0896 37.9677
27.1354 37.9745
27.1814 37.9393
27.2272 37.8196
27.2732 38.0063
27.3191 37.6471
27.3651 37.7677
27.4109 37.7926
27.4569 37.8305
27.5027 37.8574
27.5488 37.7247
27.5946 37.5746
27.6407 37.4573
27.6865 37.3253
27.7326 37.1385
27.7784 37.1228
27.8245 37.07
27.8703 37.2702
27.9164 37.5408
27.9623 37.6352
28.0084 38.042
28.0543 38.4713
28.1003 38.2879
28.1462 38.1685
28.1923 37.8482
28.2384 37.1735
28.2843 36.9593
28.3304 36.5181
28.3764 36.0232
28.4225 35.7157
28.4684 35.5383
28.5145 35.3386
28.5605 35.2069
28.6066 35.0125
28.6526 34.878
28.6987 35.0262
28.7447 34.937
28.7908 34.8256
28.8368 34.8725
28.8829 34.6853
28.9289 34.7485
28.9751 34.4448
29.0211 34.2551
29.0673 34.1644
29.1133 34.0339
29.1595 33.8443
29.2055 33.63
29.2517 33.7076
29.2977 33.7632
29.3439 33.7625
29.3899 33.6671
29.4361 33.4595
29.4824 33.3496
29.5284 33.1395
29.5746 32.8575
29.6207 32.6096
29.6669 32.4369
29.713 32.4724
29.7593 32.2099
29.8053 32.2304
29.8516 32.154
29.8977 32.1495
29.9439 31.9851
29.99 31.9644
30.0363 31.8445
30.0824 31.8865
30.1287 31.7948
30.1748 31.9195
30.2211 31.8109
30.2673 31.6354
30.3136 31.7512
30.3597 31.6538
30.406 31.5278
30.4522 31.4291
30.4985 31.3978
30.5447 31.5527
30.591 31.5651
30.6372 31.6511
30.6835 31.6313
30.7297 31.581
30.7761 31.5478
30.8224 31.3944
30.8686 31.186
30.915 31.1003
30.9612 31.0604
31.0076 30.7208
31.0538 30.5812
31.1002 30.5221
31.1464 30.3319
31.1928 30.3613
31.2391 30.3875
31.2855 30.24
31.3317 30.326
31.3781 30.3902
31.4244 30.3074
31.4708 30.2716
31.5171 30.2212
31.5636 30.2349
31.6098 29.9467
31.6563 29.8364
31.7026 29.6856
31.7491 29.5971
31.7953 29.5413
31.8418 29.6191
31.8881 29.6706
31.9346 29.6266
31.9809 29.4252
32.0275 29.3817
32.074 29.3523
32.1203 29.022
32.1668 29.0404
32.2132 28.9437
32.2597 28.7065
32.306 28.652
32.3526 28.4862
32.399 28.4362
32.4455 28.1954
32.4919 28.2957
32.5385 28.0854
32.5848 27.9293
32.6314 27.9877
32.6778 27.9451
32.7244 27.8491
32.7708 27.6699
32.8174 27.6906
32.8638 27.4915
32.9104 27.5956
32.9569 27.4742
33.0035 27.3777
33.0499 27.3316
33.0966 27.3261
33.143 27.2578
33.1897 27.1958
33.2361 27.1368
33.2828 27.079
33.3293 26.9443
33.3759 26.9155
33.4226 26.7289
33.4691 26.5799
33.5158 26.5298
33.5623 26.4719
33.609 26.3922
33.6555 26.2035
33.7022 26.0847
33.7487 26.0153
33.7954 26.0456
33.842 25.8969
33.8887 25.9063
33.9353 25.8078
33.982 25.7117
34.0286 25.6661
34.0753 25.5294
34.1219 25.4891
34.1687 25.3246
34.2152 25.332
34.262 25.1735
34.3086 25.1667
34.3554 25.084
34.402 25.0067
34.4488 24.7982
34.4954 24.7927
34.5422 24.7294
34.5889 24.6096
34.6357 24.5076
34.6825 24.4988
34.7292 24.3729
34.776 24.3877
34.8227 24.2915
34.8695 24.2281
34.9162 24.1001
34.9631 24.0621
35.0098 24.012
35.0566 23.8869
35.1033 23.8083
35.1502 23.827
35.1969 23.7444
35.2438 23.7788
35.2906 23.7261
35.3375 23.6591
35.3842 23.6008
35.4311 23.5773
35.4779 23.6312
35.5248 23.5421
35.5716 23.3667
35.6185 23.3061
35.6653 23.2284
35.7123 23.1988
35.759 23.0188
35.806 22.9852
35.8528 22.8703
35.8998 22.8079
35.9468 22.7259
35.9936 22.729
36.0406 22.6043
36.0874 22.6286
36.1345 22.4782
36.1813 22.4002
36.2283 22.2653
36.2752 22.1958
36.3222 22.2577
36.3691 22.1469
36.4161 22.0646
36.463 22.0546
36.5101 21.9372
36.557 22.0015
36.6041 21.763
36.651 21.7687
36.6981 21.7065
36.745 21.5632
36.7921 21.5168
36.839 21.5322
36.8861 21.3893
36.9331 21.2912
36.9802 21.2562
37.0272 21.2968
37.0743 21.1988
37.1213 21.0961
37.1684 21.026
37.2154 20.9798
37.2626 20.9019
37.3098 20.8443
37.3568 20.7926
37.404 20.6923
37.451 20.6576
37.4982 20.5604
37.5452 20.4815
37.5924 20.4689
37.6395 20.4642
37.6867 20.2979
37.7337 20.2712
37.781 20.1801
37.8281 20.1147
37.8753 20.0696
37.9224 19.9509
37.9697 19.961
38.0168 19.863
38.064 19.7982
38.1111 19.7535
38.1584 19.739
38.2056 19.6083
38.2529 19.5557
38.3 19.4849
38.3473 19.4134
38.3945 19.3299
38.4418 19.3578
38.489 19.2538
38.5363 19.2029
38.5837 19.1582
38.6309 19.0328
38.6782 19.0191
38.7254 18.9427
38.7728 18.8789
38.82 18.7978
38.8674 18.8344
38.9146 18.6695
38.9621 18.5956
39.0093 18.5908
39.0567 18.5675
39.104 18.461
39.1514 18.415
39.1987 18.3695
39.2461 18.3659
39.2934 18.3183
39.3409 18.1183
39.3882 18.0922
39.4356 18.0729
39.483 17.9854
39.5304 17.886
39.5778 17.9108
39.6253 17.9019
39.6726 17.783
39.7201 17.7613
39.7675 17.6754
39.815 17.6233
39.8624 17.5649
39.9099 17.5005
39.9575 17.3873
40.0049 17.3584
40.0525 17.2772
40.0999 17.2937
40.1474 17.2492
40.1949 17.122
40.2425 17.038
40.2899 17.0871
40.3375 16.9943
40.385 16.9258
40.4326 16.885
40.48 16.7711
40.5277 16.8323
40.5752 16.7092
40.6228 16.7108
40.6703 16.6174
40.718 16.577
40.7655 16.4941
40.8132 16.4797
40.8607 16.4227
40.9084 16.3911
40.9559 16.336
41.0036 16.282
41.0512 16.274
41.0989 16.2048
41.1465 16.1034
41.1942 16.0915
41.242 15.9985
41.2896 15.9186
41.3373 15.8372
41.3849 15.9017
41.4327 15.732
41.4803 15.7198
41.5281 15.6616
41.5758 15.6091
41.6236 15.5348
41.6712 15.5016
41.7191 15.4774
41.7667 15.4096
41.8146 15.4201
41.8622 15.2837
41.9101 15.3287
41.9578 15.2402
42.0057 15.1515
42.0534 15.1217
42.1013 15.0354
42.149 15.0533
42.1969 15.0009
42.2446 14.9369
42.2925 14.8368
42.3403 14.7912
42.3882 14.8029
42.436 14.6842
42.4839 14.6422
42.5319 14.6379
42.5797 14.5894
42.6277 14.5271
42.6755 14.4795
42.7235 14.4085
42.7713 14.4739
42.8193 14.3456
42.8671 14.3333
42.9152 14.2751
42.963 14.171
43.0111 14.1176
43.0589 14.057
43.107 13.9992
43.1549 14.0148
43.2029 13.9136
43.2508 13.89
43.2989 13.7784
43.3468 13.7517
43.3949 13.7645
43.4429 13.6951
43.491 13.6097
43.5389 13.585
43.5871 13.5772
43.635 13.4669
43.6832 13.4664
43.7312 13.4222
43.7793 13.3953
43.8273 13.3302
43.8755 13.2775
43.9237 13.2147
43.9717 13.2071
44.0199 13.1483
44.068 13.0879
44.1162 13.034
44.1642 13.0092
44.2125 12.9498
44.2606 12.8912
44.3088 12.8529
44.3569 12.8232
44.4052 12.7729
44.4533 12.7389
44.5016 12.666
44.5497 12.6586
44.598 12.6002
44.6461 12.5707
44.6945 12.4957
44.7426 12.4125
44.791 12.4084
44.8391 12.4215
44.8875 12.3502
44.9357 12.2926
44.984 12.3116
45.0322 12.2092
45.0806 12.1617
45.1288 12.1229
45.1773 12.108
45.2257 12.0346
45.2739 11.9637
45.3224 11.9618
45.3706 11.8982
45.4191 11.7877
45.4673 11.8422
45.5158 11.7591
45.5641 11.7126
45.6126 11.7321
45.6609 11.6614
45.7094 11.5842
45.7577 11.5793
45.8063 11.5125
45.8546 11.4606
45.9031 11.478
45.9515 11.3652
46.0001 11.3843
46.0484 11.3269
46.097 11.2876
46.1454 11.2685
46.194 11.2134
46.2424 11.1466
46.291 11.1201
46.3395 11.107
46.3881 11.0366
46.4365 11.0216
46.4852 10.9687
46.5337 10.9315
46.5823 10.8715
46.631 10.8209
46.6795 10.8096
46.7282 10.757
46.7767 10.7138
46.8254 10.6292
46.8739 10.6323
46.9226 10.6026
46.9712 10.5709
47.0199 10.5046
47.0685 10.4928
47.1173 10.4463
47.1658 10.4244
47.2146 10.3384
47.2632 10.3261
47.312 10.2884
47.3606 10.2368
47.4095 10.209
47.4581 10.2004
47.5069 10.1322
47.5556 10.0673
47.6044 10.0533
47.6531 10.0164
47.702 9.95471
47.7507 9.93812
47.7996 9.92504
47.8483 9.84836
47.8972 9.8639
47.9461 9.78207
47.9948 9.75879
48.0438 9.70115
48.0925 9.71447
48.1415 9.72249
48.1902 9.68305
48.2392 9.61569
48.288 9.60253
48.337 9.55018
48.3858 9.53897
48.4348 9.46697
48.4837 9.46112
48.5327 9.40342
48.5815 9.37595
48.6306 9.3499
48.6795 9.30594
48.7285 9.23778
48.7774 9.2519
48.8265 9.22643
48.8754 9.12663
48.9245 9.10746
48.9734 9.12453
49.0226 9.09718
49.0715 9.02292
49.1206 8.98496
49.1696 8.97254
49.2188 8.90716
49.2679 8.84713
49.3169 8.82636
49.3661 8.77544
49.4151 8.7669
49.4643 8.7403
49.5134 8.675
49.5626 8.64535
49.6117 8.64675
49.6609 8.66294
49.71 8.55079
49.7592 8.55465
49.8083 8.49918
49.8576 8.52135
49.9067 8.46297
49.956 8.41474
50.0052 8.38271
50.0545 8.34615
50.1036 8.31746
50.153 8.28886
50.2022 8.25896
50.2515 8.23416
50.3007 8.20563
50.3501 8.12723
50.3993 8.12016
50.4487 8.07796
50.498 8.06579
50.5474 8.04292
50.5966 8.00696
50.6461 7.99342
50.6955 7.98153
50.7448 7.92821
50.7943 7.86498
50.8436 7.86846
50.8931 7.79529
50.9424 7.80073
50.9919 7.74549
51.0413 7.73798
51.0908 7.73874
51.1402 7.6635
51.1897 7.64918
51.2391 7.57304
51.2887 7.5732
51.3381 7.54186
51.3877 7.52923
51.4371 7.44888
51.4867 7.48516
51.5362 7.42837
51.5858 7.37438
51.6353 7.35022
51.6849 7.3354
51.7344 7.284
51.7841 7.26761
51.8336 7.22546
51.8833 7.23993
51.9328 7.16089
51.9826 7.13514
52.0323 7.15598
52.0818 7.0651
52.1316 7.05804
52.1812 7.06202
52.231 7.0052
52.2806 6.98162
52.3304 6.96595
52.38 6.91376
52.4298 6.89896
52.4794 6.85997
52.5293 6.82775
52.5789 6.8057
52.6288 6.77385
52.6785 6.7652
52.7284 6.71594
52.7781 6.69528
52.828 6.63054
52.8777 6.60263
52.9276 6.59154
52.9774 6.57635
53.0273 6.58712
53.0771 6.51728
53.1271 6.50269
53.1769 6.48602
53.2269 6.47587
53.2767 6.41309
53.3267 6.38721
53.3765 6.34158
53.4266 6.33901
53.4766 6.3036
53.5265 6.30386
53.5765 6.2476
53.6264 6.23245
53.6765 6.20456
53.7264 6.16371
53.7765 6.16393
53.8265 6.11249
53.8766 6.074
53.9266 6.09395
53.9767 6.06376
54.0267 6.01758
54.0769 6.00978
54.1269 5.91763
54.1771 5.93043
54.2271 5.9118
54.2773 5.87795
54.3274 5.87127
54.3776 5.8283
54.4277 5.77237
54.478 5.72003
54.528 5.73198
54.5783 5.65859
54.6285 5.62606
54.6788 5.57148
54.7289 5.54779
54.7792 5.50492
54.8296 5.44138
54.8798 5.44765
54.9301 5.41175
54.9803 5.32339
55.0307 5.34311
55.0809 5.26396
55.1314 5.264
55.1816 5.1696
55.232 5.12159
55.2823 5.1369
55.3328 5.05901
55.383 5.03816
55.4335 4.97883
55.4838 4.89029
55.5344 4.86939
55.5847 4.82391
55.6352 4.83306
55.6856 4.75818
55.7361 4.68667