File: XRD/Ni3Fe_FD0537.xy
TT I
1.27165 7.52009
1.31627 6.24445
1.36089 6.91288
1.40551 6.52255
1.45013 6.48204
1.49476 6.16662
1.53938 5.49324
1.584 5.11144
1.62863 5.69773
1.67325 5.16747
1.71787 5.25186
1.7625 4.31363
1.80712 5.11179
1.85174 5.13519
1.89636 5.24044
1.94099 4.98923
1.98562 5.02918
2.03025 4.23095
2.07487 4.745
2.11949 5.195
2.16411 4.81022
2.20874 16.8783
2.25338 29.3323
2.298 6.45095
2.34263 5.49112
2.38725 5.47635
2.43188 6.29445
2.4765 7.19734
2.52115 6.84206
2.56577 7.57987
2.6104 7.57165
2.65503 7.3296
2.69965 8.08749
2.7443 8.04318
2.78893 7.38097
2.83356 8.23529
2.87818 8.50196
2.92281 8.90884
2.96744 9.89411
3.01209 10.381
3.05672 11.28
3.10135 12.3275
3.14599 12.9833
3.19062 14.1077
3.23527 14.9419
3.2799 15.96
3.32454 17.1271
3.36917 18.1401
3.4138 19.1163
3.45844 19.9835
3.50309 20.9244
3.54773 22.7484
3.59237 24.9415
3.637 118.522
3.68164 73.0675
3.7263 27.011
3.77094 26.5565
3.81558 27.3929
3.86022 28.3151
3.90486 29.2879
3.9495 29.9369
3.99416 31.374
4.0388 32.1788
4.08344 34.6121
4.12809 35.5358
4.17273 37.5686
4.21738 45.0154
4.26204 317.7
4.30669 287.595
4.35133 51.5448
4.39598 45.3266
4.44063 57.7759
4.4853 73.0359
4.52995 51.245
4.5746 51.4372
4.61925 53.9199
4.6639 55.9697
4.70855 58.5381
4.75322 61.0971
4.79788 63.9574
4.84253 67.4374
4.88719 71.6885
4.93184 75.2938
4.97652 80.6722
5.02118 87.1643
5.06583 95.3748
5.11049 106.766
5.15515 193.726
5.19981 369.444
5.24449 2699.99
5.28916 11800.6
5.33382 3370.68
5.37848 207.443
5.42315 133.394
5.46783 115.718
5.5125 107.253
5.55716 103.095
5.60183 100.01
5.6465 98.5242
5.69117 95.516
5.73586 93.0538
5.78053 91.8048
5.8252 91.6773
5.86988 92.7502
5.91455 95.1726
5.95924 102.472
6.00392 205.856
6.0486 932.503
6.09328 4091.17
6.13795 3603.08
6.18263 294.184
6.22733 97.8442
6.27201 86.007
6.3167 113.71
6.36138 85.4191
6.40606 70.194
6.45075 67.9694
6.49545 66.5196
6.54014 65.175
6.58483 64.1395
6.62952 64.2316
6.67421 105.974
6.71892 177.486
6.76361 73.8057
6.8083 59.9061
6.853 58.0808
6.89769 58.0553
6.94239 57.6253
6.98711 56.7945
7.03181 56.405
7.07651 56.3349
7.12121 56.3987
7.16591 56.4151
7.21063 56.7158
7.25533 75.8677
7.30004 227.755
7.34475 107.416
7.38945 58.3839
7.43416 55.9874
7.47889 55.5772
7.5236 55.7809
7.56831 56.0781
7.61303 58.5029
7.65774 59.3757
7.70247 57.0237
7.74719 56.91
7.79191 57.6139
7.83663 57.6109
7.88135 58.9008
7.92607 59.683
7.97081 60.5917
8.01553 61.4319
8.06026 62.9376
8.10498 64.9156
8.14971 76.9692
8.19446 74.9648
8.23919 70.2555
8.28392 72.4893
8.32865 74.6226
8.37339 78.7542
8.41812 86.7393
8.46288 123.997
8.50761 166.028
8.55235 375.003
8.59709 1088.51
8.64183 2159.91
8.68658 1089.61
8.73134 196.226
8.77609 102.362
8.82083 94.2467
8.86558 90.5727
8.91033 91.3758
8.9551 94.756
8.99985 86.7145
9.04461 84.414
9.08936 83.2844
9.13412 82.5037
9.17888 82.8117
9.22365 84.1702
9.26841 82.7756
9.31318 83.3088
9.35794 83.3275
9.4027 83.6135
9.44749 84.6256
9.49226 85.0531
9.53703 85.9607
9.5818 88.1018
9.62657 93.4331
9.67134 102.798
9.71614 95.3837
9.76091 94.9588
9.80569 96.8758
9.85047 100.74
9.89525 132.197
9.94005 147.263
9.98484 174.333
10.0296 329.434
10.0744 746.478
10.1192 1628.26
10.164 1716.06
10.2088 469.342
10.2536 134.903
10.2984 117.431
10.3432 120.583
10.388 106.764
10.4328 117.4
10.4776 157.278
10.5224 266.483
10.5672 497.332
10.612 541.595
10.6568 227.002
10.7017 100.154
10.7465 87.6695
10.7913 84.1692
10.8361 81.8698
10.8809 80.2343
10.9257 80.1087
10.9706 81.1682
11.0154 76.2055
11.0602 73.7618
11.105 72.8711
11.1499 78.9637
11.1947 89.9447
11.2395 78.0604
11.2844 72.385
11.3292 68.337
11.374 67.1788
11.4189 66.4122
11.4637 65.7359
11.5086 66.4458
11.5534 70.7612
11.5983 67.1982
11.6431 64.5479
11.688 63.6594
11.7328 63.7423
11.7777 63.763
11.8225 63.253
11.8674 63.1783
11.9122 63.6754
11.9571 63.6402
12.002 63.9854
12.0468 68.0688
12.0917 79.3251
12.1366 101.641
12.1814 147.244
12.2263 204.567
12.2712 179.061
12.3161 105.911
12.3609 73.9193
12.4058 66.0693
12.4507 65.1984
12.4956 65.5051
12.5405 65.2937
12.5853 66.6924
12.6302 76.7692
12.6751 84.7602
12.72 72.0672
12.7649 68.6494
12.8098 69.1708
12.8547 70.0084
12.8996 71.6324
12.9445 72.8049
12.9894 74.8698
13.0343 76.3815
13.0792 79.1474
13.1242 87.9227
13.1691 111.632
13.214 146.026
13.2589 224.276
13.3038 346.936
13.3487 436.083
13.3937 293.722
13.4386 132.554
13.4835 106.346
13.5285 119.692
13.5734 153.461
13.6183 231.312
13.6633 333.859
13.7082 355.482
13.7531 204.828
13.7981 103.103
13.843 83.4302
13.888 80.5965
13.9329 78.3276
13.9779 76.7792
14.0228 74.914
14.0678 73.8288
14.1127 73.5466
14.1577 73.5874
14.2027 72.4433
14.2476 71.1929
14.2926 71.6402
14.3376 73.0459
14.3825 71.6777
14.4275 69.8447
14.4725 69.3107
14.5175 69.6285
14.5624 69.7803
14.6074 72.608
14.6524 73.1037
14.6974 71.3031
14.7424 72.3161
14.7874 78.775
14.8324 88.3597
14.8774 107.757
14.9224 145.425
14.9674 198.496
15.0124 224.768
15.0574 162.378
15.1024 96.7375
15.1474 74.0941
15.1924 71.5799
15.2374 73.1006
15.2824 72.0724
15.3274 69.5389
15.3725 67.7844
15.4175 67.3743
15.4625 66.8215
15.5076 67.3869
15.5526 67.0225
15.5976 66.2482
15.6426 67.0371
15.6877 72.2026
15.7327 79.3618
15.7778 93.5454
15.8228 120.724
15.8679 161.985
15.9129 193.238
15.958 166.306
16.003 104.185
16.0481 70.7554
16.0931 66.7039
16.1382 64.4285
16.1833 61.6045
16.2283 59.9019
16.2734 59.2433
16.3185 60.0341
16.3636 61.339
16.4086 59.1796
16.4537 57.1112
16.4988 56.1773
16.5439 56.3942
16.589 55.9099
16.6341 55.8019
16.6792 55.2607
16.7243 55.6406
16.7694 55.8017
16.8145 55.6334
16.8596 56.0018
16.9047 58.2228
16.9498 58.5153
16.9949 56.7172
17.04 56.4143
17.0851 57.4413
17.1302 59.0386
17.1754 62.0855
17.2205 66.1307
17.2656 73.3373
17.3108 82.2998
17.3559 83.3109
17.401 74.2635
17.4462 63.6898
17.4913 60.0454
17.5365 60.0304
17.5815 59.9
17.6268 60.2861
17.6718 61.1705
17.7171 61.5756
17.7622 62.1239
17.8074 62.2928
17.8525 64.5529
17.8977 68.3793
17.9428 73.933
17.9881 81.7231
18.0331 96.7056
18.0784 116.791
18.1237 138.179
18.1688 135.894
18.214 109.076
18.2591 87.9909
18.3044 89.3174
18.3495 98.9512
18.3948 106.909
18.4399 100.693
18.4852 81.4245
18.5303 67.5911
18.5756 63.2109
18.6207 61.9757
18.666 61.3199
18.7112 60.5091
18.7565 59.5967
18.8016 59.3429
18.8469 58.6688
18.892 58.4936
18.9374 57.9131
18.9825 57.8991
19.0278 57.8865
19.073 57.7116
19.1183 58.2136
19.1635 58.9988
19.2088 60.1697
19.254 62.098
19.2993 66.2569
19.3447 72.4957
19.3898 77.1604
19.4352 74.5197
19.4804 65.1373
19.5257 57.8079
19.5709 55.0468
19.6163 54.5636
19.6615 54.1788
19.7068 53.9693
19.752 53.798
19.7974 54.1756
19.8426 54.9634
19.888 56.006
19.9332 56.8365
19.9786 58.8851
20.0238 61.996
20.0692 66.4655
20.1144 70.4023
20.1598 69.8029
20.205 64.7277
20.2504 62.4684
20.2957 63.6358
20.3411 66.1722
20.3863 65.5446
20.4318 60.079
20.477 54.9159
20.5224 52.7939
20.5677 51.9523
20.6131 50.9452
20.6586 50.1865
20.7038 50.2003
20.7493 49.6968
20.7945 49.5298
20.84 49.3946
20.8853 49.3054
20.9307 49.208
20.976 49.343
21.0215 49.1748
21.0668 49.4704
21.1122 49.9513
21.1575 50.5319
21.203 51.2141
21.2483 51.9434
21.2938 52.1272
21.3391 50.7889
21.3846 49.7822
21.4299 49.0461
21.4754 49.0673
21.5207 48.867
21.5662 49.3938
21.6116 49.6814
21.6571 50.2689
21.7024 51.2693
21.7479 52.7495
21.7933 55.3615
21.8388 58.5394
21.8843 62.251
21.9297 65.1245
21.9752 64.8199
22.0206 61.08
22.0661 57.4575
22.1115 56.506
22.157 56.7313
22.2024 55.4737
22.248 52.5982
22.2933 50.7951
22.3389 49.8193
22.3843 49.8109
22.4299 49.7491
22.4753 49.5666
22.5208 49.3
22.5662 49.0082
22.6118 49.4073
22.6572 49.3617
22.7028 49.8248
22.7483 50.1542
22.7939 50.8674
22.8393 52.2797
22.8849 53.9305
22.9303 55.9426
22.9759 58.2044
23.0214 58.3554
23.067 55.8922
23.1126 52.2523
23.1581 50.0659
23.2037 49.451
23.2492 49.4187
23.2948 49.2891
23.3403 49.5208
23.3859 50.1129
23.4314 51.0489
23.477 52.7494
23.5225 54.7089
23.5682 56.9206
23.6137 58.5877
23.6593 56.9896
23.7048 52.9191
23.7505 49.2955
23.796 47.3175
23.8417 46.6791
23.8872 46.2034
23.9329 45.8706
23.9784 45.485
24.0241 45.2616
24.0697 44.9729
24.1154 44.6721
24.1609 44.5681
24.2066 44.4056
24.2522 44.3412
24.2979 43.9144
24.3434 44.0815
24.3892 43.759
24.4349 43.5971
24.4805 43.3883
24.5262 43.5672
24.5718 43.416
24.6175 43.4579
24.6631 43.4599
24.7089 42.9859
24.7545 42.8737
24.8002 42.7333
24.8458 42.7623
24.8916 42.5035
24.9372 42.7567
24.983 43.0809
25.0286 43.2562
25.0744 43.6441
25.12 44.0007
25.1658 44.6837
25.2114 45.1787
25.2572 45.1549
25.3029 45.2147
25.3487 45.3063
25.3943 45.2651
25.4402 44.1964
25.4858 43.3303
25.5316 42.198
25.5773 41.3659
25.6231 41.4027
25.669 40.9408
25.7147 41.0554
25.7605 41.0522
25.8062 41.054
25.8521 41.255
25.8977 41.0515
25.9436 41.3737
25.9893 41.3612
26.0352 41.8388
26.0809 41.879
26.1268 42.2376
26.1725 42.0485
26.2184 41.4274
26.2641 40.9233
26.31 40.6534
26.3557 40.6087
26.4017 40.4595
26.4474 40.8238
26.4933 41.1032
26.5391 41.5837
26.585 41.9285
26.6308 42.4116
26.6767 42.5276
26.7225 42.5487
26.7684 42.0788
26.8142 41.3858
26.8601 41.0423
26.9059 40.547
26.9519 40.0545
26.9979 39.6961
27.0437 39.4487
27.0896 39.2441
27.1354 39.2599
27.1814 39.1893
27.2272 38.9648
27.2732 38.9997
27.3191 38.7168
27.3651 38.9009
27.4109 38.7286
27.4569 38.9695
27.5027 38.9906
27.5488 39.0042
27.5946 38.8054
27.6407 38.5998
27.6865 38.5452
27.7326 38.2794
27.7784 38.4073
27.8245 38.2701
27.8703 38.3651
27.9164 38.5949
27.9623 38.7134
28.0084 39.0701
28.0543 39.4619
28.1003 39.3269
28.1462 39.3844
28.1923 39.0087
28.2384 38.4635
28.2843 38.3163
28.3304 37.5692
28.3764 37.2916
28.4225 36.9144
28.4684 36.6493
28.5145 36.4209
28.5605 36.3501
28.6066 36.1729
28.6526 36.0731
28.6987 36.2139
28.7447 35.9804
28.7908 35.8704
28.8368 35.815
28.8829 35.793
28.9289 35.8092
28.9751 35.6093
29.0211 35.3694
29.0673 35.1368
29.1133 34.9586
29.1595 34.8396
29.2055 34.6738
29.2517 34.723
29.2977 34.6799
29.3439 34.5947
29.3899 34.6815
29.4361 34.505
29.4824 34.4872
29.5284 34.1867
29.5746 33.8947
29.6207 33.592
29.6669 33.5003
29.713 33.4413
29.7593 33.289
29.8053 33.213
29.8516 33.2928
29.8977 33.1381
29.9439 33.1177
29.99 32.9582
30.0363 32.9071
30.0824 32.9938
30.1287 32.8443
30.1748 32.7293
30.2211 32.8975
30.2673 32.6559
30.3136 32.8234
30.3597 32.6834
30.406 32.5901
30.4522 32.5979
30.4985 32.4315
30.5447 32.5739
30.591 32.4202
30.6372 32.5298
30.6835 32.4593
30.7297 32.5736
30.7761 32.6074
30.8224 32.408
30.8686 32.2852
30.915 32.0539
30.9612 31.8787
31.0076 31.6892
31.0538 31.6404
31.1002 31.4994
31.1464 31.2316
31.1928 31.3735
31.2391 31.4285
31.2855 31.2664
31.3317 31.1339
31.3781 31.2605
31.4244 31.2543
31.4708 31.2156
31.5171 31.1878
31.5636 31.2053
31.6098 30.9136
31.6563 30.7226
31.7026 30.728
31.7491 30.4718
31.7953 30.4958
31.8418 30.5573
31.8881 30.5028
31.9346 30.4043
31.9809 30.3834
32.0275 30.3329
32.074 30.2517
32.1203 29.9788
32.1668 29.9259
32.2132 29.7415
32.2597 29.6371
32.306 29.61
32.3526 29.3806
32.399 29.3249
32.4455 29.1353
32.4919 29.1138
32.5385 29.0266
32.5848 28.822
32.6314 28.797
32.6778 28.7876
32.7244 28.6429
32.7708 28.5006
32.8174 28.5209
32.8638 28.3045
32.9104 28.4433
32.9569 28.3197
33.0035 28.2599
33.0499 28.2196
33.0966 28.1257
33.143 28.1326
33.1897 28.06
33.2361 27.9272
33.2828 27.8795
33.3293 27.7245
33.3759 27.7538
33.4226 27.5847
33.4691 27.5205
33.5158 27.3183
33.5623 27.1796
33.609 27.0916
33.6555 27.0004
33.7022 26.9655
33.7487 26.8853
33.7954 26.796
33.842 26.7056
33.8887 26.6882
33.9353 26.5003
33.982 26.4512
34.0286 26.3911
34.0753 26.3125
34.1219 26.188
34.1687 26.1994
34.2152 26.1455
34.262 25.9417
34.3086 25.9066
34.3554 25.8522
34.402 25.723
34.4488 25.5817
34.4954 25.5845
34.5422 25.5513
34.5889 25.4948
34.6357 25.2669
34.6825 25.2476
34.7292 25.2249
34.776 25.0018
34.8227 25.0225
34.8695 24.9844
34.9162 24.9412
34.9631 24.7772
35.0098 24.8013
35.0566 24.7514
35.1033 24.5617
35.1502 24.5713
35.1969 24.5161
35.2438 24.4935
35.2906 24.3412
35.3375 24.4216
35.3842 24.2119
35.4311 24.2993
35.4779 24.2065
35.5248 24.2714
35.5716 24.12
35.6185 23.9827
35.6653 23.9342
35.7123 23.8554
35.759 23.7499
35.806 23.6394
35.8528 23.4488
35.8998 23.4699
35.9468 23.3593
35.9936 23.4097
36.0406 23.3198
36.0874 23.3276
36.1345 23.1548
36.1813 23.2233
36.2283 22.962
36.2752 22.9521
36.3222 22.9275
36.3691 22.8402
36.4161 22.7016
36.463 22.7591
36.5101 22.6742
36.557 22.6194
36.6041 22.4513
36.651 22.4627
36.6981 22.3313
36.745 22.3746
36.7921 22.287
36.839 22.1296
36.8861 22.1208
36.9331 22.0483
36.9802 21.9591
37.0272 21.8414
37.0743 21.8522
37.1213 21.7602
37.1684 21.6881
37.2154 21.685
37.2626 21.4818
37.3098 21.4869
37.3568 21.44
37.404 21.3668
37.451 21.2097
37.4982 21.2233
37.5452 21.1415
37.5924 21.008
37.6395 21.203
37.6867 21.019
37.7337 20.8718
37.781 20.8014
37.8281 20.7118
37.8753 20.6962
37.9224 20.6216
37.9697 20.5954
38.0168 20.5113
38.064 20.4291
38.1111 20.3683
38.1584 20.2797
38.2056 20.2318
38.2529 20.1828
38.3 20.119
38.3473 20.0647
38.3945 19.9797
38.4418 19.9302
38.489 19.8464
38.5363 19.8086
38.5837 19.7543
38.6309 19.6974
38.6782 19.5372
38.7254 19.5303
38.7728 19.4872
38.82 19.4185
38.8674 19.3592
38.9146 19.2736
38.9621 19.1701
39.0093 19.1685
39.0567 19.1157
39.104 19.0528
39.1514 18.9751
39.1987 18.9398
39.2461 18.8743
39.2934 18.833
39.3409 18.7311
39.3882 18.5761
39.4356 18.6143
39.483 18.5358
39.5304 18.5027
39.5778 18.4726
39.6253 18.4181
39.6726 18.3293
39.7201 18.3006
39.7675 18.1746
39.815 18.2198
39.8624 18.1086
39.9099 18.0356
39.9575 17.9166
40.0049 17.9276
40.0525 17.8669
40.0999 17.8532
40.1474 17.7716
40.1949 17.6773
40.2425 17.6139
40.2899 17.6264
40.3375 17.5374
40.385 17.4742
40.4326 17.3695
40.48 17.3687
40.5277 17.3526
40.5752 17.2714
40.6228 17.1685
40.6703 17.1459
40.718 17.1294
40.7655 17.0519
40.8132 17.0067
40.8607 16.9681
40.9084 16.918
40.9559 16.8257
41.0036 16.7589
41.0512 16.7031
41.0989 16.6632
41.1465 16.5645
41.1942 16.5691
41.242 16.4779
41.2896 16.4322
41.3373 16.3407
41.3849 16.353
41.4327 16.267
41.4803 16.172
41.5281 16.1454
41.5758 16.124
41.6236 16.089
41.6712 16.0193
41.7191 15.9652
41.7667 15.8692
41.8146 15.8611
41.8622 15.8267
41.9101 15.714
41.9578 15.6623
42.0057 15.6605
42.0534 15.6
42.1013 15.5017
42.149 15.4733
42.1969 15.3512
42.2446 15.3587
42.2925 15.3381
42.3403 15.2789
42.3882 15.2214
42.436 15.2042
42.4839 15.0809
42.5319 15.1114
42.5797 15.0479
42.6277 14.9828
42.6755 14.9083
42.7235 14.8631
42.7713 14.8124
42.8193 14.7968
42.8671 14.7562
42.9152 14.7225
42.963 14.5959
43.0111 14.6017
43.0589 14.499
43.107 14.4177
43.1549 14.4577
43.2029 14.3434
43.2508 14.3691
43.2989 14.2594
43.3468 14.1828
43.3949 14.1573
43.4429 14.1227
43.491 14.0654
43.5389 14.0266
43.5871 14.0079
43.635 13.9268
43.6832 13.8364
43.7312 13.7932
43.7793 13.8015
43.8273 13.7753
43.8755 13.7021
43.9237 13.6556
43.9717 13.6402
44.0199 13.5562
44.068 13.5477
44.1162 13.4714
44.1642 13.4619
44.2125 13.388
44.2606 13.3215
44.3088 13.2721
44.3569 13.2018
44.4052 13.2251
44.4533 13.1116
44.5016 13.1115
44.5497 13.0636
44.598 12.9508
44.6461 12.9565
44.6945 12.8723
44.7426 12.8668
44.791 12.7788
44.8391 12.8093
44.8875 12.7117
44.9357 12.652
44.984 12.6018
45.0322 12.6114
45.0806 12.5462
45.1288 12.5003
45.1773 12.4364
45.2257 12.4191
45.2739 12.3616
45.3224 12.3342
45.3706 12.2756
45.4191 12.2608
45.4673 12.2423
45.5158 12.1711
45.5641 12.0879
45.6126 12.0335
45.6609 12.0076
45.7094 11.9365
45.7577 11.9217
45.8063 11.8563
45.8546 11.8779
45.9031 11.8045
45.9515 11.7825
46.0001 11.6906
46.0484 11.6774
46.097 11.6535
46.1454 11.6001
46.194 11.5659
46.2424 11.5228
46.291 11.4915
46.3395 11.4307
46.3881 11.3944
46.4365 11.3624
46.4852 11.3024
46.5337 11.2828
46.5823 11.2227
46.631 11.1789
46.6795 11.1756
46.7282 11.1232
46.7767 11.0458
46.8254 11.0205
46.8739 10.9594
46.9226 10.9482
46.9712 10.9161
47.0199 10.8212
47.0685 10.8416
47.1173 10.7603
47.1658 10.7222
47.2146 10.661
47.2632 10.6356
47.312 10.6134
47.3606 10.5651
47.4095 10.5379
47.4581 10.4816
47.5069 10.4426
47.5556 10.4187
47.6044 10.3908
47.6531 10.3426
47.702 10.2821
47.7507 10.268
47.7996 10.18
47.8483 10.1802
47.8972 10.1533
47.9461 10.1024
47.9948 10.0756
48.0438 10.0269
48.0925 10.0186
48.1415 9.97909
48.1902 9.94558
48.2392 9.89533
48.288 9.90111
48.337 9.83969
48.3858 9.82745
48.4348 9.75438
48.4837 9.77006
48.5327 9.71209
48.5815 9.63973
48.6306 9.59496
48.6795 9.61113
48.7285 9.55431
48.7774 9.51242
48.8265 9.50944
48.8754 9.45023
48.9245 9.43059
48.9734 9.40048
49.0226 9.35711
49.0715 9.29665
49.1206 9.26292
49.1696 9.20993
49.2188 9.20825
49.2679 9.1693
49.3169 9.12627
49.3661 9.08413
49.4151 9.07441
49.4643 9.02637
49.5134 8.99169
49.5626 8.93741
49.6117 8.91956
49.6609 8.90656
49.71 8.8398
49.7592 8.81989
49.8083 8.7813
49.8576 8.75444
49.9067 8.73103
49.956 8.69469
50.0052 8.63616
50.0545 8.6268
50.1036 8.58363
50.153 8.52806
50.2022 8.49863
50.2515 8.47405
50.3007 8.43039
50.3501 8.42518
50.3993 8.38158
50.4487 8.3513
50.498 8.33329
50.5474 8.33363
50.5966 8.24656
50.6461 8.23181
50.6955 8.17626
50.7448 8.16692
50.7943 8.11588
50.8436 8.07588
50.8931 8.06281
50.9424 8.03234
50.9919 7.9961
51.0413 7.98242
51.0908 7.95896
51.1402 7.90276
51.1897 7.85675
51.2391 7.8518
51.2887 7.82986
51.3381 7.76639
51.3877 7.73796
51.4371 7.7063
51.4867 7.66795
51.5362 7.65723
51.5858 7.64688
51.6353 7.57148
51.6849 7.52034
51.7344 7.51884
51.7841 7.52442
51.8336 7.45158
51.8833 7.42549
51.9328 7.40944
51.9826 7.33798
52.0323 7.33239
52.0818 7.34338
52.1316 7.27326
52.1812 7.26816
52.231 7.21963
52.2806 7.17443
52.3304 7.16815
52.38 7.13112
52.4298 7.12144
52.4794 7.07571
52.5293 7.06246
52.5789 7.00398
52.6288 6.98588
52.6785 6.91724
52.7284 6.98735
52.7781 6.93875
52.828 6.87071
52.8777 6.8065
52.9276 6.80459
52.9774 6.84503
53.0273 6.76997
53.0771 6.71918
53.1271 6.71784
53.1769 6.62932
53.2269 6.66456
53.2767 6.61377
53.3267 6.62109
53.3765 6.60571
53.4266 6.52687
53.4766 6.56007
53.5265 6.45259
53.5765 6.51714
53.6264 6.3994
53.6765 6.37215
53.7264 6.39014
53.7765 6.31515
53.8265 6.29214
53.8766 6.28844
53.9266 6.2925
53.9767 6.19083
54.0267 6.2195
54.0769 6.14889
54.1269 6.09805
54.1771 6.11558
54.2271 6.06186
54.2773 6.034
54.3274 5.9818
54.3776 5.98288
54.4277 5.9575
54.478 5.94805
54.528 5.88159
54.5783 5.8335
54.6285 5.80354
54.6788 5.81722
54.7289 5.70671
54.7792 5.66505
54.8296 5.61955
54.8798 5.56505
54.9301 5.55191
54.9803 5.46599
55.0307 5.5034
55.0809 5.46139
55.1314 5.41339
55.1816 5.35222
55.232 5.31693
55.2823 5.29626
55.3328 5.25185
55.383 5.16788
55.4335 5.17158
55.4838 5.0523
55.5344 5.07193
55.5847 4.98115
55.6352 4.9653
55.6856 4.96914
55.7361 4.94405