File: XRD/Ni3Fe_FD0136.xy
TT I
1.27165 8.00796
1.31627 6.93992
1.36089 7.17118
1.40551 6.47367
1.45013 7.38795
1.49476 6.35345
1.53938 6.24529
1.584 5.84629
1.62863 6.04342
1.67325 5.34429
1.71787 5.09465
1.7625 5.38737
1.80712 5.28935
1.85174 4.81914
1.89636 5.59482
1.94099 5.42024
1.98562 4.99734
2.03025 4.74635
2.07487 4.47474
2.11949 4.95076
2.16411 4.18459
2.20874 4.54912
2.25338 4.21606
2.298 4.92497
2.34263 4.6913
2.38725 4.54316
2.43188 4.21279
2.4765 4.35928
2.52115 4.35521
2.56577 4.29364
2.6104 5.96298
2.65503 5.61762
2.69965 5.68047
2.7443 5.89807
2.78893 6.95783
2.83356 7.42546
2.87818 7.57195
2.92281 8.12156
2.96744 9.721
3.01209 10.1392
3.05672 11.2847
3.10135 12.4646
3.14599 13.0836
3.19062 14.1393
3.23527 15.1675
3.2799 16.0398
3.32454 16.8917
3.36917 17.4337
3.4138 18.492
3.45844 19.7421
3.50309 20.5453
3.54773 20.9659
3.59237 22.0141
3.637 22.4625
3.68164 23.4427
3.7263 24.1924
3.77094 24.9648
3.81558 25.9478
3.86022 26.1557
3.90486 27.527
3.9495 28.7578
3.99416 29.1247
4.0388 30.278
4.08344 31.4631
4.12809 32.45
4.17273 33.7533
4.21738 34.8571
4.26204 36.4182
4.30669 37.3972
4.35133 39.741
4.39598 41.1652
4.44063 42.9884
4.4853 44.778
4.52995 47.3379
4.5746 49.214
4.61925 51.6677
4.6639 53.6185
4.70855 56.216
4.75322 59.8183
4.79788 62.3617
4.84253 65.735
4.88719 70.372
4.93184 74.9815
4.97652 82.1421
5.02118 90.9912
5.06583 101.524
5.11049 117.901
5.15515 157.118
5.19981 570.157
5.24449 3776.39
5.28916 7969.54
5.33382 6370.77
5.37848 473.545
5.42315 166.183
5.46783 128.882
5.5125 114.906
5.55716 108.036
5.60183 102.327
5.6465 98.85
5.69117 97.5385
5.73586 95.4495
5.78053 95.0119
5.8252 95.2775
5.86988 98.1999
5.91455 105.296
5.95924 125.57
6.00392 295.954
6.0486 1391.41
6.09328 2629.17
6.13795 3938.6
6.18263 709.644
6.22733 125.582
6.27201 89.8152
6.3167 78.4327
6.36138 72.7324
6.40606 68.2684
6.45075 66.1446
6.49545 64.1273
6.54014 62.2936
6.58483 61.0063
6.62952 59.663
6.67421 58.2786
6.71892 57.1964
6.76361 56.1853
6.8083 55.3434
6.853 54.5169
6.89769 54.1851
6.94239 54.2915
6.98711 52.827
7.03181 52.7818
7.07651 52.6042
7.12121 52.3411
7.16591 52.4225
7.21063 51.8947
7.25533 51.7673
7.30004 51.503
7.34475 51.7328
7.38945 51.8699
7.43416 51.6192
7.47889 51.9588
7.5236 56.3372
7.56831 65.1334
7.61303 55.4339
7.65774 52.9996
7.70247 53.6031
7.74719 53.9658
7.79191 54.7359
7.83663 54.8032
7.88135 56.4087
7.92607 56.8636
7.97081 57.7235
8.01553 58.8741
8.06026 60.4133
8.10498 61.7386
8.14971 63.4865
8.19446 64.9746
8.23919 67.7938
8.28392 70.4094
8.32865 73.5501
8.37339 77.968
8.41812 83.4226
8.46288 95.6458
8.50761 175.546
8.55235 610.692
8.59709 863.079
8.64183 1430.43
8.68658 1667.68
8.73134 433.45
8.77609 117.402
8.82083 97.688
8.86558 91.4222
8.91033 87.4709
8.9551 84.726
8.99985 83.3927
9.04461 82.4831
9.08936 81.694
9.13412 81.1252
9.17888 80.963
9.22365 87.2124
9.26841 99.4907
9.31318 87.3684
9.35794 81.9684
9.4027 82.0349
9.44749 82.2226
9.49226 83.2546
9.53703 84.2103
9.5818 85.7537
9.62657 86.644
9.67134 87.9059
9.71614 90.5955
9.76091 92.1434
9.80569 95.0504
9.85047 98.3721
9.89525 103.651
9.94005 113.863
9.98484 187.685
10.0296 552.353
10.0744 722.991
10.1192 989.085
10.164 1642.36
10.2088 1008.84
10.2536 225.668
10.2984 116.842
10.3432 108.23
10.388 103.856
10.4328 121.614
10.4776 217.013
10.5224 258.351
10.5672 319.494
10.612 484.732
10.6568 383.757
10.7017 137.973
10.7465 90.9095
10.7913 83.4348
10.8361 80.516
10.8809 77.5083
10.9257 75.5631
10.9706 74.0364
11.0154 72.6888
11.0602 70.8342
11.105 69.9521
11.1499 68.1682
11.1947 67.5404
11.2395 66.2121
11.2844 66.015
11.3292 64.9226
11.374 64.1838
11.4189 63.9009
11.4637 63.5257
11.5086 62.2101
11.5534 61.998
11.5983 61.8125
11.6431 61.6334
11.688 61.1218
11.7328 61.0564
11.7777 60.7497
11.8225 60.687
11.8674 60.8947
11.9122 62.3577
11.9571 66.0404
12.002 65.8059
12.0468 67.5228
12.0917 90.8045
12.1366 107.249
12.1814 114.67
12.2263 146.156
12.2712 190.272
12.3161 141.486
12.3609 76.0323
12.4058 64.1995
12.4507 63.0528
12.4956 62.6755
12.5405 62.661
12.5853 63.2691
12.6302 63.4095
12.6751 64.119
12.72 64.6798
12.7649 65.569
12.8098 66.5488
12.8547 67.7564
12.8996 69.5564
12.9445 70.7675
12.9894 72.666
13.0343 74.7149
13.0792 78.9726
13.1242 86.4036
13.1691 133.709
13.214 187.585
13.2589 200.191
13.3038 236.785
13.3487 339.091
13.3937 383.072
13.4386 218.726
13.4835 120.923
13.5285 155.33
13.5734 181.733
13.6183 187.512
13.6633 229.493
13.7082 321.219
13.7531 309.541
13.7981 158.805
13.843 88.8324
13.888 80.1661
13.9329 77.2146
13.9779 75.585
14.0228 73.8101
14.0678 72.5189
14.1127 72.6626
14.1577 74.4788
14.2027 72.663
14.2476 70.0364
14.2926 68.7572
14.3376 68.7383
14.3825 68.1216
14.4275 67.9928
14.4725 67.7884
14.5175 68.1814
14.5624 67.9687
14.6074 68.0821
14.6524 68.6889
14.6974 69.3348
14.7424 71.0606
14.7874 80.4776
14.8324 107.464
14.8774 120.387
14.9224 124.155
14.9674 143.885
15.0124 186.341
15.0574 203.544
15.1024 140.585
15.1474 82.1795
15.1924 71.2144
15.2374 68.8439
15.2824 67.6085
15.3274 66.5555
15.3725 66.0116
15.4175 65.6704
15.4625 65.3547
15.5076 64.7848
15.5526 65.1401
15.5976 64.8769
15.6426 66.2112
15.6877 73.5469
15.7327 95.013
15.7778 107.017
15.8228 108.809
15.8679 121.04
15.9129 149.62
15.958 182.923
16.003 154.189
16.0481 90.2808
16.0931 66.1573
16.1382 61.5514
16.1833 60.3484
16.2283 58.5942
16.2734 57.7376
16.3185 56.9774
16.3636 56.1739
16.4086 55.7248
16.4537 55.2699
16.4988 54.9689
16.5439 54.4671
16.589 54.3182
16.6341 54.1599
16.6792 53.6286
16.7243 54.1101
16.7694 53.8703
16.8145 53.6514
16.8596 54.1268
16.9047 54.3179
16.9498 54.7005
16.9949 54.7408
17.04 55.0402
17.0851 56.2476
17.1302 60.7697
17.1754 64.1473
17.2205 64.8199
17.2656 66.2601
17.3108 71.2845
17.3559 78.1362
17.401 81.1276
17.4462 71.3636
17.4913 61.4291
17.5365 58.8315
17.5815 58.5926
17.6268 59.1882
17.6718 59.3973
17.7171 59.8758
17.7622 61.1047
17.8074 61.8831
17.8525 63.4327
17.8977 71.7886
17.9428 83.7668
17.9881 88.3364
18.0331 89.57
18.0784 96.0296
18.1237 112.18
18.1688 138.805
18.214 142.324
18.2591 112.495
18.3044 87.8219
18.3495 85.3193
18.3948 93.2727
18.4399 102.23
18.4852 95.3895
18.5303 76.4814
18.5756 64.9787
18.6207 61.8884
18.666 60.5555
18.7112 59.6162
18.7565 58.8308
18.8016 58.5281
18.8469 57.8153
18.892 57.3336
18.9374 57.0791
18.9825 56.6094
19.0278 56.3211
19.073 56.4907
19.1183 56.9742
19.1635 59.2265
19.2088 61.4626
19.254 62.0846
19.2993 62.3926
19.3447 64.2921
19.3898 68.0818
19.4352 73.0998
19.4804 72.5957
19.5257 64.1174
19.5709 56.291
19.6163 53.9806
19.6615 53.4701
19.7068 52.9963
19.752 52.9457
19.7974 53.2309
19.8426 54.5104
19.888 56.5609
19.9332 57.8034
19.9786 58.1637
20.0238 58.6439
20.0692 61.098
20.1144 66.2357
20.1598 71.7975
20.205 70.9187
20.2504 65.127
20.2957 60.6009
20.3411 61.183
20.3863 63.8389
20.4318 64.3986
20.477 59.2655
20.5224 53.2778
20.5677 50.6497
20.6131 50.1697
20.6586 49.5646
20.7038 49.3221
20.7493 48.8408
20.7945 48.9682
20.84 48.8031
20.8853 48.5493
20.9307 48.4739
20.976 48.6437
21.0215 48.8659
21.0668 49.1919
21.1122 49.3447
21.1575 49.185
21.203 49.4832
21.2483 50.0268
21.2938 50.9311
21.3391 51.0053
21.3846 50.1966
21.4299 49.0387
21.4754 48.3984
21.5207 48.4691
21.5662 48.6494
21.6116 49.1564
21.6571 51.0373
21.7024 52.8265
21.7479 53.8183
21.7933 54.0295
21.8388 55.1004
21.8843 57.9573
21.9297 61.3318
21.9752 65.2062
22.0206 65.3733
22.0661 60.7494
22.1115 55.856
22.157 55.1942
22.2024 56.1749
22.248 54.8419
22.2933 52.2745
22.3389 49.7538
22.3843 49.1582
22.4299 48.5681
22.4753 48.6511
22.5208 48.6277
22.5662 48.5063
22.6118 48.5892
22.6572 48.7633
22.7028 50.1232
22.7483 51.0768
22.7939 51.55
22.8393 51.7564
22.8849 52.1715
22.9303 52.9347
22.9759 54.5536
23.0214 56.4459
23.067 57.9712
23.1126 56.02
23.1581 52.3561
23.2037 49.7275
23.2492 49.2389
23.2948 49.4782
23.3403 50.8328
23.3859 51.6215
23.4314 51.4466
23.477 51.5404
23.5225 51.9045
23.5682 53.1811
23.6137 55.2235
23.6593 57.2925
23.7048 57.1041
23.7505 53.397
23.796 49.1638
23.8417 46.8021
23.8872 45.7758
23.9329 45.373
23.9784 44.9778
24.0241 44.6532
24.0697 44.6245
24.1154 44.2051
24.1609 43.8945
24.2066 43.8064
24.2522 43.8927
24.2979 43.5185
24.3434 43.2948
24.3892 43.1475
24.4349 43.068
24.4805 42.8225
24.5262 43.0723
24.5718 42.6618
24.6175 42.7834
24.6631 42.9485
24.7089 42.7127
24.7545 42.4508
24.8002 42.2067
24.8458 42.3521
24.8916 42.2212
24.9372 42.359
24.983 42.7161
25.0286 42.8242
25.0744 43.2424
25.12 43.6759
25.1658 44.1057
25.2114 44.3849
25.2572 44.6599
25.3029 44.7492
25.3487 44.4655
25.3943 44.5648
25.4402 44.7416
25.4858 44.4223
25.5316 43.0627
25.5773 41.5921
25.6231 41.1931
25.669 40.7153
25.7147 40.6878
25.7605 40.5708
25.8062 40.7761
25.8521 40.9336
25.8977 40.7764
25.9436 40.9622
25.9893 40.7108
26.0352 40.995
26.0809 40.9946
26.1268 41.3281
26.1725 41.8142
26.2184 41.7696
26.2641 41.323
26.31 40.7189
26.3557 40.7412
26.4017 40.5714
26.4474 40.7756
26.4933 40.7987
26.5391 40.9837
26.585 41.1187
26.6308 41.6099
26.6767 41.7506
26.7225 42.2934
26.7684 42.3982
26.8142 41.7714
26.8601 41.0831
26.9059 40.6224
26.9519 40.1546
26.9979 39.9703
27.0437 39.4475
27.0896 39.1083
27.1354 38.9784
27.1814 38.7424
27.2272 38.8211
27.2732 38.7666
27.3191 38.5152
27.3651 38.6373
27.4109 38.5037
27.4569 38.5635
27.5027 38.3447
27.5488 38.3614
27.5946 38.5031
27.6407 38.539
27.6865 38.7478
27.7326 38.3796
27.7784 38.3584
27.8245 38.1503
27.8703 38.1097
27.9164 38.3847
27.9623 38.2694
28.0084 38.4514
28.0543 38.7196
28.1003 38.8739
28.1462 39.2484
28.1923 39.1513
28.2384 38.636
28.2843 38.2756
28.3304 37.8584
28.3764 37.3546
28.4225 37.0574
28.4684 36.6561
28.5145 36.1009
28.5605 36.1219
28.6066 35.876
28.6526 35.7731
28.6987 35.8024
28.7447 35.5929
28.7908 35.4659
28.8368 35.4473
28.8829 35.3965
28.9289 35.1988
28.9751 35.1669
29.0211 35.195
29.0673 34.9931
29.1133 34.9619
29.1595 34.6249
29.2055 34.5234
29.2517 34.3148
29.2977 34.1838
29.3439 34.1906
29.3899 34.1527
29.4361 34.077
29.4824 34.1158
29.5284 34.0417
29.5746 33.7665
29.6207 33.4882
29.6669 33.2307
29.713 33.0461
29.7593 32.9703
29.8053 32.9075
29.8516 32.8683
29.8977 32.7941
29.9439 32.674
29.99 32.5006
30.0363 32.5368
30.0824 32.5437
30.1287 32.3916
30.1748 32.327
30.2211 32.3386
30.2673 32.1686
30.3136 32.5203
30.3597 32.5041
30.406 32.4341
30.4522 32.3409
30.4985 32.1954
30.5447 32.1436
30.591 32.1331
30.6372 32.0851
30.6835 32.1226
30.7297 32.1721
30.7761 32.2716
30.8224 32.1906
30.8686 32.178
30.915 31.9852
30.9612 31.7924
31.0076 31.5099
31.0538 31.39
31.1002 31.331
31.1464 31.117
31.1928 31.1331
31.2391 31.0261
31.2855 30.9673
31.3317 30.8769
31.3781 30.9827
31.4244 30.8268
31.4708 30.7562
31.5171 30.8185
31.5636 30.9679
31.6098 30.7267
31.6563 30.6774
31.7026 30.5595
31.7491 30.3548
31.7953 30.2578
31.8418 30.192
31.8881 30.209
31.9346 29.9957
31.9809 30.1662
32.0275 29.9931
32.074 29.8933
32.1203 29.9217
32.1668 29.7531
32.2132 29.6483
32.2597 29.4207
32.306 29.4582
32.3526 29.0855
32.399 29.0657
32.4455 28.8327
32.4919 28.7347
32.5385 28.6409
32.5848 28.5155
32.6314 28.5411
32.6778 28.5567
32.7244 28.3889
32.7708 28.2089
32.8174 28.2654
32.8638 28.0593
32.9104 28.158
32.9569 28.1764
33.0035 27.9874
33.0499 27.8961
33.0966 27.848
33.143 27.8726
33.1897 27.7942
33.2361 27.6961
33.2828 27.6057
33.3293 27.5067
33.3759 27.5143
33.4226 27.3931
33.4691 27.2242
33.5158 27.2135
33.5623 27.0286
33.609 26.7565
33.6555 26.8064
33.7022 26.6411
33.7487 26.5588
33.7954 26.5534
33.842 26.437
33.8887 26.1838
33.9353 26.3707
33.982 26.3157
34.0286 26.1371
34.0753 26.1046
34.1219 25.9584
34.1687 25.9666
34.2152 25.8206
34.262 25.7952
34.3086 25.5603
34.3554 25.5165
34.402 25.4774
34.4488 25.3944
34.4954 25.3795
34.5422 25.2446
34.5889 25.226
34.6357 25.0703
34.6825 24.8921
34.7292 24.8812
34.776 24.7288
34.8227 24.72
34.8695 24.6854
34.9162 24.6903
34.9631 24.4412
35.0098 24.6661
35.0566 24.3703
35.1033 24.385
35.1502 24.3347
35.1969 24.2393
35.2438 24.1985
35.2906 24.1784
35.3375 24.0972
35.3842 24.0284
35.4311 23.9586
35.4779 23.901
35.5248 23.8318
35.5716 23.8255
35.6185 23.74
35.6653 23.6803
35.7123 23.6106
35.759 23.5663
35.806 23.4685
35.8528 23.3077
35.8998 23.3316
35.9468 23.1825
35.9936 23.1101
36.0406 23.095
36.0874 23.0352
36.1345 22.9527
36.1813 22.8637
36.2283 22.7399
36.2752 22.7237
36.3222 22.7701
36.3691 22.6147
36.4161 22.5092
36.463 22.4897
36.5101 22.4861
36.557 22.4202
36.6041 22.2104
36.651 22.1775
36.6981 22.1712
36.745 22.1582
36.7921 22.0123
36.839 21.9425
36.8861 21.8571
36.9331 21.8349
36.9802 21.7481
37.0272 21.6318
37.0743 21.53
37.1213 21.5434
37.1684 21.4675
37.2154 21.4122
37.2626 21.3124
37.3098 21.2822
37.3568 21.2644
37.404 21.2388
37.451 21.0442
37.4982 20.9835
37.5452 20.9036
37.5924 20.7818
37.6395 20.8379
37.6867 20.7458
37.7337 20.6733
37.781 20.6161
37.8281 20.5056
37.8753 20.4302
37.9224 20.3846
37.9697 20.3246
38.0168 20.2567
38.064 20.1678
38.1111 20.1663
38.1584 20.0569
38.2056 20.0258
38.2529 19.9756
38.3 19.8141
38.3473 19.8517
38.3945 19.7771
38.4418 19.7452
38.489 19.6718
38.5363 19.5183
38.5837 19.4506
38.6309 19.4317
38.6782 19.3358
38.7254 19.296
38.7728 19.2986
38.82 19.1993
38.8674 19.1667
38.9146 19.0165
38.9621 19.0182
39.0093 18.9208
39.0567 18.9387
39.104 18.8296
39.1514 18.7311
39.1987 18.6687
39.2461 18.6391
39.2934 18.5557
39.3409 18.4713
39.3882 18.4589
39.4356 18.4025
39.483 18.2641
39.5304 18.3264
39.5778 18.2803
39.6253 18.2331
39.6726 18.1633
39.7201 18.0593
39.7675 17.9841
39.815 17.9621
39.8624 17.8721
39.9099 17.885
39.9575 17.7572
40.0049 17.7557
40.0525 17.6754
40.0999 17.6564
40.1474 17.5551
40.1949 17.459
40.2425 17.397
40.2899 17.3762
40.3375 17.398
40.385 17.2857
40.4326 17.1814
40.48 17.1539
40.5277 17.1048
40.5752 17.076
40.6228 17.0015
40.6703 16.9998
40.718 16.9205
40.7655 16.9213
40.8132 16.7591
40.8607 16.808
40.9084 16.6973
40.9559 16.6815
41.0036 16.5705
41.0512 16.5756
41.0989 16.4481
41.1465 16.4055
41.1942 16.3669
41.242 16.2987
41.2896 16.2457
41.3373 16.1424
41.3849 16.1441
41.4327 16.1012
41.4803 16.0487
41.5281 15.9689
41.5758 15.9806
41.6236 15.8644
41.6712 15.7834
41.7191 15.7288
41.7667 15.7375
41.8146 15.7066
41.8622 15.5997
41.9101 15.5353
41.9578 15.457
42.0057 15.4244
42.0534 15.4121
42.1013 15.3856
42.149 15.2569
42.1969 15.2238
42.2446 15.1735
42.2925 15.1099
42.3403 15.1043
42.3882 15.0942
42.436 15.0083
42.4839 14.8872
42.5319 14.9223
42.5797 14.8864
42.6277 14.8102
42.6755 14.7528
42.7235 14.6852
42.7713 14.6475
42.8193 14.6331
42.8671 14.5779
42.9152 14.4532
42.963 14.3872
43.0111 14.3619
43.0589 14.3501
43.107 14.2987
43.1549 14.2545
43.2029 14.2091
43.2508 14.2042
43.2989 14.1088
43.3468 13.9962
43.3949 14.0128
43.4429 13.93
43.491 13.9227
43.5389 13.8496
43.5871 13.8407
43.635 13.7314
43.6832 13.7525
43.7312 13.6779
43.7793 13.6485
43.8273 13.6074
43.8755 13.4842
43.9237 13.4617
43.9717 13.457
44.0199 13.4317
44.068 13.3666
44.1162 13.2659
44.1642 13.2878
44.2125 13.1811
44.2606 13.1603
44.3088 13.1305
44.3569 13.0696
44.4052 13.0354
44.4533 12.9534
44.5016 12.8723
44.5497 12.8901
44.598 12.8695
44.6461 12.7507
44.6945 12.7737
44.7426 12.6956
44.791 12.6351
44.8391 12.6421
44.8875 12.5617
44.9357 12.4894
44.984 12.4868
45.0322 12.3851
45.0806 12.3484
45.1288 12.3499
45.1773 12.243
45.2257 12.2581
45.2739 12.2057
45.3224 12.2144
45.3706 12.1525
45.4191 12.0972
45.4673 12.0446
45.5158 12.0429
45.5641 11.9883
45.6126 11.9563
45.6609 11.8498
45.7094 11.8092
45.7577 11.7888
45.8063 11.7411
45.8546 11.7034
45.9031 11.6295
45.9515 11.6505
46.0001 11.5685
46.0484 11.5334
46.097 11.4837
46.1454 11.5157
46.194 11.4329
46.2424 11.3889
46.291 11.3262
46.3395 11.3358
46.3881 11.2498
46.4365 11.2398
46.4852 11.1596
46.5337 11.0971
46.5823 11.0859
46.631 11.0645
46.6795 10.9894
46.7282 10.9864
46.7767 10.9338
46.8254 10.9141
46.8739 10.8139
46.9226 10.8307
46.9712 10.7694
47.0199 10.7357
47.0685 10.7201
47.1173 10.6582
47.1658 10.6507
47.2146 10.5637
47.2632 10.5057
47.312 10.4759
47.3606 10.4081
47.4095 10.407
47.4581 10.4055
47.5069 10.3323
47.5556 10.2728
47.6044 10.264
47.6531 10.2176
47.702 10.1684
47.7507 10.1733
47.7996 10.0886
47.8483 10.0758
47.8972 10.0292
47.9461 9.99937
47.9948 9.94575
48.0438 9.92351
48.0925 9.91474
48.1415 9.88735
48.1902 9.83451
48.2392 9.82042
48.288 9.78533
48.337 9.75102
48.3858 9.70153
48.4348 9.66598
48.4837 9.63622
48.5327 9.54521
48.5815 9.54143
48.6306 9.55844
48.6795 9.48647
48.7285 9.42978
48.7774 9.39748
48.8265 9.41204
48.8754 9.33702
48.9245 9.27875
48.9734 9.25227
49.0226 9.26358
49.0715 9.16835
49.1206 9.14702
49.1696 9.13473
49.2188 9.09785
49.2679 9.07602
49.3169 9.04157
49.3661 8.98344
49.4151 8.93095
49.4643 8.91177
49.5134 8.869
49.5626 8.83337
49.6117 8.80664
49.6609 8.79184
49.71 8.75475
49.7592 8.70877
49.8083 8.6294
49.8576 8.65977
49.9067 8.60015
49.956 8.63683
50.0052 8.5591
50.0545 8.5423
50.1036 8.46725
50.153 8.49286
50.2022 8.42382
50.2515 8.39656
50.3007 8.34831
50.3501 8.36418
50.3993 8.31904
50.4487 8.27191
50.498 8.24327
50.5474 8.20175
50.5966 8.13356
50.6461 8.14256
50.6955 8.10433
50.7448 8.07362
50.7943 8.03578
50.8436 8.01654
50.8931 8.0147
50.9424 7.96875
50.9919 7.9188
51.0413 7.90341
51.0908 7.81758
51.1402 7.83712
51.1897 7.81434
51.2391 7.7769
51.2887 7.71853
51.3381 7.6563
51.3877 7.66883
51.4371 7.60408
51.4867 7.60263
51.5362 7.56351
51.5858 7.5354
51.6353 7.48221
51.6849 7.45868
51.7344 7.45947
51.7841 7.45471
51.8336 7.37646
51.8833 7.3678
51.9328 7.29686
51.9826 7.26805
52.0323 7.27935
52.0818 7.20499
52.1316 7.18625
52.1812 7.19797
52.231 7.12919
52.2806 7.09136
52.3304 7.07711
52.38 7.03957
52.4298 6.98976
52.4794 6.96797
52.5293 6.96205
52.5789 6.9204
52.6288 6.91797
52.6785 6.90823
52.7284 6.89625
52.7781 6.84136
52.828 6.78845
52.8777 6.74201
52.9276 6.76014
52.9774 6.71238
53.0273 6.68202
53.0771 6.66207
53.1271 6.63524
53.1769 6.58987
53.2269 6.58799
53.2767 6.55201
53.3267 6.53873
53.3765 6.44951
53.4266 6.44288
53.4766 6.4324
53.5265 6.38908
53.5765 6.39144
53.6264 6.37138
53.6765 6.29255
53.7264 6.33933
53.7765 6.2628
53.8265 6.22331
53.8766 6.20137
53.9266 6.19304
53.9767 6.1742
54.0267 6.12106
54.0769 6.09638
54.1269 6.01403
54.1771 6.03499
54.2271 5.97835
54.2773 5.9372
54.3274 5.94822
54.3776 5.86398
54.4277 5.87966
54.478 5.81452
54.528 5.76712
54.5783 5.71732
54.6285 5.6513
54.6788 5.65244
54.7289 5.60365
54.7792 5.52518
54.8296 5.4889
54.8798 5.4528
54.9301 5.45694
54.9803 5.39911
55.0307 5.36788
55.0809 5.27398
55.1314 5.30228
55.1816 5.21559
55.232 5.20292
55.2823 5.14363
55.3328 5.02497
55.383 4.98635
55.4335 4.98464
55.4838 4.90185
55.5344 4.83535
55.5847 4.85076
55.6352 4.8099
55.6856 4.82188
55.7361 4.70796