File: XRD/Ni3Fe_FD0867.xy
TT I
1.27165 7.2181
1.31627 6.59061
1.36089 6.56082
1.40551 6.51575
1.45013 5.82418
1.49476 6.26369
1.53938 6.0793
1.584 5.58019
1.62863 5.50874
1.67325 5.23401
1.71787 5.05656
1.7625 4.79609
1.80712 5.08753
1.85174 4.12893
1.89636 4.55624
1.94099 5.20158
1.98562 4.45943
2.03025 4.77213
2.07487 4.65019
2.11949 4.89802
2.16411 5.22618
2.20874 15.0659
2.25338 25.251
2.298 6.05849
2.34263 5.33118
2.38725 5.49846
2.43188 6.0927
2.4765 6.2333
2.52115 7.14965
2.56577 8.28727
2.6104 8.74992
2.65503 8.19492
2.69965 8.62801
2.7443 8.37468
2.78893 8.18374
2.83356 8.61879
2.87818 9.11713
2.92281 8.58262
2.96744 9.74924
3.01209 10.7287
3.05672 11.0635
3.10135 11.9805
3.14599 13.3202
3.19062 14.1444
3.23527 14.8132
3.2799 15.8469
3.32454 16.6647
3.36917 17.5865
3.4138 19.087
3.45844 19.4849
3.50309 20.9233
3.54773 21.7649
3.59237 23.7904
3.637 99.3037
3.68164 62.6474
3.7263 26.1062
3.77094 25.6055
3.81558 26.8221
3.86022 27.1341
3.90486 28.694
3.9495 29.3582
3.99416 30.8226
4.0388 32.4604
4.08344 33.7433
4.12809 35.3069
4.17273 37.3931
4.21738 43.6178
4.26204 265.135
4.30669 238.253
4.35133 48.8604
4.39598 43.9935
4.44063 54.3033
4.4853 67.0283
4.52995 49.8222
4.5746 50.6063
4.61925 52.6246
4.6639 54.7143
4.70855 56.8803
4.75322 60.2978
4.79788 62.4371
4.84253 66.1775
4.88719 69.8114
4.93184 73.6485
4.97652 78.6348
5.02118 84.6738
5.06583 91.7693
5.11049 101.664
5.15515 169.798
5.19981 292.742
5.24449 2416.11
5.28916 12644.3
5.33382 2856.3
5.37848 177.524
5.42315 125.199
5.46783 111.148
5.5125 103.508
5.55716 100.27
5.60183 96.5372
5.6465 94.7908
5.69117 92.7703
5.73586 90.4434
5.78053 89.2313
5.8252 89.171
5.86988 89.6191
5.91455 90.8461
5.95924 96.8528
6.00392 171.655
6.0486 810.886
6.09328 4376.0
6.13795 3222.66
6.18263 223.822
6.22733 90.3735
6.27201 81.6541
6.3167 103.128
6.36138 80.2732
6.40606 67.8714
6.45075 66.5019
6.49545 64.6137
6.54014 63.2999
6.58483 62.6529
6.62952 62.0716
6.67421 95.633
6.71892 150.964
6.76361 69.0746
6.8083 58.1317
6.853 56.7187
6.89769 55.8792
6.94239 55.9989
6.98711 55.2515
7.03181 55.2984
7.07651 54.8097
7.12121 54.765
7.16591 54.4647
7.21063 55.3359
7.25533 70.8914
7.30004 188.38
7.34475 94.9199
7.38945 56.4702
7.43416 54.3808
7.47889 53.6979
7.5236 54.2198
7.56831 54.5725
7.61303 56.502
7.65774 57.0455
7.70247 55.3952
7.74719 55.2859
7.79191 55.8729
7.83663 56.199
7.88135 57.0353
7.92607 57.8804
7.97081 59.1995
8.01553 60.095
8.06026 61.0585
8.10498 63.1138
8.14971 73.1399
8.19446 71.6207
8.23919 68.3503
8.28392 70.5318
8.32865 73.0224
8.37339 76.846
8.41812 83.6203
8.46288 112.848
8.50761 144.935
8.55235 333.569
8.59709 1119.74
8.64183 2282.22
8.68658 978.542
8.73134 171.954
8.77609 97.6897
8.82083 90.5221
8.86558 88.1063
8.91033 88.4138
8.9551 90.6896
8.99985 84.3583
9.04461 82.2482
9.08936 81.184
9.13412 80.6574
9.17888 80.6916
9.22365 81.5615
9.26841 80.6846
9.31318 81.2723
9.35794 81.2198
9.4027 81.5037
9.44749 82.2428
9.49226 83.4224
9.53703 83.909
9.5818 86.1961
9.62657 90.7666
9.67134 97.7463
9.71614 92.5205
9.76091 92.6363
9.80569 95.2051
9.85047 97.9943
9.89525 122.96
9.94005 135.13
9.98484 156.575
10.0296 301.567
10.0744 750.697
10.1192 1747.83
10.164 1600.36
10.2088 405.371
10.2536 124.535
10.2984 111.839
10.3432 113.952
10.388 102.705
10.4328 111.443
10.4776 147.433
10.5224 265.112
10.5672 515.34
10.612 503.006
10.6568 201.45
10.7017 95.8953
10.7465 85.1923
10.7913 81.8068
10.8361 79.9228
10.8809 77.6607
10.9257 77.4253
10.9706 77.9602
11.0154 73.8952
11.0602 71.5108
11.105 71.0035
11.1499 75.6957
11.1947 83.7399
11.2395 74.3705
11.2844 69.7771
11.3292 66.2932
11.374 65.3142
11.4189 64.7044
11.4637 64.226
11.5086 64.8886
11.5534 68.0224
11.5983 65.3745
11.6431 62.913
11.688 61.9601
11.7328 62.1026
11.7777 62.0193
11.8225 61.5517
11.8674 61.3465
11.9122 61.8153
11.9571 61.9041
12.002 62.3995
12.0468 65.4909
12.0917 75.0867
12.1366 97.876
12.1814 150.027
12.2263 206.331
12.2712 169.569
12.3161 97.4516
12.3609 70.1981
12.4058 63.8026
12.4507 63.4535
12.4956 63.2763
12.5405 63.5775
12.5853 64.6461
12.6302 73.0114
12.6751 79.0948
12.72 69.3489
12.7649 66.7042
12.8098 67.2564
12.8547 68.5879
12.8996 69.5638
12.9445 70.7803
12.9894 72.4898
13.0343 74.3095
13.0792 77.36
13.1242 84.059
13.1691 104.576
13.214 138.248
13.2589 229.011
13.3038 371.705
13.3487 426.035
13.3937 260.792
13.4386 123.657
13.4835 100.617
13.5285 113.032
13.5734 149.72
13.6183 243.674
13.6633 353.454
13.7082 341.642
13.7531 184.225
13.7981 96.2271
13.843 80.4926
13.888 78.2763
13.9329 75.5655
13.9779 74.6579
14.0228 73.0633
14.0678 71.7611
14.1127 71.6152
14.1577 71.7226
14.2027 70.3229
14.2476 69.135
14.2926 69.5706
14.3376 70.848
14.3825 69.2923
14.4275 67.8308
14.4725 67.5613
14.5175 67.6432
14.5624 68.1289
14.6074 70.2951
14.6524 70.9258
14.6974 69.1829
14.7424 70.0614
14.7874 75.2117
14.8324 84.4343
14.8774 104.978
14.9224 149.558
14.9674 209.597
15.0124 216.59
15.0574 145.887
15.1024 89.5334
15.1474 71.2732
15.1924 69.6189
15.2374 70.0563
15.2824 69.5257
15.3274 67.2076
15.3725 65.8359
15.4175 65.47
15.4625 64.8737
15.5076 65.2326
15.5526 65.299
15.5976 64.7448
15.6426 65.1578
15.6877 69.362
15.7327 75.9997
15.7778 90.1699
15.8228 122.219
15.8679 170.892
15.9129 195.167
15.958 155.745
16.003 94.0234
16.0481 67.3001
16.0931 64.0244
16.1382 61.8658
16.1833 59.9577
16.2283 58.0757
16.2734 57.6403
16.3185 57.927
16.3636 58.8251
16.4086 57.167
16.4537 55.569
16.4988 54.6605
16.5439 54.7017
16.589 54.3519
16.6341 54.0444
16.6792 53.5556
16.7243 53.9525
16.7694 54.1997
16.8145 54.158
16.8596 54.5428
16.9047 56.0606
16.9498 56.2963
16.9949 54.9197
17.04 54.8526
17.0851 55.7149
17.1302 57.4683
17.1754 60.3389
17.2205 65.2676
17.2656 73.6317
17.3108 82.9676
17.3559 81.5007
17.401 69.9253
17.4462 60.7859
17.4913 58.4378
17.5365 58.0913
17.5815 58.2931
17.6268 58.5339
17.6718 59.3739
17.7171 60.052
17.7622 60.4122
17.8074 60.7069
17.8525 62.2652
17.8977 66.1103
17.9428 70.9815
17.9881 79.4831
18.0331 97.3074
18.0784 121.314
18.1237 138.989
18.1688 128.47
18.214 101.15
18.2591 84.5958
18.3044 89.0021
18.3495 99.9451
18.3948 105.068
18.4399 94.8864
18.4852 76.6262
18.5303 65.0652
18.5756 61.3182
18.6207 60.0994
18.666 59.5374
18.7112 58.8291
18.7565 57.9577
18.8016 57.7301
18.8469 57.2432
18.892 57.053
18.9374 56.4106
18.9825 55.9654
19.0278 55.97
19.073 55.9986
19.1183 56.4289
19.1635 57.1176
19.2088 58.1986
19.254 60.7947
19.2993 65.5056
19.3447 72.3302
19.3898 76.2063
19.4352 71.4305
19.4804 62.5007
19.5257 56.0048
19.5709 53.3948
19.6163 53.1574
19.6615 52.8234
19.7068 52.531
19.752 52.4767
19.7974 52.624
19.8426 53.3842
19.888 53.8377
19.9332 55.1637
19.9786 57.5667
20.0238 61.2785
20.0692 66.5704
20.1144 69.0554
20.1598 67.2894
20.205 62.4117
20.2504 61.2961
20.2957 63.4565
20.3411 65.4988
20.3863 63.7226
20.4318 57.8154
20.477 53.06
20.5224 51.108
20.5677 50.3557
20.6131 49.6602
20.6586 49.0379
20.7038 49.0276
20.7493 48.439
20.7945 48.2104
20.84 48.2229
20.8853 47.9852
20.9307 47.7833
20.976 47.9445
21.0215 47.7139
21.0668 48.2232
21.1122 48.7689
21.1575 49.3885
21.203 50.2256
21.2483 50.8252
21.2938 50.8114
21.3391 49.3166
21.3846 48.4704
21.4299 47.7506
21.4754 47.5813
21.5207 47.806
21.5662 48.0168
21.6116 48.1642
21.6571 48.879
21.7024 49.8342
21.7479 51.4486
21.7933 54.3542
21.8388 58.0883
21.8843 62.3033
21.9297 63.8934
21.9752 62.3556
22.0206 58.6467
22.0661 56.0213
22.1115 55.4461
22.157 55.2785
22.2024 53.4712
22.248 50.8229
22.2933 49.1741
22.3389 48.5468
22.3843 48.4821
22.4299 48.2369
22.4753 48.2654
22.5208 47.9116
22.5662 47.761
22.6118 47.9407
22.6572 48.0283
22.7028 48.4633
22.7483 48.8596
22.7939 49.485
22.8393 50.9516
22.8849 53.2951
22.9303 55.4745
22.9759 57.4004
23.0214 56.884
23.067 53.8472
23.1126 50.5003
23.1581 48.6735
23.2037 48.0431
23.2492 48.09
23.2948 47.9895
23.3403 48.3969
23.3859 48.8431
23.4314 49.9478
23.477 51.7942
23.5225 54.1055
23.5682 56.445
23.6137 57.2698
23.6593 54.9003
23.7048 51.062
23.7505 47.7807
23.796 46.1535
23.8417 45.478
23.8872 45.0023
23.9329 44.5811
23.9784 44.3671
24.0241 44.0123
24.0697 43.6871
24.1154 43.5539
24.1609 43.5268
24.2066 43.3838
24.2522 43.2099
24.2979 42.9238
24.3434 42.6831
24.3892 42.6457
24.4349 42.5921
24.4805 42.416
24.5262 42.5298
24.5718 42.5088
24.6175 42.4533
24.6631 42.3357
24.7089 41.9786
24.7545 41.8237
24.8002 41.6314
24.8458 41.7083
24.8916 41.4407
24.9372 41.5126
24.983 41.8424
25.0286 42.2525
25.0744 42.6897
25.12 43.1861
25.1658 43.71
25.2114 43.966
25.2572 44.2211
25.3029 44.5926
25.3487 44.5016
25.3943 44.0391
25.4402 42.8945
25.4858 41.9566
25.5316 40.8623
25.5773 40.4205
25.6231 40.3287
25.669 39.931
25.7147 39.9704
25.7605 39.8699
25.8062 39.9093
25.8521 40.0475
25.8977 39.9344
25.9436 40.3192
25.9893 40.482
26.0352 40.9875
26.0809 40.9939
26.1268 41.2228
26.1725 40.7452
26.2184 40.188
26.2641 39.7995
26.31 39.6401
26.3557 39.622
26.4017 39.5485
26.4474 39.9051
26.4933 40.1921
26.5391 40.6735
26.585 41.0944
26.6308 41.5315
26.6767 41.4946
26.7225 41.4145
26.7684 40.8795
26.8142 40.3866
26.8601 39.827
26.9059 39.4659
26.9519 38.9369
26.9979 38.7478
27.0437 38.4038
27.0896 38.174
27.1354 38.1885
27.1814 37.9522
27.2272 37.9625
27.2732 38.0041
27.3191 37.815
27.3651 37.9656
27.4109 37.9969
27.4569 38.0229
27.5027 37.9841
27.5488 38.1528
27.5946 37.8955
27.6407 37.7032
27.6865 37.6325
27.7326 37.1837
27.7784 37.2945
27.8245 37.2366
27.8703 37.5134
27.9164 37.6821
27.9623 37.8736
28.0084 38.2807
28.0543 38.4884
28.1003 38.5486
28.1462 38.4238
28.1923 38.0384
28.2384 37.4887
28.2843 37.1684
28.3304 36.5734
28.3764 36.2537
28.4225 35.9251
28.4684 35.6464
28.5145 35.4842
28.5605 35.4118
28.6066 35.1079
28.6526 35.0883
28.6987 35.1504
28.7447 35.0705
28.7908 34.9272
28.8368 35.0002
28.8829 35.0046
28.9289 34.874
28.9751 34.694
29.0211 34.4847
29.0673 34.2801
29.1133 33.97
29.1595 33.9281
29.2055 33.8751
29.2517 33.8869
29.2977 33.8577
29.3439 33.8999
29.3899 33.8746
29.4361 33.7975
29.4824 33.5628
29.5284 33.2569
29.5746 32.956
29.6207 32.7083
29.6669 32.6902
29.713 32.5391
29.7593 32.4026
29.8053 32.5123
29.8516 32.337
29.8977 32.2552
29.9439 32.17
29.99 32.188
30.0363 32.0236
30.0824 32.1496
30.1287 31.9273
30.1748 32.0798
30.2211 31.918
30.2673 31.9727
30.3136 31.9042
30.3597 31.806
30.406 31.7665
30.4522 31.6638
30.4985 31.579
30.5447 31.7234
30.591 31.6696
30.6372 31.7374
30.6835 31.759
30.7297 31.7701
30.7761 31.7822
30.8224 31.5369
30.8686 31.4523
30.915 31.3011
30.9612 31.1039
31.0076 30.8418
31.0538 30.7933
31.1002 30.5967
31.1464 30.5366
31.1928 30.5299
31.2391 30.4701
31.2855 30.4046
31.3317 30.4958
31.3781 30.6611
31.4244 30.498
31.4708 30.4378
31.5171 30.342
31.5636 30.3882
31.6098 30.0584
31.6563 29.9199
31.7026 29.775
31.7491 29.6893
31.7953 29.7932
31.8418 29.699
31.8881 29.7518
31.9346 29.7491
31.9809 29.5684
32.0275 29.5515
32.074 29.4107
32.1203 29.2166
32.1668 29.054
32.2132 28.9908
32.2597 28.899
32.306 28.7798
32.3526 28.6225
32.399 28.5775
32.4455 28.359
32.4919 28.311
32.5385 28.3155
32.5848 28.161
32.6314 28.1586
32.6778 28.0163
32.7244 27.8532
32.7708 27.7532
32.8174 27.796
32.8638 27.6713
32.9104 27.7238
32.9569 27.688
33.0035 27.5609
33.0499 27.4803
33.0966 27.4467
33.143 27.4699
33.1897 27.2845
33.2361 27.3641
33.2828 27.2357
33.3293 27.008
33.3759 27.031
33.4226 26.8694
33.4691 26.788
33.5158 26.6834
33.5623 26.6346
33.609 26.3452
33.6555 26.3439
33.7022 26.1822
33.7487 26.1551
33.7954 26.1989
33.842 26.0747
33.8887 26.0085
33.9353 25.912
33.982 25.8459
34.0286 25.7016
34.0753 25.674
34.1219 25.5929
34.1687 25.5871
34.2152 25.3771
34.262 25.3174
34.3086 25.2547
34.3554 25.2364
34.402 25.1051
34.4488 25.0249
34.4954 24.9846
34.5422 24.868
34.5889 24.7711
34.6357 24.6315
34.6825 24.6466
34.7292 24.5738
34.776 24.3721
34.8227 24.3897
34.8695 24.3114
34.9162 24.2631
34.9631 24.1553
35.0098 24.1104
35.0566 23.9578
35.1033 23.96
35.1502 24.0118
35.1969 23.8786
35.2438 23.8134
35.2906 23.8012
35.3375 23.7667
35.3842 23.7114
35.4311 23.6631
35.4779 23.5861
35.5248 23.5949
35.5716 23.433
35.6185 23.4116
35.6653 23.3161
35.7123 23.2575
35.759 23.1862
35.806 23.0138
35.8528 22.9729
35.8998 22.8652
35.9468 22.8276
35.9936 22.7647
36.0406 22.6117
36.0874 22.687
36.1345 22.643
36.1813 22.5621
36.2283 22.4137
36.2752 22.3166
36.3222 22.3621
36.3691 22.2775
36.4161 22.1765
36.463 22.1521
36.5101 22.111
36.557 22.1414
36.6041 21.9269
36.651 21.8811
36.6981 21.8366
36.745 21.7903
36.7921 21.6666
36.839 21.6091
36.8861 21.4816
36.9331 21.5191
36.9802 21.3988
37.0272 21.3347
37.0743 21.2558
37.1213 21.1716
37.1684 21.1307
37.2154 21.0038
37.2626 20.9454
37.3098 20.9479
37.3568 20.8516
37.404 20.7947
37.451 20.7287
37.4982 20.6868
37.5452 20.613
37.5924 20.5111
37.6395 20.6161
37.6867 20.4464
37.7337 20.3663
37.781 20.2893
37.8281 20.2013
37.8753 20.0949
37.9224 20.0394
37.9697 20.0514
38.0168 19.9175
38.064 19.8667
38.1111 19.8212
38.1584 19.7473
38.2056 19.7292
38.2529 19.7052
38.3 19.6018
38.3473 19.5966
38.3945 19.4519
38.4418 19.3969
38.489 19.3287
38.5363 19.2061
38.5837 19.1722
38.6309 19.1725
38.6782 19.0549
38.7254 19.0289
38.7728 18.9244
38.82 18.9297
38.8674 18.8663
38.9146 18.7374
38.9621 18.7826
39.0093 18.6593
39.0567 18.6994
39.104 18.5382
39.1514 18.4707
39.1987 18.4601
39.2461 18.4371
39.2934 18.4081
39.3409 18.2385
39.3882 18.1926
39.4356 18.1449
39.483 18.0811
39.5304 18.0101
39.5778 18.0132
39.6253 17.9189
39.6726 17.861
39.7201 17.8408
39.7675 17.7917
39.815 17.7111
39.8624 17.6014
39.9099 17.5759
39.9575 17.5332
40.0049 17.5153
40.0525 17.3717
40.0999 17.3505
40.1474 17.3217
40.1949 17.2254
40.2425 17.1541
40.2899 17.137
40.3375 17.1146
40.385 17.0476
40.4326 17.0228
40.48 16.9018
40.5277 16.9088
40.5752 16.8594
40.6228 16.7621
40.6703 16.682
40.718 16.6427
40.7655 16.5831
40.8132 16.5391
40.8607 16.5518
40.9084 16.4936
40.9559 16.4366
41.0036 16.3252
41.0512 16.3337
41.0989 16.2762
41.1465 16.1918
41.1942 16.1068
41.242 16.022
41.2896 16.0353
41.3373 15.9463
41.3849 15.9131
41.4327 15.8804
41.4803 15.8376
41.5281 15.7828
41.5758 15.6968
41.6236 15.6049
41.6712 15.5655
41.7191 15.5322
41.7667 15.4518
41.8146 15.4807
41.8622 15.325
41.9101 15.3453
41.9578 15.2214
42.0057 15.2559
42.0534 15.1997
42.1013 15.105
42.149 15.0721
42.1969 15.0245
42.2446 14.9682
42.2925 14.9505
42.3403 14.8863
42.3882 14.9143
42.436 14.7869
42.4839 14.6738
42.5319 14.7715
42.5797 14.618
42.6277 14.5841
42.6755 14.5699
42.7235 14.4952
42.7713 14.4532
42.8193 14.4201
42.8671 14.3954
42.9152 14.3098
42.963 14.2389
43.0111 14.1197
43.0589 14.1326
43.107 14.0751
43.1549 14.1073
43.2029 13.9922
43.2508 13.9852
43.2989 13.9337
43.3468 13.8124
43.3949 13.7801
43.4429 13.7479
43.491 13.7021
43.5389 13.6383
43.5871 13.6083
43.635 13.6179
43.6832 13.5245
43.7312 13.4798
43.7793 13.46
43.8273 13.3791
43.8755 13.333
43.9237 13.2793
43.9717 13.2535
44.0199 13.2143
44.068 13.1759
44.1162 13.1057
44.1642 13.0381
44.2125 13.0431
44.2606 12.9955
44.3088 12.9169
44.3569 12.8977
44.4052 12.8618
44.4533 12.7917
44.5016 12.7032
44.5497 12.6946
44.598 12.6995
44.6461 12.6308
44.6945 12.575
44.7426 12.5225
44.791 12.433
44.8391 12.4575
44.8875 12.4006
44.9357 12.3658
44.984 12.3321
45.0322 12.2454
45.0806 12.2198
45.1288 12.2108
45.1773 12.133
45.2257 12.0847
45.2739 12.0528
45.3224 12.015
45.3706 11.9859
45.4191 11.9221
45.4673 11.8497
45.5158 11.8096
45.5641 11.7715
45.6126 11.7721
45.6609 11.7047
45.7094 11.6681
45.7577 11.6003
45.8063 11.5544
45.8546 11.5252
45.9031 11.5454
45.9515 11.4884
46.0001 11.4526
46.0484 11.4311
46.097 11.3352
46.1454 11.2937
46.194 11.256
46.2424 11.2445
46.291 11.169
46.3395 11.1258
46.3881 11.0727
46.4365 11.0929
46.4852 11.0213
46.5337 11.0039
46.5823 10.9754
46.631 10.8659
46.6795 10.8865
46.7282 10.8113
46.7767 10.7706
46.8254 10.7014
46.8739 10.6519
46.9226 10.6599
46.9712 10.6443
47.0199 10.5688
47.0685 10.5398
47.1173 10.4668
47.1658 10.4719
47.2146 10.3822
47.2632 10.3822
47.312 10.3924
47.3606 10.2815
47.4095 10.2698
47.4581 10.2209
47.5069 10.1737
47.5556 10.1408
47.6044 10.112
47.6531 10.1038
47.702 10.0515
47.7507 9.99992
47.7996 9.94463
47.8483 9.95646
47.8972 9.90484
47.9461 9.88767
47.9948 9.8324
48.0438 9.81997
48.0925 9.82074
48.1415 9.71129
48.1902 9.70338
48.2392 9.69185
48.288 9.5946
48.337 9.60433
48.3858 9.53038
48.4348 9.50674
48.4837 9.52088
48.5327 9.48171
48.5815 9.3726
48.6306 9.35055
48.6795 9.35936
48.7285 9.33427
48.7774 9.26571
48.8265 9.24745
48.8754 9.1628
48.9245 9.1752
48.9734 9.14373
49.0226 9.13823
49.0715 9.0578
49.1206 9.0694
49.1696 8.98716
49.2188 8.99297
49.2679 8.9158
49.3169 8.87977
49.3661 8.87211
49.4151 8.83191
49.4643 8.78904
49.5134 8.75716
49.5626 8.68932
49.6117 8.73919
49.6609 8.63829
49.71 8.57411
49.7592 8.57841
49.8083 8.54195
49.8576 8.51553
49.9067 8.43871
49.956 8.44747
50.0052 8.42805
50.0545 8.39777
50.1036 8.36847
50.153 8.30343
50.2022 8.32199
50.2515 8.25789
50.3007 8.1922
50.3501 8.18157
50.3993 8.15821
50.4487 8.12656
50.498 8.10763
50.5474 8.06147
50.5966 8.04222
50.6461 7.99875
50.6955 7.96553
50.7448 7.94454
50.7943 7.94053
50.8436 7.88468
50.8931 7.86784
50.9424 7.82558
50.9919 7.76556
51.0413 7.76019
51.0908 7.75276
51.1402 7.7133
51.1897 7.71825
51.2391 7.6918
51.2887 7.58162
51.3381 7.5943
51.3877 7.59308
51.4371 7.50867
51.4867 7.46787
51.5362 7.46809
51.5858 7.41984
51.6353 7.41826
51.6849 7.37612
51.7344 7.36862
51.7841 7.3218
51.8336 7.28411
51.8833 7.24982
51.9328 7.21213
51.9826 7.17462
52.0323 7.1656
52.0818 7.1181
52.1316 7.09252
52.1812 7.08703
52.231 7.03985
52.2806 7.00092
52.3304 6.98149
52.38 6.94183
52.4298 6.92139
52.4794 6.90216
52.5293 6.8972
52.5789 6.85141
52.6288 6.86996
52.6785 6.7751
52.7284 6.73905
52.7781 6.70902
52.828 6.70818
52.8777 6.66107
52.9276 6.69131
52.9774 6.63589
53.0273 6.58365
53.0771 6.54878
53.1271 6.5287
53.1769 6.49533
53.2269 6.46879
53.2767 6.44969
53.3267 6.41609
53.3765 6.44005
53.4266 6.40914
53.4766 6.32577
53.5265 6.31016
53.5765 6.22998
53.6264 6.2864
53.6765 6.24382
53.7264 6.21791
53.7765 6.14943
53.8265 6.12531
53.8766 6.12332
53.9266 6.07103
53.9767 6.05062
54.0267 6.00766
54.0769 5.98749
54.1269 6.01933
54.1771 5.93476
54.2271 5.90752
54.2773 5.84632
54.3274 5.83541
54.3776 5.8095
54.4277 5.81114
54.478 5.75735
54.528 5.75244
54.5783 5.68762
54.6285 5.65548
54.6788 5.61398
54.7289 5.56454
54.7792 5.54354
54.8296 5.47293
54.8798 5.44022
54.9301 5.3929
54.9803 5.38734
55.0307 5.40395
55.0809 5.30064
55.1314 5.29354
55.1816 5.18072
55.232 5.18317
55.2823 5.13435
55.3328 5.0922
55.383 5.02934
55.4335 4.94814
55.4838 4.95528
55.5344 4.87844
55.5847 4.86713
55.6352 4.83381
55.6856 4.77795
55.7361 4.76376