File: XRD/Ni3Fe_FD0174.xy
TT I
1.27165 7.93145
1.31627 7.47699
1.36089 7.69187
1.40551 5.85435
1.45013 5.96513
1.49476 5.73978
1.53938 6.10492
1.584 6.1503
1.62863 5.85549
1.67325 5.34291
1.71787 5.80756
1.7625 5.17499
1.80712 5.4142
1.85174 5.11524
1.89636 5.43831
1.94099 5.54587
1.98562 4.69429
2.03025 4.91014
2.07487 4.48356
2.11949 4.8937
2.16411 5.10171
2.20874 4.90883
2.25338 3.82523
2.298 4.6772
2.34263 4.39456
2.38725 4.3702
2.43188 3.79861
2.4765 4.72066
2.52115 4.38457
2.56577 4.92359
2.6104 5.58069
2.65503 5.61054
2.69965 5.69336
2.7443 6.08222
2.78893 6.92287
2.83356 7.33504
2.87818 8.20907
2.92281 8.56279
2.96744 9.46195
3.01209 10.8619
3.05672 11.0034
3.10135 12.0238
3.14599 13.4158
3.19062 14.5369
3.23527 15.1113
3.2799 15.9433
3.32454 16.9832
3.36917 17.4451
3.4138 19.0316
3.45844 19.6074
3.50309 20.9266
3.54773 20.9153
3.59237 21.7857
3.637 22.6191
3.68164 23.3283
3.7263 24.5067
3.77094 25.1726
3.81558 25.9702
3.86022 27.1142
3.90486 27.4133
3.9495 28.5155
3.99416 29.715
4.0388 30.7365
4.08344 32.5807
4.12809 33.0284
4.17273 34.2305
4.21738 36.5066
4.26204 36.8939
4.30669 37.9654
4.35133 40.4601
4.39598 41.5401
4.44063 43.4406
4.4853 45.0075
4.52995 47.8424
4.5746 49.7194
4.61925 51.8228
4.6639 54.1254
4.70855 56.6028
4.75322 60.1059
4.79788 62.4461
4.84253 66.9512
4.88719 71.2094
4.93184 75.8009
4.97652 82.7081
5.02118 91.0256
5.06583 101.57
5.11049 116.519
5.15515 153.302
5.19981 531.511
5.24449 3764.72
5.28916 8609.04
5.33382 6076.53
5.37848 411.49
5.42315 160.117
5.46783 127.479
5.5125 113.739
5.55716 107.715
5.60183 101.839
5.6465 99.4904
5.69117 98.2012
5.73586 95.6216
5.78053 95.625
5.8252 95.3155
5.86988 98.6243
5.91455 104.782
5.95924 123.394
6.00392 283.85
6.0486 1379.98
6.09328 2874.57
6.13795 4011.51
6.18263 631.999
6.22733 119.333
6.27201 88.4456
6.3167 78.3781
6.36138 72.8242
6.40606 69.0553
6.45075 66.7142
6.49545 64.8154
6.54014 62.7701
6.58483 61.4738
6.62952 60.4974
6.67421 58.8114
6.71892 57.7501
6.76361 56.8996
6.8083 56.093
6.853 55.4777
6.89769 54.9483
6.94239 54.945
6.98711 53.7205
7.03181 53.6421
7.07651 53.0424
7.12121 52.8808
7.16591 53.0535
7.21063 52.4293
7.25533 52.3836
7.30004 52.0936
7.34475 52.3354
7.38945 52.6463
7.43416 52.0733
7.47889 52.4865
7.5236 55.7215
7.56831 61.8564
7.61303 55.4594
7.65774 53.7347
7.70247 54.4167
7.74719 54.3922
7.79191 55.6163
7.83663 55.4617
7.88135 56.7317
7.92607 57.5951
7.97081 58.5907
8.01553 59.7225
8.06026 61.0343
8.10498 62.3978
8.14971 64.2201
8.19446 65.559
8.23919 68.3579
8.28392 71.2262
8.32865 73.9466
8.37339 78.7167
8.41812 84.2867
8.46288 95.9168
8.50761 172.586
8.55235 594.67
8.59709 916.214
8.64183 1589.2
8.68658 1627.5
8.73134 387.635
8.77609 116.014
8.82083 97.6159
8.86558 91.303
8.91033 88.4579
8.9551 85.9519
8.99985 84.7229
9.04461 83.1908
9.08936 82.6976
9.13412 82.0133
9.17888 81.7844
9.22365 87.2122
9.26841 95.0528
9.31318 86.1703
9.35794 82.4049
9.4027 82.8098
9.44749 83.5802
9.49226 84.6143
9.53703 84.8715
9.5818 86.6667
9.62657 87.5703
9.67134 89.2843
9.71614 91.4363
9.76091 93.2787
9.80569 95.8409
9.85047 99.4454
9.89525 104.238
9.94005 114.493
9.98484 185.315
10.0296 538.884
10.0744 751.795
10.1192 1084.92
10.164 1694.2
10.2088 930.959
10.2536 205.085
10.2984 116.307
10.3432 108.271
10.388 104.808
10.4328 122.063
10.4776 213.291
10.5224 265.994
10.5672 343.071
10.612 492.897
10.6568 361.127
10.7017 131.821
10.7465 90.5676
10.7913 83.9757
10.8361 81.4069
10.8809 78.7658
10.9257 76.186
10.9706 74.9183
11.0154 73.4632
11.0602 71.9783
11.105 70.8181
11.1499 69.3828
11.1947 68.0879
11.2395 67.1977
11.2844 66.8593
11.3292 65.604
11.374 65.2086
11.4189 64.688
11.4637 63.9717
11.5086 63.3323
11.5534 62.8764
11.5983 62.7198
11.6431 62.5238
11.688 62.2606
11.7328 61.5943
11.7777 61.8243
11.8225 61.4615
11.8674 61.5627
11.9122 62.7383
11.9571 65.7368
12.002 65.3302
12.0468 67.8619
12.0917 90.6154
12.1366 108.268
12.1814 121.295
12.2263 156.597
12.2712 194.085
12.3161 135.074
12.3609 74.2679
12.4058 64.2898
12.4507 63.8752
12.4956 63.6163
12.5405 63.5086
12.5853 63.9875
12.6302 64.2947
12.6751 65.1776
12.72 65.6589
12.7649 66.6802
12.8098 67.7328
12.8547 68.9231
12.8996 70.3144
12.9445 71.4729
12.9894 73.5474
13.0343 75.6421
13.0792 79.8296
13.1242 86.7923
13.1691 133.156
13.214 185.869
13.2589 209.881
13.3038 256.781
13.3487 362.886
13.3937 376.625
13.4386 201.572
13.4835 118.174
13.5285 153.438
13.5734 182.435
13.6183 199.086
13.6633 248.733
13.7082 340.118
13.7531 300.142
13.7981 147.479
13.843 88.1371
13.888 81.1464
13.9329 78.0427
13.9779 76.5509
14.0228 74.8343
14.0678 73.5078
14.1127 73.2431
14.1577 74.1565
14.2027 72.5837
14.2476 70.8219
14.2926 69.8835
14.3376 69.5053
14.3825 68.9226
14.4275 68.6389
14.4725 68.6112
14.5175 68.9283
14.5624 68.8529
14.6074 69.2266
14.6524 69.5579
14.6974 70.1604
14.7424 71.8965
14.7874 81.0645
14.8324 106.451
14.8774 121.494
14.9224 130.594
14.9674 154.117
15.0124 199.059
15.0574 203.525
15.1024 133.774
15.1474 81.1439
15.1924 71.3509
15.2374 69.361
15.2824 68.2985
15.3274 67.4832
15.3725 66.9078
15.4175 66.4552
15.4625 66.3792
15.5076 66.0052
15.5526 65.9155
15.5976 66.0754
15.6426 66.9943
15.6877 74.0902
15.7327 94.7373
15.7778 107.356
15.8228 113.232
15.8679 129.288
15.9129 160.082
15.958 186.32
16.003 147.624
16.0481 86.3302
16.0931 66.144
16.1382 61.8919
16.1833 60.7116
16.2283 59.1617
16.2734 58.3645
16.3185 57.8166
16.3636 56.9822
16.4086 56.3683
16.4537 55.9116
16.4988 55.5562
16.5439 55.3929
16.589 55.0527
16.6341 54.8528
16.6792 54.5625
16.7243 54.5705
16.7694 54.5164
16.8145 54.4898
16.8596 54.6428
16.9047 55.0042
16.9498 55.4784
16.9949 55.2163
17.04 55.749
17.0851 57.0026
17.1302 61.2593
17.1754 64.7379
17.2205 65.6471
17.2656 68.1403
17.3108 73.6981
17.3559 80.8434
17.401 81.2683
17.4462 70.711
17.4913 61.5901
17.5365 59.5143
17.5815 59.3385
17.6268 59.6584
17.6718 60.2856
17.7171 60.624
17.7622 61.6419
17.8074 62.521
17.8525 64.4081
17.8977 72.4339
17.9428 83.8598
17.9881 88.5974
18.0331 92.2189
18.0784 100.9
18.1237 118.161
18.1688 142.833
18.214 140.678
18.2591 109.272
18.3044 89.019
18.3495 88.3703
18.3948 96.9979
18.4399 104.164
18.4852 94.1365
18.5303 75.8716
18.5756 65.2911
18.6207 62.5362
18.666 61.4245
18.7112 60.2181
18.7565 59.6788
18.8016 59.1974
18.8469 58.5845
18.892 58.4077
18.9374 58.014
18.9825 57.3365
19.0278 57.0825
19.073 57.1635
19.1183 57.5783
19.1635 60.0147
19.2088 62.0624
19.254 62.8767
19.2993 63.8967
19.3447 66.0152
19.3898 70.036
19.4352 74.2903
19.4804 72.1169
19.5257 63.4909
19.5709 56.5303
19.6163 54.6865
19.6615 54.3339
19.7068 53.6389
19.752 53.6604
19.7974 53.7164
19.8426 55.2576
19.888 57.2356
19.9332 58.3485
19.9786 59.296
20.0238 60.0339
20.0692 62.6856
20.1144 67.9967
20.1598 72.9011
20.205 71.15
20.2504 65.4493
20.2957 61.6357
20.3411 62.5339
20.3863 65.2808
20.4318 64.4478
20.477 58.9398
20.5224 53.2979
20.5677 51.4149
20.6131 50.8217
20.6586 50.2126
20.7038 49.9515
20.7493 49.5491
20.7945 49.4967
20.84 49.2748
20.8853 49.3095
20.9307 48.947
20.976 49.1631
21.0215 49.2161
21.0668 49.7782
21.1122 49.9634
21.1575 49.9286
21.203 50.1671
21.2483 50.7782
21.2938 51.9724
21.3391 51.7601
21.3846 50.8015
21.4299 49.5041
21.4754 48.9501
21.5207 49.1132
21.5662 49.5466
21.6116 49.6302
21.6571 51.5858
21.7024 53.4552
21.7479 54.2843
21.7933 55.0711
21.8388 56.5359
21.8843 59.6488
21.9297 63.0419
21.9752 66.3606
22.0206 65.7557
22.0661 60.7073
22.1115 56.7345
22.157 55.986
22.2024 56.636
22.248 55.2589
22.2933 52.6262
22.3389 50.6222
22.3843 49.6624
22.4299 49.1774
22.4753 49.3336
22.5208 49.1721
22.5662 48.9971
22.6118 49.2747
22.6572 49.5647
22.7028 50.6756
22.7483 51.8152
22.7939 52.2448
22.8393 52.4537
22.8849 53.2174
22.9303 54.1231
22.9759 55.7236
23.0214 57.9208
23.067 58.5069
23.1126 55.8422
23.1581 52.4251
23.2037 50.026
23.2492 49.5879
23.2948 50.1147
23.3403 51.2904
23.3859 52.1748
23.4314 52.1978
23.477 52.3649
23.5225 53.0899
23.5682 54.404
23.6137 56.5427
23.6593 58.2886
23.7048 57.1697
23.7505 53.2202
23.796 49.2531
23.8417 47.1453
23.8872 46.4179
23.9329 45.9877
23.9784 45.6282
24.0241 45.3805
24.0697 44.9685
24.1154 44.7474
24.1609 44.5286
24.2066 44.4024
24.2522 44.1957
24.2979 43.9445
24.3434 43.8945
24.3892 43.6864
24.4349 43.6388
24.4805 43.3717
24.5262 43.4115
24.5718 43.301
24.6175 43.4292
24.6631 43.3131
24.7089 43.4225
24.7545 43.1257
24.8002 42.8145
24.8458 42.8126
24.8916 42.7992
24.9372 42.9645
24.983 43.1339
25.0286 43.4021
25.0744 44.0786
25.12 44.0997
25.1658 44.8218
25.2114 45.1971
25.2572 45.3916
25.3029 45.2636
25.3487 45.1362
25.3943 45.2262
25.4402 45.3156
25.4858 44.7074
25.5316 43.3019
25.5773 41.933
25.6231 41.5824
25.669 41.1989
25.7147 40.8987
25.7605 41.0627
25.8062 41.1434
25.8521 41.5098
25.8977 41.2776
25.9436 41.3783
25.9893 41.2477
26.0352 41.5766
26.0809 41.55
26.1268 42.0711
26.1725 42.3663
26.2184 42.2341
26.2641 41.632
26.31 41.1272
26.3557 41.0257
26.4017 41.1926
26.4474 41.2491
26.4933 41.3005
26.5391 41.6035
26.585 41.9027
26.6308 42.1876
26.6767 42.4314
26.7225 42.9221
26.7684 43.0479
26.8142 42.264
26.8601 41.4509
26.9059 41.075
26.9519 40.7455
26.9979 40.3577
27.0437 39.8225
27.0896 39.497
27.1354 39.3965
27.1814 39.2965
27.2272 39.1859
27.2732 39.2312
27.3191 39.1345
27.3651 39.0216
27.4109 38.9576
27.4569 38.9235
27.5027 38.9784
27.5488 39.1763
27.5946 39.0695
27.6407 39.2535
27.6865 39.1229
27.7326 38.9245
27.7784 38.9113
27.8245 38.7318
27.8703 38.6364
27.9164 38.8715
27.9623 38.7127
28.0084 39.0214
28.0543 39.286
28.1003 39.6318
28.1462 39.8546
28.1923 39.6065
28.2384 38.9763
28.2843 38.7799
28.3304 38.1692
28.3764 37.8554
28.4225 37.4956
28.4684 37.037
28.5145 36.605
28.5605 36.5954
28.6066 36.2151
28.6526 36.3233
28.6987 36.2809
28.7447 35.9275
28.7908 35.94
28.8368 35.6908
28.8829 35.9029
28.9289 35.8012
28.9751 35.8224
29.0211 35.6736
29.0673 35.4349
29.1133 35.38
29.1595 35.0441
29.2055 34.9057
29.2517 34.7457
29.2977 34.7956
29.3439 34.7252
29.3899 34.4906
29.4361 34.5495
29.4824 34.6692
29.5284 34.5126
29.5746 34.1465
29.6207 33.7684
29.6669 33.5394
29.713 33.4406
29.7593 33.3594
29.8053 33.365
29.8516 33.3215
29.8977 33.3162
29.9439 33.1352
29.99 33.1382
30.0363 32.9589
30.0824 33.0282
30.1287 32.8495
30.1748 32.7593
30.2211 32.8004
30.2673 32.6407
30.3136 32.8609
30.3597 32.9939
30.406 32.8415
30.4522 32.7847
30.4985 32.4849
30.5447 32.5285
30.591 32.5061
30.6372 32.6183
30.6835 32.5026
30.7297 32.5869
30.7761 32.7368
30.8224 32.6979
30.8686 32.5685
30.915 32.4186
30.9612 32.2343
31.0076 32.0027
31.0538 31.7638
31.1002 31.7497
31.1464 31.6513
31.1928 31.4564
31.2391 31.493
31.2855 31.4284
31.3317 31.3655
31.3781 31.3942
31.4244 31.2248
31.4708 31.1804
31.5171 31.3235
31.5636 31.3019
31.6098 31.2185
31.6563 31.136
31.7026 30.9886
31.7491 30.7455
31.7953 30.6901
31.8418 30.659
31.8881 30.6378
31.9346 30.4693
31.9809 30.5383
32.0275 30.4804
32.074 30.3968
32.1203 30.2471
32.1668 30.1762
32.2132 29.9816
32.2597 29.7695
32.306 29.7059
32.3526 29.5641
32.399 29.4203
32.4455 29.3033
32.4919 29.0699
32.5385 29.1815
32.5848 28.9727
32.6314 28.977
32.6778 28.8399
32.7244 28.7431
32.7708 28.6305
32.8174 28.5849
32.8638 28.5479
32.9104 28.6046
32.9569 28.4156
33.0035 28.3657
33.0499 28.3899
33.0966 28.211
33.143 28.2022
33.1897 28.1347
33.2361 27.9933
33.2828 28.0709
33.3293 27.9061
33.3759 27.9447
33.4226 27.848
33.4691 27.6396
33.5158 27.5504
33.5623 27.3416
33.609 27.1773
33.6555 27.1496
33.7022 26.9829
33.7487 26.9031
33.7954 26.944
33.842 26.7605
33.8887 26.6762
33.9353 26.6635
33.982 26.5739
34.0286 26.468
34.0753 26.4395
34.1219 26.3839
34.1687 26.2557
34.2152 26.1629
34.262 26.1156
34.3086 25.8643
34.3554 25.8459
34.402 25.8235
34.4488 25.6753
34.4954 25.7354
34.5422 25.5532
34.5889 25.4753
34.6357 25.324
34.6825 25.3048
34.7292 25.2236
34.776 25.1605
34.8227 25.0807
34.8695 25.0233
34.9162 24.9531
34.9631 24.9133
35.0098 24.9077
35.0566 24.7775
35.1033 24.6847
35.1502 24.679
35.1969 24.5896
35.2438 24.5809
35.2906 24.535
35.3375 24.441
35.3842 24.3082
35.4311 24.3247
35.4779 24.2826
35.5248 24.2875
35.5716 24.223
35.6185 24.1341
35.6653 24.0331
35.7123 24.0006
35.759 23.8123
35.806 23.8165
35.8528 23.6471
35.8998 23.6168
35.9468 23.4672
35.9936 23.4062
36.0406 23.365
36.0874 23.3585
36.1345 23.2948
36.1813 23.1978
36.2283 23.1096
36.2752 22.982
36.3222 23.0716
36.3691 22.9823
36.4161 22.8584
36.463 22.8049
36.5101 22.7894
36.557 22.6792
36.6041 22.5548
36.651 22.5562
36.6981 22.4732
36.745 22.4186
36.7921 22.3435
36.839 22.2718
36.8861 22.2283
36.9331 22.0897
36.9802 21.9704
37.0272 21.9313
37.0743 21.7966
37.1213 21.855
37.1684 21.7142
37.2154 21.6995
37.2626 21.5596
37.3098 21.6044
37.3568 21.4989
37.404 21.5054
37.451 21.2887
37.4982 21.2782
37.5452 21.1419
37.5924 21.0528
37.6395 21.213
37.6867 20.9828
37.7337 20.9291
37.781 20.8755
37.8281 20.8971
37.8753 20.7268
37.9224 20.6574
37.9697 20.6123
38.0168 20.5356
38.064 20.4683
38.1111 20.3765
38.1584 20.323
38.2056 20.2507
38.2529 20.1533
38.3 20.146
38.3473 20.1095
38.3945 19.9963
38.4418 19.9893
38.489 19.8251
38.5363 19.8228
38.5837 19.6855
38.6309 19.7059
38.6782 19.6046
38.7254 19.5835
38.7728 19.5087
38.82 19.4339
38.8674 19.3892
38.9146 19.2948
38.9621 19.3162
39.0093 19.1741
39.0567 19.1589
39.104 19.1773
39.1514 19.0187
39.1987 18.96
39.2461 18.9081
39.2934 18.8061
39.3409 18.769
39.3882 18.6214
39.4356 18.6155
39.483 18.6066
39.5304 18.4475
39.5778 18.5177
39.6253 18.3762
39.6726 18.3579
39.7201 18.3279
39.7675 18.2391
39.815 18.2216
39.8624 18.128
39.9099 18.1
39.9575 18.0563
40.0049 17.9431
40.0525 17.9319
40.0999 17.8875
40.1474 17.8556
40.1949 17.7594
40.2425 17.676
40.2899 17.6238
40.3375 17.5964
40.385 17.5
40.4326 17.4778
40.48 17.3539
40.5277 17.378
40.5752 17.3299
40.6228 17.1894
40.6703 17.1714
40.718 17.1213
40.7655 17.1101
40.8132 16.9647
40.8607 17.0504
40.9084 16.9501
40.9559 16.8305
41.0036 16.8024
41.0512 16.7484
41.0989 16.6842
41.1465 16.607
41.1942 16.6121
41.242 16.5251
41.2896 16.4825
41.3373 16.3915
41.3849 16.3797
41.4327 16.2717
41.4803 16.2484
41.5281 16.1719
41.5758 16.1597
41.6236 16.0567
41.6712 16.0023
41.7191 15.9061
41.7667 15.9231
41.8146 15.8586
41.8622 15.8057
41.9101 15.7879
41.9578 15.6283
42.0057 15.7115
42.0534 15.6035
42.1013 15.564
42.149 15.4376
42.1969 15.4684
42.2446 15.4119
42.2925 15.3515
42.3403 15.335
42.3882 15.265
42.436 15.1759
42.4839 15.1171
42.5319 15.0775
42.5797 15.0305
42.6277 15.0242
42.6755 14.9542
42.7235 14.8427
42.7713 14.8181
42.8193 14.782
42.8671 14.7027
42.9152 14.6391
42.963 14.6531
43.0111 14.5958
43.0589 14.5571
43.107 14.4801
43.1549 14.439
43.2029 14.3836
43.2508 14.2938
43.2989 14.3169
43.3468 14.2236
43.3949 14.1833
43.4429 14.1371
43.491 14.121
43.5389 14.0425
43.5871 14.0182
43.635 13.8999
43.6832 13.8829
43.7312 13.806
43.7793 13.774
43.8273 13.7716
43.8755 13.6786
43.9237 13.6149
43.9717 13.6202
44.0199 13.579
44.068 13.5326
44.1162 13.4743
44.1642 13.4456
44.2125 13.3528
44.2606 13.3358
44.3088 13.2964
44.3569 13.2153
44.4052 13.2403
44.4533 13.1478
44.5016 13.0718
44.5497 13.0633
44.598 13.0424
44.6461 12.9374
44.6945 12.9045
44.7426 12.8539
44.791 12.8067
44.8391 12.7972
44.8875 12.7164
44.9357 12.7095
44.984 12.666
45.0322 12.6196
45.0806 12.5303
45.1288 12.5641
45.1773 12.5101
45.2257 12.382
45.2739 12.3719
45.3224 12.3419
45.3706 12.2938
45.4191 12.2601
45.4673 12.2142
45.5158 12.1808
45.5641 12.1222
45.6126 12.0854
45.6609 12.0229
45.7094 11.9696
45.7577 11.927
45.8063 11.8521
45.8546 11.8531
45.9031 11.8176
45.9515 11.7922
46.0001 11.7586
46.0484 11.707
46.097 11.661
46.1454 11.6387
46.194 11.5998
46.2424 11.5051
46.291 11.5092
46.3395 11.449
46.3881 11.3826
46.4365 11.382
46.4852 11.3041
46.5337 11.2496
46.5823 11.3215
46.631 11.1841
46.6795 11.1369
46.7282 11.1349
46.7767 11.0907
46.8254 11.0232
46.8739 10.9608
46.9226 10.9244
46.9712 10.9121
47.0199 10.8771
47.0685 10.8115
47.1173 10.795
47.1658 10.7539
47.2146 10.7007
47.2632 10.6544
47.312 10.6162
47.3606 10.546
47.4095 10.5155
47.4581 10.4812
47.5069 10.4486
47.5556 10.4248
47.6044 10.4089
47.6531 10.3451
47.702 10.329
47.7507 10.267
47.7996 10.2085
47.8483 10.1957
47.8972 10.1817
47.9461 10.119
47.9948 10.0614
48.0438 10.0508
48.0925 10.0221
48.1415 9.97287
48.1902 9.9539
48.2392 9.91965
48.288 9.91361
48.337 9.8377
48.3858 9.79115
48.4348 9.77308
48.4837 9.8115
48.5327 9.71935
48.5815 9.66654
48.6306 9.65896
48.6795 9.5984
48.7285 9.51012
48.7774 9.51657
48.8265 9.49906
48.8754 9.45538
48.9245 9.45869
48.9734 9.38041
49.0226 9.35576
49.0715 9.34265
49.1206 9.26812
49.1696 9.22208
49.2188 9.21953
49.2679 9.18886
49.3169 9.12596
49.3661 9.10129
49.4151 9.06877
49.4643 9.06747
49.5134 8.98481
49.5626 8.94631
49.6117 8.91626
49.6609 8.90119
49.71 8.85478
49.7592 8.85032
49.8083 8.7956
49.8576 8.76442
49.9067 8.75043
49.956 8.69597
50.0052 8.63061
50.0545 8.63239
50.1036 8.6055
50.153 8.54543
50.2022 8.57197
50.2515 8.47266
50.3007 8.43193
50.3501 8.43385
50.3993 8.43009
50.4487 8.37261
50.498 8.3407
50.5474 8.31549
50.5966 8.25191
50.6461 8.2419
50.6955 8.23337
50.7448 8.21495
50.7943 8.16358
50.8436 8.07298
50.8931 8.09457
50.9424 8.05962
50.9919 8.01778
51.0413 7.9715
51.0908 7.95367
51.1402 7.94968
51.1897 7.88288
51.2391 7.88739
51.2887 7.81026
51.3381 7.78514
51.3877 7.7864
51.4371 7.72486
51.4867 7.66237
51.5362 7.66755
51.5858 7.62005
51.6353 7.58
51.6849 7.53814
51.7344 7.52215
51.7841 7.51699
51.8336 7.47662
51.8833 7.45642
51.9328 7.41793
51.9826 7.38995
52.0323 7.33682
52.0818 7.33948
52.1316 7.27353
52.1812 7.26836
52.231 7.18785
52.2806 7.17929
52.3304 7.21454
52.38 7.14669
52.4298 7.11111
52.4794 7.06687
52.5293 7.06255
52.5789 7.02781
52.6288 7.02693
52.6785 6.93185
52.7284 6.9503
52.7781 6.90644
52.828 6.87334
52.8777 6.8703
52.9276 6.7723
52.9774 6.77337
53.0273 6.75574
53.0771 6.76535
53.1271 6.73373
53.1769 6.68547
53.2269 6.68389
53.2767 6.64333
53.3267 6.6161
53.3765 6.58035
53.4266 6.56337
53.4766 6.49636
53.5265 6.48525
53.5765 6.50449
53.6264 6.42895
53.6765 6.41691
53.7264 6.38092
53.7765 6.37619
53.8265 6.31295
53.8766 6.30603
53.9266 6.23249
53.9767 6.25273
54.0267 6.20122
54.0769 6.17689
54.1269 6.12067
54.1771 6.12112
54.2271 6.09729
54.2773 6.03109
54.3274 6.01746
54.3776 5.98211
54.4277 5.92532
54.478 5.8387
54.528 5.84297
54.5783 5.80655
54.6285 5.77219
54.6788 5.75084
54.7289 5.61573
54.7792 5.62955
54.8296 5.56852
54.8798 5.55813
54.9301 5.4862
54.9803 5.45732
55.0307 5.4416
55.0809 5.40265
55.1314 5.39724
55.1816 5.27578
55.232 5.24277
55.2823 5.19792
55.3328 5.11694
55.383 5.07973
55.4335 5.06597
55.4838 4.97092
55.5344 4.9775
55.5847 4.90221
55.6352 4.91763
55.6856 4.86513
55.7361 4.78356