File: XRD/Ni3Fe_FD1036.xy
TT I
1.27165 6.72888
1.31627 6.6423
1.36089 6.46166
1.40551 4.78582
1.45013 5.58059
1.49476 6.23883
1.53938 5.35835
1.584 4.98308
1.62863 4.89097
1.67325 4.85278
1.71787 4.4555
1.7625 4.49265
1.80712 4.50961
1.85174 4.18739
1.89636 4.37076
1.94099 4.44337
1.98562 4.32594
2.03025 3.86494
2.07487 3.8234
2.11949 4.33403
2.16411 4.3869
2.20874 5.94204
2.25338 6.13894
2.298 5.24599
2.34263 5.80128
2.38725 6.12842
2.43188 6.30831
2.4765 6.82384
2.52115 6.73244
2.56577 7.53817
2.6104 8.87585
2.65503 8.66772
2.69965 8.71609
2.7443 8.1966
2.78893 8.59405
2.83356 8.48027
2.87818 8.76504
2.92281 9.07066
2.96744 9.56504
3.01209 10.4635
3.05672 11.2358
3.10135 12.2226
3.14599 13.126
3.19062 13.9944
3.23527 14.9239
3.2799 16.0053
3.32454 16.4837
3.36917 17.2374
3.4138 18.4168
3.45844 18.6176
3.50309 19.494
3.54773 20.3948
3.59237 21.2804
3.637 27.9693
3.68164 26.8859
3.7263 24.0289
3.77094 24.8901
3.81558 25.7241
3.86022 26.108
3.90486 27.4277
3.9495 27.8858
3.99416 29.0069
4.0388 30.618
4.08344 31.8108
4.12809 32.3569
4.17273 33.4566
4.21738 35.3127
4.26204 52.6153
4.30669 57.1491
4.35133 40.9353
4.39598 40.9477
4.44063 43.337
4.4853 46.2133
4.52995 46.404
4.5746 48.3277
4.61925 50.3564
4.6639 52.9489
4.70855 54.7057
4.75322 57.9954
4.79788 60.6562
4.84253 64.002
4.88719 67.9066
4.93184 71.2827
4.97652 76.6804
5.02118 82.8395
5.06583 89.3652
5.11049 97.4144
5.15515 118.011
5.19981 231.23
5.24449 2447.32
5.28916 13488.6
5.33382 3304.19
5.37848 218.539
5.42315 124.802
5.46783 107.657
5.5125 100.643
5.55716 97.1682
5.60183 92.859
5.6465 91.0684
5.69117 90.0705
5.73586 87.7313
5.78053 86.9307
5.8252 85.9541
5.86988 87.0913
5.91455 88.7569
5.95924 94.7444
6.00392 162.156
6.0486 875.267
6.09328 4581.26
6.13795 3548.13
6.18263 240.389
6.22733 87.2006
6.27201 75.7999
6.3167 73.0113
6.36138 68.3316
6.40606 65.0958
6.45075 63.0619
6.49545 61.7497
6.54014 59.9171
6.58483 59.0007
6.62952 57.8488
6.67421 58.6057
6.71892 64.634
6.76361 56.5596
6.8083 54.1952
6.853 53.6728
6.89769 53.7345
6.94239 53.0727
6.98711 52.68
7.03181 51.9388
7.07651 52.0074
7.12121 51.4875
7.16591 51.5892
7.21063 51.1263
7.25533 51.6604
7.30004 61.9549
7.34475 55.9185
7.38945 51.8189
7.43416 51.1852
7.47889 51.7066
7.5236 60.0434
7.56831 76.7036
7.61303 57.3584
7.65774 52.7853
7.70247 53.2485
7.74719 52.912
7.79191 53.6921
7.83663 53.8303
7.88135 54.7616
7.92607 55.6639
7.97081 56.7623
8.01553 57.4168
8.06026 59.3033
8.10498 59.9909
8.14971 62.0302
8.19446 63.9669
8.23919 65.7442
8.28392 67.9217
8.32865 70.1009
8.37339 73.8765
8.41812 77.8502
8.46288 86.1776
8.50761 127.083
8.55235 362.343
8.59709 1072.96
8.64183 2249.83
8.68658 1106.5
8.73134 175.785
8.77609 94.413
8.82083 88.1893
8.86558 85.1855
8.91033 83.4298
8.9551 81.9773
8.99985 80.8214
9.04461 79.9114
9.08936 79.5666
9.13412 79.0242
9.17888 79.713
9.22365 93.3267
9.26841 118.652
9.31318 90.4533
9.35794 80.2471
9.4027 79.5199
9.44749 80.209
9.49226 80.9502
9.53703 81.5908
9.5818 82.6791
9.62657 83.8736
9.67134 86.2124
9.71614 87.5721
9.76091 89.2032
9.80569 91.7568
9.85047 93.9141
9.89525 98.5281
9.94005 105.779
9.98484 146.114
10.0296 341.46
10.0744 762.009
10.1192 1750.74
10.164 1676.14
10.2088 442.294
10.2536 125.407
10.2984 103.101
10.3432 100.538
10.388 97.6458
10.4328 107.198
10.4776 158.388
10.5224 265.418
10.5672 503.65
10.612 542.802
10.6568 224.647
10.7017 105.213
10.7465 86.6394
10.7913 79.6387
10.8361 77.4987
10.8809 74.8393
10.9257 73.2479
10.9706 72.2541
11.0154 70.5255
11.0602 69.0769
11.105 68.1571
11.1499 67.1159
11.1947 66.9065
11.2395 65.467
11.2844 64.5881
11.3292 63.4475
11.374 62.916
11.4189 62.5068
11.4637 61.503
11.5086 61.0686
11.5534 60.9518
11.5983 60.7295
11.6431 60.6771
11.688 60.1458
11.7328 60.1372
11.7777 59.7262
11.8225 59.6689
11.8674 59.662
11.9122 62.1827
11.9571 69.1879
12.002 67.6359
12.0468 64.3677
12.0917 76.1824
12.1366 98.343
12.1814 146.931
12.2263 207.833
12.2712 180.22
12.3161 97.0591
12.3609 64.3117
12.4058 61.0116
12.4507 61.0606
12.4956 61.1353
12.5405 60.9862
12.5853 61.8208
12.6302 62.3647
12.6751 63.8191
12.72 64.0167
12.7649 64.0474
12.8098 65.0634
12.8547 66.2691
12.8996 67.7052
12.9445 68.9017
12.9894 70.7796
13.0343 72.6669
13.0792 76.2172
13.1242 82.3188
13.1691 106.687
13.214 145.822
13.2589 225.617
13.3038 362.575
13.3487 439.98
13.3937 278.597
13.4386 127.042
13.4835 98.6806
13.5285 118.748
13.5734 154.446
13.6183 234.579
13.6633 353.61
13.7082 361.813
13.7531 207.349
13.7981 100.598
13.843 79.3387
13.888 76.7144
13.9329 74.215
13.9779 73.1596
14.0228 71.7312
14.0678 70.8407
14.1127 71.8094
14.1577 76.1003
14.2027 74.1672
14.2476 69.0483
14.2926 67.1474
14.3376 67.1355
14.3825 66.8183
14.4275 66.123
14.4725 65.9733
14.5175 66.0732
14.5624 66.2089
14.6074 66.4376
14.6524 67.0059
14.6974 67.1678
14.7424 68.0862
14.7874 74.148
14.8324 87.8556
14.8774 108.423
14.9224 146.92
14.9674 207.299
15.0124 228.429
15.0574 160.789
15.1024 93.2759
15.1474 71.1133
15.1924 67.6575
15.2374 66.4527
15.2824 65.4451
15.3274 64.7287
15.3725 64.0612
15.4175 63.7154
15.4625 63.3287
15.5076 63.0751
15.5526 63.1142
15.5976 63.2114
15.6426 63.7605
15.6877 68.2373
15.7327 78.7912
15.7778 92.9236
15.8228 120.952
15.8679 168.06
15.9129 200.824
15.958 167.39
16.003 102.778
16.0481 69.442
16.0931 62.8864
16.1382 59.8707
16.1833 58.1816
16.2283 56.8174
16.2734 55.8023
16.3185 55.2667
16.3636 54.9622
16.4086 54.3745
16.4537 53.9527
16.4988 53.3389
16.5439 53.2515
16.589 53.0699
16.6341 52.7496
16.6792 52.4202
16.7243 52.6568
16.7694 52.4866
16.8145 52.5531
16.8596 52.7898
16.9047 53.529
16.9498 54.2026
16.9949 53.9449
17.04 53.7502
17.0851 54.7025
17.1302 56.8218
17.1754 59.9188
17.2205 64.4858
17.2656 72.1588
17.3108 81.3596
17.3559 82.3229
17.401 71.2264
17.4462 61.0832
17.4913 57.4435
17.5365 56.8415
17.5815 57.0351
17.6268 57.5576
17.6718 58.1254
17.7171 58.7347
17.7622 59.8223
17.8074 60.554
17.8525 61.4466
17.8977 66.0566
17.9428 72.7367
17.9881 81.175
18.0331 97.1116
18.0784 120.73
18.1237 141.779
18.1688 136.641
18.214 108.37
18.2591 87.6418
18.3044 88.3618
18.3495 98.9704
18.3948 106.871
18.4399 97.9111
18.4852 78.9938
18.5303 65.748
18.5756 61.3753
18.6207 60.0074
18.666 58.738
18.7112 57.9697
18.7565 57.1848
18.8016 56.9254
18.8469 56.1872
18.892 56.1521
18.9374 55.4228
18.9825 54.929
19.0278 54.7413
19.073 54.8601
19.1183 55.1635
19.1635 56.1104
19.2088 57.7487
19.254 60.448
19.2993 65.2576
19.3447 71.8359
19.3898 75.8624
19.4352 71.9618
19.4804 62.9922
19.5257 55.836
19.5709 52.7454
19.6163 52.2735
19.6615 52.1299
19.7068 51.7034
19.752 51.6404
19.7974 51.797
19.8426 52.4425
19.888 53.5886
19.9332 55.0746
19.9786 57.1492
20.0238 60.6241
20.0692 66.4048
20.1144 70.0433
20.1598 68.8841
20.205 63.9099
20.2504 61.5578
20.2957 63.2361
20.3411 65.4749
20.3863 64.0768
20.4318 58.0386
20.477 52.6652
20.5224 49.7589
20.5677 49.238
20.6131 48.6948
20.6586 48.2257
20.7038 48.0392
20.7493 47.9785
20.7945 47.8776
20.84 47.6976
20.8853 47.4323
20.9307 46.9515
20.976 47.3722
21.0215 47.1619
21.0668 47.5038
21.1122 47.9613
21.1575 48.5482
21.203 49.4622
21.2483 50.0688
21.2938 50.3868
21.3391 49.1569
21.3846 47.5818
21.4299 47.2089
21.4754 47.2169
21.5207 47.2801
21.5662 47.3861
21.6116 47.539
21.6571 48.5455
21.7024 49.8679
21.7479 51.4155
21.7933 53.9186
21.8388 57.6202
21.8843 62.4452
21.9297 65.1896
21.9752 63.7213
22.0206 59.4539
22.0661 56.1514
22.1115 55.9111
22.157 55.7812
22.2024 54.1389
22.248 50.918
22.2933 48.8414
22.3389 48.0277
22.3843 47.594
22.4299 47.4306
22.4753 47.3688
22.5208 47.3865
22.5662 47.1416
22.6118 47.3713
22.6572 47.6159
22.7028 48.1797
22.7483 48.9078
22.7939 49.6089
22.8393 50.969
22.8849 53.1749
22.9303 55.5024
22.9759 57.5633
23.0214 57.2994
23.067 54.5682
23.1126 50.8544
23.1581 48.4356
23.2037 47.7252
23.2492 47.5949
23.2948 47.7622
23.3403 48.3176
23.3859 49.1556
23.4314 50.1874
23.477 51.7747
23.5225 54.3866
23.5682 56.9828
23.6137 58.33
23.6593 56.2668
23.7048 52.0948
23.7505 47.9794
23.796 45.682
23.8417 45.0391
23.8872 44.6191
23.9329 44.1742
23.9784 44.0027
24.0241 43.6487
24.0697 43.5405
24.1154 43.0776
24.1609 42.8559
24.2066 42.5876
24.2522 42.4997
24.2979 42.2673
24.3434 42.1829
24.3892 42.0064
24.4349 41.9657
24.4805 41.7985
24.5262 41.9599
24.5718 42.0561
24.6175 42.1305
24.6631 41.9895
24.7089 41.4183
24.7545 41.4066
24.8002 41.1171
24.8458 41.0384
24.8916 40.9565
24.9372 41.2618
24.983 41.5343
25.0286 41.9356
25.0744 42.3796
25.12 43.0729
25.1658 43.7948
25.2114 44.025
25.2572 44.1411
25.3029 44.3069
25.3487 44.4639
25.3943 44.2592
25.4402 43.0882
25.4858 41.9961
25.5316 40.71
25.5773 40.0223
25.6231 39.8557
25.669 39.5573
25.7147 39.5684
25.7605 39.4561
25.8062 39.6057
25.8521 39.6515
25.8977 39.8046
25.9436 39.9586
25.9893 40.0118
26.0352 40.6541
26.0809 40.844
26.1268 41.2744
26.1725 40.7682
26.2184 40.162
26.2641 39.5115
26.31 39.2909
26.3557 39.2996
26.4017 39.3432
26.4474 39.5855
26.4933 39.888
26.5391 40.4037
26.585 41.1242
26.6308 41.5703
26.6767 41.8326
26.7225 41.6309
26.7684 41.0842
26.8142 40.3854
26.8601 39.9188
26.9059 39.5557
26.9519 38.991
26.9979 38.586
27.0437 38.1431
27.0896 37.9797
27.1354 37.8555
27.1814 37.9672
27.2272 37.8838
27.2732 37.7981
27.3191 37.7125
27.3651 37.6891
27.4109 37.6266
27.4569 37.6984
27.5027 37.9033
27.5488 37.9288
27.5946 37.7085
27.6407 37.4136
27.6865 37.5784
27.7326 37.3174
27.7784 37.1036
27.8245 37.0685
27.8703 37.3305
27.9164 37.4212
27.9623 37.8413
28.0084 38.2343
28.0543 38.872
28.1003 38.6948
28.1462 38.4351
28.1923 38.2537
28.2384 37.484
28.2843 37.2435
28.3304 36.6558
28.3764 36.163
28.4225 35.6838
28.4684 35.5864
28.5145 35.137
28.5605 35.238
28.6066 34.939
28.6526 34.8649
28.6987 34.9482
28.7447 34.7719
28.7908 34.6505
28.8368 34.7517
28.8829 34.7826
28.9289 34.6498
28.9751 34.5022
29.0211 34.4196
29.0673 34.0838
29.1133 33.7963
29.1595 33.6886
29.2055 33.5249
29.2517 33.5632
29.2977 33.6181
29.3439 33.4648
29.3899 33.6718
29.4361 33.5322
29.4824 33.3468
29.5284 33.053
29.5746 32.8086
29.6207 32.4325
29.6669 32.4784
29.713 32.2568
29.7593 32.0675
29.8053 32.2109
29.8516 32.0931
29.8977 32.0878
29.9439 31.8469
29.99 31.9253
30.0363 31.7688
30.0824 31.8905
30.1287 31.7684
30.1748 31.7781
30.2211 31.832
30.2673 31.6347
30.3136 31.754
30.3597 31.663
30.406 31.6788
30.4522 31.528
30.4985 31.4117
30.5447 31.5506
30.591 31.533
30.6372 31.7033
30.6835 31.6945
30.7297 31.692
30.7761 31.681
30.8224 31.5264
30.8686 31.3818
30.915 31.1139
30.9612 30.9798
31.0076 30.6674
31.0538 30.6372
31.1002 30.5428
31.1464 30.3649
31.1928 30.3167
31.2391 30.3909
31.2855 30.2526
31.3317 30.2943
31.3781 30.3525
31.4244 30.4152
31.4708 30.3751
31.5171 30.2886
31.5636 30.284
31.6098 30.1473
31.6563 29.8332
31.7026 29.6641
31.7491 29.6283
31.7953 29.6343
31.8418 29.5931
31.8881 29.6594
31.9346 29.6671
31.9809 29.6079
32.0275 29.4768
32.074 29.3094
32.1203 29.1406
32.1668 29.0992
32.2132 28.8943
32.2597 28.7078
32.306 28.6239
32.3526 28.3998
32.399 28.3529
32.4455 28.2601
32.4919 28.1179
32.5385 28.0727
32.5848 27.9837
32.6314 27.9471
32.6778 27.8534
32.7244 27.7902
32.7708 27.5195
32.8174 27.5425
32.8638 27.5171
32.9104 27.6148
32.9569 27.4103
33.0035 27.2839
33.0499 27.2621
33.0966 27.2889
33.143 27.2533
33.1897 27.236
33.2361 27.2321
33.2828 27.0602
33.3293 26.8968
33.3759 26.9444
33.4226 26.7781
33.4691 26.7372
33.5158 26.5554
33.5623 26.4263
33.609 26.2397
33.6555 26.206
33.7022 26.0933
33.7487 25.9762
33.7954 25.9992
33.842 25.8896
33.8887 25.865
33.9353 25.7849
33.982 25.6502
34.0286 25.6424
34.0753 25.5937
34.1219 25.3501
34.1687 25.3099
34.2152 25.2932
34.262 25.165
34.3086 25.066
34.3554 25.0601
34.402 24.8644
34.4488 24.8372
34.4954 24.7187
34.5422 24.6573
34.5889 24.5925
34.6357 24.4301
34.6825 24.5544
34.7292 24.439
34.776 24.3006
34.8227 24.2445
34.8695 24.1458
34.9162 24.1498
34.9631 24.0027
35.0098 24.0252
35.0566 23.8874
35.1033 23.8667
35.1502 23.7763
35.1969 23.7754
35.2438 23.7257
35.2906 23.6981
35.3375 23.5798
35.3842 23.5716
35.4311 23.5987
35.4779 23.5796
35.5248 23.509
35.5716 23.469
35.6185 23.3098
35.6653 23.2335
35.7123 23.0897
35.759 23.0903
35.806 23.0256
35.8528 22.7853
35.8998 22.7183
35.9468 22.6582
35.9936 22.6629
36.0406 22.5257
36.0874 22.6009
36.1345 22.4706
36.1813 22.4036
36.2283 22.2326
36.2752 22.2309
36.3222 22.2393
36.3691 22.1356
36.4161 22.0198
36.463 22.0686
36.5101 21.9909
36.557 21.9963
36.6041 21.8037
36.651 21.7848
36.6981 21.6751
36.745 21.6237
36.7921 21.549
36.839 21.436
36.8861 21.3975
36.9331 21.3449
36.9802 21.2567
37.0272 21.1917
37.0743 21.1126
37.1213 21.0506
37.1684 20.9972
37.2154 20.9298
37.2626 20.8631
37.3098 20.8356
37.3568 20.7599
37.404 20.7408
37.451 20.6852
37.4982 20.5381
37.5452 20.4998
37.5924 20.3685
37.6395 20.4364
37.6867 20.3891
37.7337 20.2298
37.781 20.21
37.8281 20.1005
37.8753 19.9946
37.9224 19.9279
37.9697 19.7918
38.0168 19.8355
38.064 19.7488
38.1111 19.6941
38.1584 19.6657
38.2056 19.5327
38.2529 19.5673
38.3 19.4446
38.3473 19.4151
38.3945 19.3367
38.4418 19.3059
38.489 19.2346
38.5363 19.1143
38.5837 19.063
38.6309 18.9896
38.6782 18.9974
38.7254 18.9207
38.7728 18.8742
38.82 18.7652
38.8674 18.7113
38.9146 18.7039
38.9621 18.5909
39.0093 18.5922
39.0567 18.5363
39.104 18.4057
39.1514 18.3818
39.1987 18.2633
39.2461 18.3035
39.2934 18.2484
39.3409 18.1176
39.3882 18.0371
39.4356 18.0335
39.483 17.9897
39.5304 17.9415
39.5778 17.8893
39.6253 17.8081
39.6726 17.7554
39.7201 17.7809
39.7675 17.5994
39.815 17.5406
39.8624 17.5381
39.9099 17.506
39.9575 17.4092
40.0049 17.3663
40.0525 17.2406
40.0999 17.2729
40.1474 17.253
40.1949 17.1168
40.2425 17.0303
40.2899 17.0824
40.3375 16.9528
40.385 16.9106
40.4326 16.8381
40.48 16.7847
40.5277 16.817
40.5752 16.7072
40.6228 16.6626
40.6703 16.6476
40.718 16.5262
40.7655 16.552
40.8132 16.4281
40.8607 16.4693
40.9084 16.3662
40.9559 16.314
41.0036 16.245
41.0512 16.2278
41.0989 16.1907
41.1465 16.0981
41.1942 16.0822
41.242 15.998
41.2896 15.9721
41.3373 15.886
41.3849 15.8627
41.4327 15.7716
41.4803 15.677
41.5281 15.6583
41.5758 15.5897
41.6236 15.5527
41.6712 15.535
41.7191 15.4474
41.7667 15.3855
41.8146 15.3913
41.8622 15.3139
41.9101 15.2449
41.9578 15.122
42.0057 15.1043
42.0534 15.1252
42.1013 15.0649
42.149 15.0009
42.1969 14.9441
42.2446 14.9286
42.2925 14.8242
42.3403 14.8157
42.3882 14.7548
42.436 14.7092
42.4839 14.5803
42.5319 14.5805
42.5797 14.5539
42.6277 14.4814
42.6755 14.4618
42.7235 14.4128
42.7713 14.3844
42.8193 14.3362
42.8671 14.2724
42.9152 14.2861
42.963 14.1819
43.0111 14.1138
43.0589 14.0774
43.107 14.0139
43.1549 13.973
43.2029 13.871
43.2508 13.8367
43.2989 13.8337
43.3468 13.7624
43.3949 13.709
43.4429 13.6751
43.491 13.6189
43.5389 13.5599
43.5871 13.5419
43.635 13.5007
43.6832 13.4473
43.7312 13.3965
43.7793 13.3206
43.8273 13.2965
43.8755 13.2888
43.9237 13.2025
43.9717 13.1921
44.0199 13.1161
44.068 13.072
44.1162 13.0137
44.1642 12.9893
44.2125 12.9524
44.2606 12.925
44.3088 12.8829
44.3569 12.8056
44.4052 12.7801
44.4533 12.747
44.5016 12.6841
44.5497 12.6161
44.598 12.5513
44.6461 12.5712
44.6945 12.5176
44.7426 12.4799
44.791 12.406
44.8391 12.4026
44.8875 12.3232
44.9357 12.2615
44.984 12.2436
45.0322 12.1382
45.0806 12.1213
45.1288 12.1072
45.1773 12.0522
45.2257 11.9945
45.2739 11.9756
45.3224 11.9379
45.3706 11.8979
45.4191 11.8613
45.4673 11.8109
45.5158 11.7454
45.5641 11.6786
45.6126 11.7128
45.6609 11.6346
45.7094 11.6014
45.7577 11.5675
45.8063 11.509
45.8546 11.4751
45.9031 11.4254
45.9515 11.4224
46.0001 11.3545
46.0484 11.3301
46.097 11.3225
46.1454 11.2258
46.194 11.2186
46.2424 11.1699
46.291 11.1077
46.3395 11.0825
46.3881 11.0122
46.4365 11.0082
46.4852 10.9577
46.5337 10.9494
46.5823 10.8705
46.631 10.8504
46.6795 10.8
46.7282 10.8142
46.7767 10.7061
46.8254 10.6901
46.8739 10.6265
46.9226 10.5539
46.9712 10.5754
47.0199 10.4772
47.0685 10.4776
47.1173 10.4312
47.1658 10.3767
47.2146 10.3842
47.2632 10.3224
47.312 10.2821
47.3606 10.2198
47.4095 10.1826
47.4581 10.1665
47.5069 10.0814
47.5556 10.0622
47.6044 10.0718
47.6531 10.0275
47.702 9.97493
47.7507 9.9452
47.7996 9.91858
47.8483 9.89756
47.8972 9.85212
47.9461 9.76366
47.9948 9.74423
48.0438 9.70014
48.0925 9.71906
48.1415 9.64069
48.1902 9.58259
48.2392 9.6344
48.288 9.55283
48.337 9.53704
48.3858 9.47349
48.4348 9.46921
48.4837 9.41705
48.5327 9.41051
48.5815 9.36148
48.6306 9.31477
48.6795 9.30364
48.7285 9.18176
48.7774 9.22078
48.8265 9.19642
48.8754 9.14451
48.9245 9.16164
48.9734 9.02611
49.0226 9.04071
49.0715 9.02233
49.1206 8.9871
49.1696 8.93599
49.2188 8.8928
49.2679 8.85446
49.3169 8.82656
49.3661 8.80055
49.4151 8.76465
49.4643 8.77129
49.5134 8.73073
49.5626 8.6362
49.6117 8.63388
49.6609 8.61426
49.71 8.52609
49.7592 8.49217
49.8083 8.50996
49.8576 8.46814
49.9067 8.41569
49.956 8.40186
50.0052 8.36073
50.0545 8.34038
50.1036 8.29806
50.153 8.31279
50.2022 8.23559
50.2515 8.20795
50.3007 8.17912
50.3501 8.16387
50.3993 8.14384
50.4487 8.1035
50.498 8.02441
50.5474 8.02286
50.5966 7.96953
50.6461 7.95847
50.6955 7.92232
50.7448 7.91801
50.7943 7.8812
50.8436 7.86162
50.8931 7.80632
50.9424 7.74979
50.9919 7.72123
51.0413 7.72048
51.0908 7.7185
51.1402 7.67143
51.1897 7.62382
51.2391 7.63647
51.2887 7.60222
51.3381 7.57172
51.3877 7.53696
51.4371 7.49497
51.4867 7.43003
51.5362 7.40113
51.5858 7.38756
51.6353 7.32508
51.6849 7.32865
51.7344 7.2966
51.7841 7.26951
51.8336 7.22411
51.8833 7.18258
51.9328 7.18801
51.9826 7.13884
52.0323 7.1059
52.0818 7.06418
52.1316 7.06646
52.1812 7.04906
52.231 6.9671
52.2806 6.97826
52.3304 6.9702
52.38 6.89427
52.4298 6.88015
52.4794 6.81046
52.5293 6.82915
52.5789 6.75931
52.6288 6.77796
52.6785 6.7294
52.7284 6.72489
52.7781 6.71292
52.828 6.67049
52.8777 6.63045
52.9276 6.60022
52.9774 6.6076
53.0273 6.5185
53.0771 6.50719
53.1271 6.49794
53.1769 6.43574
53.2269 6.44115
53.2767 6.42599
53.3267 6.36774
53.3765 6.40825
53.4266 6.33058
53.4766 6.30286
53.5265 6.29163
53.5765 6.21641
53.6264 6.20346
53.6765 6.20722
53.7264 6.18791
53.7765 6.15287
53.8265 6.08836
53.8766 6.06249
53.9266 6.05636
53.9767 6.00697
54.0267 5.97287
54.0769 5.99871
54.1269 5.89304
54.1771 5.93463
54.2271 5.93405
54.2773 5.85002
54.3274 5.85366
54.3776 5.80283
54.4277 5.78204
54.478 5.73241
54.528 5.69869
54.5783 5.66926
54.6285 5.62823
54.6788 5.53272
54.7289 5.56636
54.7792 5.50805
54.8296 5.46945
54.8798 5.41212
54.9301 5.36548
54.9803 5.39978
55.0307 5.31863
55.0809 5.26431
55.1314 5.24621
55.1816 5.19478
55.232 5.15331
55.2823 5.09979
55.3328 5.08666
55.383 5.04475
55.4335 4.926
55.4838 4.93544
55.5344 4.86626
55.5847 4.82318
55.6352 4.80219
55.6856 4.75164
55.7361 4.7293