File: XRD/Ni3Fe_FD1051.xy
TT I
1.27165 6.72879
1.31627 6.55365
1.36089 5.98671
1.40551 5.80941
1.45013 5.41888
1.49476 5.25806
1.53938 5.19636
1.584 4.69026
1.62863 4.47208
1.67325 4.58066
1.71787 5.16113
1.7625 4.39076
1.80712 4.49816
1.85174 4.31394
1.89636 4.02511
1.94099 4.65982
1.98562 4.4044
2.03025 4.15114
2.07487 4.43873
2.11949 4.7597
2.16411 4.31317
2.20874 5.24497
2.25338 6.30049
2.298 5.14105
2.34263 5.26734
2.38725 6.22399
2.43188 6.30734
2.4765 6.96406
2.52115 7.25978
2.56577 7.70593
2.6104 9.06676
2.65503 8.41815
2.69965 8.57696
2.7443 8.89467
2.78893 8.30825
2.83356 8.98992
2.87818 9.28821
2.92281 9.36038
2.96744 9.08501
3.01209 10.5983
3.05672 10.7631
3.10135 12.4038
3.14599 13.0045
3.19062 14.5318
3.23527 15.1255
3.2799 15.1685
3.32454 16.2468
3.36917 17.1251
3.4138 18.3438
3.45844 18.8281
3.50309 19.9075
3.54773 19.9011
3.59237 21.614
3.637 28.1825
3.68164 26.4596
3.7263 24.0569
3.77094 24.4758
3.81558 25.147
3.86022 26.0791
3.90486 27.5149
3.9495 28.3494
3.99416 29.6066
4.0388 30.9203
4.08344 31.4309
4.12809 32.5617
4.17273 33.9891
4.21738 35.5139
4.26204 52.1249
4.30669 56.4881
4.35133 40.5121
4.39598 41.0894
4.44063 42.9465
4.4853 46.0765
4.52995 46.4497
4.5746 48.0298
4.61925 50.6987
4.6639 52.8594
4.70855 55.7171
4.75322 57.7892
4.79788 60.7315
4.84253 64.3012
4.88719 68.0182
4.93184 71.3549
4.97652 76.8214
5.02118 83.2087
5.06583 89.7854
5.11049 97.8696
5.15515 118.075
5.19981 233.413
5.24449 2505.33
5.28916 13517.3
5.33382 3261.44
5.37848 212.073
5.42315 124.162
5.46783 108.522
5.5125 100.721
5.55716 97.2573
5.60183 93.3555
5.6465 91.5723
5.69117 89.7878
5.73586 87.8247
5.78053 86.846
5.8252 86.3737
5.86988 86.9998
5.91455 88.4565
5.95924 95.28
6.00392 163.906
6.0486 897.285
6.09328 4562.69
6.13795 3603.97
6.18263 238.472
6.22733 87.4034
6.27201 75.9066
6.3167 73.1783
6.36138 68.4938
6.40606 64.9483
6.45075 63.3176
6.49545 61.5287
6.54014 59.9182
6.58483 59.0041
6.62952 58.1885
6.67421 58.3399
6.71892 64.3768
6.76361 56.5283
6.8083 54.6226
6.853 54.0792
6.89769 53.214
6.94239 53.1844
6.98711 52.5128
7.03181 52.3408
7.07651 52.0646
7.12121 51.8601
7.16591 51.5368
7.21063 51.1553
7.25533 51.7767
7.30004 61.7904
7.34475 56.0469
7.38945 51.7074
7.43416 51.2692
7.47889 51.3587
7.5236 59.017
7.56831 74.4479
7.61303 56.7726
7.65774 52.5727
7.70247 53.2104
7.74719 52.9562
7.79191 53.8385
7.83663 54.0006
7.88135 54.6073
7.92607 55.5079
7.97081 56.8648
8.01553 57.4918
8.06026 59.1156
8.10498 60.1644
8.14971 62.3231
8.19446 63.953
8.23919 65.7986
8.28392 68.3439
8.32865 70.4499
8.37339 74.0111
8.41812 77.9926
8.46288 86.7246
8.50761 128.714
8.55235 372.646
8.59709 1090.12
8.64183 2265.42
8.68658 1088.74
8.73134 176.822
8.77609 95.1557
8.82083 88.2424
8.86558 85.3726
8.91033 83.7569
8.9551 82.3637
8.99985 80.8219
9.04461 80.123
9.08936 79.6306
9.13412 78.7923
9.17888 79.7235
9.22365 92.1822
9.26841 114.792
9.31318 89.3747
9.35794 80.3181
9.4027 80.1698
9.44749 80.3219
9.49226 80.9152
9.53703 81.7666
9.5818 83.188
9.62657 84.7702
9.67134 86.3686
9.71614 87.6038
9.76091 89.6602
9.80569 91.7566
9.85047 94.0844
9.89525 98.5946
9.94005 106.338
9.98484 147.808
10.0296 350.097
10.0744 776.904
10.1192 1752.98
10.164 1677.28
10.2088 438.741
10.2536 124.805
10.2984 103.346
10.3432 100.833
10.388 97.7107
10.4328 108.019
10.4776 161.058
10.5224 270.936
10.5672 504.532
10.612 564.649
10.6568 230.715
10.7017 103.862
10.7465 86.5252
10.7913 79.6584
10.8361 77.5956
10.8809 75.5974
10.9257 73.2847
10.9706 72.467
11.0154 70.4997
11.0602 69.3547
11.105 68.0992
11.1499 66.9822
11.1947 67.1799
11.2395 65.7484
11.2844 64.6271
11.3292 63.7979
11.374 63.144
11.4189 62.6921
11.4637 61.9696
11.5086 61.0728
11.5534 60.8908
11.5983 60.726
11.6431 60.4759
11.688 59.7579
11.7328 59.9617
11.7777 59.7438
11.8225 59.7914
11.8674 59.8306
11.9122 61.9626
11.9571 68.5348
12.002 66.7549
12.0468 64.3517
12.0917 76.7324
12.1366 99.2852
12.1814 146.166
12.2263 203.505
12.2712 174.612
12.3161 98.9726
12.3609 64.6114
12.4058 61.3237
12.4507 61.4362
12.4956 61.3938
12.5405 61.4725
12.5853 61.8047
12.6302 62.3995
12.6751 64.0779
12.72 63.9738
12.7649 64.4236
12.8098 65.1113
12.8547 66.4309
12.8996 67.7174
12.9445 69.1122
12.9894 71.1102
13.0343 72.6914
13.0792 76.7028
13.1242 82.4954
13.1691 108.088
13.214 147.869
13.2589 228.541
13.3038 365.584
13.3487 443.968
13.3937 279.518
13.4386 127.171
13.4835 99.3533
13.5285 120.258
13.5734 156.824
13.6183 236.966
13.6633 357.379
13.7082 358.907
13.7531 205.098
13.7981 100.464
13.843 79.6242
13.888 76.543
13.9329 74.4207
13.9779 73.1732
14.0228 72.1329
14.0678 70.94
14.1127 71.7576
14.1577 75.4839
14.2027 73.6972
14.2476 68.9727
14.2926 67.4349
14.3376 67.4318
14.3825 67.0146
14.4275 66.1885
14.4725 66.2459
14.5175 66.5215
14.5624 66.2561
14.6074 66.5132
14.6524 67.191
14.6974 67.367
14.7424 68.5977
14.7874 74.3609
14.8324 88.7158
14.8774 109.87
14.9224 148.878
14.9674 208.608
15.0124 227.441
15.0574 160.124
15.1024 93.8298
15.1474 71.0058
15.1924 67.7274
15.2374 66.7062
15.2824 65.9664
15.3274 64.6166
15.3725 64.293
15.4175 64.0329
15.4625 63.7928
15.5076 63.527
15.5526 63.3479
15.5976 63.4756
15.6426 63.7777
15.6877 68.5897
15.7327 79.6542
15.7778 94.452
15.8228 122.113
15.8679 169.088
15.9129 202.383
15.958 168.243
16.003 103.673
16.0481 69.3065
16.0931 62.8875
16.1382 60.0037
16.1833 58.2877
16.2283 57.1238
16.2734 56.262
16.3185 55.5421
16.3636 55.206
16.4086 54.4161
16.4537 53.9396
16.4988 53.4089
16.5439 53.4551
16.589 53.2593
16.6341 52.9733
16.6792 52.6992
16.7243 52.8026
16.7694 52.6203
16.8145 52.716
16.8596 52.8321
16.9047 53.608
16.9498 54.3848
16.9949 53.8085
17.04 53.728
17.0851 54.922
17.1302 57.0403
17.1754 60.1667
17.2205 64.684
17.2656 72.3934
17.3108 81.6307
17.3559 82.6171
17.401 71.8359
17.4462 61.5258
17.4913 57.6504
17.5365 57.3162
17.5815 57.1981
17.6268 57.5496
17.6718 58.1606
17.7171 58.8699
17.7622 60.0157
17.8074 60.7933
17.8525 61.7413
17.8977 66.5911
17.9428 73.2401
17.9881 81.8202
18.0331 97.6497
18.0784 121.268
18.1237 141.854
18.1688 137.074
18.214 108.77
18.2591 88.3545
18.3044 88.9435
18.3495 99.3389
18.3948 107.752
18.4399 98.5652
18.4852 79.2106
18.5303 65.8577
18.5756 61.3675
18.6207 60.3641
18.666 58.9806
18.7112 57.9841
18.7565 57.4273
18.8016 57.0768
18.8469 56.224
18.892 56.1416
18.9374 55.6015
18.9825 55.3118
19.0278 54.9699
19.073 54.9086
19.1183 55.1748
19.1635 56.3452
19.2088 58.1509
19.254 60.8068
19.2993 65.4644
19.3447 72.1553
19.3898 76.2316
19.4352 72.5429
19.4804 63.2889
19.5257 56.1071
19.5709 52.9418
19.6163 52.5851
19.6615 52.3164
19.7068 51.7635
19.752 51.7795
19.7974 51.7659
19.8426 52.7078
19.888 53.9238
19.9332 55.1897
19.9786 57.4012
20.0238 60.8576
20.0692 66.703
20.1144 70.3438
20.1598 69.2753
20.205 64.1322
20.2504 61.8233
20.2957 63.4929
20.3411 65.4637
20.3863 64.14
20.4318 58.2462
20.477 53.0024
20.5224 49.8202
20.5677 49.2918
20.6131 49.0145
20.6586 48.2929
20.7038 48.1807
20.7493 48.0349
20.7945 48.1108
20.84 47.8303
20.8853 47.5847
20.9307 47.2287
20.976 47.4118
21.0215 47.3011
21.0668 47.5988
21.1122 48.2195
21.1575 48.6402
21.203 49.4561
21.2483 50.3307
21.2938 50.7275
21.3391 49.2316
21.3846 47.9856
21.4299 47.3474
21.4754 47.2055
21.5207 47.3743
21.5662 47.6221
21.6116 47.8377
21.6571 48.812
21.7024 49.9485
21.7479 51.7932
21.7933 54.2692
21.8388 58.0069
21.8843 62.6981
21.9297 65.1765
21.9752 63.8405
22.0206 59.6935
22.0661 56.3094
22.1115 55.8672
22.157 56.0035
22.2024 54.2802
22.248 50.9971
22.2933 48.8893
22.3389 48.0629
22.3843 47.8123
22.4299 47.3843
22.4753 47.536
22.5208 47.4405
22.5662 47.4471
22.6118 47.5916
22.6572 47.5773
22.7028 48.1823
22.7483 48.9656
22.7939 49.8051
22.8393 51.1031
22.8849 53.3308
22.9303 55.6703
22.9759 57.6973
23.0214 57.3817
23.067 54.6205
23.1126 50.9002
23.1581 48.7645
23.2037 47.7437
23.2492 47.714
23.2948 47.8322
23.3403 48.5732
23.3859 49.2954
23.4314 50.396
23.477 52.1236
23.5225 54.587
23.5682 57.3902
23.6137 58.5381
23.6593 56.3219
23.7048 52.0156
23.7505 48.1943
23.796 45.9763
23.8417 45.208
23.8872 44.5922
23.9329 44.3405
23.9784 44.0306
24.0241 43.7668
24.0697 43.4559
24.1154 43.1201
24.1609 42.942
24.2066 42.78
24.2522 42.7275
24.2979 42.4371
24.3434 42.4258
24.3892 42.2488
24.4349 42.2592
24.4805 41.9584
24.5262 42.1975
24.5718 41.9543
24.6175 42.0666
24.6631 41.9316
24.7089 41.6867
24.7545 41.4102
24.8002 41.219
24.8458 41.3377
24.8916 41.0942
24.9372 41.3079
24.983 41.5746
25.0286 41.9171
25.0744 42.5997
25.12 43.3505
25.1658 43.9166
25.2114 44.0377
25.2572 44.2998
25.3029 44.5572
25.3487 44.6283
25.3943 44.367
25.4402 43.2459
25.4858 41.9518
25.5316 40.7576
25.5773 40.1545
25.6231 40.1119
25.669 39.7392
25.7147 39.6758
25.7605 39.6977
25.8062 39.6011
25.8521 39.8418
25.8977 39.8707
25.9436 40.1507
25.9893 40.3108
26.0352 40.7755
26.0809 40.8954
26.1268 41.2574
26.1725 40.901
26.2184 40.2827
26.2641 39.7377
26.31 39.3268
26.3557 39.499
26.4017 39.433
26.4474 39.7741
26.4933 40.0031
26.5391 40.6411
26.585 41.2049
26.6308 41.7022
26.6767 41.8876
26.7225 41.895
26.7684 41.1131
26.8142 40.5228
26.8601 39.9755
26.9059 39.5641
26.9519 39.0337
26.9979 38.7366
27.0437 38.2987
27.0896 37.9844
27.1354 38.1279
27.1814 37.8671
27.2272 37.8106
27.2732 37.9802
27.3191 37.7129
27.3651 37.8021
27.4109 37.7189
27.4569 37.9399
27.5027 38.0764
27.5488 38.0918
27.5946 37.9451
27.6407 37.6828
27.6865 37.5134
27.7326 37.3524
27.7784 37.3616
27.8245 37.145
27.8703 37.3353
27.9164 37.8292
27.9623 37.9878
28.0084 38.4562
28.0543 38.9634
28.1003 38.7616
28.1462 38.5993
28.1923 38.2505
28.2384 37.7403
28.2843 37.4674
28.3304 36.8596
28.3764 36.2631
28.4225 35.8572
28.4684 35.5776
28.5145 35.4011
28.5605 35.2524
28.6066 34.9939
28.6526 35.0655
28.6987 35.0346
28.7447 34.8992
28.7908 34.7421
28.8368 34.9356
28.8829 34.8462
28.9289 34.752
28.9751 34.6022
29.0211 34.3593
29.0673 34.0553
29.1133 33.9037
29.1595 33.8385
29.2055 33.73
29.2517 33.706
29.2977 33.6513
29.3439 33.7212
29.3899 33.7338
29.4361 33.5869
29.4824 33.4905
29.5284 33.2197
29.5746 33.0364
29.6207 32.4904
29.6669 32.4239
29.713 32.3513
29.7593 32.2504
29.8053 32.2504
29.8516 32.1738
29.8977 32.2286
29.9439 31.9594
29.99 32.0154
30.0363 31.9245
30.0824 31.9639
30.1287 31.8098
30.1748 31.9459
30.2211 31.8662
30.2673 31.724
30.3136 31.7861
30.3597 31.7115
30.406 31.5912
30.4522 31.457
30.4985 31.4674
30.5447 31.6748
30.591 31.6895
30.6372 31.6951
30.6835 31.7124
30.7297 31.8629
30.7761 31.7829
30.8224 31.5984
30.8686 31.4451
30.915 31.1503
30.9612 31.0263
31.0076 30.9002
31.0538 30.6919
31.1002 30.7027
31.1464 30.5271
31.1928 30.5179
31.2391 30.4854
31.2855 30.4123
31.3317 30.4065
31.3781 30.4798
31.4244 30.3794
31.4708 30.4242
31.5171 30.3414
31.5636 30.4303
31.6098 30.1963
31.6563 29.9051
31.7026 29.7972
31.7491 29.7064
31.7953 29.7453
31.8418 29.6998
31.8881 29.7388
31.9346 29.6965
31.9809 29.7055
32.0275 29.5872
32.074 29.4405
32.1203 29.2474
32.1668 29.1337
32.2132 28.9972
32.2597 28.8655
32.306 28.769
32.3526 28.5407
32.399 28.5192
32.4455 28.2999
32.4919 28.2299
32.5385 28.1688
32.5848 28.0061
32.6314 28.1175
32.6778 28.0456
32.7244 27.873
32.7708 27.6631
32.8174 27.7694
32.8638 27.5391
32.9104 27.6892
32.9569 27.5906
33.0035 27.4459
33.0499 27.3747
33.0966 27.4439
33.143 27.3886
33.1897 27.3107
33.2361 27.2971
33.2828 27.1568
33.3293 26.9411
33.3759 27.0394
33.4226 26.8201
33.4691 26.6374
33.5158 26.6138
33.5623 26.4599
33.609 26.3673
33.6555 26.2403
33.7022 26.142
33.7487 26.1146
33.7954 26.154
33.842 25.9806
33.8887 25.9293
33.9353 25.8285
33.982 25.6776
34.0286 25.5775
34.0753 25.5946
34.1219 25.4626
34.1687 25.4569
34.2152 25.3466
34.262 25.3081
34.3086 25.1514
34.3554 25.1238
34.402 24.9496
34.4488 24.9442
34.4954 24.8029
34.5422 24.7169
34.5889 24.6808
34.6357 24.5852
34.6825 24.6228
34.7292 24.4314
34.776 24.2999
34.8227 24.3312
34.8695 24.2175
34.9162 24.1624
34.9631 24.1499
35.0098 24.1139
35.0566 23.9725
35.1033 23.9067
35.1502 23.8488
35.1969 23.8881
35.2438 23.785
35.2906 23.7209
35.3375 23.7264
35.3842 23.6442
35.4311 23.6906
35.4779 23.6751
35.5248 23.5579
35.5716 23.4331
35.6185 23.4018
35.6653 23.2545
35.7123 23.2186
35.759 23.0476
35.806 23.0508
35.8528 22.9217
35.8998 22.8618
35.9468 22.7856
35.9936 22.7649
36.0406 22.7305
36.0874 22.6258
36.1345 22.6183
36.1813 22.4306
36.2283 22.4296
36.2752 22.2794
36.3222 22.3846
36.3691 22.238
36.4161 22.0837
36.463 22.1665
36.5101 22.141
36.557 22.0448
36.6041 21.9133
36.651 21.8032
36.6981 21.8408
36.745 21.7698
36.7921 21.6346
36.839 21.5755
36.8861 21.5229
36.9331 21.3684
36.9802 21.3489
37.0272 21.1984
37.0743 21.1204
37.1213 21.1687
37.1684 21.1354
37.2154 21.0176
37.2626 20.9531
37.3098 20.9449
37.3568 20.7335
37.404 20.7755
37.451 20.5846
37.4982 20.6017
37.5452 20.4896
37.5924 20.4908
37.6395 20.5357
37.6867 20.4168
37.7337 20.2287
37.781 20.2598
37.8281 20.1753
37.8753 20.0737
37.9224 20.0144
37.9697 20.0187
38.0168 19.8793
38.064 19.8037
38.1111 19.7812
38.1584 19.6538
38.2056 19.6256
38.2529 19.6008
38.3 19.5361
38.3473 19.5094
38.3945 19.3335
38.4418 19.324
38.489 19.285
38.5363 19.2348
38.5837 19.1657
38.6309 19.1185
38.6782 19.0619
38.7254 18.9861
38.7728 18.9061
38.82 18.7997
38.8674 18.8164
38.9146 18.7341
38.9621 18.7061
39.0093 18.6523
39.0567 18.5476
39.104 18.5317
39.1514 18.4182
39.1987 18.3961
39.2461 18.3424
39.2934 18.2463
39.3409 18.1621
39.3882 18.1134
39.4356 18.0637
39.483 18.0692
39.5304 17.9633
39.5778 17.8863
39.6253 17.8811
39.6726 17.8085
39.7201 17.7895
39.7675 17.7174
39.815 17.6929
39.8624 17.5462
39.9099 17.5435
39.9575 17.503
40.0049 17.4182
40.0525 17.3594
40.0999 17.3843
40.1474 17.2775
40.1949 17.2296
40.2425 17.0947
40.2899 17.0528
40.3375 17.0181
40.385 16.9457
40.4326 16.9611
40.48 16.8492
40.5277 16.8902
40.5752 16.759
40.6228 16.6872
40.6703 16.6349
40.718 16.6568
40.7655 16.5706
40.8132 16.4987
40.8607 16.4347
40.9084 16.3744
40.9559 16.3798
41.0036 16.3314
41.0512 16.2658
41.0989 16.2157
41.1465 16.1028
41.1942 16.0838
41.242 16.0756
41.2896 15.9466
41.3373 15.9322
41.3849 15.8607
41.4327 15.8242
41.4803 15.7559
41.5281 15.6846
41.5758 15.5855
41.6236 15.5897
41.6712 15.4784
41.7191 15.4462
41.7667 15.453
41.8146 15.3981
41.8622 15.3329
41.9101 15.2804
41.9578 15.227
42.0057 15.1541
42.0534 15.1055
42.1013 15.1369
42.149 15.0403
42.1969 14.9941
42.2446 14.936
42.2925 14.8604
42.3403 14.8837
42.3882 14.7602
42.436 14.7448
42.4839 14.6926
42.5319 14.6437
42.5797 14.6212
42.6277 14.5407
42.6755 14.5229
42.7235 14.4398
42.7713 14.4274
42.8193 14.3643
42.8671 14.2704
42.9152 14.3021
42.963 14.1616
43.0111 14.0895
43.0589 14.1189
43.107 14.0776
43.1549 13.9897
43.2029 13.9555
43.2508 13.9229
43.2989 13.8586
43.3468 13.7483
43.3949 13.7642
43.4429 13.7054
43.491 13.6486
43.5389 13.6476
43.5871 13.5816
43.635 13.4893
43.6832 13.4988
43.7312 13.4158
43.7793 13.3697
43.8273 13.3784
43.8755 13.2716
43.9237 13.252
43.9717 13.2082
44.0199 13.1211
44.068 13.1178
44.1162 13.1048
44.1642 13.028
44.2125 12.9783
44.2606 12.917
44.3088 12.8961
44.3569 12.8634
44.4052 12.8061
44.4533 12.744
44.5016 12.7127
44.5497 12.6994
44.598 12.6247
44.6461 12.5729
44.6945 12.5151
44.7426 12.4906
44.791 12.4049
44.8391 12.4126
44.8875 12.3629
44.9357 12.3232
44.984 12.2793
45.0322 12.2485
45.0806 12.1883
45.1288 12.1479
45.1773 12.0747
45.2257 12.0506
45.2739 11.9893
45.3224 11.9637
45.3706 11.9334
45.4191 11.8602
45.4673 11.8681
45.5158 11.8247
45.5641 11.7063
45.6126 11.7483
45.6609 11.6895
45.7094 11.6484
45.7577 11.5511
45.8063 11.5138
45.8546 11.5007
45.9031 11.4933
45.9515 11.4183
46.0001 11.4029
46.0484 11.3783
46.097 11.3538
46.1454 11.2455
46.194 11.2632
46.2424 11.1625
46.291 11.154
46.3395 11.0983
46.3881 11.055
46.4365 11.0421
46.4852 11.0063
46.5337 10.9548
46.5823 10.9022
46.631 10.868
46.6795 10.8561
46.7282 10.7751
46.7767 10.7242
46.8254 10.6638
46.8739 10.6697
46.9226 10.6522
46.9712 10.6245
47.0199 10.5605
47.0685 10.4841
47.1173 10.4623
47.1658 10.3929
47.2146 10.3729
47.2632 10.346
47.312 10.3173
47.3606 10.2604
47.4095 10.2334
47.4581 10.1791
47.5069 10.1525
47.5556 10.1201
47.6044 10.0828
47.6531 10.0427
47.702 10.0025
47.7507 9.95516
47.7996 9.94665
47.8483 9.90856
47.8972 9.89468
47.9461 9.81517
47.9948 9.77515
48.0438 9.75099
48.0925 9.74099
48.1415 9.71028
48.1902 9.64027
48.2392 9.66157
48.288 9.63102
48.337 9.56659
48.3858 9.51965
48.4348 9.48934
48.4837 9.44921
48.5327 9.40421
48.5815 9.36652
48.6306 9.35994
48.6795 9.2843
48.7285 9.24439
48.7774 9.26065
48.8265 9.20608
48.8754 9.19968
48.9245 9.12416
48.9734 9.09597
49.0226 9.10152
49.0715 9.01991
49.1206 8.98131
49.1696 8.95847
49.2188 8.93083
49.2679 8.89677
49.3169 8.81457
49.3661 8.78593
49.4151 8.78627
49.4643 8.75355
49.5134 8.72702
49.5626 8.66846
49.6117 8.66568
49.6609 8.62648
49.71 8.58574
49.7592 8.57287
49.8083 8.49735
49.8576 8.51491
49.9067 8.45039
49.956 8.43036
50.0052 8.40948
50.0545 8.37688
50.1036 8.36698
50.153 8.31378
50.2022 8.24025
50.2515 8.26764
50.3007 8.14466
50.3501 8.17076
50.3993 8.13577
50.4487 8.1005
50.498 8.10302
50.5474 8.06858
50.5966 8.01126
50.6461 7.99249
50.6955 7.94899
50.7448 7.9002
50.7943 7.92473
50.8436 7.88776
50.8931 7.825
50.9424 7.81129
50.9919 7.82546
51.0413 7.74028
51.0908 7.74788
51.1402 7.69485
51.1897 7.64461
51.2391 7.62332
51.2887 7.59072
51.3381 7.54601
51.3877 7.54183
51.4371 7.51611
51.4867 7.43437
51.5362 7.4352
51.5858 7.39989
51.6353 7.3862
51.6849 7.31472
51.7344 7.30419
51.7841 7.2684
51.8336 7.24878
51.8833 7.19884
51.9328 7.1792
51.9826 7.12833
52.0323 7.13775
52.0818 7.09341
52.1316 7.06933
52.1812 7.04419
52.231 7.00279
52.2806 6.94359
52.3304 6.9616
52.38 6.93845
52.4298 6.9036
52.4794 6.85923
52.5293 6.84533
52.5789 6.85061
52.6288 6.79368
52.6785 6.71432
52.7284 6.71808
52.7781 6.72278
52.828 6.68376
52.8777 6.6851
52.9276 6.59643
52.9774 6.58831
53.0273 6.56635
53.0771 6.51508
53.1271 6.51875
53.1769 6.47914
53.2269 6.47641
53.2767 6.38293
53.3267 6.38448
53.3765 6.37735
53.4266 6.33112
53.4766 6.32349
53.5265 6.27971
53.5765 6.20894
53.6264 6.22843
53.6765 6.20954
53.7264 6.21396
53.7765 6.13729
53.8265 6.09269
53.8766 6.10175
53.9266 6.06016
53.9767 6.06951
54.0267 6.01826
54.0769 5.97445
54.1269 5.97592
54.1771 5.94275
54.2271 5.92025
54.2773 5.8542
54.3274 5.805
54.3776 5.80238
54.4277 5.81171
54.478 5.79336
54.528 5.74117
54.5783 5.66355
54.6285 5.65702
54.6788 5.60961
54.7289 5.50811
54.7792 5.56473
54.8296 5.48768
54.8798 5.44851
54.9301 5.42153
54.9803 5.38365
55.0307 5.37811
55.0809 5.27227
55.1314 5.24398
55.1816 5.21529
55.232 5.19033
55.2823 5.11794
55.3328 5.08576
55.383 5.03896
55.4335 5.01065
55.4838 4.94297
55.5344 4.88199
55.5847 4.86919
55.6352 4.85585
55.6856 4.83434
55.7361 4.74826