File: XRD/Ni3Fe_FD0959.xy
TT I
1.27165 7.36472
1.31627 6.14184
1.36089 6.35575
1.40551 5.51401
1.45013 6.11987
1.49476 6.57142
1.53938 5.31601
1.584 5.6382
1.62863 5.3061
1.67325 4.83601
1.71787 4.68014
1.7625 4.49672
1.80712 5.01073
1.85174 4.7696
1.89636 4.28225
1.94099 4.91025
1.98562 4.76324
2.03025 4.57077
2.07487 3.97598
2.11949 4.74453
2.16411 4.50017
2.20874 11.9312
2.25338 18.6714
2.298 6.59574
2.34263 5.92874
2.38725 5.98789
2.43188 5.60939
2.4765 7.31791
2.52115 7.12224
2.56577 7.59886
2.6104 8.41862
2.65503 8.16241
2.69965 8.32896
2.7443 8.34121
2.78893 8.47996
2.83356 8.35979
2.87818 9.66564
2.92281 9.12607
2.96744 9.41685
3.01209 10.6842
3.05672 11.1399
3.10135 12.3019
3.14599 13.3512
3.19062 14.1548
3.23527 15.0912
3.2799 15.8803
3.32454 16.9156
3.36917 17.9026
3.4138 18.8263
3.45844 19.1566
3.50309 20.6642
3.54773 21.5057
3.59237 23.3273
3.637 76.3471
3.68164 50.4516
3.7263 25.536
3.77094 25.8498
3.81558 26.8687
3.86022 27.2795
3.90486 28.423
3.9495 29.8109
3.99416 30.665
4.0388 31.6925
4.08344 33.1434
4.12809 34.318
4.17273 36.6278
4.21738 41.8956
4.26204 202.856
4.30669 174.957
4.35133 46.799
4.39598 43.9294
4.44063 51.5929
4.4853 60.3006
4.52995 50.4858
4.5746 51.6933
4.61925 52.7843
4.6639 54.846
4.70855 57.6986
4.75322 60.4293
4.79788 63.3319
4.84253 66.5027
4.88719 70.842
4.93184 73.9057
4.97652 78.956
5.02118 85.2603
5.06583 92.1448
5.11049 101.803
5.15515 158.395
5.19981 289.515
5.24449 2508.0
5.28916 13444.2
5.33382 2823.61
5.37848 175.773
5.42315 124.087
5.46783 111.738
5.5125 105.263
5.55716 99.8444
5.60183 96.7018
5.6465 94.5836
5.69117 92.7399
5.73586 90.3846
5.78053 90.6506
5.8252 90.087
5.86988 90.8128
5.91455 91.0155
5.95924 97.2753
6.00392 180.033
6.0486 833.845
6.09328 4563.82
6.13795 3103.26
6.18263 214.6
6.22733 88.4996
6.27201 80.3579
6.3167 93.6554
6.36138 76.9209
6.40606 68.077
6.45075 66.319
6.49545 64.5212
6.54014 62.6046
6.58483 61.9148
6.62952 61.6601
6.67421 86.1467
6.71892 123.217
6.76361 65.7224
6.8083 57.4396
6.853 56.7836
6.89769 56.1001
6.94239 55.2944
6.98711 54.7722
7.03181 54.4847
7.07651 54.5684
7.12121 54.3886
7.16591 54.2866
7.21063 54.3911
7.25533 66.7897
7.30004 148.194
7.34475 82.1846
7.38945 55.2331
7.43416 53.5298
7.47889 53.4005
7.5236 53.859
7.56831 54.5348
7.61303 55.8658
7.65774 56.0065
7.70247 55.4191
7.74719 55.1975
7.79191 55.773
7.83663 55.9524
7.88135 56.8631
7.92607 57.6928
7.97081 58.4657
8.01553 59.8447
8.06026 61.6706
8.10498 62.6788
8.14971 70.3749
8.19446 70.2897
8.23919 67.9902
8.28392 70.3356
8.32865 72.6298
8.37339 76.5219
8.41812 83.0806
8.46288 105.584
8.50761 145.874
8.55235 345.171
8.59709 1169.34
8.64183 2228.61
8.68658 909.31
8.73134 154.101
8.77609 96.0384
8.82083 90.621
8.86558 88.3158
8.91033 88.2136
8.9551 88.9347
8.99985 83.5887
9.04461 81.9164
9.08936 81.3197
9.13412 80.8308
9.17888 80.8495
9.22365 81.3731
9.26841 80.5139
9.31318 81.4547
9.35794 81.7428
9.4027 81.9731
9.44749 82.6978
9.49226 83.3465
9.53703 83.7763
9.5818 85.8336
9.62657 90.3671
9.67134 95.4485
9.71614 91.3659
9.76091 92.2726
9.80569 95.101
9.85047 98.1841
9.89525 117.547
9.94005 126.819
9.98484 159.597
10.0296 309.148
10.0744 787.552
10.1192 1798.28
10.164 1551.09
10.2088 361.279
10.2536 122.496
10.2984 109.643
10.3432 110.286
10.388 101.102
10.4328 111.845
10.4776 151.801
10.5224 278.158
10.5672 526.656
10.612 495.231
10.6568 195.557
10.7017 94.0139
10.7465 84.5849
10.7913 81.6536
10.8361 79.6388
10.8809 77.3123
10.9257 76.7773
10.9706 77.2652
11.0154 73.5537
11.0602 71.5701
11.105 70.6551
11.1499 73.6191
11.1947 78.7607
11.2395 71.527
11.2844 68.5283
11.3292 65.8549
11.374 64.988
11.4189 64.3037
11.4637 63.7486
11.5086 63.9266
11.5534 65.6873
11.5983 63.915
11.6431 62.509
11.688 61.83
11.7328 61.7486
11.7777 61.7772
11.8225 61.2962
11.8674 60.8926
11.9122 61.3967
11.9571 61.6078
12.002 62.3079
12.0468 65.4994
12.0917 75.5401
12.1366 99.5446
12.1814 156.169
12.2263 206.108
12.2712 163.125
12.3161 93.586
12.3609 68.1461
12.4058 63.2173
12.4507 62.9146
12.4956 62.9551
12.5405 63.2806
12.5853 64.244
12.6302 70.631
12.6751 74.3906
12.72 68.0241
12.7649 66.6804
12.8098 67.0711
12.8547 68.2214
12.8996 69.6782
12.9445 71.026
12.9894 72.5959
13.0343 74.3398
13.0792 77.5712
13.1242 84.7399
13.1691 105.077
13.214 141.354
13.2589 238.803
13.3038 383.235
13.3487 425.26
13.3937 248.288
13.4386 118.958
13.4835 100.722
13.5285 114.406
13.5734 152.909
13.6183 250.863
13.6633 358.36
13.7082 323.989
13.7531 175.599
13.7981 94.6046
13.843 80.2479
13.888 78.1266
13.9329 75.4281
13.9779 74.485
14.0228 72.774
14.0678 71.5743
14.1127 71.4244
14.1577 70.9905
14.2027 70.2369
14.2476 69.0577
14.2926 69.0139
14.3376 69.7879
14.3825 68.5336
14.4275 67.4918
14.4725 67.3444
14.5175 67.5129
14.5624 67.801
14.6074 69.4359
14.6524 69.7505
14.6974 68.8985
14.7424 70.2244
14.7874 75.6801
14.8324 84.9865
14.8774 107.41
14.9224 155.382
14.9674 215.562
15.0124 215.98
15.0574 144.388
15.1024 87.2825
15.1474 70.9375
15.1924 68.7841
15.2374 69.2378
15.2824 68.3399
15.3274 66.6724
15.3725 65.4168
15.4175 65.1279
15.4625 64.8631
15.5076 64.93
15.5526 64.6396
15.5976 64.4073
15.6426 65.2099
15.6877 69.4301
15.7327 76.6456
15.7778 92.3401
15.8228 126.071
15.8679 174.756
15.9129 193.004
15.958 148.756
16.003 92.0178
16.0481 66.7124
16.0931 62.9181
16.1382 60.9786
16.1833 59.2848
16.2283 57.8588
16.2734 57.2187
16.3185 57.5424
16.3636 57.5846
16.4086 56.3541
16.4537 55.0791
16.4988 54.3374
16.5439 54.289
16.589 54.1253
16.6341 53.7571
16.6792 53.3804
16.7243 53.6746
16.7694 53.8183
16.8145 53.7502
16.8596 53.9061
16.9047 55.006
16.9498 55.3198
16.9949 54.4327
17.04 54.4259
17.0851 55.8033
17.1302 57.0356
17.1754 60.1007
17.2205 65.5857
17.2656 74.2886
17.3108 82.5841
17.3559 80.2155
17.401 68.912
17.4462 60.6311
17.4913 57.8997
17.5365 57.901
17.5815 57.9856
17.6268 58.4492
17.6718 59.218
17.7171 59.6822
17.7622 60.0498
17.8074 60.6602
17.8525 62.4049
17.8977 66.0858
17.9428 71.3039
17.9881 80.5882
18.0331 99.495
18.0784 122.901
18.1237 137.163
18.1688 125.437
18.214 99.478
18.2591 84.1274
18.3044 90.1373
18.3495 100.735
18.3948 104.932
18.4399 93.3645
18.4852 74.9482
18.5303 64.4015
18.5756 60.8925
18.6207 59.99
18.666 59.2112
18.7112 58.5701
18.7565 57.7968
18.8016 57.4947
18.8469 56.905
18.892 56.6898
18.9374 56.1186
18.9825 55.9243
19.0278 55.8363
19.073 55.7743
19.1183 55.9552
19.1635 56.6519
19.2088 58.1128
19.254 60.8023
19.2993 65.6734
19.3447 71.5825
19.3898 74.3277
19.4352 69.9968
19.4804 61.2533
19.5257 55.6669
19.5709 53.1237
19.6163 52.8105
19.6615 52.5082
19.7068 52.0906
19.752 52.2336
19.7974 52.5337
19.8426 53.2606
19.888 53.6319
19.9332 55.055
19.9786 57.6782
20.0238 61.91
20.0692 66.8172
20.1144 68.5743
20.1598 66.1341
20.205 62.1259
20.2504 61.4185
20.2957 63.6882
20.3411 64.9116
20.3863 62.3575
20.4318 56.8346
20.477 52.4544
20.5224 50.6164
20.5677 49.9832
20.6131 49.3032
20.6586 48.7187
20.7038 48.6201
20.7493 48.1339
20.7945 47.8921
20.84 47.8964
20.8853 47.7953
20.9307 47.6729
20.976 47.671
21.0215 47.6749
21.0668 48.0617
21.1122 48.459
21.1575 49.2359
21.203 50.0273
21.2483 50.4973
21.2938 50.478
21.3391 48.9194
21.3846 48.0002
21.4299 47.4675
21.4754 47.4021
21.5207 47.5124
21.5662 47.8172
21.6116 48.0671
21.6571 48.6681
21.7024 49.7355
21.7479 51.5221
21.7933 54.481
21.8388 58.3213
21.8843 62.2344
21.9297 63.418
21.9752 61.119
22.0206 58.1716
22.0661 55.5077
22.1115 55.2387
22.157 54.838
22.2024 52.9154
22.248 50.3657
22.2933 48.9068
22.3389 48.1606
22.3843 47.9333
22.4299 47.9056
22.4753 47.8096
22.5208 47.6074
22.5662 47.6893
22.6118 47.7232
22.6572 47.8105
22.7028 48.2519
22.7483 48.5849
22.7939 49.3221
22.8393 50.9225
22.8849 53.1544
22.9303 55.7045
22.9759 56.9438
23.0214 55.97
23.067 53.2133
23.1126 49.8972
23.1581 48.318
23.2037 47.8928
23.2492 47.7668
23.2948 47.7788
23.3403 48.1176
23.3859 48.7295
23.4314 49.8936
23.477 51.8506
23.5225 54.3845
23.5682 56.3962
23.6137 56.9481
23.6593 54.2268
23.7048 50.3778
23.7505 47.2843
23.796 45.6468
23.8417 45.0741
23.8872 44.6305
23.9329 44.2304
23.9784 44.0495
24.0241 43.8575
24.0697 43.5411
24.1154 43.2938
24.1609 43.1433
24.2066 42.9683
24.2522 42.8522
24.2979 42.5815
24.3434 42.5201
24.3892 42.2896
24.4349 42.2919
24.4805 42.1008
24.5262 42.4027
24.5718 42.1489
24.6175 42.1714
24.6631 41.9544
24.7089 41.6549
24.7545 41.5604
24.8002 41.3909
24.8458 41.5414
24.8916 41.2735
24.9372 41.3093
24.983 41.7424
25.0286 42.2026
25.0744 42.5657
25.12 42.9486
25.1658 43.5242
25.2114 43.8815
25.2572 43.8857
25.3029 44.2315
25.3487 44.2546
25.3943 43.68
25.4402 42.5294
25.4858 41.4505
25.5316 40.5487
25.5773 40.2132
25.6231 40.1236
25.669 39.7473
25.7147 39.8155
25.7605 39.722
25.8062 39.6884
25.8521 39.859
25.8977 39.9472
25.9436 40.0464
25.9893 40.3065
26.0352 40.8317
26.0809 40.9133
26.1268 40.963
26.1725 40.5717
26.2184 39.9828
26.2641 39.5635
26.31 39.3928
26.3557 39.2256
26.4017 39.3308
26.4474 39.57
26.4933 39.9994
26.5391 40.6391
26.585 41.0972
26.6308 41.4345
26.6767 41.2789
26.7225 41.2227
26.7684 40.6427
26.8142 40.1702
26.8601 39.7292
26.9059 39.2611
26.9519 38.7685
26.9979 38.373
27.0437 38.1531
27.0896 38.0163
27.1354 37.9288
27.1814 37.8507
27.2272 37.7977
27.2732 37.8403
27.3191 37.637
27.3651 37.8325
27.4109 37.6883
27.4569 37.7503
27.5027 37.9119
27.5488 37.9175
27.5946 37.7109
27.6407 37.4266
27.6865 37.4801
27.7326 37.0998
27.7784 37.1243
27.8245 37.0548
27.8703 37.3521
27.9164 37.5772
27.9623 37.7833
28.0084 38.1809
28.0543 38.2731
28.1003 38.4107
28.1462 38.1225
28.1923 37.9075
28.2384 37.2525
28.2843 36.8953
28.3304 36.4916
28.3764 36.214
28.4225 35.7886
28.4684 35.5895
28.5145 35.3638
28.5605 35.2273
28.6066 34.9731
28.6526 35.121
28.6987 35.0041
28.7447 34.9749
28.7908 34.8575
28.8368 34.7874
28.8829 34.8289
28.9289 34.6319
28.9751 34.4949
29.0211 34.2969
29.0673 34.0807
29.1133 33.9345
29.1595 33.6915
29.2055 33.7261
29.2517 33.7025
29.2977 33.8312
29.3439 33.6497
29.3899 33.6545
29.4361 33.4977
29.4824 33.4053
29.5284 33.1813
29.5746 32.7754
29.6207 32.4709
29.6669 32.506
29.713 32.5282
29.7593 32.3602
29.8053 32.3233
29.8516 32.2302
29.8977 32.2087
29.9439 32.0042
29.99 32.035
30.0363 31.8708
30.0824 31.8981
30.1287 31.8583
30.1748 31.8686
30.2211 31.8015
30.2673 31.7793
30.3136 31.7442
30.3597 31.6731
30.406 31.4351
30.4522 31.4912
30.4985 31.4004
30.5447 31.6044
30.591 31.571
30.6372 31.7326
30.6835 31.6104
30.7297 31.5999
30.7761 31.5875
30.8224 31.4366
30.8686 31.3905
30.915 31.0483
30.9612 30.8696
31.0076 30.7296
31.0538 30.6729
31.1002 30.5052
31.1464 30.4868
31.1928 30.4893
31.2391 30.4856
31.2855 30.2966
31.3317 30.3179
31.3781 30.3671
31.4244 30.3572
31.4708 30.2388
31.5171 30.2509
31.5636 30.2167
31.6098 29.9409
31.6563 29.8703
31.7026 29.7065
31.7491 29.5488
31.7953 29.6669
31.8418 29.6481
31.8881 29.5987
31.9346 29.552
31.9809 29.5561
32.0275 29.3902
32.074 29.3298
32.1203 29.0231
32.1668 28.9842
32.2132 28.8469
32.2597 28.7633
32.306 28.6573
32.3526 28.4192
32.399 28.3893
32.4455 28.261
32.4919 28.228
32.5385 28.0956
32.5848 27.9238
32.6314 27.941
32.6778 27.9206
32.7244 27.814
32.7708 27.5836
32.8174 27.7233
32.8638 27.5108
32.9104 27.5319
32.9569 27.485
33.0035 27.3874
33.0499 27.461
33.0966 27.3175
33.143 27.2408
33.1897 27.2039
33.2361 27.0577
33.2828 27.0487
33.3293 26.9486
33.3759 26.8984
33.4226 26.7498
33.4691 26.6833
33.5158 26.6735
33.5623 26.4671
33.609 26.3004
33.6555 26.2374
33.7022 26.1922
33.7487 26.1335
33.7954 25.9618
33.842 25.9387
33.8887 25.8699
33.9353 25.7957
33.982 25.6714
34.0286 25.5966
34.0753 25.5355
34.1219 25.4621
34.1687 25.5017
34.2152 25.27
34.262 25.2016
34.3086 25.1236
34.3554 25.0769
34.402 24.933
34.4488 24.8301
34.4954 24.7201
34.5422 24.641
34.5889 24.6416
34.6357 24.5857
34.6825 24.436
34.7292 24.4516
34.776 24.3222
34.8227 24.3249
34.8695 24.2128
34.9162 24.0943
34.9631 24.044
35.0098 24.0597
35.0566 23.8325
35.1033 23.9193
35.1502 23.8573
35.1969 23.8153
35.2438 23.7074
35.2906 23.615
35.3375 23.6775
35.3842 23.617
35.4311 23.5647
35.4779 23.5178
35.5248 23.4216
35.5716 23.3675
35.6185 23.3271
35.6653 23.2156
35.7123 23.0617
35.759 23.0891
35.806 22.9717
35.8528 22.81
35.8998 22.8196
35.9468 22.6996
35.9936 22.6917
36.0406 22.6042
36.0874 22.672
36.1345 22.5101
36.1813 22.4074
36.2283 22.2587
36.2752 22.1828
36.3222 22.3058
36.3691 22.1444
36.4161 22.0391
36.463 22.0642
36.5101 22.0496
36.557 21.9616
36.6041 21.8853
36.651 21.8758
36.6981 21.7358
36.745 21.6081
36.7921 21.6165
36.839 21.4882
36.8861 21.4382
36.9331 21.3435
36.9802 21.2518
37.0272 21.2086
37.0743 21.1316
37.1213 21.0985
37.1684 20.9938
37.2154 20.9622
37.2626 20.8743
37.3098 20.8473
37.3568 20.7574
37.404 20.7039
37.451 20.6259
37.4982 20.5768
37.5452 20.4854
37.5924 20.369
37.6395 20.4833
37.6867 20.3783
37.7337 20.2357
37.781 20.1436
37.8281 20.1668
37.8753 20.0374
37.9224 19.9598
37.9697 19.9631
38.0168 19.8229
38.064 19.7261
38.1111 19.7745
38.1584 19.6809
38.2056 19.6159
38.2529 19.5218
38.3 19.4903
38.3473 19.4099
38.3945 19.3948
38.4418 19.2827
38.489 19.2615
38.5363 19.1709
38.5837 19.1419
38.6309 19.0582
38.6782 18.9992
38.7254 18.9386
38.7728 18.9001
38.82 18.693
38.8674 18.7372
38.9146 18.6512
38.9621 18.6002
39.0093 18.6679
39.0567 18.5613
39.104 18.4411
39.1514 18.3935
39.1987 18.402
39.2461 18.3028
39.2934 18.3259
39.3409 18.104
39.3882 18.0938
39.4356 18.0128
39.483 18.0018
39.5304 17.9433
39.5778 17.899
39.6253 17.8233
39.6726 17.7784
39.7201 17.7442
39.7675 17.6753
39.815 17.6432
39.8624 17.5138
39.9099 17.5443
39.9575 17.4196
40.0049 17.3595
40.0525 17.3557
40.0999 17.3011
40.1474 17.228
40.1949 17.1508
40.2425 17.067
40.2899 17.0434
40.3375 16.989
40.385 16.9343
40.4326 16.8589
40.48 16.8472
40.5277 16.7984
40.5752 16.7141
40.6228 16.6912
40.6703 16.6183
40.718 16.577
40.7655 16.4789
40.8132 16.4558
40.8607 16.3985
40.9084 16.4495
40.9559 16.3078
41.0036 16.2688
41.0512 16.173
41.0989 16.226
41.1465 16.1015
41.1942 16.0679
41.242 15.9133
41.2896 15.9188
41.3373 15.864
41.3849 15.8022
41.4327 15.8006
41.4803 15.7376
41.5281 15.6835
41.5758 15.5754
41.6236 15.6043
41.6712 15.5257
41.7191 15.418
41.7667 15.4186
41.8146 15.3391
41.8622 15.3377
41.9101 15.2242
41.9578 15.153
42.0057 15.1406
42.0534 15.103
42.1013 15.1113
42.149 14.9928
42.1969 14.964
42.2446 14.9362
42.2925 14.8739
42.3403 14.8147
42.3882 14.7575
42.436 14.7068
42.4839 14.6394
42.5319 14.6296
42.5797 14.5781
42.6277 14.4972
42.6755 14.4768
42.7235 14.3595
42.7713 14.3061
42.8193 14.3836
42.8671 14.2289
42.9152 14.25
42.963 14.23
43.0111 14.1567
43.0589 14.0863
43.107 14.0253
43.1549 13.9737
43.2029 13.8977
43.2508 13.9383
43.2989 13.8713
43.3468 13.7993
43.3949 13.7466
43.4429 13.7115
43.491 13.675
43.5389 13.6289
43.5871 13.5501
43.635 13.4831
43.6832 13.454
43.7312 13.4075
43.7793 13.3496
43.8273 13.3235
43.8755 13.2864
43.9237 13.2257
43.9717 13.1938
44.0199 13.1244
44.068 13.1637
44.1162 13.0425
44.1642 12.9938
44.2125 12.9598
44.2606 12.9408
44.3088 12.8439
44.3569 12.8608
44.4052 12.7907
44.4533 12.7357
44.5016 12.6935
44.5497 12.6273
44.598 12.5919
44.6461 12.5852
44.6945 12.5033
44.7426 12.4563
44.791 12.4132
44.8391 12.3819
44.8875 12.3552
44.9357 12.288
44.984 12.2085
45.0322 12.1631
45.0806 12.17
45.1288 12.1291
45.1773 12.0974
45.2257 12.0068
45.2739 12.0038
45.3224 11.9355
45.3706 11.9269
45.4191 11.8367
45.4673 11.8436
45.5158 11.7594
45.5641 11.7252
45.6126 11.7173
45.6609 11.6548
45.7094 11.6418
45.7577 11.5941
45.8063 11.5184
45.8546 11.493
45.9031 11.4639
45.9515 11.404
46.0001 11.3549
46.0484 11.3421
46.097 11.2993
46.1454 11.2557
46.194 11.2046
46.2424 11.1491
46.291 11.1401
46.3395 11.0643
46.3881 11.039
46.4365 11.0022
46.4852 10.9828
46.5337 10.9034
46.5823 10.8691
46.631 10.8121
46.6795 10.7968
46.7282 10.7644
46.7767 10.7617
46.8254 10.686
46.8739 10.5988
46.9226 10.5884
46.9712 10.595
47.0199 10.53
47.0685 10.4767
47.1173 10.3891
47.1658 10.4262
47.2146 10.3579
47.2632 10.3009
47.312 10.3073
47.3606 10.2544
47.4095 10.1884
47.4581 10.1933
47.5069 10.1136
47.5556 10.09
47.6044 10.0583
47.6531 9.99594
47.702 9.98957
47.7507 9.95227
47.7996 9.91371
47.8483 9.85981
47.8972 9.87366
47.9461 9.81659
47.9948 9.76096
48.0438 9.76397
48.0925 9.73268
48.1415 9.66981
48.1902 9.63464
48.2392 9.59578
48.288 9.58845
48.337 9.54009
48.3858 9.4798
48.4348 9.50335
48.4837 9.4862
48.5327 9.42532
48.5815 9.35549
48.6306 9.34923
48.6795 9.30474
48.7285 9.24492
48.7774 9.26907
48.8265 9.16243
48.8754 9.16714
48.9245 9.1116
48.9734 9.08985
49.0226 9.07504
49.0715 9.00899
49.1206 8.96479
49.1696 8.94708
49.2188 8.94343
49.2679 8.89324
49.3169 8.84235
49.3661 8.83151
49.4151 8.81558
49.4643 8.76495
49.5134 8.7283
49.5626 8.69558
49.6117 8.6751
49.6609 8.65156
49.71 8.54742
49.7592 8.53146
49.8083 8.51167
49.8576 8.51226
49.9067 8.42094
49.956 8.43335
50.0052 8.37316
50.0545 8.36294
50.1036 8.32087
50.153 8.2798
50.2022 8.27157
50.2515 8.20537
50.3007 8.18074
50.3501 8.13666
50.3993 8.14693
50.4487 8.10679
50.498 8.05996
50.5474 8.06081
50.5966 8.02397
50.6461 7.97137
50.6955 7.92828
50.7448 7.94188
50.7943 7.88796
50.8436 7.84329
50.8931 7.79997
50.9424 7.79694
50.9919 7.78909
51.0413 7.74539
51.0908 7.68508
51.1402 7.65359
51.1897 7.61901
51.2391 7.60944
51.2887 7.58198
51.3381 7.54538
51.3877 7.50798
51.4371 7.50768
51.4867 7.45579
51.5362 7.42786
51.5858 7.41551
51.6353 7.36735
51.6849 7.34472
51.7344 7.2967
51.7841 7.28566
51.8336 7.236
51.8833 7.21516
51.9328 7.16161
51.9826 7.1423
52.0323 7.12366
52.0818 7.09732
52.1316 7.09035
52.1812 7.04278
52.231 6.97449
52.2806 6.99439
52.3304 6.9712
52.38 6.90497
52.4298 6.87127
52.4794 6.82798
52.5293 6.83315
52.5789 6.81777
52.6288 6.8005
52.6785 6.72948
52.7284 6.73704
52.7781 6.70373
52.828 6.72175
52.8777 6.66434
52.9276 6.60545
52.9774 6.58481
53.0273 6.57542
53.0771 6.52501
53.1271 6.52027
53.1769 6.4848
53.2269 6.47313
53.2767 6.42247
53.3267 6.38879
53.3765 6.29168
53.4266 6.33029
53.4766 6.32233
53.5265 6.31185
53.5765 6.25531
53.6264 6.20283
53.6765 6.19414
53.7264 6.19082
53.7765 6.14565
53.8265 6.09669
53.8766 6.05383
53.9266 6.03803
53.9767 6.04924
54.0267 5.98739
54.0769 5.98025
54.1269 5.93132
54.1771 5.9313
54.2271 5.90758
54.2773 5.85362
54.3274 5.84175
54.3776 5.80803
54.4277 5.74922
54.478 5.76697
54.528 5.71895
54.5783 5.65213
54.6285 5.62907
54.6788 5.58014
54.7289 5.5862
54.7792 5.51061
54.8296 5.44781
54.8798 5.4084
54.9301 5.38246
54.9803 5.34946
55.0307 5.34553
55.0809 5.24866
55.1314 5.24236
55.1816 5.24154
55.232 5.1772
55.2823 5.10582
55.3328 5.05592
55.383 5.0079
55.4335 4.97588
55.4838 4.90514
55.5344 4.87362
55.5847 4.81671
55.6352 4.80751
55.6856 4.76195
55.7361 4.74246