File: XRD/Ni3Fe_FD0879.xy
TT I
1.27165 7.62178
1.31627 6.72224
1.36089 6.62271
1.40551 6.31457
1.45013 5.85916
1.49476 6.33174
1.53938 5.54384
1.584 5.0203
1.62863 5.02055
1.67325 4.85635
1.71787 4.7169
1.7625 4.57271
1.80712 4.88877
1.85174 4.46908
1.89636 4.21441
1.94099 5.14667
1.98562 4.44724
2.03025 4.43061
2.07487 4.4312
2.11949 5.47817
2.16411 5.33726
2.20874 15.6922
2.25338 27.7602
2.298 6.17003
2.34263 5.03824
2.38725 6.57703
2.43188 6.0772
2.4765 7.52949
2.52115 7.70147
2.56577 7.85337
2.6104 8.30017
2.65503 8.43653
2.69965 8.26392
2.7443 8.75937
2.78893 8.4677
2.83356 8.87217
2.87818 8.90487
2.92281 8.87329
2.96744 9.4439
3.01209 10.2164
3.05672 11.302
3.10135 12.4059
3.14599 13.2843
3.19062 14.4739
3.23527 15.5329
3.2799 16.0074
3.32454 16.4609
3.36917 17.7043
3.4138 18.7099
3.45844 19.6855
3.50309 20.6925
3.54773 22.1152
3.59237 24.2447
3.637 106.766
3.68164 67.9689
3.7263 26.7926
3.77094 26.2626
3.81558 26.8946
3.86022 27.6705
3.90486 28.7254
3.9495 30.1303
3.99416 31.0209
4.0388 32.0455
4.08344 33.5569
4.12809 35.0913
4.17273 36.7326
4.21738 43.7202
4.26204 288.608
4.30669 264.205
4.35133 49.4363
4.39598 44.3343
4.44063 54.9959
4.4853 69.6895
4.52995 50.1392
4.5746 50.5492
4.61925 52.7515
4.6639 55.0768
4.70855 57.0628
4.75322 59.8133
4.79788 62.6286
4.84253 66.1076
4.88719 69.4344
4.93184 73.2805
4.97652 78.0767
5.02118 84.7708
5.06583 91.467
5.11049 101.439
5.15515 173.267
5.19981 286.916
5.24449 2319.33
5.28916 13020.1
5.33382 3006.05
5.37848 181.788
5.42315 125.876
5.46783 111.305
5.5125 103.36
5.55716 99.9603
5.60183 96.2839
5.6465 94.6766
5.69117 92.3402
5.73586 90.0382
5.78053 88.8851
5.8252 88.6088
5.86988 88.8131
5.91455 90.3104
5.95924 95.764
6.00392 167.211
6.0486 806.289
6.09328 4327.24
6.13795 3288.87
6.18263 237.903
6.22733 90.7913
6.27201 81.7299
6.3167 106.818
6.36138 81.9618
6.40606 67.8465
6.45075 66.5348
6.49545 64.4542
6.54014 63.4897
6.58483 62.1453
6.62952 61.976
6.67421 97.9533
6.71892 162.303
6.76361 71.1037
6.8083 58.3913
6.853 57.3615
6.89769 56.5203
6.94239 56.3454
6.98711 55.7093
7.03181 54.9395
7.07651 54.4905
7.12121 54.8165
7.16591 54.9014
7.21063 55.4846
7.25533 72.1386
7.30004 205.865
7.34475 100.963
7.38945 56.8195
7.43416 54.322
7.47889 53.8569
7.5236 54.4642
7.56831 54.7062
7.61303 56.8876
7.65774 57.4257
7.70247 55.6758
7.74719 55.5887
7.79191 56.1336
7.83663 56.0477
7.88135 57.0916
7.92607 57.8017
7.97081 59.1
8.01553 60.0076
8.06026 61.4115
8.10498 63.2352
8.14971 73.887
8.19446 72.9811
8.23919 68.4113
8.28392 70.5589
8.32865 72.7258
8.37339 76.5866
8.41812 83.3727
8.46288 115.254
8.50761 143.183
8.55235 317.941
8.59709 1079.68
8.64183 2256.26
8.68658 1011.29
8.73134 175.855
8.77609 97.3645
8.82083 91.0403
8.86558 88.1598
8.91033 88.9621
8.9551 91.8696
8.99985 84.3314
9.04461 82.408
9.08936 81.6548
9.13412 80.3149
9.17888 80.9237
9.22365 81.4883
9.26841 80.5236
9.31318 81.1798
9.35794 81.1722
9.4027 81.7391
9.44749 82.4014
9.49226 83.2018
9.53703 83.6652
9.5818 85.6007
9.62657 90.7496
9.67134 99.1168
9.71614 92.4714
9.76091 92.1017
9.80569 94.6855
9.85047 97.5369
9.89525 124.488
9.94005 138.535
9.98484 154.722
10.0296 291.256
10.0744 726.046
10.1192 1722.57
10.164 1640.47
10.2088 414.263
10.2536 125.44
10.2984 112.325
10.3432 115.383
10.388 103.03
10.4328 110.798
10.4776 145.246
10.5224 262.097
10.5672 510.059
10.612 512.123
10.6568 204.522
10.7017 95.6998
10.7465 85.1395
10.7913 81.9091
10.8361 80.0169
10.8809 77.8085
10.9257 77.5302
10.9706 78.4257
11.0154 74.2268
11.0602 71.7964
11.105 70.7955
11.1499 76.0763
11.1947 85.5776
11.2395 75.2267
11.2844 70.1675
11.3292 66.4601
11.374 64.9482
11.4189 64.7404
11.4637 64.1638
11.5086 64.6937
11.5534 68.3417
11.5983 65.1906
11.6431 63.0804
11.688 62.2356
11.7328 61.9168
11.7777 61.8864
11.8225 61.5734
11.8674 61.5037
11.9122 61.8732
11.9571 61.935
12.002 62.4888
12.0468 65.2246
12.0917 74.7137
12.1366 96.3767
12.1814 147.864
12.2263 207.163
12.2712 171.168
12.3161 98.8996
12.3609 71.1208
12.4058 64.0811
12.4507 63.1982
12.4956 63.3781
12.5405 63.6298
12.5853 64.8271
12.6302 73.6943
12.6751 80.9375
12.72 69.9726
12.7649 66.9177
12.8098 67.1522
12.8547 68.6272
12.8996 69.6774
12.9445 70.9641
12.9894 72.4524
13.0343 74.2242
13.0792 76.75
13.1242 83.6267
13.1691 103.833
13.214 135.994
13.2589 221.311
13.3038 368.715
13.3487 432.11
13.3937 266.237
13.4386 124.608
13.4835 100.253
13.5285 112.046
13.5734 147.005
13.6183 237.846
13.6633 353.654
13.7082 350.698
13.7531 187.83
13.7981 96.7049
13.843 80.6611
13.888 78.2513
13.9329 75.7792
13.9779 74.5573
14.0228 72.899
14.0678 71.8872
14.1127 71.2937
14.1577 71.4742
14.2027 70.4171
14.2476 69.1481
14.2926 69.5161
14.3376 70.9349
14.3825 69.4367
14.4275 67.5737
14.4725 67.5804
14.5175 67.7792
14.5624 67.8003
14.6074 70.3758
14.6524 71.2074
14.6974 69.1902
14.7424 69.7126
14.7874 74.9543
14.8324 83.812
14.8774 103.844
14.9224 147.889
14.9674 209.348
15.0124 218.578
15.0574 148.657
15.1024 90.0488
15.1474 71.3174
15.1924 69.4716
15.2374 70.3074
15.2824 69.8685
15.3274 67.3006
15.3725 65.8036
15.4175 65.3703
15.4625 64.8486
15.5076 65.1639
15.5526 65.353
15.5976 64.3859
15.6426 64.8627
15.6877 69.0257
15.7327 75.3053
15.7778 89.107
15.8228 120.473
15.8679 168.027
15.9129 195.902
15.958 158.325
16.003 96.0342
16.0481 67.3947
16.0931 64.1467
16.1382 62.2981
16.1833 59.9354
16.2283 58.1586
16.2734 57.6231
16.3185 58.1569
16.3636 59.2258
16.4086 57.6766
16.4537 55.6046
16.4988 54.6456
16.5439 54.8509
16.589 54.0845
16.6341 54.068
16.6792 53.7566
16.7243 54.0962
16.7694 54.2426
16.8145 54.1883
16.8596 54.4795
16.9047 56.3147
16.9498 56.7787
16.9949 55.0329
17.04 54.8419
17.0851 55.5938
17.1302 57.2492
17.1754 59.9403
17.2205 64.6203
17.2656 72.8102
17.3108 82.6043
17.3559 81.5726
17.401 69.8901
17.4462 60.8732
17.4913 58.0967
17.5365 58.3063
17.5815 58.3314
17.6268 58.6315
17.6718 59.3312
17.7171 59.9273
17.7622 60.3176
17.8074 60.4583
17.8525 62.2904
17.8977 65.9326
17.9428 70.4279
17.9881 78.666
18.0331 95.881
18.0784 119.708
18.1237 137.868
18.1688 130.381
18.214 102.467
18.2591 84.6517
18.3044 88.6759
18.3495 99.464
18.3948 105.588
18.4399 95.9346
18.4852 76.831
18.5303 65.3985
18.5756 61.3164
18.6207 60.2635
18.666 59.5164
18.7112 58.8354
18.7565 58.0597
18.8016 57.7006
18.8469 57.0586
18.892 56.8533
18.9374 56.2423
18.9825 56.1998
19.0278 55.9254
19.073 56.0238
19.1183 56.406
19.1635 57.177
19.2088 58.2958
19.254 60.73
19.2993 65.1107
19.3447 72.004
19.3898 76.5238
19.4352 71.8999
19.4804 62.7584
19.5257 56.2134
19.5709 53.414
19.6163 53.1387
19.6615 52.9831
19.7068 52.5898
19.752 52.3794
19.7974 52.7855
19.8426 53.4304
19.888 54.0564
19.9332 54.7773
19.9786 57.3449
20.0238 60.8421
20.0692 66.1458
20.1144 69.5156
20.1598 67.6236
20.205 62.6655
20.2504 61.0993
20.2957 63.3449
20.3411 65.2657
20.3863 63.8039
20.4318 58.2247
20.477 53.1091
20.5224 51.3662
20.5677 50.3982
20.6131 49.7325
20.6586 49.0185
20.7038 48.8641
20.7493 48.4856
20.7945 48.1975
20.84 48.1118
20.8853 48.2082
20.9307 48.0438
20.976 48.0229
21.0215 47.8537
21.0668 48.3281
21.1122 48.5939
21.1575 49.2869
21.203 50.2688
21.2483 50.7811
21.2938 50.7014
21.3391 49.4108
21.3846 48.3246
21.4299 47.7518
21.4754 47.6366
21.5207 47.6913
21.5662 47.9088
21.6116 48.1913
21.6571 48.7189
21.7024 49.697
21.7479 51.5304
21.7933 54.048
21.8388 57.8733
21.8843 61.9934
21.9297 64.0967
21.9752 62.7158
22.0206 58.9017
22.0661 55.8537
22.1115 55.6723
22.157 55.4706
22.2024 53.6212
22.248 50.8826
22.2933 49.1061
22.3389 48.4248
22.3843 48.5202
22.4299 48.2508
22.4753 48.2298
22.5208 47.917
22.5662 47.7422
22.6118 47.7702
22.6572 48.0687
22.7028 48.3525
22.7483 48.7896
22.7939 49.4558
22.8393 50.8952
22.8849 53.0869
22.9303 55.4524
22.9759 57.3762
23.0214 56.9627
23.067 54.002
23.1126 50.5842
23.1581 48.6037
23.2037 48.2037
23.2492 48.0925
23.2948 48.0087
23.3403 48.1783
23.3859 48.9009
23.4314 49.6724
23.477 51.5775
23.5225 53.8715
23.5682 56.4258
23.6137 57.4582
23.6593 55.2421
23.7048 51.4053
23.7505 47.9133
23.796 46.074
23.8417 45.4775
23.8872 45.034
23.9329 44.6166
23.9784 44.232
24.0241 44.0483
24.0697 43.9864
24.1154 43.6155
24.1609 43.4956
24.2066 43.2118
24.2522 43.0545
24.2979 42.9333
24.3434 42.8601
24.3892 42.5605
24.4349 42.4722
24.4805 42.3548
24.5262 42.4341
24.5718 42.3944
24.6175 42.3472
24.6631 42.3141
24.7089 41.9607
24.7545 41.9827
24.8002 41.7209
24.8458 41.6066
24.8916 41.3584
24.9372 41.5135
24.983 41.8001
25.0286 42.2236
25.0744 42.6166
25.12 43.1045
25.1658 43.5833
25.2114 43.9942
25.2572 44.2747
25.3029 44.3428
25.3487 44.4273
25.3943 44.0673
25.4402 42.9008
25.4858 42.0797
25.5316 40.9304
25.5773 40.3498
25.6231 40.4064
25.669 39.9889
25.7147 40.0832
25.7605 39.9711
25.8062 39.9788
25.8521 40.0835
25.8977 39.9943
25.9436 40.2676
25.9893 40.3244
26.0352 40.9091
26.0809 41.0469
26.1268 41.1391
26.1725 40.8881
26.2184 40.3133
26.2641 39.7331
26.31 39.3989
26.3557 39.5493
26.4017 39.4182
26.4474 39.7436
26.4933 40.1311
26.5391 40.5205
26.585 41.1033
26.6308 41.6065
26.6767 41.6367
26.7225 41.5285
26.7684 40.8172
26.8142 40.2618
26.8601 39.8585
26.9059 39.4665
26.9519 39.0466
26.9979 38.7185
27.0437 38.3578
27.0896 38.1859
27.1354 38.2356
27.1814 38.1562
27.2272 37.9671
27.2732 37.9511
27.3191 37.8409
27.3651 37.9173
27.4109 37.868
27.4569 37.979
27.5027 37.9756
27.5488 38.1107
27.5946 37.8761
27.6407 37.5636
27.6865 37.5711
27.7326 37.3262
27.7784 37.4145
27.8245 37.1803
27.8703 37.4336
27.9164 37.7483
27.9623 37.9538
28.0084 38.2251
28.0543 38.5568
28.1003 38.5773
28.1462 38.3671
28.1923 38.0392
28.2384 37.5309
28.2843 37.3283
28.3304 36.7124
28.3764 36.2801
28.4225 35.9787
28.4684 35.795
28.5145 35.5993
28.5605 35.458
28.6066 35.1752
28.6526 35.1627
28.6987 35.1379
28.7447 35.0455
28.7908 34.971
28.8368 35.0623
28.8829 35.0533
28.9289 34.9527
28.9751 34.8101
29.0211 34.5395
29.0673 34.2924
29.1133 34.1277
29.1595 33.9808
29.2055 33.9244
29.2517 33.8725
29.2977 33.8571
29.3439 33.9136
29.3899 33.8925
29.4361 33.723
29.4824 33.4551
29.5284 33.4139
29.5746 32.9712
29.6207 32.8275
29.6669 32.5846
29.713 32.6136
29.7593 32.3946
29.8053 32.5046
29.8516 32.3759
29.8977 32.3486
29.9439 32.1015
29.99 32.0872
30.0363 32.1158
30.0824 32.1004
30.1287 31.9561
30.1748 31.9523
30.2211 31.9668
30.2673 31.8924
30.3136 31.959
30.3597 31.7383
30.406 31.7362
30.4522 31.6891
30.4985 31.706
30.5447 31.8051
30.591 31.6445
30.6372 31.8185
30.6835 31.857
30.7297 31.7124
30.7761 31.6634
30.8224 31.5489
30.8686 31.4849
30.915 31.1875
30.9612 31.031
31.0076 30.8963
31.0538 30.7252
31.1002 30.8067
31.1464 30.5517
31.1928 30.5144
31.2391 30.4442
31.2855 30.4955
31.3317 30.4508
31.3781 30.5714
31.4244 30.5011
31.4708 30.4456
31.5171 30.4068
31.5636 30.338
31.6098 30.2434
31.6563 29.9307
31.7026 29.9006
31.7491 29.6679
31.7953 29.7499
31.8418 29.7055
31.8881 29.7593
31.9346 29.6837
31.9809 29.6787
32.0275 29.5007
32.074 29.3502
32.1203 29.2463
32.1668 29.1716
32.2132 29.0209
32.2597 28.8983
32.306 28.7678
32.3526 28.6004
32.399 28.5854
32.4455 28.4805
32.4919 28.3653
32.5385 28.3039
32.5848 28.1571
32.6314 28.0993
32.6778 28.0918
32.7244 27.8877
32.7708 27.7678
32.8174 27.8514
32.8638 27.6823
32.9104 27.658
32.9569 27.648
33.0035 27.4663
33.0499 27.5288
33.0966 27.4816
33.143 27.4517
33.1897 27.3258
33.2361 27.2484
33.2828 27.2167
33.3293 27.0604
33.3759 27.064
33.4226 26.9153
33.4691 26.7982
33.5158 26.6447
33.5623 26.574
33.609 26.405
33.6555 26.3018
33.7022 26.257
33.7487 26.162
33.7954 26.1068
33.842 26.1025
33.8887 25.9891
33.9353 26.0026
33.982 25.8689
34.0286 25.6552
34.0753 25.6655
34.1219 25.568
34.1687 25.5459
34.2152 25.5329
34.262 25.3067
34.3086 25.1773
34.3554 25.2435
34.402 25.0643
34.4488 24.9992
34.4954 24.9371
34.5422 24.8536
34.5889 24.7408
34.6357 24.6196
34.6825 24.61
34.7292 24.538
34.776 24.4203
34.8227 24.4139
34.8695 24.362
34.9162 24.2591
34.9631 24.2142
35.0098 24.2217
35.0566 24.0312
35.1033 23.9617
35.1502 23.9557
35.1969 23.895
35.2438 23.8037
35.2906 23.7945
35.3375 23.7417
35.3842 23.6765
35.4311 23.6802
35.4779 23.6855
35.5248 23.5823
35.5716 23.5183
35.6185 23.4056
35.6653 23.351
35.7123 23.2408
35.759 23.1291
35.806 23.1008
35.8528 22.9941
35.8998 22.9361
35.9468 22.8465
35.9936 22.7563
36.0406 22.7955
36.0874 22.7017
36.1345 22.6815
36.1813 22.5758
36.2283 22.4628
36.2752 22.4133
36.3222 22.3322
36.3691 22.2829
36.4161 22.0949
36.463 22.1742
36.5101 22.189
36.557 22.0931
36.6041 21.9221
36.651 21.8943
36.6981 21.923
36.745 21.7712
36.7921 21.6682
36.839 21.554
36.8861 21.5447
36.9331 21.4917
36.9802 21.4691
37.0272 21.3499
37.0743 21.2492
37.1213 21.1545
37.1684 21.1484
37.2154 21.0355
37.2626 21.0126
37.3098 20.9173
37.3568 20.9144
37.404 20.8713
37.451 20.7008
37.4982 20.6212
37.5452 20.6228
37.5924 20.5221
37.6395 20.5533
37.6867 20.4143
37.7337 20.3385
37.781 20.3346
37.8281 20.2539
37.8753 20.1746
37.9224 20.0275
37.9697 20.0538
38.0168 20.0027
38.064 19.9011
38.1111 19.8035
38.1584 19.7815
38.2056 19.7204
38.2529 19.6974
38.3 19.5685
38.3473 19.4698
38.3945 19.452
38.4418 19.4839
38.489 19.3811
38.5363 19.243
38.5837 19.1741
38.6309 19.1953
38.6782 19.084
38.7254 19.047
38.7728 18.9784
38.82 18.8806
38.8674 18.8566
38.9146 18.7275
38.9621 18.7202
39.0093 18.6394
39.0567 18.653
39.104 18.6221
39.1514 18.4766
39.1987 18.479
39.2461 18.4541
39.2934 18.3688
39.3409 18.269
39.3882 18.2131
39.4356 18.2013
39.483 18.1373
39.5304 18.0405
39.5778 18.0658
39.6253 17.9078
39.6726 17.8607
39.7201 17.8725
39.7675 17.8076
39.815 17.69
39.8624 17.628
39.9099 17.6217
39.9575 17.4981
40.0049 17.5391
40.0525 17.4193
40.0999 17.38
40.1474 17.2733
40.1949 17.318
40.2425 17.2188
40.2899 17.1776
40.3375 17.1138
40.385 17.0507
40.4326 16.9841
40.48 16.8719
40.5277 16.9045
40.5752 16.8003
40.6228 16.7514
40.6703 16.7436
40.718 16.6202
40.7655 16.6305
40.8132 16.5681
40.8607 16.5721
40.9084 16.5522
40.9559 16.4184
41.0036 16.3637
41.0512 16.2994
41.0989 16.2269
41.1465 16.2021
41.1942 16.1539
41.242 16.0626
41.2896 16.0127
41.3373 16.0103
41.3849 15.9371
41.4327 15.8816
41.4803 15.7398
41.5281 15.7389
41.5758 15.679
41.6236 15.6838
41.6712 15.5873
41.7191 15.5327
41.7667 15.467
41.8146 15.506
41.8622 15.4216
41.9101 15.4261
41.9578 15.2554
42.0057 15.2293
42.0534 15.1494
42.1013 15.2113
42.149 15.0418
42.1969 15.0394
42.2446 15.0394
42.2925 14.9395
42.3403 14.9045
42.3882 14.9144
42.436 14.7762
42.4839 14.7431
42.5319 14.721
42.5797 14.5957
42.6277 14.6146
42.6755 14.5596
42.7235 14.4953
42.7713 14.494
42.8193 14.4229
42.8671 14.3344
42.9152 14.2937
42.963 14.253
43.0111 14.2206
43.0589 14.1548
43.107 14.1
43.1549 14.0293
43.2029 13.9686
43.2508 13.9508
43.2989 13.8891
43.3468 13.8478
43.3949 13.8066
43.4429 13.7824
43.491 13.7573
43.5389 13.6888
43.5871 13.6373
43.635 13.6031
43.6832 13.5127
43.7312 13.4878
43.7793 13.4502
43.8273 13.4009
43.8755 13.3614
43.9237 13.3612
43.9717 13.2636
44.0199 13.1896
44.068 13.2089
44.1162 13.115
44.1642 13.0699
44.2125 12.9805
44.2606 12.989
44.3088 12.9122
44.3569 12.8637
44.4052 12.8951
44.4533 12.8228
44.5016 12.7703
44.5497 12.7617
44.598 12.6814
44.6461 12.607
44.6945 12.5818
44.7426 12.5414
44.791 12.4831
44.8391 12.4485
44.8875 12.4467
44.9357 12.3601
44.984 12.3235
45.0322 12.2603
45.0806 12.2357
45.1288 12.199
45.1773 12.0937
45.2257 12.1193
45.2739 12.0753
45.3224 12.0072
45.3706 11.9662
45.4191 11.9286
45.4673 11.8934
45.5158 11.856
45.5641 11.8165
45.6126 11.8202
45.6609 11.6911
45.7094 11.6666
45.7577 11.619
45.8063 11.5955
45.8546 11.6064
45.9031 11.5021
45.9515 11.4442
46.0001 11.4126
46.0484 11.3967
46.097 11.3079
46.1454 11.3102
46.194 11.2683
46.2424 11.2079
46.291 11.2281
46.3395 11.1116
46.3881 11.0599
46.4365 11.0816
46.4852 11.0159
46.5337 10.9988
46.5823 10.938
46.631 10.911
46.6795 10.8492
46.7282 10.8522
46.7767 10.8128
46.8254 10.7597
46.8739 10.6954
46.9226 10.6631
46.9712 10.6148
47.0199 10.5841
47.0685 10.5904
47.1173 10.4867
47.1658 10.442
47.2146 10.4252
47.2632 10.3984
47.312 10.3434
47.3606 10.2854
47.4095 10.2895
47.4581 10.2347
47.5069 10.2048
47.5556 10.1643
47.6044 10.1654
47.6531 10.1066
47.702 10.0597
47.7507 10.0077
47.7996 9.96264
47.8483 9.93761
47.8972 9.88621
47.9461 9.86564
47.9948 9.84778
48.0438 9.81748
48.0925 9.78224
48.1415 9.72957
48.1902 9.71084
48.2392 9.66491
48.288 9.62714
48.337 9.58964
48.3858 9.55676
48.4348 9.52908
48.4837 9.51034
48.5327 9.47786
48.5815 9.40143
48.6306 9.40165
48.6795 9.36472
48.7285 9.32166
48.7774 9.29787
48.8265 9.26754
48.8754 9.23417
48.9245 9.20729
48.9734 9.1677
49.0226 9.14899
49.0715 9.04457
49.1206 9.04322
49.1696 9.00478
49.2188 8.96644
49.2679 8.95877
49.3169 8.86032
49.3661 8.85264
49.4151 8.83324
49.4643 8.81205
49.5134 8.77693
49.5626 8.72633
49.6117 8.70888
49.6609 8.70951
49.71 8.61083
49.7592 8.6187
49.8083 8.53854
49.8576 8.56952
49.9067 8.46632
49.956 8.47162
50.0052 8.41606
50.0545 8.42138
50.1036 8.36356
50.153 8.3564
50.2022 8.29396
50.2515 8.26064
50.3007 8.26323
50.3501 8.22006
50.3993 8.184
50.4487 8.13464
50.498 8.10527
50.5474 8.10304
50.5966 8.04294
50.6461 8.0553
50.6955 7.97604
50.7448 7.95811
50.7943 7.9712
50.8436 7.9103
50.8931 7.86118
50.9424 7.85605
50.9919 7.7748
51.0413 7.76492
51.0908 7.73545
51.1402 7.71304
51.1897 7.69066
51.2391 7.63342
51.2887 7.60742
51.3381 7.58258
51.3877 7.52994
51.4371 7.52595
51.4867 7.48831
51.5362 7.47577
51.5858 7.43902
51.6353 7.39642
51.6849 7.39018
51.7344 7.33845
51.7841 7.33443
51.8336 7.30223
51.8833 7.23793
51.9328 7.23275
51.9826 7.1927
52.0323 7.16511
52.0818 7.15196
52.1316 7.11525
52.1812 7.07489
52.231 7.02445
52.2806 7.01641
52.3304 7.00595
52.38 6.99814
52.4298 6.92731
52.4794 6.88977
52.5293 6.86743
52.5789 6.84631
52.6288 6.81609
52.6785 6.74922
52.7284 6.74316
52.7781 6.74713
52.828 6.70796
52.8777 6.63483
52.9276 6.6703
52.9774 6.5995
53.0273 6.60626
53.0771 6.56972
53.1271 6.60388
53.1769 6.49985
53.2269 6.51143
53.2767 6.45616
53.3267 6.40504
53.3765 6.38511
53.4266 6.39972
53.4766 6.35308
53.5265 6.28991
53.5765 6.27941
53.6264 6.24769
53.6765 6.26259
53.7264 6.2433
53.7765 6.22107
53.8265 6.15166
53.8766 6.10325
53.9266 6.05759
53.9767 6.07608
54.0267 6.05572
54.0769 6.01503
54.1269 5.98377
54.1771 5.98126
54.2271 5.92931
54.2773 5.89131
54.3274 5.86601
54.3776 5.85597
54.4277 5.8061
54.478 5.73924
54.528 5.76243
54.5783 5.70512
54.6285 5.64484
54.6788 5.70438
54.7289 5.58206
54.7792 5.51113
54.8296 5.46718
54.8798 5.43503
54.9301 5.41782
54.9803 5.40951
55.0307 5.34406
55.0809 5.30712
55.1314 5.28876
55.1816 5.20818
55.232 5.19621
55.2823 5.14066
55.3328 5.09025
55.383 5.07534
55.4335 4.999
55.4838 4.94144
55.5344 4.85514
55.5847 4.88546
55.6352 4.83111
55.6856 4.83831
55.7361 4.75516