File: XRD/Ni3Fe_FD0063.xy
TT I
1.27165 31.6325
1.31627 29.3842
1.36089 27.7771
1.40551 25.3391
1.45013 25.3245
1.49476 24.9462
1.53938 23.9194
1.584 22.426
1.62863 21.691
1.67325 21.7105
1.71787 21.3254
1.7625 20.3138
1.80712 20.2665
1.85174 19.8426
1.89636 20.0735
1.94099 19.7052
1.98562 19.7035
2.03025 19.5504
2.07487 19.4738
2.11949 19.5514
2.16411 19.5468
2.20874 19.5562
2.25338 19.6891
2.298 20.0326
2.34263 19.8722
2.38725 20.2824
2.43188 20.9145
2.4765 21.1136
2.52115 20.7863
2.56577 21.3761
2.6104 22.5397
2.65503 23.11
2.69965 25.0374
2.7443 26.5473
2.78893 28.4617
2.83356 31.4496
2.87818 35.569
2.92281 40.1488
2.96744 46.1116
3.01209 54.9146
3.05672 62.1199
3.10135 71.2474
3.14599 74.4092
3.19062 70.4426
3.23527 61.8386
3.2799 51.7095
3.32454 43.4208
3.36917 36.7734
3.4138 32.5319
3.45844 29.746
3.50309 28.4047
3.54773 26.8756
3.59237 26.2354
3.637 25.5311
3.68164 25.5709
3.7263 25.5133
3.77094 25.6771
3.81558 25.2487
3.86022 25.5991
3.90486 26.5799
3.9495 26.7664
3.99416 27.531
4.0388 27.6998
4.08344 29.3767
4.12809 29.5237
4.17273 30.7866
4.21738 32.1595
4.26204 33.8402
4.30669 37.7222
4.35133 40.8567
4.39598 39.6821
4.44063 38.1444
4.4853 37.6858
4.52995 39.506
4.5746 40.453
4.61925 42.2852
4.6639 43.7521
4.70855 46.3805
4.75322 49.3196
4.79788 52.2592
4.84253 56.4399
4.88719 62.8143
4.93184 70.6682
4.97652 85.2217
5.02118 106.099
5.06583 123.372
5.11049 144.768
5.15515 196.169
5.19981 347.26
5.24449 831.813
5.28916 1890.76
5.33382 4271.27
5.37848 2696.24
5.42315 656.793
5.46783 274.831
5.5125 184.654
5.55716 147.002
5.60183 125.079
5.6465 115.653
5.69117 110.587
5.73586 104.06
5.78053 102.199
5.8252 103.681
5.86988 109.969
5.91455 122.615
5.95924 148.369
6.00392 214.821
6.0486 372.388
6.09328 632.236
6.13795 1132.34
6.18263 1000.55
6.22733 415.877
6.27201 193.58
6.3167 120.48
6.36138 88.5003
6.40606 72.0596
6.45075 63.8434
6.49545 58.1674
6.54014 53.7445
6.58483 50.1827
6.62952 48.2313
6.67421 46.2253
6.71892 45.1611
6.76361 44.1235
6.8083 42.9138
6.853 42.0151
6.89769 41.8999
6.94239 41.9847
6.98711 41.8685
7.03181 42.9832
7.07651 45.4472
7.12121 45.5594
7.16591 43.1945
7.21063 40.9801
7.25533 40.5295
7.30004 40.0313
7.34475 40.3564
7.38945 40.5138
7.43416 41.2438
7.47889 44.2297
7.5236 67.4737
7.56831 186.817
7.61303 147.446
7.65774 57.5456
7.70247 44.0295
7.74719 40.8613
7.79191 40.0288
7.83663 39.7924
7.88135 40.252
7.92607 40.2136
7.97081 41.0623
8.01553 41.6575
8.06026 42.1061
8.10498 43.0386
8.14971 44.4392
8.19446 45.7504
8.23919 48.1024
8.28392 51.0844
8.32865 54.1601
8.37339 57.7215
8.41812 62.1114
8.46288 71.0725
8.50761 91.089
8.55235 142.943
8.59709 204.059
8.64183 313.864
8.68658 648.75
8.73134 664.162
8.77609 287.76
8.82083 142.024
8.86558 97.9117
8.91033 81.8278
8.9551 74.27
8.99985 70.5048
9.04461 67.9049
9.08936 67.2343
9.13412 67.1671
9.17888 72.0074
9.22365 105.458
9.26841 292.877
9.31318 284.971
9.35794 101.758
9.4027 69.2701
9.44749 63.2083
9.49226 60.8058
9.53703 59.5924
9.5818 59.8668
9.62657 59.342
9.67134 59.9033
9.71614 61.0019
9.76091 62.1414
9.80569 63.9696
9.85047 66.6947
9.89525 70.8625
9.94005 78.493
9.98484 94.4392
10.0296 137.011
10.0744 180.965
10.1192 230.362
10.164 423.517
10.2088 707.652
10.2536 500.225
10.2984 214.032
10.3432 126.079
10.388 94.1879
10.4328 84.6384
10.4776 89.0648
10.5224 96.3884
10.5672 104.012
10.612 148.757
10.6568 243.636
10.7017 246.14
10.7465 166.141
10.7913 85.7018
10.8361 62.6459
10.8809 56.2023
10.9257 52.8316
10.9706 51.049
11.0154 49.115
11.0602 47.6539
11.105 46.7572
11.1499 45.5104
11.1947 45.1653
11.2395 44.8772
11.2844 43.9718
11.3292 43.2778
11.374 42.4675
11.4189 42.1929
11.4637 41.6399
11.5086 41.253
11.5534 40.9474
11.5983 40.7129
11.6431 41.1219
11.688 40.6563
11.7328 40.9594
11.7777 41.0976
11.8225 41.4905
11.8674 42.6517
11.9122 47.9017
11.9571 77.4538
12.002 115.096
12.0468 77.9769
12.0917 52.4985
12.1366 50.6713
12.1814 51.8709
12.2263 56.8332
12.2712 71.0588
12.3161 87.0486
12.3609 77.6192
12.4058 58.5777
12.4507 49.0895
12.4956 44.9508
12.5405 42.8817
12.5853 41.9495
12.6302 41.2803
12.6751 41.2233
12.72 41.3974
12.7649 41.6107
12.8098 41.8309
12.8547 42.558
12.8996 43.0588
12.9445 43.9361
12.9894 45.1393
13.0343 46.4924
13.0792 50.9179
13.1242 62.2389
13.1691 69.2367
13.214 68.1716
13.2589 71.2468
13.3038 76.1787
13.3487 96.2287
13.3937 146.507
13.4386 186.554
13.4835 144.709
13.5285 98.3402
13.5734 84.2005
13.6183 79.0388
13.6633 81.7051
13.7082 103.897
13.7531 152.82
13.7981 170.137
13.843 112.804
13.888 73.6241
13.9329 59.4622
13.9779 53.5808
14.0228 51.3668
14.0678 50.2828
14.1127 52.7414
14.1577 73.2819
14.2027 102.904
14.2476 80.7672
14.2926 53.1421
14.3376 46.8086
14.3825 45.0366
14.4275 43.9846
14.4725 43.4524
14.5175 43.2309
14.5624 42.889
14.6074 42.9181
14.6524 42.8988
14.6974 43.0954
14.7424 43.8056
14.7874 44.801
14.8324 47.9906
14.8774 51.2883
14.9224 52.8614
14.9674 55.386
15.0124 63.8783
15.0574 85.5351
15.1024 105.894
15.1474 92.7785
15.1924 69.3185
15.2374 54.7734
15.2824 47.8141
15.3274 44.7337
15.3725 43.3759
15.4175 42.8574
15.4625 42.2061
15.5076 41.9304
15.5526 41.9749
15.5976 41.8933
15.6426 41.9557
15.6877 42.6513
15.7327 45.021
15.7778 47.7694
15.8228 49.215
15.8679 50.7441
15.9129 56.0774
15.958 70.3186
16.003 91.4544
16.0481 96.8427
16.0931 84.1707
16.1382 68.4515
16.1833 51.7475
16.2283 43.1196
16.2734 40.2065
16.3185 38.6258
16.3636 37.5478
16.4086 36.8603
16.4537 36.1746
16.4988 35.7978
16.5439 35.4868
16.589 35.2261
16.6341 35.1935
16.6792 34.7371
16.7243 34.8551
16.7694 34.7917
16.8145 34.6501
16.8596 34.8126
16.9047 35.8896
16.9498 39.6152
16.9949 43.0502
17.04 40.3587
17.0851 36.5386
17.1302 35.7612
17.1754 36.2691
17.2205 36.6268
17.2656 36.6669
17.3108 37.5334
17.3559 39.1998
17.401 42.9293
17.4462 46.9886
17.4913 46.0055
17.5365 41.4579
17.5815 38.6157
17.6268 37.5815
17.6718 37.5192
17.7171 37.786
17.7622 39.6871
17.8074 43.7949
17.8525 44.5686
17.8977 41.9769
17.9428 41.7897
17.9881 43.0012
18.0331 43.864
18.0784 44.3562
18.1237 47.3465
18.1688 54.0082
18.214 66.9487
18.2591 77.9628
18.3044 70.9629
18.3495 57.4334
18.3948 51.1369
18.4399 51.7829
18.4852 57.4923
18.5303 61.2597
18.5756 56.6267
18.6207 50.5787
18.666 45.1243
18.7112 40.8536
18.7565 38.9664
18.8016 38.0646
18.8469 37.6531
18.892 37.0803
18.9374 36.8241
18.9825 36.4385
19.0278 36.0944
19.073 36.1577
19.1183 36.0638
19.1635 36.0825
19.2088 36.4978
19.254 37.0795
19.2993 38.2881
19.3447 42.5718
19.3898 47.3829
19.4352 46.6297
19.4804 44.1392
19.5257 43.9092
19.5709 42.0403
19.6163 38.7597
19.6615 36.4466
19.7068 35.0675
19.752 34.4261
19.7974 34.1008
19.8426 33.8902
19.888 33.7767
19.9332 34.0267
19.9786 34.2049
20.0238 34.0407
20.0692 34.4952
20.1144 34.9131
20.1598 36.5585
20.205 39.0047
20.2504 41.4474
20.2957 40.6973
20.3411 37.9438
20.3863 36.9251
20.4318 37.7524
20.477 39.5039
20.5224 38.8369
20.5677 36.3249
20.6131 34.1066
20.6586 32.9096
20.7038 32.4074
20.7493 32.4536
20.7945 33.6751
20.84 35.2036
20.8853 34.1681
20.9307 32.1703
20.976 31.4211
21.0215 30.82
21.0668 30.9456
21.1122 30.875
21.1575 30.6468
21.203 30.6619
21.2483 30.6317
21.2938 30.8273
21.3391 31.1877
21.3846 31.8253
21.4299 32.2103
21.4754 32.002
21.5207 31.763
21.5662 31.5404
21.6116 30.9675
21.6571 30.7512
21.7024 31.2015
21.7479 31.3599
21.7933 31.5322
21.8388 31.8015
21.8843 32.1534
21.9297 32.7986
21.9752 34.1248
22.0206 36.5151
22.0661 38.5752
22.1115 39.0874
22.157 38.1294
22.2024 37.4545
22.248 36.6652
22.2933 35.8584
22.3389 34.6573
22.3843 33.2336
22.4299 31.9807
22.4753 31.434
22.5208 31.2061
22.5662 31.055
22.6118 30.8762
22.6572 30.8286
22.7028 30.9771
22.7483 31.1858
22.7939 31.5078
22.8393 32.2103
22.8849 32.3236
22.9303 32.0038
22.9759 31.854
23.0214 32.1128
23.067 33.2728
23.1126 35.0414
23.1581 35.9539
23.2037 35.2198
23.2492 33.3083
23.2948 32.0348
23.3403 31.6249
23.3859 31.7654
23.4314 32.4674
23.477 33.2483
23.5225 33.2003
23.5682 32.325
23.6137 32.2247
23.6593 32.5611
23.7048 33.9228
23.7505 35.7042
23.796 35.8926
23.8417 34.0519
23.8872 31.8866
23.9329 30.7115
23.9784 29.9717
24.0241 29.6216
24.0697 29.5836
24.1154 29.3427
24.1609 29.0197
24.2066 28.593
24.2522 28.3694
24.2979 28.1079
24.3434 28.0488
24.3892 27.9358
24.4349 27.793
24.4805 27.6111
24.5262 27.6064
24.5718 27.4555
24.6175 27.6007
24.6631 28.1009
24.7089 28.405
24.7545 28.3317
24.8002 27.718
24.8458 27.4927
24.8916 27.08
24.9372 26.9975
24.983 27.1102
25.0286 27.1282
25.0744 27.0944
25.12 27.0079
25.1658 27.1745
25.2114 27.1653
25.2572 27.6448
25.3029 28.0188
25.3487 28.3082
25.3943 28.2511
25.4402 27.8822
25.4858 28.2803
25.5316 28.6816
25.5773 28.3239
25.6231 27.8099
25.669 26.9181
25.7147 26.7011
25.7605 26.3968
25.8062 26.3864
25.8521 26.7345
25.8977 26.5586
25.9436 26.3852
25.9893 25.9651
26.0352 26.0259
26.0809 25.7818
26.1268 25.894
26.1725 26.0789
26.2184 26.2529
26.2641 26.6234
26.31 26.6184
26.3557 26.5984
26.4017 26.2296
26.4474 26.0632
26.4933 25.9295
26.5391 25.7911
26.585 25.8333
26.6308 25.754
26.6767 25.7966
26.7225 26.0265
26.7684 26.47
26.8142 26.7475
26.8601 27.1379
26.9059 27.1241
26.9519 26.8809
26.9979 26.9956
27.0437 26.6245
27.0896 26.1397
27.1354 25.7718
27.1814 25.416
27.2272 25.1811
27.2732 25.0774
27.3191 24.966
27.3651 24.8902
27.4109 24.7153
27.4569 24.8714
27.5027 24.7994
27.5488 24.9462
27.5946 24.7213
27.6407 24.7497
27.6865 24.9091
27.7326 24.8359
27.7784 24.846
27.8245 24.7628
27.8703 24.4589
27.9164 24.4344
27.9623 24.4701
28.0084 24.6286
28.0543 24.8111
28.1003 24.872
28.1462 24.8715
28.1923 24.9747
28.2384 24.9973
28.2843 25.2008
28.3304 24.9925
28.3764 24.7447
28.4225 24.4624
28.4684 24.487
28.5145 24.1061
28.5605 23.9192
28.6066 23.7695
28.6526 23.5378
28.6987 23.403
28.7447 23.1668
28.7908 22.9607
28.8368 22.9946
28.8829 22.8582
28.9289 22.846
28.9751 22.7705
29.0211 22.8413
29.0673 22.7559
29.1133 22.7915
29.1595 22.761
29.2055 22.597
29.2517 22.4713
29.2977 22.2463
29.3439 22.16
29.3899 22.0353
29.4361 21.9754
29.4824 21.9429
29.5284 21.9633
29.5746 21.9458
29.6207 21.9016
29.6669 21.8977
29.713 21.7345
29.7593 21.6356
29.8053 21.5209
29.8516 21.4568
29.8977 21.3593
29.9439 21.2752
29.99 21.3319
30.0363 21.2327
30.0824 21.3099
30.1287 21.2995
30.1748 21.2333
30.2211 21.111
30.2673 20.9505
30.3136 21.1243
30.3597 21.1045
30.406 21.0574
30.4522 21.0463
30.4985 20.9396
30.5447 20.8334
30.591 20.8505
30.6372 20.7842
30.6835 20.7814
30.7297 20.6768
30.7761 20.7586
30.8224 20.8088
30.8686 20.889
30.915 20.9384
30.9612 20.9748
31.0076 20.9098
31.0538 20.8763
31.1002 20.8056
31.1464 20.6275
31.1928 20.4722
31.2391 20.412
31.2855 20.25
31.3317 20.1859
31.3781 20.1974
31.4244 20.244
31.4708 20.0712
31.5171 20.1308
31.5636 20.1164
31.6098 20.1414
31.6563 20.1355
31.7026 20.1675
31.7491 20.0232
31.7953 19.9787
31.8418 19.9111
31.8881 19.7922
31.9346 19.7307
31.9809 19.6647
32.0275 19.6616
32.074 19.599
32.1203 19.5982
32.1668 19.7324
32.2132 19.5995
32.2597 19.5301
32.306 19.5287
32.3526 19.3198
32.399 19.2158
32.4455 19.1434
32.4919 19.1567
32.5385 18.9699
32.5848 18.9201
32.6314 18.9486
32.6778 18.784
32.7244 18.7237
32.7708 18.6427
32.8174 18.7163
32.8638 18.5363
32.9104 18.5193
32.9569 18.5583
33.0035 18.452
33.0499 18.4117
33.0966 18.4246
33.143 18.3408
33.1897 18.2468
33.2361 18.136
33.2828 18.1619
33.3293 18.0873
33.3759 18.0509
33.4226 18.1644
33.4691 18.0915
33.5158 18.0788
33.5623 17.9841
33.609 17.9174
33.6555 17.7611
33.7022 17.7115
33.7487 17.5422
33.7954 17.5286
33.842 17.4562
33.8887 17.4915
33.9353 17.4347
33.982 17.4114
34.0286 17.2913
34.0753 17.271
34.1219 17.2045
34.1687 17.2221
34.2152 17.1189
34.262 17.0604
34.3086 16.915
34.3554 16.9031
34.402 16.8473
34.4488 16.7925
34.4954 16.769
34.5422 16.7713
34.5889 16.7122
34.6357 16.6483
34.6825 16.6332
34.7292 16.4939
34.776 16.5046
34.8227 16.3705
34.8695 16.3872
34.9162 16.3012
34.9631 16.2628
35.0098 16.2553
35.0566 16.139
35.1033 16.2183
35.1502 16.0944
35.1969 16.0665
35.2438 16.0472
35.2906 15.9981
35.3375 15.9632
35.3842 15.8642
35.4311 15.9191
35.4779 15.8921
35.5248 15.9047
35.5716 15.818
35.6185 15.7453
35.6653 15.7618
35.7123 15.7603
35.759 15.7538
35.806 15.5902
35.8528 15.5672
35.8998 15.5269
35.9468 15.4366
35.9936 15.403
36.0406 15.3447
36.0874 15.3306
36.1345 15.2725
36.1813 15.2092
36.2283 15.1253
36.2752 15.0762
36.3222 15.0592
36.3691 15.0377
36.4161 14.958
36.463 15.0454
36.5101 14.9825
36.557 15.0209
36.6041 14.8385
36.651 14.7973
36.6981 14.8208
36.745 14.7469
36.7921 14.6855
36.839 14.6647
36.8861 14.6173
36.9331 14.588
36.9802 14.5759
37.0272 14.446
37.0743 14.4314
37.1213 14.36
37.1684 14.3125
37.2154 14.264
37.2626 14.2571
37.3098 14.2074
37.3568 14.2046
37.404 14.1834
37.451 14.0657
37.4982 14.0765
37.5452 13.9771
37.5924 13.9533
37.6395 13.9591
37.6867 13.8602
37.7337 13.8327
37.781 13.791
37.8281 13.7046
37.8753 13.7182
37.9224 13.6524
37.9697 13.5903
38.0168 13.5527
38.064 13.538
38.1111 13.4908
38.1584 13.4299
38.2056 13.4032
38.2529 13.3666
38.3 13.3196
38.3473 13.3295
38.3945 13.2106
38.4418 13.2198
38.489 13.1741
38.5363 13.1212
38.5837 13.051
38.6309 13.0204
38.6782 13.02
38.7254 12.9723
38.7728 12.9302
38.82 12.9061
38.8674 12.8354
38.9146 12.7811
38.9621 12.7228
39.0093 12.7089
39.0567 12.7249
39.104 12.6692
39.1514 12.5832
39.1987 12.6294
39.2461 12.5714
39.2934 12.4823
39.3409 12.4138
39.3882 12.3993
39.4356 12.3824
39.483 12.3636
39.5304 12.2568
39.5778 12.294
39.6253 12.2663
39.6726 12.2252
39.7201 12.1923
39.7675 12.1715
39.815 12.1102
39.8624 12.0227
39.9099 12.0955
39.9575 11.9955
40.0049 11.9364
40.0525 11.9007
40.0999 11.9035
40.1474 11.854
40.1949 11.8215
40.2425 11.7572
40.2899 11.7482
40.3375 11.6806
40.385 11.6722
40.4326 11.6403
40.48 11.5823
40.5277 11.6174
40.5752 11.5506
40.6228 11.4792
40.6703 11.4396
40.718 11.4226
40.7655 11.4135
40.8132 11.3403
40.8607 11.3196
40.9084 11.2861
40.9559 11.273
41.0036 11.28
41.0512 11.1669
41.0989 11.178
41.1465 11.1609
41.1942 11.0911
41.242 11.0316
41.2896 11.0073
41.3373 10.993
41.3849 10.895
41.4327 10.8873
41.4803 10.8883
41.5281 10.8442
41.5758 10.7928
41.6236 10.7871
41.6712 10.7433
41.7191 10.6899
41.7667 10.6519
41.8146 10.6586
41.8622 10.6353
41.9101 10.5929
41.9578 10.5411
42.0057 10.5605
42.0534 10.4418
42.1013 10.4443
42.149 10.3716
42.1969 10.3525
42.2446 10.3073
42.2925 10.3039
42.3403 10.3197
42.3882 10.2396
42.436 10.2274
42.4839 10.1576
42.5319 10.1251
42.5797 10.0586
42.6277 10.0641
42.6755 10.0309
42.7235 10.0043
42.7713 9.96347
42.8193 9.94099
42.8671 9.89706
42.9152 9.89543
42.963 9.82949
43.0111 9.76123
43.0589 9.75464
43.107 9.71638
43.1549 9.68866
43.2029 9.62719
43.2508 9.6132
43.2989 9.5875
43.3468 9.54945
43.3949 9.57594
43.4429 9.54738
43.491 9.47502
43.5389 9.46587
43.5871 9.39647
43.635 9.30953
43.6832 9.38555
43.7312 9.331
43.7793 9.2947
43.8273 9.28908
43.8755 9.21534
43.9237 9.18034
43.9717 9.19991
44.0199 9.15264
44.068 9.13165
44.1162 9.06984
44.1642 9.10188
44.2125 9.059
44.2606 9.04483
44.3088 8.97093
44.3569 8.9688
44.4052 8.91089
44.4533 8.86195
44.5016 8.82689
44.5497 8.80307
44.598 8.81677
44.6461 8.7337
44.6945 8.73087
44.7426 8.67706
44.791 8.6497
44.8391 8.64523
44.8875 8.58733
44.9357 8.58256
44.984 8.56701
45.0322 8.52039
45.0806 8.50612
45.1288 8.43722
45.1773 8.4265
45.2257 8.38659
45.2739 8.35792
45.3224 8.38654
45.3706 8.3342
45.4191 8.2685
45.4673 8.24175
45.5158 8.26156
45.5641 8.23008
45.6126 8.22988
45.6609 8.16437
45.7094 8.1331
45.7577 8.10498
45.8063 8.0381
45.8546 8.03012
45.9031 7.96943
45.9515 7.96598
46.0001 7.96962
46.0484 7.94368
46.097 7.94256
46.1454 7.87012
46.194 7.85526
46.2424 7.78306
46.291 7.76604
46.3395 7.76397
46.3881 7.76902
46.4365 7.70489
46.4852 7.73016
46.5337 7.63848
46.5823 7.62908
46.631 7.591
46.6795 7.63004
46.7282 7.57149
46.7767 7.48274
46.8254 7.50617
46.8739 7.46136
46.9226 7.45174
46.9712 7.44022
47.0199 7.40929
47.0685 7.33899
47.1173 7.3402
47.1658 7.29222
47.2146 7.26731
47.2632 7.26809
47.312 7.20441
47.3606 7.18223
47.4095 7.15693
47.4581 7.13858
47.5069 7.13591
47.5556 7.09923
47.6044 7.07034
47.6531 7.03605
47.702 7.02027
47.7507 7.01216
47.7996 6.95365
47.8483 6.94291
47.8972 6.94252
47.9461 6.90233
47.9948 6.87483
48.0438 6.83638
48.0925 6.83644
48.1415 6.82504
48.1902 6.82017
48.2392 6.75795
48.288 6.74866
48.337 6.72434
48.3858 6.66789
48.4348 6.65842
48.4837 6.70319
48.5327 6.65595
48.5815 6.62226
48.6306 6.54773
48.6795 6.56742
48.7285 6.51124
48.7774 6.5138
48.8265 6.50293
48.8754 6.46898
48.9245 6.46005
48.9734 6.43875
49.0226 6.40989
49.0715 6.35771
49.1206 6.33312
49.1696 6.32728
49.2188 6.31353
49.2679 6.27665
49.3169 6.27214
49.3661 6.19815
49.4151 6.20871
49.4643 6.19654
49.5134 6.22231
49.5626 6.11032
49.6117 6.10326
49.6609 6.09415
49.71 6.06547
49.7592 6.06638
49.8083 6.03121
49.8576 6.03232
49.9067 6.00729
49.956 5.98936
50.0052 5.96397
50.0545 5.92663
50.1036 5.90724
50.153 5.87877
50.2022 5.89973
50.2515 5.82552
50.3007 5.7767
50.3501 5.78671
50.3993 5.78984
50.4487 5.73764
50.498 5.74563
50.5474 5.71562
50.5966 5.69427
50.6461 5.67982
50.6955 5.65585
50.7448 5.61364
50.7943 5.61613
50.8436 5.60348
50.8931 5.55893
50.9424 5.5554
50.9919 5.55317
51.0413 5.52751
51.0908 5.46771
51.1402 5.48369
51.1897 5.46983
51.2391 5.43853
51.2887 5.41319
51.3381 5.41719
51.3877 5.36043
51.4371 5.30981
51.4867 5.29958
51.5362 5.27832
51.5858 5.30295
51.6353 5.24602
51.6849 5.24856
51.7344 5.20872
51.7841 5.21817
51.8336 5.18314
51.8833 5.13553
51.9328 5.13265
51.9826 5.12826
52.0323 5.08439
52.0818 5.06835
52.1316 5.01955
52.1812 5.04256
52.231 5.01683
52.2806 4.98903
52.3304 4.98242
52.38 4.95834
52.4298 4.93544
52.4794 4.89512
52.5293 4.91791
52.5789 4.88714
52.6288 4.8622
52.6785 4.83839
52.7284 4.86042
52.7781 4.81108
52.828 4.77001
52.8777 4.77454
52.9276 4.75235
52.9774 4.72453
53.0273 4.74598
53.0771 4.6964
53.1271 4.65657
53.1769 4.62436
53.2269 4.63124
53.2767 4.62294
53.3267 4.60054
53.3765 4.59619
53.4266 4.55069
53.4766 4.56434
53.5265 4.52893
53.5765 4.48196
53.6264 4.45645
53.6765 4.46532
53.7264 4.42507
53.7765 4.45905
53.8265 4.41693
53.8766 4.34305
53.9266 4.33906
53.9767 4.32581
54.0267 4.3573
54.0769 4.28733
54.1269 4.27603
54.1771 4.21323
54.2271 4.19617
54.2773 4.13035
54.3274 4.14625
54.3776 4.09394
54.4277 4.07646
54.478 4.10141
54.528 4.07258
54.5783 3.98459
54.6285 3.95808
54.6788 3.94464
54.7289 3.91217
54.7792 3.91025
54.8296 3.85479
54.8798 3.8421
54.9301 3.76029
54.9803 3.75028
55.0307 3.76073
55.0809 3.67604
55.1314 3.68518
55.1816 3.59053
55.232 3.62322
55.2823 3.59191
55.3328 3.50817
55.383 3.49122
55.4335 3.47182
55.4838 3.44046
55.5344 3.42083
55.5847 3.39225
55.6352 3.33815
55.6856 3.38884
55.7361 3.32277