File: XRD/Ni3Fe_FD1023.xy
TT I
1.27165 6.58256
1.31627 6.61128
1.36089 6.36196
1.40551 4.64434
1.45013 6.26142
1.49476 5.49351
1.53938 5.55786
1.584 5.50223
1.62863 4.61177
1.67325 4.58225
1.71787 4.84481
1.7625 4.99679
1.80712 4.26239
1.85174 4.29751
1.89636 4.43608
1.94099 4.5651
1.98562 4.16753
2.03025 4.27785
2.07487 4.02394
2.11949 3.81933
2.16411 4.45512
2.20874 4.93998
2.25338 6.53034
2.298 5.16223
2.34263 5.28949
2.38725 6.06619
2.43188 6.22189
2.4765 7.11095
2.52115 8.13019
2.56577 7.14552
2.6104 8.55532
2.65503 8.46476
2.69965 8.7997
2.7443 9.05041
2.78893 8.48375
2.83356 8.86498
2.87818 9.53365
2.92281 9.1088
2.96744 9.47699
3.01209 10.2686
3.05672 10.9669
3.10135 12.3529
3.14599 13.7128
3.19062 14.6283
3.23527 14.6966
3.2799 15.1755
3.32454 16.4321
3.36917 17.2987
3.4138 18.2297
3.45844 18.7681
3.50309 19.9413
3.54773 20.452
3.59237 21.1314
3.637 28.0912
3.68164 27.0267
3.7263 24.3507
3.77094 24.6179
3.81558 25.4872
3.86022 26.5408
3.90486 27.6998
3.9495 27.9274
3.99416 29.3336
4.0388 30.2358
4.08344 31.2091
4.12809 32.4554
4.17273 33.5376
4.21738 35.2299
4.26204 52.8401
4.30669 57.7204
4.35133 40.8727
4.39598 40.8543
4.44063 43.5632
4.4853 46.0279
4.52995 46.5608
4.5746 48.5196
4.61925 50.7438
4.6639 52.5484
4.70855 55.1766
4.75322 57.6801
4.79788 60.7073
4.84253 63.5544
4.88719 67.8604
4.93184 71.5227
4.97652 76.6279
5.02118 82.2585
5.06583 89.0284
5.11049 97.0432
5.15515 117.532
5.19981 228.726
5.24449 2381.49
5.28916 13304.9
5.33382 3408.15
5.37848 230.213
5.42315 124.992
5.46783 108.335
5.5125 100.829
5.55716 96.5153
5.60183 92.6025
5.6465 90.9207
5.69117 89.3418
5.73586 86.7133
5.78053 86.4269
5.8252 85.7971
5.86988 86.4168
5.91455 87.7117
5.95924 94.3288
6.00392 159.756
6.0486 835.805
6.09328 4381.09
6.13795 3508.57
6.18263 246.223
6.22733 87.1219
6.27201 75.4195
6.3167 72.8446
6.36138 68.3908
6.40606 64.2349
6.45075 63.2647
6.49545 61.3239
6.54014 59.8369
6.58483 58.7222
6.62952 57.6598
6.67421 58.6818
6.71892 64.382
6.76361 56.3704
6.8083 54.1788
6.853 53.3505
6.89769 53.0588
6.94239 52.7008
6.98711 51.9171
7.03181 52.0841
7.07651 51.9715
7.12121 51.4978
7.16591 51.1893
7.21063 50.8575
7.25533 51.3626
7.30004 62.2536
7.34475 56.1546
7.38945 51.5774
7.43416 50.8733
7.47889 51.7264
7.5236 61.2893
7.56831 80.877
7.61303 58.4832
7.65774 53.065
7.70247 52.702
7.74719 52.533
7.79191 53.7511
7.83663 53.4644
7.88135 54.4578
7.92607 55.1885
7.97081 56.5125
8.01553 57.167
8.06026 58.5309
8.10498 59.9562
8.14971 61.9776
8.19446 63.5537
8.23919 65.2842
8.28392 67.7028
8.32865 69.6594
8.37339 73.2562
8.41812 77.1294
8.46288 85.836
8.50761 125.693
8.55235 350.189
8.59709 1066.31
8.64183 2285.91
8.68658 1097.31
8.73134 179.924
8.77609 94.462
8.82083 87.914
8.86558 84.9308
8.91033 83.1408
8.9551 81.9857
8.99985 80.7818
9.04461 79.7952
9.08936 79.3985
9.13412 78.8605
9.17888 79.3803
9.22365 95.9997
9.26841 125.655
9.31318 92.9858
9.35794 79.9632
9.4027 79.6532
9.44749 80.0663
9.49226 80.5259
9.53703 81.0734
9.5818 82.5633
9.62657 83.6633
9.67134 85.8552
9.71614 86.5641
9.76091 88.7331
9.80569 90.6566
9.85047 93.6424
9.89525 98.0631
9.94005 105.147
9.98484 144.246
10.0296 327.986
10.0744 743.379
10.1192 1736.36
10.164 1686.36
10.2088 449.1
10.2536 126.545
10.2984 102.625
10.3432 99.9323
10.388 97.0153
10.4328 106.433
10.4776 154.225
10.5224 259.851
10.5672 493.693
10.612 529.856
10.6568 222.851
10.7017 107.103
10.7465 87.0457
10.7913 79.5495
10.8361 77.2939
10.8809 74.868
10.9257 73.125
10.9706 72.0715
11.0154 70.3717
11.0602 68.5993
11.105 67.8091
11.1499 66.3581
11.1947 67.0362
11.2395 64.8942
11.2844 64.2898
11.3292 63.2187
11.374 62.4666
11.4189 62.2816
11.4637 61.4826
11.5086 60.8514
11.5534 60.6978
11.5983 60.3467
11.6431 60.3396
11.688 59.3773
11.7328 59.361
11.7777 59.3905
11.8225 59.1934
11.8674 59.7618
11.9122 62.3833
11.9571 70.783
12.002 68.3719
12.0468 64.2351
12.0917 75.3556
12.1366 96.0102
12.1814 143.899
12.2263 200.475
12.2712 171.678
12.3161 94.3864
12.3609 64.0663
12.4058 60.7323
12.4507 60.9088
12.4956 60.6704
12.5405 60.9848
12.5853 61.3334
12.6302 62.1251
12.6751 63.3885
12.72 63.5726
12.7649 63.9861
12.8098 64.4884
12.8547 65.9839
12.8996 67.4255
12.9445 68.4711
12.9894 70.264
13.0343 72.1865
13.0792 76.2507
13.1242 81.9494
13.1691 104.952
13.214 142.385
13.2589 221.38
13.3038 359.997
13.3487 440.738
13.3937 278.555
13.4386 125.573
13.4835 97.754
13.5285 116.529
13.5734 151.155
13.6183 231.111
13.6633 354.947
13.7082 361.288
13.7531 204.127
13.7981 99.9156
13.843 79.1408
13.888 76.5943
13.9329 73.9005
13.9779 73.1836
14.0228 71.2711
14.0678 70.3907
14.1127 71.8657
14.1577 77.281
14.2027 74.7682
14.2476 68.7363
14.2926 67.1468
14.3376 66.9753
14.3825 66.4087
14.4275 65.9718
14.4725 65.6941
14.5175 65.9534
14.5624 65.8583
14.6074 66.1483
14.6524 66.7041
14.6974 66.6936
14.7424 67.8633
14.7874 73.4893
14.8324 86.5925
14.8774 106.647
14.9224 144.621
14.9674 205.863
15.0124 226.241
15.0574 157.929
15.1024 93.4579
15.1474 70.7116
15.1924 67.4466
15.2374 66.0034
15.2824 65.3503
15.3274 64.3972
15.3725 63.8647
15.4175 63.4497
15.4625 62.9976
15.5076 62.9483
15.5526 63.0697
15.5976 62.6417
15.6426 63.2546
15.6877 67.6744
15.7327 77.5006
15.7778 91.6483
15.8228 119.51
15.8679 166.932
15.9129 200.513
15.958 167.382
16.003 102.96
16.0481 69.7269
16.0931 63.2763
16.1382 59.7271
16.1833 57.9625
16.2283 56.4153
16.2734 55.7355
16.3185 55.2365
16.3636 54.7602
16.4086 53.9909
16.4537 53.475
16.4988 53.0316
16.5439 52.9805
16.589 52.823
16.6341 52.3453
16.6792 52.1089
16.7243 52.3935
16.7694 52.202
16.8145 52.4825
16.8596 52.5964
16.9047 53.386
16.9498 54.1737
16.9949 53.7078
17.04 53.621
17.0851 54.2003
17.1302 56.1813
17.1754 59.2389
17.2205 63.8101
17.2656 71.6125
17.3108 81.5647
17.3559 81.7744
17.401 70.882
17.4462 61.1525
17.4913 57.2674
17.5365 56.7018
17.5815 56.8278
17.6268 57.3935
17.6718 57.6467
17.7171 58.3959
17.7622 59.8072
17.8074 60.3757
17.8525 61.4686
17.8977 65.5713
17.9428 71.703
17.9881 79.6793
18.0331 95.6027
18.0784 119.013
18.1237 141.007
18.1688 136.861
18.214 108.267
18.2591 87.1382
18.3044 87.8973
18.3495 98.4188
18.3948 106.088
18.4399 97.4154
18.4852 78.2731
18.5303 65.3945
18.5756 61.0598
18.6207 59.749
18.666 58.4464
18.7112 57.5421
18.7565 56.9203
18.8016 56.4456
18.8469 55.7692
18.892 55.7195
18.9374 55.1799
18.9825 54.7617
19.0278 54.4337
19.073 54.6684
19.1183 54.6991
19.1635 55.5171
19.2088 57.1167
19.254 59.9694
19.2993 65.0947
19.3447 71.8369
19.3898 75.7633
19.4352 71.874
19.4804 62.9305
19.5257 55.8067
19.5709 52.5585
19.6163 52.0913
19.6615 51.7414
19.7068 51.4387
19.752 51.3563
19.7974 51.2334
19.8426 52.106
19.888 53.0283
19.9332 54.3174
19.9786 56.5711
20.0238 60.2007
20.0692 66.0462
20.1144 69.618
20.1598 68.6236
20.205 63.4202
20.2504 61.052
20.2957 62.7868
20.3411 64.7937
20.3863 64.0297
20.4318 57.8763
20.477 52.6323
20.5224 49.7351
20.5677 48.7305
20.6131 48.4511
20.6586 47.986
20.7038 47.8231
20.7493 47.4986
20.7945 47.8976
20.84 47.4134
20.8853 47.1764
20.9307 46.7502
20.976 46.9003
21.0215 46.9265
21.0668 47.3823
21.1122 47.5945
21.1575 48.3386
21.203 49.0169
21.2483 49.99
21.2938 50.1777
21.3391 48.8266
21.3846 47.6021
21.4299 46.8734
21.4754 47.0728
21.5207 46.9712
21.5662 47.4155
21.6116 47.443
21.6571 48.3841
21.7024 49.4567
21.7479 51.1366
21.7933 53.4669
21.8388 57.4638
21.8843 61.8861
21.9297 64.8482
21.9752 63.6173
22.0206 59.4236
22.0661 56.0861
22.1115 55.6545
22.157 55.7141
22.2024 54.0938
22.248 50.8452
22.2933 48.7223
22.3389 47.5546
22.3843 47.3666
22.4299 47.1723
22.4753 47.0839
22.5208 46.907
22.5662 46.9576
22.6118 47.1223
22.6572 47.336
22.7028 47.7996
22.7483 48.4829
22.7939 49.209
22.8393 50.4913
22.8849 52.8938
22.9303 55.3182
22.9759 57.1832
23.0214 57.1456
23.067 54.2415
23.1126 50.7894
23.1581 48.3385
23.2037 47.4139
23.2492 47.3061
23.2948 47.4362
23.3403 47.9458
23.3859 48.7528
23.4314 49.683
23.477 51.4607
23.5225 53.9692
23.5682 56.6282
23.6137 58.0901
23.6593 55.9175
23.7048 51.7834
23.7505 47.7575
23.796 45.6706
23.8417 44.8037
23.8872 44.1529
23.9329 44.0699
23.9784 43.5162
24.0241 43.4496
24.0697 43.2343
24.1154 42.7975
24.1609 42.6043
24.2066 42.5754
24.2522 42.3291
24.2979 42.0814
24.3434 41.9527
24.3892 41.8343
24.4349 41.76
24.4805 41.5734
24.5262 42.0009
24.5718 41.5286
24.6175 41.7372
24.6631 41.7003
24.7089 41.3131
24.7545 41.2343
24.8002 40.946
24.8458 41.014
24.8916 40.8409
24.9372 40.9314
24.983 41.4369
25.0286 41.6138
25.0744 42.1535
25.12 42.7341
25.1658 43.4361
25.2114 43.7092
25.2572 43.9059
25.3029 44.1985
25.3487 44.3074
25.3943 44.1502
25.4402 42.9684
25.4858 41.6932
25.5316 40.454
25.5773 39.8995
25.6231 39.6708
25.669 39.3198
25.7147 39.3858
25.7605 39.3039
25.8062 39.3499
25.8521 39.6478
25.8977 39.642
25.9436 39.818
25.9893 39.8021
26.0352 40.4523
26.0809 40.6544
26.1268 41.0699
26.1725 40.6538
26.2184 39.9841
26.2641 39.3858
26.31 39.0576
26.3557 39.1251
26.4017 39.1444
26.4474 39.3416
26.4933 39.6788
26.5391 40.301
26.585 40.7547
26.6308 41.3204
26.6767 41.719
26.7225 41.4841
26.7684 40.8563
26.8142 40.2581
26.8601 39.7145
26.9059 39.3095
26.9519 38.7632
26.9979 38.3871
27.0437 37.9581
27.0896 37.8843
27.1354 37.7411
27.1814 37.6716
27.2272 37.4706
27.2732 37.6082
27.3191 37.4242
27.3651 37.4354
27.4109 37.537
27.4569 37.5595
27.5027 37.7613
27.5488 37.7546
27.5946 37.5492
27.6407 37.2799
27.6865 37.2735
27.7326 36.932
27.7784 36.9661
27.8245 36.8281
27.8703 37.1821
27.9164 37.3889
27.9623 37.5602
28.0084 38.1467
28.0543 38.4609
28.1003 38.6804
28.1462 38.3017
28.1923 37.9971
28.2384 37.38
28.2843 36.967
28.3304 36.4728
28.3764 35.8756
28.4225 35.7868
28.4684 35.4185
28.5145 35.1018
28.5605 34.9115
28.6066 34.8265
28.6526 34.7719
28.6987 34.749
28.7447 34.5667
28.7908 34.5327
28.8368 34.5647
28.8829 34.5393
28.9289 34.488
28.9751 34.3789
29.0211 34.0477
29.0673 33.975
29.1133 33.628
29.1595 33.4668
29.2055 33.4376
29.2517 33.4671
29.2977 33.4331
29.3439 33.3791
29.3899 33.4329
29.4361 33.3557
29.4824 33.227
29.5284 33.004
29.5746 32.6281
29.6207 32.345
29.6669 32.297
29.713 32.1173
29.7593 31.9992
29.8053 31.9423
29.8516 31.9338
29.8977 32.0188
29.9439 31.7395
29.99 31.797
30.0363 31.6516
30.0824 31.6753
30.1287 31.6003
30.1748 31.6068
30.2211 31.5383
30.2673 31.4861
30.3136 31.5885
30.3597 31.4368
30.406 31.353
30.4522 31.281
30.4985 31.2451
30.5447 31.4594
30.591 31.4025
30.6372 31.4827
30.6835 31.5182
30.7297 31.5776
30.7761 31.5706
30.8224 31.3367
30.8686 31.211
30.915 30.9881
30.9612 30.8316
31.0076 30.6591
31.0538 30.4872
31.1002 30.4755
31.1464 30.2488
31.1928 30.2646
31.2391 30.2865
31.2855 30.0958
31.3317 30.1791
31.3781 30.2906
31.4244 30.1911
31.4708 30.0762
31.5171 30.2321
31.5636 30.167
31.6098 29.8414
31.6563 29.6599
31.7026 29.5949
31.7491 29.5575
31.7953 29.5383
31.8418 29.4393
31.8881 29.5591
31.9346 29.5361
31.9809 29.3911
32.0275 29.3081
32.074 29.2587
32.1203 29.011
32.1668 28.7485
32.2132 28.7478
32.2597 28.6069
32.306 28.5977
32.3526 28.1886
32.399 28.2303
32.4455 28.0491
32.4919 27.9783
32.5385 28.0091
32.5848 27.6874
32.6314 27.8634
32.6778 27.8123
32.7244 27.6276
32.7708 27.5093
32.8174 27.5516
32.8638 27.3869
32.9104 27.458
32.9569 27.3505
33.0035 27.2327
33.0499 27.2597
33.0966 27.1719
33.143 27.2388
33.1897 27.0673
33.2361 27.033
33.2828 26.904
33.3293 26.7801
33.3759 26.9158
33.4226 26.618
33.4691 26.4556
33.5158 26.4034
33.5623 26.1898
33.609 26.1488
33.6555 26.1106
33.7022 25.9937
33.7487 25.8654
33.7954 25.9299
33.842 25.7267
33.8887 25.7457
33.9353 25.7001
33.982 25.4556
34.0286 25.4228
34.0753 25.3535
34.1219 25.1843
34.1687 25.2221
34.2152 25.1815
34.262 25.052
34.3086 24.9079
34.3554 24.9567
34.402 24.9148
34.4488 24.7831
34.4954 24.6387
34.5422 24.4911
34.5889 24.4299
34.6357 24.3697
34.6825 24.2832
34.7292 24.297
34.776 24.1044
34.8227 24.0547
34.8695 24.0504
34.9162 23.98
34.9631 23.8746
35.0098 23.9378
35.0566 23.7623
35.1033 23.7412
35.1502 23.6402
35.1969 23.7163
35.2438 23.5983
35.2906 23.5262
35.3375 23.455
35.3842 23.4845
35.4311 23.4123
35.4779 23.4542
35.5248 23.4612
35.5716 23.2851
35.6185 23.1426
35.6653 23.1158
35.7123 22.9466
35.759 22.9028
35.806 22.8615
35.8528 22.7497
35.8998 22.7138
35.9468 22.6221
35.9936 22.5987
36.0406 22.4856
36.0874 22.3983
36.1345 22.3295
36.1813 22.372
36.2283 22.2024
36.2752 22.1237
36.3222 22.1674
36.3691 22.0015
36.4161 22.0235
36.463 21.9586
36.5101 21.9943
36.557 21.8352
36.6041 21.7092
36.651 21.6596
36.6981 21.5994
36.745 21.5538
36.7921 21.439
36.839 21.3551
36.8861 21.2779
36.9331 21.2069
36.9802 21.2291
37.0272 21.1379
37.0743 20.9594
37.1213 20.9505
37.1684 20.92
37.2154 20.8311
37.2626 20.8227
37.3098 20.7777
37.3568 20.6843
37.404 20.5878
37.451 20.4805
37.4982 20.4901
37.5452 20.3508
37.5924 20.3114
37.6395 20.3215
37.6867 20.2674
37.7337 20.1367
37.781 20.0877
37.8281 20.0177
37.8753 19.9596
37.9224 19.8552
37.9697 19.8085
38.0168 19.734
38.064 19.7124
38.1111 19.6509
38.1584 19.507
38.2056 19.5178
38.2529 19.4134
38.3 19.3679
38.3473 19.3721
38.3945 19.2297
38.4418 19.1846
38.489 19.1362
38.5363 19.0264
38.5837 19.0279
38.6309 19.0447
38.6782 18.9466
38.7254 18.7091
38.7728 18.7728
38.82 18.7108
38.8674 18.6169
38.9146 18.5679
38.9621 18.4596
39.0093 18.5019
39.0567 18.494
39.104 18.3507
39.1514 18.2494
39.1987 18.2695
39.2461 18.1475
39.2934 18.1999
39.3409 18.0055
39.3882 17.9927
39.4356 17.9098
39.483 17.8801
39.5304 17.8025
39.5778 17.8083
39.6253 17.6915
39.6726 17.6546
39.7201 17.6599
39.7675 17.5411
39.815 17.5335
39.8624 17.4111
39.9099 17.4251
39.9575 17.2819
40.0049 17.3187
40.0525 17.233
40.0999 17.1953
40.1474 17.1268
40.1949 17.0831
40.2425 16.9912
40.2899 16.957
40.3375 16.917
40.385 16.8355
40.4326 16.8033
40.48 16.7078
40.5277 16.708
40.5752 16.6249
40.6228 16.5948
40.6703 16.5064
40.718 16.5007
40.7655 16.4993
40.8132 16.3892
40.8607 16.3101
40.9084 16.3167
40.9559 16.1844
41.0036 16.1677
41.0512 16.1037
41.0989 16.099
41.1465 15.9929
41.1942 15.9628
41.242 15.8861
41.2896 15.8373
41.3373 15.852
41.3849 15.7745
41.4327 15.694
41.4803 15.5861
41.5281 15.5444
41.5758 15.5159
41.6236 15.4462
41.6712 15.4737
41.7191 15.3226
41.7667 15.3321
41.8146 15.2891
41.8622 15.208
41.9101 15.1665
41.9578 15.0779
42.0057 15.0605
42.0534 14.9952
42.1013 14.972
42.149 14.9244
42.1969 14.8512
42.2446 14.8218
42.2925 14.8033
42.3403 14.6781
42.3882 14.6914
42.436 14.6474
42.4839 14.5533
42.5319 14.5107
42.5797 14.5325
42.6277 14.4271
42.6755 14.3537
42.7235 14.3032
42.7713 14.3035
42.8193 14.2023
42.8671 14.1614
42.9152 14.1623
42.963 14.0937
43.0111 13.9854
43.0589 13.9793
43.107 13.9347
43.1549 13.8964
43.2029 13.7879
43.2508 13.8217
43.2989 13.7384
43.3468 13.7139
43.3949 13.6318
43.4429 13.6499
43.491 13.5465
43.5389 13.5165
43.5871 13.4647
43.635 13.444
43.6832 13.3689
43.7312 13.3135
43.7793 13.3357
43.8273 13.2214
43.8755 13.1833
43.9237 13.1306
43.9717 13.1358
44.0199 13.0252
44.068 13.0103
44.1162 12.9625
44.1642 12.9724
44.2125 12.8782
44.2606 12.8636
44.3088 12.7348
44.3569 12.7539
44.4052 12.7214
44.4533 12.6523
44.5016 12.6144
44.5497 12.5815
44.598 12.4902
44.6461 12.5005
44.6945 12.4042
44.7426 12.4123
44.791 12.3448
44.8391 12.2955
44.8875 12.2251
44.9357 12.2148
44.984 12.1963
45.0322 12.1169
45.0806 12.0661
45.1288 12.0496
45.1773 12.0261
45.2257 11.9782
45.2739 11.9164
45.3224 11.8793
45.3706 11.8559
45.4191 11.7401
45.4673 11.7437
45.5158 11.6826
45.5641 11.6841
45.6126 11.6358
45.6609 11.586
45.7094 11.6033
45.7577 11.4771
45.8063 11.4499
45.8546 11.412
45.9031 11.391
45.9515 11.3079
46.0001 11.3056
46.0484 11.2669
46.097 11.1896
46.1454 11.1789
46.194 11.1551
46.2424 11.099
46.291 11.0636
46.3395 10.9591
46.3881 10.9792
46.4365 10.9496
46.4852 10.8779
46.5337 10.8768
46.5823 10.8232
46.631 10.777
46.6795 10.7567
46.7282 10.6905
46.7767 10.67
46.8254 10.6247
46.8739 10.533
46.9226 10.5569
46.9712 10.5064
47.0199 10.4631
47.0685 10.4326
47.1173 10.3859
47.1658 10.3745
47.2146 10.3207
47.2632 10.2824
47.312 10.2089
47.3606 10.2343
47.4095 10.1456
47.4581 10.1517
47.5069 10.0599
47.5556 10.0576
47.6044 10.0051
47.6531 9.94175
47.702 9.9471
47.7507 9.89608
47.7996 9.85625
47.8483 9.81726
47.8972 9.79124
47.9461 9.75836
47.9948 9.69181
48.0438 9.68686
48.0925 9.69758
48.1415 9.65686
48.1902 9.54456
48.2392 9.58833
48.288 9.51013
48.337 9.46238
48.3858 9.49108
48.4348 9.43456
48.4837 9.39103
48.5327 9.34402
48.5815 9.33048
48.6306 9.23668
48.6795 9.27228
48.7285 9.19658
48.7774 9.16505
48.8265 9.17171
48.8754 9.11543
48.9245 9.06605
48.9734 9.0466
49.0226 9.01187
49.0715 8.99342
49.1206 8.90274
49.1696 8.8963
49.2188 8.89354
49.2679 8.81962
49.3169 8.82855
49.3661 8.75613
49.4151 8.74799
49.4643 8.70032
49.5134 8.6642
49.5626 8.63091
49.6117 8.59107
49.6609 8.56688
49.71 8.5457
49.7592 8.46558
49.8083 8.44978
49.8576 8.44611
49.9067 8.40123
49.956 8.36091
50.0052 8.33495
50.0545 8.29239
50.1036 8.28389
50.153 8.22328
50.2022 8.21081
50.2515 8.18675
50.3007 8.1248
50.3501 8.08882
50.3993 8.10614
50.4487 8.01681
50.498 8.0339
50.5474 7.94775
50.5966 7.94989
50.6461 7.90828
50.6955 7.9004
50.7448 7.89522
50.7943 7.8438
50.8436 7.7793
50.8931 7.75567
50.9424 7.75112
50.9919 7.72894
51.0413 7.71241
51.0908 7.65073
51.1402 7.64536
51.1897 7.58844
51.2391 7.55504
51.2887 7.51963
51.3381 7.52003
51.3877 7.47601
51.4371 7.44183
51.4867 7.37081
51.5362 7.39164
51.5858 7.39121
51.6353 7.30087
51.6849 7.28184
51.7344 7.24984
51.7841 7.22992
51.8336 7.20508
51.8833 7.18906
51.9328 7.14512
51.9826 7.09937
52.0323 7.12196
52.0818 7.04859
52.1316 6.99792
52.1812 7.017
52.231 6.96432
52.2806 6.9228
52.3304 6.88736
52.38 6.87513
52.4298 6.84855
52.4794 6.80283
52.5293 6.78727
52.5789 6.76408
52.6288 6.75045
52.6785 6.6735
52.7284 6.68613
52.7781 6.65548
52.828 6.65534
52.8777 6.59977
52.9276 6.55913
52.9774 6.53394
53.0273 6.50061
53.0771 6.47637
53.1271 6.45835
53.1769 6.41612
53.2269 6.41045
53.2767 6.37
53.3267 6.34875
53.3765 6.31616
53.4266 6.29743
53.4766 6.22984
53.5265 6.22521
53.5765 6.22717
53.6264 6.17246
53.6765 6.15941
53.7264 6.11783
53.7765 6.1261
53.8265 6.09819
53.8766 6.06868
53.9266 6.06436
53.9767 6.01845
54.0267 6.01024
54.0769 5.94231
54.1269 5.9126
54.1771 5.86518
54.2271 5.85543
54.2773 5.81362
54.3274 5.81533
54.3776 5.79877
54.4277 5.78567
54.478 5.6934
54.528 5.6808
54.5783 5.68136
54.6285 5.59759
54.6788 5.57108
54.7289 5.51925
54.7792 5.52956
54.8296 5.39873
54.8798 5.37313
54.9301 5.32837
54.9803 5.342
55.0307 5.30882
55.0809 5.22045
55.1314 5.28447
55.1816 5.17123
55.232 5.07677
55.2823 5.10059
55.3328 5.02971
55.383 5.03405
55.4335 4.922
55.4838 4.86291
55.5344 4.84047
55.5847 4.80891
55.6352 4.81685
55.6856 4.76686
55.7361 4.70501