File: XRD/Ni3Fe_FD0918.xy
TT I
1.27165 7.11637
1.31627 6.31496
1.36089 7.02784
1.40551 5.75733
1.45013 5.72825
1.49476 6.01059
1.53938 5.95118
1.584 5.94393
1.62863 5.03
1.67325 4.61749
1.71787 4.43359
1.7625 4.92244
1.80712 4.90405
1.85174 4.74591
1.89636 4.3614
1.94099 4.99383
1.98562 4.74704
2.03025 4.89795
2.07487 4.76092
2.11949 5.09944
2.16411 4.82577
2.20874 9.55629
2.25338 12.9184
2.298 5.82403
2.34263 6.12522
2.38725 6.17708
2.43188 6.41049
2.4765 7.22599
2.52115 7.36089
2.56577 8.195
2.6104 8.48386
2.65503 8.87596
2.69965 8.45649
2.7443 8.37596
2.78893 8.47112
2.83356 8.46572
2.87818 9.02949
2.92281 9.91611
2.96744 9.90551
3.01209 10.6264
3.05672 11.5087
3.10135 12.4743
3.14599 13.1354
3.19062 14.3904
3.23527 15.4818
3.2799 15.9009
3.32454 16.8638
3.36917 17.2725
3.4138 18.5904
3.45844 19.7095
3.50309 20.4426
3.54773 21.5985
3.59237 22.9734
3.637 53.1509
3.68164 38.5146
3.7263 25.5614
3.77094 26.0958
3.81558 26.5089
3.86022 26.9635
3.90486 28.2199
3.9495 29.7273
3.99416 30.3592
4.0388 31.4786
4.08344 32.8001
4.12809 34.6637
4.17273 35.9586
4.21738 39.2471
4.26204 132.586
4.30669 113.54
4.35133 44.7702
4.39598 43.7219
4.44063 48.868
4.4853 54.8031
4.52995 55.3148
4.5746 56.9327
4.61925 52.9661
4.6639 54.8567
4.70855 57.4258
4.75322 61.018
4.79788 67.0909
4.84253 67.3908
4.88719 74.2522
4.93184 75.6886
4.97652 80.1835
5.02118 86.1145
5.06583 93.37
5.11049 104.407
5.15515 154.114
5.19981 361.084
5.24449 2742.08
5.28916 13622.7
5.33382 2648.51
5.37848 186.873
5.42315 127.511
5.46783 116.363
5.5125 110.192
5.55716 100.462
5.60183 96.7686
5.6465 94.7401
5.69117 93.1859
5.73586 91.4342
5.78053 96.0553
5.8252 95.6524
5.86988 98.9069
5.91455 93.3007
5.95924 101.783
6.00392 220.461
6.0486 917.62
6.09328 4632.21
6.13795 2994.41
6.18263 194.049
6.22733 88.2358
6.27201 79.2017
6.3167 84.4262
6.36138 73.5962
6.40606 68.8894
6.45075 68.582
6.49545 64.4378
6.54014 62.5691
6.58483 62.3609
6.62952 61.9796
6.67421 74.6405
6.71892 93.9141
6.76361 61.6915
6.8083 58.319
6.853 58.7908
6.89769 55.9088
6.94239 55.6164
6.98711 54.7502
7.03181 55.0692
7.07651 54.3424
7.12121 54.1467
7.16591 55.2633
7.21063 54.5672
7.25533 61.0217
7.30004 105.352
7.34475 69.2985
7.38945 54.1334
7.43416 52.973
7.47889 52.9703
7.5236 53.4235
7.56831 54.2452
7.61303 54.8853
7.65774 55.5922
7.70247 55.8613
7.74719 55.6236
7.79191 55.6107
7.83663 55.7112
7.88135 56.8222
7.92607 57.4442
7.97081 58.9331
8.01553 59.959
8.06026 61.6237
8.10498 63.2271
8.14971 70.2635
8.19446 69.9287
8.23919 68.631
8.28392 70.7588
8.32865 72.8403
8.37339 77.6664
8.41812 82.7519
8.46288 101.771
8.50761 168.789
8.55235 364.76
8.59709 1202.15
8.64183 2263.56
8.68658 833.496
8.73134 140.313
8.77609 95.7106
8.82083 91.0686
8.86558 90.7633
8.91033 90.9307
8.9551 88.7219
8.99985 84.4519
9.04461 82.4836
9.08936 83.1473
9.13412 81.7475
9.17888 80.7454
9.22365 81.1848
9.26841 80.9355
9.31318 83.3499
9.35794 85.3348
9.4027 84.4078
9.44749 83.925
9.49226 83.7106
9.53703 84.5074
9.5818 87.9724
9.62657 93.0617
9.67134 94.2181
9.71614 91.5334
9.76091 93.2822
9.80569 97.7802
9.85047 99.6747
9.89525 111.338
9.94005 125.313
9.98484 182.27
10.0296 328.399
10.0744 821.945
10.1192 1843.03
10.164 1472.19
10.2088 322.833
10.2536 117.949
10.2984 107.554
10.3432 106.598
10.388 103.117
10.4328 118.955
10.4776 157.175
10.5224 288.407
10.5672 543.654
10.612 485.903
10.6568 180.457
10.7017 92.0168
10.7465 84.5303
10.7913 81.6913
10.8361 79.8094
10.8809 77.7593
10.9257 76.9602
10.9706 77.0477
11.0154 74.0294
11.0602 71.6093
11.105 70.3234
11.1499 71.708
11.1947 73.9055
11.2395 69.7848
11.2844 67.5045
11.3292 65.6716
11.374 65.0789
11.4189 64.3497
11.4637 63.8158
11.5086 64.0033
11.5534 64.5815
11.5983 63.2203
11.6431 62.3669
11.688 61.7671
11.7328 61.7856
11.7777 61.6924
11.8225 61.6432
11.8674 61.1677
11.9122 61.6124
11.9571 61.8967
12.002 63.2141
12.0468 67.1894
12.0917 77.0394
12.1366 101.502
12.1814 158.714
12.2263 212.56
12.2712 155.058
12.3161 85.9669
12.3609 65.9987
12.4058 62.8322
12.4507 62.8795
12.4956 63.7226
12.5405 63.7365
12.5853 64.1024
12.6302 67.3721
12.6751 70.387
12.72 67.122
12.7649 66.6493
12.8098 67.4418
12.8547 69.0711
12.8996 70.2362
12.9445 71.7817
12.9894 73.1778
13.0343 74.7724
13.0792 78.9451
13.1242 90.0178
13.1691 109.357
13.214 145.003
13.2589 244.786
13.3038 391.847
13.3487 424.538
13.3937 230.446
13.4386 114.306
13.4835 104.03
13.5285 117.732
13.5734 156.573
13.6183 258.259
13.6633 378.744
13.7082 328.012
13.7531 167.526
13.7981 91.5467
13.843 79.9026
13.888 78.3533
13.9329 75.7089
13.9779 74.4836
14.0228 72.8871
14.0678 71.8481
14.1127 71.4485
14.1577 70.645
14.2027 69.9943
14.2476 69.1038
14.2926 68.8855
14.3376 69.2186
14.3825 68.5355
14.4275 67.633
14.4725 67.5402
14.5175 67.7966
14.5624 67.9448
14.6074 68.8444
14.6524 69.2446
14.6974 69.4646
14.7424 72.1525
14.7874 78.4532
14.8324 87.1815
14.8774 109.78
14.9224 158.981
14.9674 218.352
15.0124 213.378
15.0574 137.108
15.1024 83.7381
15.1474 70.4415
15.1924 69.2432
15.2374 68.6257
15.2824 67.5726
15.3274 66.5209
15.3725 65.4726
15.4175 65.2181
15.4625 64.6976
15.5076 64.7419
15.5526 64.8033
15.5976 64.8384
15.6426 66.7216
15.6877 71.4683
15.7327 78.4826
15.7778 93.8063
15.8228 128.661
15.8679 177.69
15.9129 195.505
15.958 146.237
16.003 87.2518
16.0481 64.7293
16.0931 62.1625
16.1382 60.5423
16.1833 59.2191
16.2283 57.7269
16.2734 57.2238
16.3185 56.948
16.3636 56.9491
16.4086 55.9815
16.4537 54.9253
16.4988 54.4005
16.5439 54.3734
16.589 54.1279
16.6341 53.8426
16.6792 53.4564
16.7243 53.6495
16.7694 53.6681
16.8145 53.5884
16.8596 53.85
16.9047 54.7903
16.9498 54.7569
16.9949 54.5095
17.04 55.1532
17.0851 56.0488
17.1302 57.4145
17.1754 60.4343
17.2205 65.907
17.2656 74.2941
17.3108 82.9971
17.3559 79.9544
17.401 67.4919
17.4462 60.187
17.4913 58.2749
17.5365 57.9614
17.5815 58.296
17.6268 58.7841
17.6718 59.3388
17.7171 59.6649
17.7622 60.3108
17.8074 61.3871
17.8525 63.9566
17.8977 67.3321
17.9428 72.3743
17.9881 81.8446
18.0331 100.67
18.0784 125.712
18.1237 139.939
18.1688 125.433
18.214 96.5855
18.2591 83.6769
18.3044 90.8316
18.3495 101.974
18.3948 105.605
18.4399 91.0373
18.4852 72.8062
18.5303 63.8843
18.5756 61.0906
18.6207 60.1799
18.666 59.194
18.7112 58.381
18.7565 57.8656
18.8016 57.4602
18.8469 56.9089
18.892 56.6665
18.9374 56.2128
18.9825 56.1441
19.0278 55.9286
19.073 55.9445
19.1183 56.167
19.1635 56.9334
19.2088 58.1861
19.254 61.1617
19.2993 66.0864
19.3447 72.3243
19.3898 75.2542
19.4352 69.0773
19.4804 60.2882
19.5257 55.1473
19.5709 53.189
19.6163 52.8361
19.6615 52.7358
19.7068 52.4563
19.752 52.4397
19.7974 52.9472
19.8426 53.4691
19.888 54.2373
19.9332 55.5323
19.9786 58.0696
20.0238 62.1671
20.0692 67.4943
20.1144 69.5134
20.1598 66.2916
20.205 61.5358
20.2504 61.3343
20.2957 63.9962
20.3411 65.2766
20.3863 62.1414
20.4318 56.1159
20.477 52.0047
20.5224 50.2107
20.5677 49.7802
20.6131 49.3455
20.6586 48.9019
20.7038 48.5534
20.7493 48.1259
20.7945 48.2132
20.84 48.0011
20.8853 47.856
20.9307 47.5599
20.976 47.8322
21.0215 47.8334
21.0668 48.0546
21.1122 48.6589
21.1575 49.3014
21.203 50.4439
21.2483 50.6904
21.2938 50.4044
21.3391 49.0135
21.3846 47.8587
21.4299 47.42
21.4754 47.7433
21.5207 47.7824
21.5662 48.1728
21.6116 48.4057
21.6571 49.072
21.7024 49.9092
21.7479 51.6643
21.7933 54.8658
21.8388 58.8913
21.8843 62.8853
21.9297 64.363
21.9752 61.3365
22.0206 57.5605
22.0661 55.3345
22.1115 55.4787
22.157 54.9002
22.2024 52.9881
22.248 49.8994
22.2933 48.6225
22.3389 48.169
22.3843 47.85
22.4299 47.8215
22.4753 47.867
22.5208 47.7492
22.5662 47.7561
22.6118 47.7129
22.6572 48.069
22.7028 48.415
22.7483 48.9386
22.7939 49.591
22.8393 51.2705
22.8849 53.5723
22.9303 56.0291
22.9759 57.4179
23.0214 56.1335
23.067 52.7681
23.1126 49.6075
23.1581 48.0912
23.2037 47.8738
23.2492 48.0973
23.2948 47.9572
23.3403 48.114
23.3859 48.8386
23.4314 50.0037
23.477 52.0429
23.5225 54.642
23.5682 56.9286
23.6137 57.3393
23.6593 53.9665
23.7048 49.9094
23.7505 47.1402
23.796 45.6218
23.8417 45.0866
23.8872 44.7523
23.9329 44.2872
23.9784 43.996
24.0241 43.8129
24.0697 43.6515
24.1154 43.3966
24.1609 43.1031
24.2066 43.0485
24.2522 42.8925
24.2979 42.6658
24.3434 42.6276
24.3892 42.4405
24.4349 42.2767
24.4805 42.2681
24.5262 42.4186
24.5718 42.2151
24.6175 42.26
24.6631 42.0818
24.7089 41.7581
24.7545 41.5575
24.8002 41.4103
24.8458 41.5639
24.8916 41.3957
24.9372 41.5277
24.983 41.8579
25.0286 42.0664
25.0744 42.6195
25.12 43.2306
25.1658 43.8666
25.2114 44.017
25.2572 44.0923
25.3029 44.2773
25.3487 44.3865
25.3943 43.7144
25.4402 42.4312
25.4858 41.5395
25.5316 40.6916
25.5773 40.3171
25.6231 40.2515
25.669 39.9163
25.7147 39.7826
25.7605 39.7394
25.8062 39.8159
25.8521 39.8206
25.8977 39.7966
25.9436 40.1222
25.9893 40.419
26.0352 40.9976
26.0809 40.9822
26.1268 41.0786
26.1725 40.5903
26.2184 39.9572
26.2641 39.5061
26.31 39.3267
26.3557 39.5789
26.4017 39.47
26.4474 39.662
26.4933 40.0818
26.5391 40.6364
26.585 41.1672
26.6308 41.6318
26.6767 41.5939
26.7225 41.1619
26.7684 40.7308
26.8142 40.1731
26.8601 39.6895
26.9059 39.2409
26.9519 38.8003
26.9979 38.4343
27.0437 38.337
27.0896 38.0495
27.1354 38.1497
27.1814 37.8102
27.2272 37.8373
27.2732 37.9043
27.3191 37.6647
27.3651 37.835
27.4109 37.7369
27.4569 37.8453
27.5027 37.9279
27.5488 37.967
27.5946 37.7425
27.6407 37.5327
27.6865 37.3891
27.7326 37.1094
27.7784 37.2919
27.8245 37.1989
27.8703 37.3786
27.9164 37.704
27.9623 37.8555
28.0084 38.312
28.0543 38.6596
28.1003 38.3003
28.1462 38.1456
28.1923 37.7904
28.2384 37.2929
28.2843 36.8745
28.3304 36.437
28.3764 35.9015
28.4225 35.7594
28.4684 35.6517
28.5145 35.3849
28.5605 35.2455
28.6066 35.0926
28.6526 35.0651
28.6987 35.1238
28.7447 34.9042
28.7908 34.8316
28.8368 34.9384
28.8829 34.8806
28.9289 34.6602
28.9751 34.5155
29.0211 34.3068
29.0673 34.062
29.1133 33.9856
29.1595 33.8535
29.2055 33.729
29.2517 33.6895
29.2977 33.6693
29.3439 33.8317
29.3899 33.6953
29.4361 33.5388
29.4824 33.2967
29.5284 33.0922
29.5746 32.9174
29.6207 32.5507
29.6669 32.5093
29.713 32.4791
29.7593 32.2206
29.8053 32.4009
29.8516 32.3596
29.8977 32.2428
29.9439 32.0938
29.99 32.0345
30.0363 31.8049
30.0824 32.0067
30.1287 31.8943
30.1748 31.7998
30.2211 31.9509
30.2673 31.7531
30.3136 31.8104
30.3597 31.6914
30.406 31.6728
30.4522 31.4984
30.4985 31.4809
30.5447 31.6058
30.591 31.6316
30.6372 31.7742
30.6835 31.6301
30.7297 31.7238
30.7761 31.6041
30.8224 31.4095
30.8686 31.2334
30.915 31.0573
30.9612 30.9567
31.0076 30.7598
31.0538 30.7017
31.1002 30.6257
31.1464 30.4556
31.1928 30.4201
31.2391 30.4053
31.2855 30.2738
31.3317 30.2979
31.3781 30.458
31.4244 30.4186
31.4708 30.4458
31.5171 30.2894
31.5636 30.2539
31.6098 29.9555
31.6563 29.8453
31.7026 29.7458
31.7491 29.633
31.7953 29.6766
31.8418 29.6244
31.8881 29.7343
31.9346 29.6341
31.9809 29.6361
32.0275 29.415
32.074 29.2842
32.1203 29.0847
32.1668 29.0028
32.2132 28.8987
32.2597 28.8193
32.306 28.6704
32.3526 28.5675
32.399 28.4319
32.4455 28.2573
32.4919 28.2022
32.5385 28.1948
32.5848 27.9857
32.6314 28.0378
32.6778 27.8952
32.7244 27.8689
32.7708 27.6302
32.8174 27.7461
32.8638 27.5032
32.9104 27.5776
32.9569 27.5169
33.0035 27.3839
33.0499 27.3529
33.0966 27.3512
33.143 27.3353
33.1897 27.2585
33.2361 27.1938
33.2828 27.189
33.3293 26.988
33.3759 26.873
33.4226 26.8362
33.4691 26.6756
33.5158 26.5804
33.5623 26.4672
33.609 26.3231
33.6555 26.2533
33.7022 26.1138
33.7487 26.071
33.7954 26.0709
33.842 25.8942
33.8887 25.9015
33.9353 25.9107
33.982 25.6251
34.0286 25.6223
34.0753 25.5756
34.1219 25.4205
34.1687 25.3851
34.2152 25.3652
34.262 25.2186
34.3086 25.1416
34.3554 25.1327
34.402 24.9349
34.4488 24.8552
34.4954 24.823
34.5422 24.715
34.5889 24.5881
34.6357 24.5758
34.6825 24.5326
34.7292 24.4048
34.776 24.3161
34.8227 24.2306
34.8695 24.2768
34.9162 24.1889
34.9631 24.0258
35.0098 24.0263
35.0566 23.9609
35.1033 23.8842
35.1502 23.8546
35.1969 23.7755
35.2438 23.7294
35.2906 23.7035
35.3375 23.6751
35.3842 23.5359
35.4311 23.6389
35.4779 23.5742
35.5248 23.5214
35.5716 23.4043
35.6185 23.3286
35.6653 23.1853
35.7123 23.0744
35.759 23.1362
35.806 22.9509
35.8528 22.8552
35.8998 22.8418
35.9468 22.7324
35.9936 22.7168
36.0406 22.6161
36.0874 22.6087
36.1345 22.6095
36.1813 22.4245
36.2283 22.3652
36.2752 22.2149
36.3222 22.29
36.3691 22.2147
36.4161 22.0408
36.463 22.0828
36.5101 22.0469
36.557 22.0073
36.6041 21.8647
36.651 21.9053
36.6981 21.7946
36.745 21.7069
36.7921 21.6538
36.839 21.5012
36.8861 21.4038
36.9331 21.3946
36.9802 21.3095
37.0272 21.2278
37.0743 21.149
37.1213 21.0869
37.1684 21.0999
37.2154 21.0527
37.2626 20.8828
37.3098 20.8671
37.3568 20.7818
37.404 20.7901
37.451 20.6742
37.4982 20.6229
37.5452 20.4719
37.5924 20.4301
37.6395 20.4348
37.6867 20.3968
37.7337 20.2438
37.781 20.1591
37.8281 20.1308
37.8753 19.9917
37.9224 19.9336
37.9697 19.8519
38.0168 19.9318
38.064 19.7458
38.1111 19.7737
38.1584 19.6208
38.2056 19.5935
38.2529 19.5682
38.3 19.5193
38.3473 19.4967
38.3945 19.3197
38.4418 19.3066
38.489 19.2451
38.5363 19.1942
38.5837 19.135
38.6309 19.0428
38.6782 19.0844
38.7254 18.9382
38.7728 18.9091
38.82 18.7334
38.8674 18.817
38.9146 18.698
38.9621 18.6455
39.0093 18.6452
39.0567 18.5529
39.104 18.4584
39.1514 18.3794
39.1987 18.381
39.2461 18.3267
39.2934 18.313
39.3409 18.167
39.3882 18.1256
39.4356 18.044
39.483 17.9996
39.5304 17.9897
39.5778 17.9628
39.6253 17.8189
39.6726 17.7479
39.7201 17.7452
39.7675 17.6862
39.815 17.638
39.8624 17.4987
39.9099 17.5589
39.9575 17.4224
40.0049 17.3487
40.0525 17.3258
40.0999 17.2941
40.1474 17.2875
40.1949 17.1646
40.2425 17.1003
40.2899 17.0719
40.3375 17.0246
40.385 16.9741
40.4326 16.8603
40.48 16.823
40.5277 16.7707
40.5752 16.7552
40.6228 16.6644
40.6703 16.6851
40.718 16.613
40.7655 16.5444
40.8132 16.4092
40.8607 16.4419
40.9084 16.4444
40.9559 16.3347
41.0036 16.2956
41.0512 16.2488
41.0989 16.1242
41.1465 16.1179
41.1942 16.0925
41.242 15.9656
41.2896 15.8995
41.3373 15.9044
41.3849 15.8322
41.4327 15.819
41.4803 15.7221
41.5281 15.6899
41.5758 15.7313
41.6236 15.5714
41.6712 15.5199
41.7191 15.4751
41.7667 15.4232
41.8146 15.3971
41.8622 15.3247
41.9101 15.3098
41.9578 15.1918
42.0057 15.1729
42.0534 15.1207
42.1013 15.0986
42.149 15.0423
42.1969 14.9487
42.2446 14.8859
42.2925 14.8761
42.3403 14.8278
42.3882 14.7593
42.436 14.7924
42.4839 14.6842
42.5319 14.6679
42.5797 14.5995
42.6277 14.5918
42.6755 14.5075
42.7235 14.4455
42.7713 14.3937
42.8193 14.3702
42.8671 14.2487
42.9152 14.2681
42.963 14.1784
43.0111 14.1419
43.0589 14.0587
43.107 13.9981
43.1549 14.0299
43.2029 13.9234
43.2508 13.8984
43.2989 13.8705
43.3468 13.8091
43.3949 13.7607
43.4429 13.7352
43.491 13.6508
43.5389 13.6797
43.5871 13.5719
43.635 13.4928
43.6832 13.4931
43.7312 13.4371
43.7793 13.3461
43.8273 13.331
43.8755 13.2631
43.9237 13.2958
43.9717 13.2146
44.0199 13.1583
44.068 13.1275
44.1162 13.0242
44.1642 13.0074
44.2125 12.9712
44.2606 12.8868
44.3088 12.8422
44.3569 12.8458
44.4052 12.8195
44.4533 12.7501
44.5016 12.6914
44.5497 12.6481
44.598 12.6052
44.6461 12.5986
44.6945 12.5129
44.7426 12.4543
44.791 12.4299
44.8391 12.3843
44.8875 12.3031
44.9357 12.2901
44.984 12.2616
45.0322 12.2083
45.0806 12.1811
45.1288 12.1371
45.1773 12.0472
45.2257 12.0448
45.2739 11.9749
45.3224 11.9378
45.3706 11.9121
45.4191 11.8636
45.4673 11.8464
45.5158 11.7891
45.5641 11.7269
45.6126 11.7347
45.6609 11.6933
45.7094 11.6133
45.7577 11.5854
45.8063 11.5391
45.8546 11.5489
45.9031 11.45
45.9515 11.4235
46.0001 11.3763
46.0484 11.383
46.097 11.3176
46.1454 11.2763
46.194 11.2084
46.2424 11.1784
46.291 11.149
46.3395 11.1027
46.3881 11.0202
46.4365 11.0035
46.4852 10.9575
46.5337 10.9629
46.5823 10.8852
46.631 10.849
46.6795 10.805
46.7282 10.7821
46.7767 10.757
46.8254 10.675
46.8739 10.6257
46.9226 10.5825
46.9712 10.5779
47.0199 10.5069
47.0685 10.4837
47.1173 10.4258
47.1658 10.4035
47.2146 10.4012
47.2632 10.3558
47.312 10.281
47.3606 10.2635
47.4095 10.2342
47.4581 10.1814
47.5069 10.1262
47.5556 10.1234
47.6044 10.0491
47.6531 10.0209
47.702 10.0278
47.7507 9.94581
47.7996 9.95307
47.8483 9.90525
47.8972 9.86026
47.9461 9.79316
47.9948 9.75738
48.0438 9.7355
48.0925 9.72888
48.1415 9.64359
48.1902 9.65085
48.2392 9.63269
48.288 9.55913
48.337 9.57881
48.3858 9.49696
48.4348 9.44295
48.4837 9.44419
48.5327 9.40233
48.5815 9.37818
48.6306 9.35311
48.6795 9.30296
48.7285 9.25204
48.7774 9.22252
48.8265 9.20948
48.8754 9.14259
48.9245 9.1344
48.9734 9.06409
49.0226 9.07098
49.0715 9.02515
49.1206 9.00702
49.1696 8.95696
49.2188 8.91098
49.2679 8.91092
49.3169 8.83894
49.3661 8.79905
49.4151 8.77946
49.4643 8.7423
49.5134 8.72444
49.5626 8.65577
49.6117 8.65147
49.6609 8.5845
49.71 8.53642
49.7592 8.53268
49.8083 8.49914
49.8576 8.49082
49.9067 8.43327
49.956 8.42985
50.0052 8.3433
50.0545 8.36219
50.1036 8.32597
50.153 8.30415
50.2022 8.27964
50.2515 8.22727
50.3007 8.18192
50.3501 8.15093
50.3993 8.09064
50.4487 8.10044
50.498 8.05316
50.5474 8.04403
50.5966 8.00524
50.6461 7.96794
50.6955 7.94938
50.7448 7.9083
50.7943 7.88746
50.8436 7.83845
50.8931 7.80523
50.9424 7.79271
50.9919 7.78781
51.0413 7.77834
51.0908 7.69902
51.1402 7.71647
51.1897 7.63609
51.2391 7.63612
51.2887 7.57729
51.3381 7.55017
51.3877 7.48181
51.4371 7.4755
51.4867 7.4106
51.5362 7.42972
51.5858 7.36476
51.6353 7.33844
51.6849 7.33675
51.7344 7.32595
51.7841 7.29848
51.8336 7.23836
51.8833 7.18549
51.9328 7.17591
51.9826 7.15498
52.0323 7.06958
52.0818 7.12232
52.1316 7.02842
52.1812 7.01441
52.231 7.04065
52.2806 6.99613
52.3304 6.97167
52.38 6.92422
52.4298 6.88622
52.4794 6.84105
52.5293 6.82145
52.5789 6.7879
52.6288 6.78937
52.6785 6.75228
52.7284 6.74064
52.7781 6.677
52.828 6.67968
52.8777 6.63231
52.9276 6.61138
52.9774 6.62953
53.0273 6.58423
53.0771 6.4995
53.1271 6.51154
53.1769 6.45739
53.2269 6.44172
53.2767 6.37893
53.3267 6.39074
53.3765 6.36056
53.4266 6.31805
53.4766 6.3324
53.5265 6.27695
53.5765 6.29555
53.6264 6.21192
53.6765 6.19292
53.7264 6.1546
53.7765 6.13959
53.8265 6.11546
53.8766 6.07649
53.9266 6.06442
53.9767 6.00639
54.0267 6.01347
54.0769 5.96904
54.1269 5.95994
54.1771 5.92248
54.2271 5.90353
54.2773 5.8665
54.3274 5.83833
54.3776 5.80224
54.4277 5.77187
54.478 5.75087
54.528 5.70081
54.5783 5.71401
54.6285 5.65637
54.6788 5.55072
54.7289 5.53402
54.7792 5.49036
54.8296 5.41418
54.8798 5.45013
54.9301 5.38083
54.9803 5.35006
55.0307 5.35489
55.0809 5.28167
55.1314 5.18833
55.1816 5.19416
55.232 5.16358
55.2823 5.11416
55.3328 4.998
55.383 5.00098
55.4335 4.96474
55.4838 4.93208
55.5344 4.83278
55.5847 4.80851
55.6352 4.85621
55.6856 4.74121
55.7361 4.70081