File: XRD/Ni3Fe_FD0861.xy
TT I
1.27165 7.00287
1.31627 6.47952
1.36089 6.69933
1.40551 5.59971
1.45013 5.52765
1.49476 6.55164
1.53938 5.75334
1.584 5.05104
1.62863 5.39297
1.67325 4.91794
1.71787 4.72458
1.7625 4.74832
1.80712 5.05677
1.85174 4.38559
1.89636 4.70218
1.94099 5.1432
1.98562 4.67624
2.03025 5.06558
2.07487 4.76843
2.11949 4.90873
2.16411 4.99334
2.20874 14.4584
2.25338 23.8418
2.298 6.38284
2.34263 5.98797
2.38725 6.24363
2.43188 6.37846
2.4765 7.61056
2.52115 7.75044
2.56577 7.74428
2.6104 8.19173
2.65503 8.07174
2.69965 8.4048
2.7443 8.23744
2.78893 8.721
2.83356 8.52318
2.87818 8.51804
2.92281 9.00809
2.96744 9.74155
3.01209 10.2353
3.05672 11.4274
3.10135 11.9763
3.14599 13.4239
3.19062 14.3365
3.23527 15.0961
3.2799 15.7486
3.32454 16.8784
3.36917 17.721
3.4138 19.2189
3.45844 19.1166
3.50309 20.3112
3.54773 21.7008
3.59237 24.2364
3.637 95.0433
3.68164 60.4476
3.7263 26.1861
3.77094 26.1314
3.81558 26.6822
3.86022 27.7309
3.90486 29.0318
3.9495 29.647
3.99416 30.7121
4.0388 32.2671
4.08344 33.6819
4.12809 34.677
4.17273 36.8955
4.21738 42.9051
4.26204 253.693
4.30669 225.515
4.35133 48.9235
4.39598 44.0864
4.44063 53.4665
4.4853 66.0005
4.52995 49.8689
4.5746 50.8524
4.61925 52.7787
4.6639 54.7994
4.70855 57.2237
4.75322 60.1147
4.79788 62.9486
4.84253 66.5396
4.88719 70.3184
4.93184 73.8251
4.97652 79.2335
5.02118 85.0291
5.06583 91.8162
5.11049 101.933
5.15515 167.608
5.19981 294.868
5.24449 2458.38
5.28916 12412.5
5.33382 2738.27
5.37848 177.189
5.42315 124.865
5.46783 111.098
5.5125 103.745
5.55716 100.268
5.60183 96.7171
5.6465 95.5957
5.69117 91.975
5.73586 90.476
5.78053 90.0562
5.8252 88.9456
5.86988 89.4022
5.91455 91.1223
5.95924 97.3686
6.00392 174.119
6.0486 839.957
6.09328 4432.82
6.13795 3299.32
6.18263 224.188
6.22733 90.8493
6.27201 81.4082
6.3167 102.166
6.36138 80.083
6.40606 68.1657
6.45075 66.6613
6.49545 64.3485
6.54014 63.3611
6.58483 62.4312
6.62952 61.9548
6.67421 93.342
6.71892 144.802
6.76361 68.8268
6.8083 58.0908
6.853 56.4537
6.89769 56.31
6.94239 56.0847
6.98711 55.2726
7.03181 54.9204
7.07651 54.8983
7.12121 54.5288
7.16591 54.8455
7.21063 54.9973
7.25533 71.4251
7.30004 180.96
7.34475 92.5186
7.38945 56.28
7.43416 54.39
7.47889 53.4734
7.5236 53.9153
7.56831 54.9083
7.61303 56.2759
7.65774 56.8559
7.70247 55.3435
7.74719 55.3862
7.79191 55.7627
7.83663 56.5012
7.88135 57.504
7.92607 57.5918
7.97081 58.931
8.01553 59.929
8.06026 61.6959
8.10498 62.9026
8.14971 72.8172
8.19446 71.4368
8.23919 68.4275
8.28392 70.9896
8.32865 72.9549
8.37339 76.7638
8.41812 83.8226
8.46288 111.838
8.50761 145.652
8.55235 339.913
8.59709 1131.53
8.64183 2233.13
8.68658 945.128
8.73134 165.757
8.77609 97.2021
8.82083 91.2261
8.86558 88.5193
8.91033 88.6008
8.9551 90.724
8.99985 83.9009
9.04461 82.2931
9.08936 81.9574
9.13412 80.7966
9.17888 80.9885
9.22365 81.5844
9.26841 81.152
9.31318 81.1693
9.35794 81.1642
9.4027 82.0409
9.44749 82.656
9.49226 83.1137
9.53703 84.0899
9.5818 86.0948
9.62657 90.6102
9.67134 97.4514
9.71614 92.4242
9.76091 92.5157
9.80569 94.975
9.85047 98.2199
9.89525 122.405
9.94005 133.35
9.98484 158.246
10.0296 302.332
10.0744 770.456
10.1192 1796.14
10.164 1579.85
10.2088 398.052
10.2536 124.12
10.2984 111.732
10.3432 113.04
10.388 102.722
10.4328 112.243
10.4776 148.305
10.5224 269.88
10.5672 520.171
10.612 500.897
10.6568 202.155
10.7017 95.7289
10.7465 85.3
10.7913 81.6437
10.8361 80.0234
10.8809 77.8437
10.9257 77.4685
10.9706 78.1458
11.0154 73.9801
11.0602 71.9513
11.105 71.0188
11.1499 75.5123
11.1947 82.997
11.2395 73.9771
11.2844 69.6372
11.3292 66.4284
11.374 65.267
11.4189 64.6532
11.4637 64.0801
11.5086 64.7475
11.5534 67.7683
11.5983 65.0582
11.6431 62.8345
11.688 62.1205
11.7328 61.8378
11.7777 62.0277
11.8225 61.8684
11.8674 61.6174
11.9122 61.9717
11.9571 61.8582
12.002 62.406
12.0468 65.4486
12.0917 75.5657
12.1366 99.1184
12.1814 152.701
12.2263 208.655
12.2712 169.072
12.3161 95.8737
12.3609 69.9474
12.4058 63.6992
12.4507 63.2424
12.4956 63.5853
12.5405 63.8282
12.5853 64.6605
12.6302 72.2955
12.6751 78.2262
12.72 69.2556
12.7649 66.7203
12.8098 67.3342
12.8547 68.7127
12.8996 69.9832
12.9445 70.8091
12.9894 72.8007
13.0343 74.3046
13.0792 77.3538
13.1242 84.5648
13.1691 105.21
13.214 139.68
13.2589 231.563
13.3038 374.285
13.3487 423.342
13.3937 258.855
13.4386 121.791
13.4835 100.913
13.5285 113.742
13.5734 151.075
13.6183 245.185
13.6633 358.606
13.7082 339.543
13.7531 182.959
13.7981 96.1765
13.843 80.476
13.888 78.3794
13.9329 75.8485
13.9779 74.8057
14.0228 73.2128
14.0678 71.9716
14.1127 71.6087
14.1577 71.4199
14.2027 70.5819
14.2476 69.5052
14.2926 69.5792
14.3376 70.8792
14.3825 69.3234
14.4275 68.1625
14.4725 67.6924
14.5175 67.6276
14.5624 67.8836
14.6074 70.3375
14.6524 70.8158
14.6974 69.3078
14.7424 70.1461
14.7874 75.521
14.8324 84.6062
14.8774 106.041
14.9224 151.779
14.9674 210.399
15.0124 217.509
15.0574 147.226
15.1024 89.8309
15.1474 71.3267
15.1924 69.147
15.2374 70.1472
15.2824 69.4864
15.3274 67.1988
15.3725 65.8112
15.4175 65.3805
15.4625 65.0783
15.5076 65.1049
15.5526 65.1857
15.5976 64.6549
15.6426 65.3999
15.6877 69.65
15.7327 76.4555
15.7778 90.7327
15.8228 123.359
15.8679 170.91
15.9129 195.621
15.958 154.35
16.003 93.3813
16.0481 67.109
16.0931 63.9518
16.1382 61.7122
16.1833 59.8213
16.2283 58.1478
16.2734 57.6857
16.3185 57.7478
16.3636 58.6847
16.4086 57.0475
16.4537 55.6296
16.4988 54.6985
16.5439 54.7574
16.589 54.4728
16.6341 54.0494
16.6792 53.6589
16.7243 54.0673
16.7694 54.085
16.8145 54.1334
16.8596 54.5584
16.9047 55.9965
16.9498 56.3908
16.9949 55.0279
17.04 54.8949
17.0851 55.9032
17.1302 57.3478
17.1754 60.5327
17.2205 65.3748
17.2656 73.6893
17.3108 84.1781
17.3559 82.4466
17.401 70.6986
17.4462 61.0139
17.4913 58.4185
17.5365 58.182
17.5815 58.3535
17.6268 58.5447
17.6718 59.4333
17.7171 59.807
17.7622 60.3075
17.8074 60.8354
17.8525 62.247
17.8977 66.2038
17.9428 71.5265
17.9881 79.9138
18.0331 97.8132
18.0784 121.06
18.1237 138.129
18.1688 127.06
18.214 100.506
18.2591 84.3048
18.3044 89.4111
18.3495 100.507
18.3948 104.626
18.4399 93.6651
18.4852 76.3842
18.5303 65.1946
18.5756 61.2199
18.6207 60.417
18.666 59.6481
18.7112 58.7602
18.7565 58.0143
18.8016 57.7867
18.8469 57.1425
18.892 56.8895
18.9374 56.4784
18.9825 56.1848
19.0278 56.1002
19.073 56.0658
19.1183 56.4013
19.1635 57.0831
19.2088 58.3904
19.254 61.0605
19.2993 65.6695
19.3447 72.4895
19.3898 76.2322
19.4352 71.1484
19.4804 62.3107
19.5257 55.9397
19.5709 53.4098
19.6163 53.0345
19.6615 53.0309
19.7068 52.552
19.752 52.4912
19.7974 52.8483
19.8426 53.5229
19.888 54.1151
19.9332 54.9275
19.9786 57.4966
20.0238 61.5882
20.0692 66.6192
20.1144 69.1235
20.1598 67.0097
20.205 62.4674
20.2504 61.5622
20.2957 63.6045
20.3411 65.1074
20.3863 63.6039
20.4318 57.6837
20.477 53.076
20.5224 50.8071
20.5677 50.4995
20.6131 49.6173
20.6586 49.0977
20.7038 48.9387
20.7493 48.4247
20.7945 48.356
20.84 48.1909
20.8853 48.0845
20.9307 47.925
20.976 48.0663
21.0215 47.929
21.0668 48.2908
21.1122 48.7049
21.1575 49.396
21.203 50.1992
21.2483 50.784
21.2938 50.8642
21.3391 49.5356
21.3846 48.4322
21.4299 47.8113
21.4754 47.7001
21.5207 47.8387
21.5662 47.9782
21.6116 48.2613
21.6571 48.9752
21.7024 49.6626
21.7479 51.6778
21.7933 54.3696
21.8388 58.2652
21.8843 62.1342
21.9297 63.8807
21.9752 62.1506
22.0206 58.5109
22.0661 55.8849
22.1115 55.3523
22.157 55.2351
22.2024 53.4778
22.248 50.7032
22.2933 49.2961
22.3389 48.4142
22.3843 48.273
22.4299 48.3306
22.4753 48.2127
22.5208 47.9068
22.5662 47.8538
22.6118 47.8913
22.6572 48.0854
22.7028 48.3584
22.7483 48.9161
22.7939 49.5085
22.8393 50.9627
22.8849 53.3565
22.9303 55.695
22.9759 57.2807
23.0214 56.6766
23.067 53.6839
23.1126 50.5762
23.1581 48.599
23.2037 48.0883
23.2492 48.0852
23.2948 48.1674
23.3403 48.2977
23.3859 48.8833
23.4314 50.0168
23.477 51.9658
23.5225 54.3142
23.5682 56.4281
23.6137 57.2235
23.6593 54.9546
23.7048 50.8511
23.7505 47.6902
23.796 45.9951
23.8417 45.439
23.8872 45.029
23.9329 44.5884
23.9784 44.2112
24.0241 44.0526
24.0697 43.9454
24.1154 43.6249
24.1609 43.4419
24.2066 43.3098
24.2522 43.1911
24.2979 42.8706
24.3434 42.7227
24.3892 42.5654
24.4349 42.5182
24.4805 42.4289
24.5262 42.5474
24.5718 42.4792
24.6175 42.4203
24.6631 42.3524
24.7089 41.9367
24.7545 41.9252
24.8002 41.6154
24.8458 41.6838
24.8916 41.5669
24.9372 41.4046
24.983 41.8924
25.0286 42.0429
25.0744 42.7124
25.12 43.2787
25.1658 43.7206
25.2114 44.031
25.2572 44.1691
25.3029 44.3627
25.3487 44.3988
25.3943 44.0365
25.4402 42.944
25.4858 41.7849
25.5316 40.9626
25.5773 40.4291
25.6231 40.4061
25.669 39.9819
25.7147 39.9009
25.7605 39.8619
25.8062 39.9903
25.8521 40.0571
25.8977 39.9838
25.9436 40.2713
25.9893 40.3514
26.0352 40.9753
26.0809 40.9303
26.1268 41.229
26.1725 40.8321
26.2184 40.1196
26.2641 39.6569
26.31 39.6716
26.3557 39.6241
26.4017 39.5459
26.4474 39.938
26.4933 40.1555
26.5391 40.7549
26.585 41.2315
26.6308 41.5065
26.6767 41.5106
26.7225 41.4314
26.7684 40.8867
26.8142 40.1844
26.8601 39.9577
26.9059 39.5341
26.9519 38.9836
26.9979 38.6625
27.0437 38.4565
27.0896 38.2762
27.1354 38.1553
27.1814 37.9868
27.2272 37.9648
27.2732 37.9822
27.3191 37.9183
27.3651 38.1173
27.4109 37.9633
27.4569 38.1615
27.5027 38.0092
27.5488 38.1294
27.5946 37.864
27.6407 37.7446
27.6865 37.6797
27.7326 37.3981
27.7784 37.3125
27.8245 37.3477
27.8703 37.4803
27.9164 37.7469
27.9623 37.932
28.0084 38.3042
28.0543 38.5643
28.1003 38.5551
28.1462 38.2223
28.1923 38.0662
28.2384 37.4913
28.2843 37.2175
28.3304 36.7143
28.3764 36.3447
28.4225 35.9865
28.4684 35.804
28.5145 35.5366
28.5605 35.3803
28.6066 35.273
28.6526 35.2207
28.6987 35.0513
28.7447 35.0372
28.7908 34.9832
28.8368 35.0637
28.8829 35.0268
28.9289 34.9576
28.9751 34.7122
29.0211 34.478
29.0673 34.0921
29.1133 34.0416
29.1595 33.8875
29.2055 33.8501
29.2517 33.9319
29.2977 33.9081
29.3439 33.8356
29.3899 33.8314
29.4361 33.707
29.4824 33.4813
29.5284 33.3375
29.5746 33.0711
29.6207 32.7579
29.6669 32.678
29.713 32.5234
29.7593 32.4677
29.8053 32.4561
29.8516 32.2424
29.8977 32.2756
29.9439 32.1078
29.99 32.1891
30.0363 32.0332
30.0824 32.0167
30.1287 31.9506
30.1748 31.923
30.2211 32.0173
30.2673 31.8957
30.3136 31.9018
30.3597 31.8316
30.406 31.7494
30.4522 31.7677
30.4985 31.5971
30.5447 31.7126
30.591 31.6845
30.6372 31.8133
30.6835 31.8807
30.7297 31.7558
30.7761 31.8144
30.8224 31.5464
30.8686 31.3926
30.915 31.0768
30.9612 31.0382
31.0076 30.9066
31.0538 30.7542
31.1002 30.7249
31.1464 30.5587
31.1928 30.5656
31.2391 30.4761
31.2855 30.4297
31.3317 30.442
31.3781 30.5428
31.4244 30.4544
31.4708 30.4477
31.5171 30.342
31.5636 30.3634
31.6098 30.0939
31.6563 30.0491
31.7026 29.8321
31.7491 29.6782
31.7953 29.8189
31.8418 29.795
31.8881 29.6496
31.9346 29.7298
31.9809 29.7299
32.0275 29.5728
32.074 29.3636
32.1203 29.2476
32.1668 29.1613
32.2132 28.9881
32.2597 28.8564
32.306 28.7473
32.3526 28.5269
32.399 28.5432
32.4455 28.3613
32.4919 28.3917
32.5385 28.2439
32.5848 28.194
32.6314 28.1408
32.6778 28.0519
32.7244 27.8803
32.7708 27.7579
32.8174 27.7839
32.8638 27.6492
32.9104 27.6809
32.9569 27.7559
33.0035 27.4873
33.0499 27.5734
33.0966 27.364
33.143 27.4537
33.1897 27.3426
33.2361 27.2248
33.2828 27.2672
33.3293 27.1151
33.3759 27.1205
33.4226 26.8653
33.4691 26.749
33.5158 26.7733
33.5623 26.6374
33.609 26.5037
33.6555 26.3259
33.7022 26.2679
33.7487 26.1579
33.7954 26.1472
33.842 26.0308
33.8887 26.0689
33.9353 25.8735
33.982 25.7774
34.0286 25.7254
34.0753 25.7284
34.1219 25.6197
34.1687 25.471
34.2152 25.5079
34.262 25.3414
34.3086 25.2555
34.3554 25.2079
34.402 25.0759
34.4488 24.9181
34.4954 24.8556
34.5422 24.8302
34.5889 24.7467
34.6357 24.6603
34.6825 24.6567
34.7292 24.4918
34.776 24.4311
34.8227 24.2919
34.8695 24.3484
34.9162 24.2697
34.9631 24.1854
35.0098 24.1889
35.0566 24.0409
35.1033 24.023
35.1502 23.9647
35.1969 23.9264
35.2438 23.7952
35.2906 23.7783
35.3375 23.6604
35.3842 23.7189
35.4311 23.654
35.4779 23.5963
35.5248 23.6263
35.5716 23.4643
35.6185 23.4266
35.6653 23.2898
35.7123 23.2954
35.759 23.1483
35.806 23.1326
35.8528 22.9694
35.8998 23.0107
35.9468 22.8128
35.9936 22.7722
36.0406 22.7724
36.0874 22.6796
36.1345 22.5708
36.1813 22.4965
36.2283 22.4132
36.2752 22.2715
36.3222 22.3567
36.3691 22.2359
36.4161 22.1475
36.463 22.1476
36.5101 22.1391
36.557 22.0744
36.6041 21.9082
36.651 21.873
36.6981 21.815
36.745 21.7173
36.7921 21.6536
36.839 21.5493
36.8861 21.5542
36.9331 21.4222
36.9802 21.4465
37.0272 21.3113
37.0743 21.1486
37.1213 21.2299
37.1684 21.186
37.2154 21.0769
37.2626 20.9872
37.3098 20.9942
37.3568 20.8748
37.404 20.8581
37.451 20.6679
37.4982 20.6935
37.5452 20.5554
37.5924 20.4886
37.6395 20.549
37.6867 20.4443
37.7337 20.3749
37.781 20.2516
37.8281 20.2645
37.8753 20.1428
37.9224 20.0486
37.9697 20.0732
38.0168 19.9487
38.064 19.8821
38.1111 19.8848
38.1584 19.7773
38.2056 19.7003
38.2529 19.6465
38.3 19.6265
38.3473 19.5439
38.3945 19.4646
38.4418 19.3915
38.489 19.3276
38.5363 19.3162
38.5837 19.2615
38.6309 19.2081
38.6782 19.0796
38.7254 19.0743
38.7728 18.9375
38.82 18.8716
38.8674 18.84
38.9146 18.8125
38.9621 18.7321
39.0093 18.6269
39.0567 18.6773
39.104 18.6078
39.1514 18.5083
39.1987 18.4662
39.2461 18.4347
39.2934 18.3809
39.3409 18.2405
39.3882 18.2049
39.4356 18.1339
39.483 18.15
39.5304 18.0543
39.5778 18.0348
39.6253 17.9745
39.6726 17.8653
39.7201 17.8113
39.7675 17.8148
39.815 17.6705
39.8624 17.6812
39.9099 17.5924
39.9575 17.5041
40.0049 17.4432
40.0525 17.4409
40.0999 17.3965
40.1474 17.2991
40.1949 17.203
40.2425 17.2386
40.2899 17.1486
40.3375 17.0959
40.385 17.0349
40.4326 16.985
40.48 16.9316
40.5277 16.9143
40.5752 16.826
40.6228 16.7695
40.6703 16.7204
40.718 16.701
40.7655 16.677
40.8132 16.5277
40.8607 16.5446
40.9084 16.5051
40.9559 16.439
41.0036 16.3925
41.0512 16.2865
41.0989 16.2526
41.1465 16.1966
41.1942 16.1554
41.242 16.0867
41.2896 16.0298
41.3373 15.9378
41.3849 15.9241
41.4327 15.8836
41.4803 15.8048
41.5281 15.8135
41.5758 15.7191
41.6236 15.6404
41.6712 15.6167
41.7191 15.501
41.7667 15.4831
41.8146 15.4214
41.8622 15.4164
41.9101 15.3963
41.9578 15.2351
42.0057 15.299
42.0534 15.1565
42.1013 15.1649
42.149 15.0994
42.1969 15.0488
42.2446 14.9909
42.2925 14.9766
42.3403 14.8629
42.3882 14.8612
42.436 14.8597
42.4839 14.7629
42.5319 14.6766
42.5797 14.645
42.6277 14.659
42.6755 14.5681
42.7235 14.4789
42.7713 14.4789
42.8193 14.3868
42.8671 14.3462
42.9152 14.2921
42.963 14.2599
43.0111 14.1937
43.0589 14.1197
43.107 14.0859
43.1549 14.0978
43.2029 13.9771
43.2508 13.9659
43.2989 13.9396
43.3468 13.8806
43.3949 13.8494
43.4429 13.784
43.491 13.7216
43.5389 13.6632
43.5871 13.6625
43.635 13.5535
43.6832 13.5791
43.7312 13.5244
43.7793 13.3947
43.8273 13.4106
43.8755 13.3002
43.9237 13.3095
43.9717 13.2901
44.0199 13.2051
44.068 13.2392
44.1162 13.1258
44.1642 13.0612
44.2125 13.0331
44.2606 12.9529
44.3088 12.9369
44.3569 12.911
44.4052 12.8858
44.4533 12.8004
44.5016 12.7295
44.5497 12.6948
44.598 12.6783
44.6461 12.6139
44.6945 12.5662
44.7426 12.5443
44.791 12.5051
44.8391 12.488
44.8875 12.4128
44.9357 12.3699
44.984 12.3156
45.0322 12.2557
45.0806 12.2333
45.1288 12.1916
45.1773 12.1479
45.2257 12.1371
45.2739 12.0739
45.3224 12.0127
45.3706 12.0064
45.4191 11.9288
45.4673 11.8983
45.5158 11.8849
45.5641 11.8099
45.6126 11.8051
45.6609 11.6984
45.7094 11.6683
45.7577 11.6322
45.8063 11.541
45.8546 11.5717
45.9031 11.524
45.9515 11.449
46.0001 11.4294
46.0484 11.4094
46.097 11.3658
46.1454 11.3397
46.194 11.2858
46.2424 11.2601
46.291 11.1919
46.3395 11.1143
46.3881 11.0984
46.4365 11.0735
46.4852 11.0184
46.5337 11.0291
46.5823 10.9801
46.631 10.905
46.6795 10.8745
46.7282 10.8426
46.7767 10.7925
46.8254 10.7483
46.8739 10.705
46.9226 10.674
46.9712 10.6322
47.0199 10.6039
47.0685 10.5446
47.1173 10.4935
47.1658 10.455
47.2146 10.4699
47.2632 10.3565
47.312 10.3589
47.3606 10.3152
47.4095 10.2879
47.4581 10.2468
47.5069 10.2392
47.5556 10.1446
47.6044 10.1003
47.6531 10.0795
47.702 10.0189
47.7507 10.0234
47.7996 9.96831
47.8483 9.96245
47.8972 9.89201
47.9461 9.86222
47.9948 9.82856
48.0438 9.77142
48.0925 9.77847
48.1415 9.73191
48.1902 9.68616
48.2392 9.67945
48.288 9.62317
48.337 9.58403
48.3858 9.58283
48.4348 9.52672
48.4837 9.54671
48.5327 9.45776
48.5815 9.42842
48.6306 9.37659
48.6795 9.35846
48.7285 9.31078
48.7774 9.27681
48.8265 9.27741
48.8754 9.20724
48.9245 9.17166
48.9734 9.13139
49.0226 9.14454
49.0715 9.05665
49.1206 9.03689
49.1696 9.0252
49.2188 8.99238
49.2679 8.92992
49.3169 8.88232
49.3661 8.82106
49.4151 8.81135
49.4643 8.79507
49.5134 8.77187
49.5626 8.71399
49.6117 8.67973
49.6609 8.68111
49.71 8.59524
49.7592 8.61096
49.8083 8.51492
49.8576 8.5263
49.9067 8.48431
49.956 8.48262
50.0052 8.43452
50.0545 8.40387
50.1036 8.33512
50.153 8.32149
50.2022 8.27674
50.2515 8.27159
50.3007 8.21667
50.3501 8.24072
50.3993 8.16513
50.4487 8.12113
50.498 8.12706
50.5474 8.09333
50.5966 8.02424
50.6461 8.01074
50.6955 7.97452
50.7448 7.98503
50.7943 7.93914
50.8436 7.93236
50.8931 7.87944
50.9424 7.84276
50.9919 7.81339
51.0413 7.80824
51.0908 7.74535
51.1402 7.73261
51.1897 7.72397
51.2391 7.63631
51.2887 7.64155
51.3381 7.54545
51.3877 7.55015
51.4371 7.51793
51.4867 7.45694
51.5362 7.45545
51.5858 7.44702
51.6353 7.38365
51.6849 7.36181
51.7344 7.31424
51.7841 7.34555
51.8336 7.26062
51.8833 7.21734
51.9328 7.25702
51.9826 7.17238
52.0323 7.18241
52.0818 7.11386
52.1316 7.10297
52.1812 7.09406
52.231 7.04966
52.2806 7.01749
52.3304 6.98872
52.38 6.94451
52.4298 6.92872
52.4794 6.89181
52.5293 6.88473
52.5789 6.83996
52.6288 6.81432
52.6785 6.79866
52.7284 6.75888
52.7781 6.72372
52.828 6.71592
52.8777 6.65298
52.9276 6.62328
52.9774 6.62483
53.0273 6.57988
53.0771 6.58966
53.1271 6.56067
53.1769 6.46271
53.2269 6.47487
53.2767 6.45446
53.3267 6.45308
53.3765 6.38974
53.4266 6.36931
53.4766 6.32351
53.5265 6.29337
53.5765 6.34434
53.6264 6.21783
53.6765 6.2278
53.7264 6.18562
53.7765 6.18887
53.8265 6.16947
53.8766 6.11561
53.9266 6.07673
53.9767 6.01418
54.0267 6.07778
54.0769 6.02759
54.1269 5.99448
54.1771 5.97818
54.2271 5.92188
54.2773 5.88846
54.3274 5.83054
54.3776 5.76369
54.4277 5.80499
54.478 5.78813
54.528 5.71769
54.5783 5.67386
54.6285 5.65659
54.6788 5.61689
54.7289 5.60146
54.7792 5.52454
54.8296 5.4933
54.8798 5.46184
54.9301 5.38423
54.9803 5.3783
55.0307 5.34669
55.0809 5.30013
55.1314 5.27808
55.1816 5.25056
55.232 5.18806
55.2823 5.12591
55.3328 5.10355
55.383 5.0001
55.4335 5.02377
55.4838 4.97998
55.5344 4.94692
55.5847 4.90489
55.6352 4.86569
55.6856 4.81909
55.7361 4.77697