File: XRD/Ni3Fe_FD0029.xy
TT I
1.27165 32.8805
1.31627 31.95
1.36089 31.1707
1.40551 29.4436
1.45013 28.8139
1.49476 27.1195
1.53938 26.7196
1.584 25.8267
1.62863 25.0413
1.67325 23.8231
1.71787 23.5702
1.7625 23.2979
1.80712 23.1544
1.85174 22.9337
1.89636 22.5369
1.94099 23.2336
1.98562 22.7674
2.03025 22.9171
2.07487 22.9683
2.11949 24.1123
2.16411 24.6131
2.20874 25.9997
2.25338 26.436
2.298 25.8549
2.34263 25.2134
2.38725 24.8542
2.43188 23.831
2.4765 24.2069
2.52115 24.1564
2.56577 24.0586
2.6104 25.012
2.65503 25.807
2.69965 27.9091
2.7443 29.1909
2.78893 32.0726
2.83356 34.1279
2.87818 37.7445
2.92281 42.1004
2.96744 47.3107
3.01209 55.8599
3.05672 63.9345
3.10135 75.249
3.14599 80.401
3.19062 80.8862
3.23527 74.1507
3.2799 63.1635
3.32454 52.8461
3.36917 44.8587
3.4138 39.8548
3.45844 37.2379
3.50309 36.3261
3.54773 36.297
3.59237 38.2146
3.637 41.4881
3.68164 42.2255
3.7263 41.2053
3.77094 38.1115
3.81558 36.165
3.86022 34.7204
3.90486 35.552
3.9495 35.2757
3.99416 36.7323
4.0388 39.3876
4.08344 42.6898
4.12809 47.3422
4.17273 56.5297
4.21738 70.2659
4.26204 84.4648
4.30669 92.2365
4.35133 86.3205
4.39598 74.1073
4.44063 64.4718
4.4853 59.7115
4.52995 54.4628
4.5746 49.8913
4.61925 46.9091
4.6639 45.4098
4.70855 45.8199
4.75322 47.0288
4.79788 49.1548
4.84253 52.3381
4.88719 56.4517
4.93184 62.4734
4.97652 71.8291
5.02118 87.8491
5.06583 112.167
5.11049 139.209
5.15515 186.515
5.19981 288.876
5.24449 590.54
5.28916 1239.45
5.33382 3337.1
5.37848 3599.0
5.42315 1070.58
5.46783 351.821
5.5125 208.412
5.55716 154.274
5.60183 125.231
5.6465 112.308
5.69117 106.27
5.73586 100.391
5.78053 96.9591
5.8252 97.1435
5.86988 102.017
5.91455 113.001
5.95924 131.831
6.00392 176.698
6.0486 282.146
6.09328 479.069
6.13795 860.232
6.18263 1296.73
6.22733 715.087
6.27201 293.706
6.3167 159.597
6.36138 107.145
6.40606 82.9207
6.45075 71.8298
6.49545 63.2897
6.54014 58.3477
6.58483 56.2101
6.62952 56.0428
6.67421 57.1595
6.71892 58.9836
6.76361 58.6028
6.8083 55.6428
6.853 51.3975
6.89769 48.251
6.94239 45.9419
6.98711 43.9672
7.03181 43.3392
7.07651 43.8984
7.12121 44.8615
7.16591 47.3738
7.21063 51.8438
7.25533 58.779
7.30004 71.211
7.34475 77.2739
7.38945 70.45
7.43416 59.3901
7.47889 52.4521
7.5236 54.9019
7.56831 98.8698
7.61303 147.76
7.65774 71.0226
7.70247 44.5895
7.74719 40.1037
7.79191 38.1905
7.83663 37.8509
7.88135 37.4157
7.92607 37.5509
7.97081 38.0207
8.01553 38.6382
8.06026 39.3484
8.10498 40.3637
8.14971 41.8663
8.19446 43.642
8.23919 45.3124
8.28392 47.0681
8.32865 48.7842
8.37339 53.2416
8.41812 57.9521
8.46288 66.8035
8.50761 80.6653
8.55235 109.484
8.59709 166.985
8.64183 226.986
8.68658 416.351
8.73134 775.686
8.77609 600.809
8.82083 252.168
8.86558 128.539
8.91033 92.8023
8.9551 77.4092
8.99985 70.2511
9.04461 64.6238
9.08936 61.5811
9.13412 59.7134
9.17888 60.725
9.22365 68.7893
9.26841 131.473
9.31318 249.641
9.35794 139.726
9.4027 68.4082
9.44749 57.001
9.49226 54.0102
9.53703 52.5532
9.5818 52.6659
9.62657 53.2063
9.67134 54.3219
9.71614 55.6626
9.76091 57.3156
9.80569 59.2929
9.85047 62.0102
9.89525 66.4066
9.94005 73.1531
9.98484 83.8662
10.0296 104.444
10.0744 146.92
10.1192 188.207
10.164 261.116
10.2088 535.899
10.2536 816.741
10.2984 505.486
10.3432 223.354
10.388 124.71
10.4328 93.7829
10.4776 84.2369
10.5224 86.9157
10.5672 92.5843
10.612 104.818
10.6568 166.245
10.7017 278.149
10.7465 249.441
10.7913 131.584
10.8361 71.0196
10.8809 55.2348
10.9257 49.5943
10.9706 46.8645
11.0154 45.346
11.0602 44.4274
11.105 43.8692
11.1499 42.9914
11.1947 43.5266
11.2395 42.9075
11.2844 42.9049
11.3292 41.55
11.374 40.7114
11.4189 39.9215
11.4637 38.8815
11.5086 38.5496
11.5534 38.3578
11.5983 38.5582
11.6431 38.5604
11.688 37.5774
11.7328 37.3717
11.7777 36.9975
11.8225 37.1641
11.8674 38.0956
11.9122 40.049
11.9571 47.1752
12.002 75.6711
12.0468 88.3129
12.0917 58.4236
12.1366 46.8791
12.1814 47.4836
12.2263 50.1992
12.2712 57.3482
12.3161 74.6411
12.3609 95.7609
12.4058 87.1004
12.4507 62.445
12.4956 50.0363
12.5405 44.6835
12.5853 42.5072
12.6302 41.6139
12.6751 41.9407
12.72 42.5979
12.7649 42.0906
12.8098 40.9827
12.8547 40.7202
12.8996 40.0629
12.9445 40.1313
12.9894 40.6166
13.0343 41.4227
13.0792 43.3794
13.1242 48.152
13.1691 58.2738
13.214 62.7128
13.2589 65.1751
13.3038 70.065
13.3487 77.277
13.3937 101.086
13.4386 160.374
13.4835 222.555
13.5285 181.438
13.5734 115.691
13.6183 89.3479
13.6633 80.9141
13.7082 83.1667
13.7531 106.64
13.7981 169.315
13.843 208.065
13.888 142.958
13.9329 81.5601
13.9779 59.6833
14.0228 50.8158
14.0678 47.0316
14.1127 45.932
14.1577 49.355
14.2027 68.3417
14.2476 85.9054
14.2926 65.1376
14.3376 46.5336
14.3825 41.8216
14.4275 40.3962
14.4725 39.3471
14.5175 39.2274
14.5624 38.6408
14.6074 38.7416
14.6524 39.13
14.6974 39.0738
14.7424 39.6638
14.7874 40.1316
14.8324 41.8075
14.8774 44.3113
14.9224 48.313
14.9674 50.3626
15.0124 53.0248
15.0574 63.0127
15.1024 86.9606
15.1474 121.519
15.1924 119.276
15.2374 83.0267
15.2824 59.002
15.3274 48.1997
15.3725 43.8316
15.4175 41.7477
15.4625 40.4853
15.5076 39.6839
15.5526 39.1988
15.5976 39.0173
15.6426 38.719
15.6877 38.9101
15.7327 40.1329
15.7778 42.3189
15.8228 45.4132
15.8679 47.7977
15.9129 49.2846
15.958 56.0415
16.003 70.9514
16.0481 102.082
16.0931 123.963
16.1382 106.784
16.1833 77.2982
16.2283 54.3128
16.2734 43.7177
16.3185 39.5947
16.3636 37.1242
16.4086 35.9663
16.4537 34.9543
16.4988 34.1902
16.5439 33.796
16.589 33.1506
16.6341 32.7896
16.6792 32.3226
16.7243 32.4292
16.7694 32.3664
16.8145 32.3322
16.8596 32.3371
16.9047 32.7362
16.9498 33.7886
16.9949 37.1103
17.04 40.2064
17.0851 37.9948
17.1302 34.6139
17.1754 33.7797
17.2205 34.0212
17.2656 34.559
17.3108 35.1773
17.3559 35.5008
17.401 37.269
17.4462 41.4532
17.4913 48.4459
17.5365 51.3358
17.5815 45.6313
17.6268 39.2795
17.6718 36.5736
17.7171 35.6379
17.7622 35.7943
17.8074 37.5219
17.8525 40.8411
17.8977 42.0995
17.9428 40.1122
17.9881 39.7664
18.0331 41.8399
18.0784 42.7421
18.1237 43.5049
18.1688 46.2728
18.214 53.3765
18.2591 68.5369
18.3044 92.3815
18.3495 97.878
18.3948 77.8092
18.4399 60.2334
18.4852 55.5292
18.5303 61.2223
18.5756 71.0116
18.6207 71.7377
18.666 59.9938
18.7112 48.8698
18.7565 41.2835
18.8016 38.0311
18.8469 36.3993
18.892 35.485
18.9374 34.7155
18.9825 34.3949
19.0278 34.0468
19.073 34.0338
19.1183 33.8077
19.1635 33.77
19.2088 34.0737
19.254 34.8713
19.2993 35.6039
19.3447 36.8503
19.3898 40.8319
19.4352 45.8062
19.4804 46.933
19.5257 45.3582
19.5709 47.18
19.6163 48.5036
19.6615 44.335
19.7068 38.2501
19.752 35.371
19.7974 33.7151
19.8426 32.929
19.888 32.4008
19.9332 32.2336
19.9786 32.5813
20.0238 32.6699
20.0692 32.8468
20.1144 32.9595
20.1598 33.8883
20.205 35.3035
20.2504 38.6262
20.2957 43.7034
20.3411 46.2947
20.3863 44.063
20.4318 39.8724
20.477 38.9496
20.5224 41.4257
20.5677 44.1236
20.6131 42.2402
20.6586 37.1069
20.7038 33.637
20.7493 32.0565
20.7945 31.4199
20.84 32.2865
20.8853 33.4455
20.9307 33.5149
20.976 31.5086
21.0215 29.8935
21.0668 29.4051
21.1122 29.1675
21.1575 29.2478
21.203 29.1082
21.2483 28.9637
21.2938 29.2366
21.3391 29.2276
21.3846 29.7384
21.4299 30.6442
21.4754 31.9985
21.5207 32.686
21.5662 31.9308
21.6116 30.9376
21.6571 30.1234
21.7024 29.8461
21.7479 30.0656
21.7933 30.3626
21.8388 30.8574
21.8843 31.1514
21.9297 31.4916
21.9752 32.5977
22.0206 34.4499
22.0661 36.8935
22.1115 41.7285
22.157 46.3056
22.2024 46.7992
22.248 43.5149
22.2933 40.8277
22.3389 39.45
22.3843 38.9977
22.4299 37.0619
22.4753 34.4285
22.5208 32.2879
22.5662 31.1775
22.6118 30.6735
22.6572 30.2719
22.7028 30.0243
22.7483 30.0161
22.7939 30.1366
22.8393 30.7577
22.8849 31.7127
22.9303 32.0735
22.9759 31.7247
23.0214 31.429
23.067 31.8891
23.1126 33.1549
23.1581 35.6521
23.2037 39.4436
23.2492 41.8401
23.2948 39.5184
23.3403 35.412
23.3859 33.0236
23.4314 32.2048
23.477 32.4789
23.5225 33.5864
23.5682 34.065
23.6137 33.3363
23.6593 32.4616
23.7048 32.9712
23.7505 34.6369
23.796 37.8544
23.8417 42.0682
23.8872 42.5481
23.9329 38.6302
23.9784 33.8649
24.0241 31.2763
24.0697 29.8806
24.1154 29.251
24.1609 29.0745
24.2066 28.732
24.2522 28.2617
24.2979 27.6447
24.3434 27.2333
24.3892 27.149
24.4349 26.8869
24.4805 26.7719
24.5262 26.8303
24.5718 26.6623
24.6175 26.6186
24.6631 26.7634
24.7089 27.1153
24.7545 27.8103
24.8002 27.923
24.8458 27.6745
24.8916 26.9864
24.9372 26.8169
24.983 26.5108
25.0286 26.389
25.0744 26.3665
25.12 26.2446
25.1658 26.3646
25.2114 26.5382
25.2572 26.8216
25.3029 27.305
25.3487 27.9066
25.3943 28.931
25.4402 29.593
25.4858 29.945
25.5316 29.7238
25.5773 30.2601
25.6231 31.4125
25.669 31.1368
25.7147 29.7379
25.7605 27.8733
25.8062 26.9211
25.8521 26.6347
25.8977 26.5784
25.9436 26.6856
25.9893 26.7216
26.0352 26.2882
26.0809 25.7337
26.1268 25.6543
26.1725 25.7931
26.2184 25.8899
26.2641 26.202
26.31 26.9255
26.3557 27.8265
26.4017 28.258
26.4474 28.0754
26.4933 27.4
26.5391 26.6824
26.585 26.2751
26.6308 26.0542
26.6767 25.8663
26.7225 26.0153
26.7684 26.3316
26.8142 26.6342
26.8601 27.4829
26.9059 28.7653
26.9519 29.8154
26.9979 30.0493
27.0437 29.3718
27.0896 29.0419
27.1354 28.3798
27.1814 27.3702
27.2272 26.3268
27.2732 25.7669
27.3191 25.2666
27.3651 25.1158
27.4109 24.836
27.4569 24.7661
27.5027 24.6832
27.5488 24.6252
27.5946 24.5884
27.6407 24.8353
27.6865 24.8245
27.7326 24.8335
27.7784 25.0973
27.8245 25.3619
27.8703 25.5567
27.9164 25.4779
27.9623 24.9775
28.0084 24.8728
28.0543 24.9624
28.1003 25.1823
28.1462 25.4382
28.1923 25.7287
28.2384 25.6942
28.2843 26.093
28.3304 27.1306
28.3764 27.7545
28.4225 27.6357
28.4684 27.2826
28.5145 26.585
28.5605 26.2152
28.6066 25.8354
28.6526 25.1504
28.6987 24.5975
28.7447 24.0718
28.7908 23.5746
28.8368 23.1623
28.8829 23.0657
28.9289 23.0057
28.9751 22.8549
29.0211 22.7434
29.0673 22.7814
29.1133 22.8533
29.1595 23.0004
29.2055 23.2231
29.2517 23.3051
29.2977 23.0441
29.3439 22.6779
29.3899 22.4076
29.4361 22.2429
29.4824 21.9713
29.5284 22.0594
29.5746 22.1348
29.6207 22.1287
29.6669 22.3992
29.713 22.6388
29.7593 22.6362
29.8053 22.4263
29.8516 22.0579
29.8977 21.7367
29.9439 21.5072
29.99 21.4391
30.0363 21.2547
30.0824 21.2134
30.1287 21.292
30.1748 21.3863
30.2211 21.524
30.2673 21.3675
30.3136 21.2469
30.3597 21.1107
30.406 21.0953
30.4522 21.1745
30.4985 21.1971
30.5447 21.4879
30.591 21.4757
30.6372 21.3546
30.6835 21.1666
30.7297 21.0306
30.7761 20.9883
30.8224 20.9697
30.8686 21.1792
30.915 21.2061
30.9612 21.5656
31.0076 21.9933
31.0538 22.3666
31.1002 22.4523
31.1464 22.0835
31.1928 22.0069
31.2391 21.7773
31.2855 21.3751
31.3317 20.9826
31.3781 20.8884
31.4244 20.6278
31.4708 20.5135
31.5171 20.5198
31.5636 20.5554
31.6098 20.5375
31.6563 20.608
31.7026 20.7142
31.7491 20.7672
31.7953 21.0406
31.8418 21.2202
31.8881 21.168
31.9346 20.8598
31.9809 20.5363
32.0275 20.3223
32.074 20.2292
32.1203 20.2644
32.1668 20.3777
32.2132 20.3381
32.2597 20.5417
32.306 20.6923
32.3526 20.6345
32.399 20.4643
32.4455 20.26
32.4919 20.0421
32.5385 19.7415
32.5848 19.5776
32.6314 19.3598
32.6778 19.2148
32.7244 19.1663
32.7708 18.9828
32.8174 18.8946
32.8638 18.7765
32.9104 18.8646
32.9569 18.8837
33.0035 18.8059
33.0499 18.8986
33.0966 18.7964
33.143 18.789
33.1897 18.6718
33.2361 18.5216
33.2828 18.5016
33.3293 18.4316
33.3759 18.495
33.4226 18.6071
33.4691 18.6921
33.5158 18.7943
33.5623 18.8467
33.609 18.8121
33.6555 18.8296
33.7022 18.7475
33.7487 18.5852
33.7954 18.283
33.842 18.0275
33.8887 17.8837
33.9353 17.8834
33.982 17.7669
34.0286 17.6994
34.0753 17.6778
34.1219 17.5893
34.1687 17.6065
34.2152 17.5783
34.262 17.6335
34.3086 17.5581
34.3554 17.4781
34.402 17.2659
34.4488 17.2094
34.4954 17.1707
34.5422 17.039
34.5889 17.0533
34.6357 16.9899
34.6825 17.1019
34.7292 17.0417
34.776 16.9531
34.8227 16.8981
34.8695 16.8076
34.9162 16.7052
34.9631 16.571
35.0098 16.5364
35.0566 16.5183
35.1033 16.4549
35.1502 16.4158
35.1969 16.3463
35.2438 16.3831
35.2906 16.2577
35.3375 16.3648
35.3842 16.2906
35.4311 16.2186
35.4779 16.2914
35.5248 16.2933
35.5716 16.183
35.6185 16.2163
35.6653 16.2924
35.7123 16.2866
35.759 16.4146
35.806 16.5039
35.8528 16.4821
35.8998 16.4852
35.9468 16.4338
35.9936 16.2864
36.0406 16.1413
36.0874 15.9778
36.1345 15.9279
36.1813 15.7706
36.2283 15.6799
36.2752 15.6063
36.3222 15.6586
36.3691 15.5503
36.4161 15.5232
36.463 15.4914
36.5101 15.626
36.557 15.563
36.6041 15.4827
36.651 15.4194
36.6981 15.3469
36.745 15.2594
36.7921 15.2298
36.839 15.1617
36.8861 15.1458
36.9331 15.1955
36.9802 15.1487
37.0272 15.1842
37.0743 15.0369
37.1213 14.9964
37.1684 14.9402
37.2154 14.8146
37.2626 14.7114
37.3098 14.7242
37.3568 14.6308
37.404 14.557
37.451 14.5307
37.4982 14.4742
37.5452 14.4189
37.5924 14.3806
37.6395 14.4278
37.6867 14.3454
37.7337 14.239
37.781 14.199
37.8281 14.1542
37.8753 14.0942
37.9224 14.0402
37.9697 14.0773
38.0168 14.1084
38.064 13.9916
38.1111 13.972
38.1584 13.8747
38.2056 13.9329
38.2529 13.7912
38.3 13.7106
38.3473 13.7205
38.3945 13.6185
38.4418 13.5571
38.489 13.5221
38.5363 13.5033
38.5837 13.4956
38.6309 13.4485
38.6782 13.4409
38.7254 13.4634
38.7728 13.4419
38.82 13.3032
38.8674 13.2893
38.9146 13.2483
38.9621 13.1606
39.0093 13.1383
39.0567 13.0944
39.104 13.1346
39.1514 13.0628
39.1987 13.0043
39.2461 13.0496
39.2934 12.952
39.3409 12.856
39.3882 12.777
39.4356 12.7248
39.483 12.7326
39.5304 12.6869
39.5778 12.6255
39.6253 12.6354
39.6726 12.5959
39.7201 12.5555
39.7675 12.4887
39.815 12.4735
39.8624 12.388
39.9099 12.4441
39.9575 12.3286
40.0049 12.3543
40.0525 12.3284
40.0999 12.2992
40.1474 12.3265
40.1949 12.2179
40.2425 12.1674
40.2899 12.2035
40.3375 12.2046
40.385 12.0972
40.4326 12.1262
40.48 11.9888
40.5277 11.9572
40.5752 11.9188
40.6228 11.8751
40.6703 11.8649
40.718 11.8429
40.7655 11.7952
40.8132 11.7712
40.8607 11.7811
40.9084 11.7659
40.9559 11.6529
41.0036 11.6524
41.0512 11.5839
41.0989 11.6109
41.1465 11.5837
41.1942 11.5311
41.242 11.5038
41.2896 11.4604
41.3373 11.4385
41.3849 11.3831
41.4327 11.3424
41.4803 11.218
41.5281 11.2163
41.5758 11.1805
41.6236 11.1331
41.6712 11.1
41.7191 11.0836
41.7667 11.0347
41.8146 11.0488
41.8622 10.9457
41.9101 10.969
41.9578 10.8793
42.0057 10.8853
42.0534 10.8841
42.1013 10.8443
42.149 10.7805
42.1969 10.8208
42.2446 10.7369
42.2925 10.7181
42.3403 10.6581
42.3882 10.6514
42.436 10.5957
42.4839 10.5041
42.5319 10.5198
42.5797 10.4974
42.6277 10.4329
42.6755 10.3766
42.7235 10.3203
42.7713 10.3523
42.8193 10.3125
42.8671 10.2795
42.9152 10.224
42.963 10.1753
43.0111 10.099
43.0589 10.1191
43.107 10.0602
43.1549 10.0002
43.2029 10.0027
43.2508 9.98999
43.2989 9.97873
43.3468 9.88736
43.3949 9.85001
43.4429 9.85072
43.491 9.79405
43.5389 9.77062
43.5871 9.74069
43.635 9.67138
43.6832 9.67118
43.7312 9.64674
43.7793 9.59886
43.8273 9.62911
43.8755 9.53994
43.9237 9.49472
43.9717 9.49902
44.0199 9.41452
44.068 9.44919
44.1162 9.41051
44.1642 9.39421
44.2125 9.37275
44.2606 9.32018
44.3088 9.3323
44.3569 9.2699
44.4052 9.20114
44.4533 9.17864
44.5016 9.17277
44.5497 9.15089
44.598 9.10502
44.6461 9.09477
44.6945 9.05731
44.7426 9.00947
44.791 8.95211
44.8391 8.95985
44.8875 8.94204
44.9357 8.85639
44.984 8.87684
45.0322 8.85293
45.0806 8.79295
45.1288 8.7712
45.1773 8.7267
45.2257 8.7496
45.2739 8.68679
45.3224 8.68422
45.3706 8.65905
45.4191 8.54594
45.4673 8.55963
45.5158 8.56404
45.5641 8.5055
45.6126 8.48396
45.6609 8.44895
45.7094 8.40833
45.7577 8.39424
45.8063 8.34061
45.8546 8.338
45.9031 8.3014
45.9515 8.27392
46.0001 8.25299
46.0484 8.23912
46.097 8.25273
46.1454 8.19591
46.194 8.15772
46.2424 8.13429
46.291 8.08862
46.3395 8.09512
46.3881 8.00054
46.4365 8.03882
46.4852 7.9868
46.5337 7.94698
46.5823 7.93191
46.631 7.88835
46.6795 7.85762
46.7282 7.86081
46.7767 7.83901
46.8254 7.77221
46.8739 7.75214
46.9226 7.72265
46.9712 7.72013
47.0199 7.64855
47.0685 7.64722
47.1173 7.62613
47.1658 7.58671
47.2146 7.56907
47.2632 7.4996
47.312 7.51762
47.3606 7.47561
47.4095 7.44467
47.4581 7.43116
47.5069 7.40704
47.5556 7.3536
47.6044 7.31485
47.6531 7.32522
47.702 7.30532
47.7507 7.28164
47.7996 7.25249
47.8483 7.20496
47.8972 7.20877
47.9461 7.18849
47.9948 7.14805
48.0438 7.11044
48.0925 7.10591
48.1415 7.06711
48.1902 7.0101
48.2392 7.00639
48.288 6.98435
48.337 6.96617
48.3858 6.93778
48.4348 6.88259
48.4837 6.90373
48.5327 6.91344
48.5815 6.84421
48.6306 6.82101
48.6795 6.82156
48.7285 6.81119
48.7774 6.76882
48.8265 6.73358
48.8754 6.72749
48.9245 6.69725
48.9734 6.65339
49.0226 6.67721
49.0715 6.59094
49.1206 6.60519
49.1696 6.54686
49.2188 6.5541
49.2679 6.52577
49.3169 6.48453
49.3661 6.46198
49.4151 6.45717
49.4643 6.44371
49.5134 6.4046
49.5626 6.35899
49.6117 6.37004
49.6609 6.34806
49.71 6.29316
49.7592 6.30521
49.8083 6.28255
49.8576 6.24927
49.9067 6.222
49.956 6.21521
50.0052 6.18752
50.0545 6.1537
50.1036 6.12969
50.153 6.16192
50.2022 6.0916
50.2515 6.03955
50.3007 6.02878
50.3501 5.98853
50.3993 6.005
50.4487 5.96925
50.498 5.9911
50.5474 5.93063
50.5966 5.95084
50.6461 5.86796
50.6955 5.90133
50.7448 5.85882
50.7943 5.85311
50.8436 5.81716
50.8931 5.75686
50.9424 5.75768
50.9919 5.73614
51.0413 5.72141
51.0908 5.72089
51.1402 5.67619
51.1897 5.69378
51.2391 5.64195
51.2887 5.61044
51.3381 5.5917
51.3877 5.55127
51.4371 5.56251
51.4867 5.53334
51.5362 5.49868
51.5858 5.47523
51.6353 5.46763
51.6849 5.45351
51.7344 5.40469
51.7841 5.41046
51.8336 5.36756
51.8833 5.36489
51.9328 5.32569
51.9826 5.32128
52.0323 5.29209
52.0818 5.28965
52.1316 5.24802
52.1812 5.24495
52.231 5.21774
52.2806 5.17229
52.3304 5.17682
52.38 5.1655
52.4298 5.14601
52.4794 5.11071
52.5293 5.08088
52.5789 5.09054
52.6288 5.03398
52.6785 5.03547
52.7284 5.01432
52.7781 4.99346
52.828 4.97957
52.8777 4.93658
52.9276 4.93064
52.9774 4.90924
53.0273 4.91236
53.0771 4.91678
53.1271 4.8633
53.1769 4.8473
53.2269 4.79759
53.2767 4.777
53.3267 4.79335
53.3765 4.77079
53.4266 4.72686
53.4766 4.75405
53.5265 4.68527
53.5765 4.71316
53.6264 4.66169
53.6765 4.65777
53.7264 4.57557
53.7765 4.61026
53.8265 4.59276
53.8766 4.54379
53.9266 4.54741
53.9767 4.48897
54.0267 4.48979
54.0769 4.44347
54.1269 4.45508
54.1771 4.40588
54.2271 4.39601
54.2773 4.37597
54.3274 4.35421
54.3776 4.28568
54.4277 4.2846
54.478 4.25533
54.528 4.20807
54.5783 4.20638
54.6285 4.15874
54.6788 4.11422
54.7289 4.12893
54.7792 4.07089
54.8296 4.03647
54.8798 4.02006
54.9301 3.96821
54.9803 3.9225
55.0307 3.90268
55.0809 3.89024
55.1314 3.86931
55.1816 3.82468
55.232 3.77141
55.2823 3.73811
55.3328 3.69429
55.383 3.64682
55.4335 3.62315
55.4838 3.55853
55.5344 3.54333
55.5847 3.51416
55.6352 3.56231
55.6856 3.46688
55.7361 3.45688