File: XRD/Ni3Fe_FD0588.xy
TT I
1.27165 7.5979
1.31627 6.92464
1.36089 6.57573
1.40551 5.89796
1.45013 6.37947
1.49476 5.97313
1.53938 5.68845
1.584 5.36207
1.62863 5.63444
1.67325 5.11051
1.71787 4.9388
1.7625 4.75386
1.80712 5.26346
1.85174 5.02609
1.89636 4.55144
1.94099 4.73409
1.98562 4.81821
2.03025 4.21211
2.07487 4.88731
2.11949 5.36407
2.16411 4.87886
2.20874 8.71394
2.25338 12.7653
2.298 5.22029
2.34263 5.40993
2.38725 5.61781
2.43188 6.30805
2.4765 6.72167
2.52115 6.57565
2.56577 6.74491
2.6104 7.87394
2.65503 7.5416
2.69965 7.81616
2.7443 7.98368
2.78893 7.83803
2.83356 7.99749
2.87818 8.5742
2.92281 8.62751
2.96744 9.67411
3.01209 10.5781
3.05672 11.0405
3.10135 12.333
3.14599 12.7172
3.19062 14.0399
3.23527 15.2384
3.2799 15.1989
3.32454 16.8263
3.36917 17.8876
3.4138 18.9168
3.45844 19.5939
3.50309 21.0423
3.54773 21.7923
3.59237 23.1059
3.637 52.9774
3.68164 39.162
3.7263 25.7092
3.77094 25.8747
3.81558 26.3725
3.86022 27.6082
3.90486 28.9074
3.9495 29.589
3.99416 30.5053
4.0388 32.3291
4.08344 33.5081
4.12809 34.4128
4.17273 36.0445
4.21738 39.9345
4.26204 132.362
4.30669 114.109
4.35133 45.171
4.39598 44.0209
4.44063 49.3641
4.4853 55.9153
4.52995 54.4076
4.5746 55.2672
4.61925 54.1472
4.6639 56.0274
4.70855 58.6969
4.75322 62.1657
4.79788 67.2566
4.84253 68.9649
4.88719 74.6043
4.93184 76.9979
4.97652 82.2221
5.02118 88.4609
5.06583 97.0423
5.11049 109.53
5.15515 161.788
5.19981 479.966
5.24449 3241.69
5.28916 12426.6
5.33382 2794.45
5.37848 202.133
5.42315 133.557
5.46783 119.372
5.5125 110.996
5.55716 103.823
5.60183 99.0277
5.6465 97.3257
5.69117 95.516
5.73586 94.1508
5.78053 96.8642
5.8252 97.0269
5.86988 98.6087
5.91455 97.7379
5.95924 109.072
6.00392 275.626
6.0486 1109.85
6.09328 4411.66
6.13795 3299.63
6.18263 239.745
6.22733 93.1786
6.27201 82.0263
6.3167 86.9717
6.36138 75.5647
6.40606 69.9549
6.45075 69.0566
6.49545 65.9507
6.54014 63.9488
6.58483 63.1119
6.62952 63.2528
6.67421 75.9089
6.71892 96.5802
6.76361 62.7826
6.8083 59.2512
6.853 58.9937
6.89769 56.9066
6.94239 56.5672
6.98711 56.2531
7.03181 55.7438
7.07651 55.0916
7.12121 55.4255
7.16591 55.9457
7.21063 55.4909
7.25533 61.5566
7.30004 107.457
7.34475 70.4524
7.38945 55.2897
7.43416 54.0317
7.47889 54.1054
7.5236 54.6509
7.56831 55.5971
7.61303 56.2893
7.65774 56.744
7.70247 57.0322
7.74719 56.7197
7.79191 57.1008
7.83663 57.0577
7.88135 57.8834
7.92607 58.7674
7.97081 60.0245
8.01553 61.2963
8.06026 62.9427
8.10498 64.1247
8.14971 70.9438
8.19446 71.0157
8.23919 69.7632
8.28392 72.4375
8.32865 74.9847
8.37339 79.7483
8.41812 85.5653
8.46288 107.116
8.50761 198.725
8.55235 439.087
8.59709 1255.47
8.64183 2206.66
8.68658 926.983
8.73134 158.356
8.77609 100.034
8.82083 93.0938
8.86558 92.0082
8.91033 91.2826
8.9551 89.3558
8.99985 86.0466
9.04461 84.5222
9.08936 84.4665
9.13412 83.3556
9.17888 83.1281
9.22365 83.3004
9.26841 83.0216
9.31318 84.5313
9.35794 85.2107
9.4027 85.5735
9.44749 85.5416
9.49226 85.7259
9.53703 86.6896
9.5818 89.5052
9.62657 93.5389
9.67134 95.7187
9.71614 93.7476
9.76091 95.4806
9.80569 99.4988
9.85047 102.034
9.89525 114.11
9.94005 132.192
9.98484 210.753
10.0296 382.692
10.0744 869.752
10.1192 1748.63
10.164 1559.61
10.2088 370.537
10.2536 125.312
10.2984 111.108
10.3432 110.476
10.388 106.953
10.4328 127.812
10.4776 172.082
10.5224 299.868
10.5672 516.509
10.612 478.586
10.6568 188.85
10.7017 95.4421
10.7465 87.0699
10.7913 83.8165
10.8361 81.5388
10.8809 79.5532
10.9257 78.5493
10.9706 78.3012
11.0154 75.644
11.0602 73.2213
11.105 72.1531
11.1499 73.2809
11.1947 75.6528
11.2395 71.1421
11.2844 69.2404
11.3292 67.5676
11.374 66.4227
11.4189 65.9672
11.4637 64.9587
11.5086 65.0758
11.5534 66.1656
11.5983 65.0026
11.6431 63.8413
11.688 63.2105
11.7328 63.0815
11.7777 63.1314
11.8225 62.8746
11.8674 62.7917
11.9122 63.2313
11.9571 63.7793
12.002 64.9143
12.0468 70.9577
12.0917 81.935
12.1366 106.64
12.1814 156.053
12.2263 203.37
12.2712 161.908
12.3161 89.7875
12.3609 67.6974
12.4058 64.8242
12.4507 64.7451
12.4956 65.122
12.5405 65.0908
12.5853 65.6456
12.6302 69.1514
12.6751 71.9768
12.72 68.6737
12.7649 68.2907
12.8098 69.0431
12.8547 70.445
12.8996 71.8805
12.9445 73.3241
12.9894 75.254
13.0343 76.7904
13.0792 81.5224
13.1242 95.5738
13.1691 117.633
13.214 158.764
13.2589 254.073
13.3038 377.592
13.3487 420.586
13.3937 248.745
13.4386 121.44
13.4835 111.002
13.5285 126.682
13.5734 168.969
13.6183 255.218
13.6633 349.911
13.7082 328.226
13.7531 180.316
13.7981 96.883
13.843 82.4971
13.888 80.3953
13.9329 77.6075
13.9779 76.3492
14.0228 75.1887
14.0678 73.6015
14.1127 72.9009
14.1577 72.5238
14.2027 71.7652
14.2476 70.9703
14.2926 70.668
14.3376 71.0886
14.3825 70.3543
14.4275 69.429
14.4725 69.1576
14.5175 69.34
14.5624 69.555
14.6074 70.752
14.6524 71.2912
14.6974 71.455
14.7424 75.1264
14.7874 82.4538
14.8324 93.0303
14.8774 116.464
14.9224 159.465
14.9674 209.813
15.0124 212.866
15.0574 143.672
15.1024 88.2607
15.1474 72.7719
15.1924 70.8298
15.2374 70.3866
15.2824 69.5007
15.3274 67.9627
15.3725 67.1715
15.4175 66.9673
15.4625 66.439
15.5076 66.5538
15.5526 66.6015
15.5976 66.5794
15.6426 69.3045
15.6877 74.9464
15.7327 82.7918
15.7778 99.3182
15.8228 131.484
15.8679 173.194
15.9129 192.333
15.958 149.857
16.003 92.7664
16.0481 67.07
16.0931 63.6981
16.1382 62.0972
16.1833 60.5707
16.2283 59.1744
16.2734 58.5475
16.3185 58.3562
16.3636 58.1069
16.4086 57.3473
16.4537 56.3524
16.4988 55.7717
16.5439 55.7532
16.589 55.5672
16.6341 55.2157
16.6792 54.8408
16.7243 55.1097
16.7694 55.187
16.8145 55.1565
16.8596 55.6439
16.9047 56.1151
16.9498 56.4208
16.9949 55.9869
17.04 56.746
17.0851 58.1197
17.1302 59.517
17.1754 62.6307
17.2205 67.9197
17.2656 75.2477
17.3108 82.7708
17.3559 81.975
17.401 70.9382
17.4462 62.3509
17.4913 59.9023
17.5365 59.6168
17.5815 59.7943
17.6268 59.9867
17.6718 60.741
17.7171 61.4432
17.7622 61.9865
17.8074 63.3218
17.8525 66.559
17.8977 69.9456
17.9428 75.7663
17.9881 85.4866
18.0331 103.429
18.0784 124.154
18.1237 141.812
18.1688 132.108
18.214 102.476
18.2591 87.624
18.3044 92.2701
18.3495 101.343
18.3948 105.781
18.4399 95.1794
18.4852 76.5141
18.5303 65.8256
18.5756 62.4306
18.6207 61.5235
18.666 60.7817
18.7112 60.0853
18.7565 59.5526
18.8016 59.0774
18.8469 58.3835
18.892 58.0557
18.9374 57.5346
18.9825 57.426
19.0278 57.3722
19.073 57.7707
19.1183 57.9662
19.1635 58.7304
19.2088 60.1202
19.254 63.1452
19.2993 67.392
19.3447 73.076
19.3898 75.8964
19.4352 71.7643
19.4804 62.9402
19.5257 56.8791
19.5709 54.7112
19.6163 54.3612
19.6615 54.0296
19.7068 53.6517
19.752 53.7495
19.7974 54.1018
19.8426 54.9735
19.888 55.6621
19.9332 57.0596
19.9786 59.8837
20.0238 63.4497
20.0692 68.0914
20.1144 70.1402
20.1598 68.309
20.205 63.6438
20.2504 62.656
20.2957 64.3306
20.3411 65.6919
20.3863 64.0571
20.4318 58.1437
20.477 53.5517
20.5224 51.634
20.5677 51.0032
20.6131 50.7065
20.6586 49.9426
20.7038 49.8763
20.7493 49.3292
20.7945 49.2173
20.84 49.1447
20.8853 48.9131
20.9307 48.9107
20.976 49.1385
21.0215 49.0148
21.0668 49.4649
21.1122 49.9575
21.1575 50.5769
21.203 51.2659
21.2483 51.6004
21.2938 51.658
21.3391 50.1535
21.3846 49.4432
21.4299 48.7779
21.4754 48.7559
21.5207 49.0103
21.5662 49.518
21.6116 49.8784
21.6571 50.5314
21.7024 51.4628
21.7479 53.409
21.7933 56.3711
21.8388 59.8711
21.8843 63.3705
21.9297 64.9982
21.9752 63.1928
22.0206 59.4989
22.0661 56.7859
22.1115 56.3034
22.157 56.2608
22.2024 54.4368
22.248 51.5332
22.2933 49.9372
22.3389 49.2806
22.3843 49.3445
22.4299 49.1006
22.4753 49.0201
22.5208 48.9457
22.5662 48.8578
22.6118 49.0072
22.6572 49.4182
22.7028 49.8641
22.7483 50.2526
22.7939 50.9766
22.8393 52.6782
22.8849 54.9161
22.9303 56.6084
22.9759 58.128
23.0214 57.4526
23.067 54.4651
23.1126 51.052
23.1581 49.5131
23.2037 49.1881
23.2492 49.3729
23.2948 49.2578
23.3403 49.7077
23.3859 50.4995
23.4314 51.2855
23.477 53.2436
23.5225 55.2329
23.5682 57.2325
23.6137 58.1443
23.6593 55.6145
23.7048 51.4309
23.7505 48.3107
23.796 46.868
23.8417 46.2906
23.8872 45.8642
23.9329 45.3831
23.9784 45.0958
24.0241 44.9733
24.0697 44.8464
24.1154 44.3602
24.1609 44.073
24.2066 44.1494
24.2522 43.9356
24.2979 43.6793
24.3434 43.6283
24.3892 43.3323
24.4349 43.3945
24.4805 43.183
24.5262 43.3051
24.5718 43.2346
24.6175 43.3285
24.6631 43.017
24.7089 42.7995
24.7545 42.6255
24.8002 42.5702
24.8458 42.4097
24.8916 42.3367
24.9372 42.4693
24.983 42.9661
25.0286 43.2271
25.0744 43.7269
25.12 44.0782
25.1658 44.579
25.2114 44.9045
25.2572 45.0989
25.3029 45.1146
25.3487 45.1645
25.3943 44.9286
25.4402 43.5967
25.4858 42.5021
25.5316 41.6182
25.5773 41.2241
25.6231 41.1465
25.669 40.8854
25.7147 40.7053
25.7605 40.8815
25.8062 40.8255
25.8521 40.8772
25.8977 40.9555
25.9436 41.1859
25.9893 41.2364
26.0352 41.8357
26.0809 41.8419
26.1268 41.8883
26.1725 41.6318
26.2184 41.0493
26.2641 40.504
26.31 40.4177
26.3557 40.3885
26.4017 40.3995
26.4474 40.86
26.4933 41.1504
26.5391 41.623
26.585 42.0847
26.6308 42.4968
26.6767 42.4663
26.7225 42.249
26.7684 41.7176
26.8142 40.9798
26.8601 40.7562
26.9059 40.3707
26.9519 39.7876
26.9979 39.5395
27.0437 39.0511
27.0896 39.0682
27.1354 39.0266
27.1814 38.9969
27.2272 38.8159
27.2732 38.9594
27.3191 38.6679
27.3651 38.7523
27.4109 38.6583
27.4569 38.7949
27.5027 38.7938
27.5488 38.8749
27.5946 38.7235
27.6407 38.4283
27.6865 38.4048
27.7326 38.1472
27.7784 38.0643
27.8245 38.1148
27.8703 38.3239
27.9164 38.5631
27.9623 38.7003
28.0084 39.0818
28.0543 39.4452
28.1003 39.1961
28.1462 38.9829
28.1923 38.5673
28.2384 38.1883
28.2843 37.7897
28.3304 37.3435
28.3764 36.9956
28.4225 36.6109
28.4684 36.3937
28.5145 36.0908
28.5605 36.1673
28.6066 35.9823
28.6526 35.8441
28.6987 35.7669
28.7447 35.7272
28.7908 35.7073
28.8368 35.6966
28.8829 35.6332
28.9289 35.4467
28.9751 35.2768
29.0211 35.179
29.0673 34.7805
29.1133 34.7134
29.1595 34.6449
29.2055 34.6009
29.2517 34.5353
29.2977 34.5113
29.3439 34.4765
29.3899 34.4824
29.4361 34.3943
29.4824 34.2745
29.5284 33.9244
29.5746 33.6258
29.6207 33.3506
29.6669 33.3695
29.713 33.1741
29.7593 33.0923
29.8053 33.0974
29.8516 32.9874
29.8977 32.9787
29.9439 32.8554
29.99 32.7791
30.0363 32.7304
30.0824 32.775
30.1287 32.6323
30.1748 32.6129
30.2211 32.6554
30.2673 32.5508
30.3136 32.5459
30.3597 32.4258
30.406 32.4929
30.4522 32.3017
30.4985 32.2989
30.5447 32.3965
30.591 32.3529
30.6372 32.4225
30.6835 32.4087
30.7297 32.3876
30.7761 32.2935
30.8224 32.2057
30.8686 32.0543
30.915 31.8148
30.9612 31.7723
31.0076 31.592
31.0538 31.4261
31.1002 31.2674
31.1464 31.1554
31.1928 31.1795
31.2391 31.1618
31.2855 31.1022
31.3317 31.1189
31.3781 31.1579
31.4244 31.1723
31.4708 31.0213
31.5171 31.0878
31.5636 30.9768
31.6098 30.7321
31.6563 30.5123
31.7026 30.4308
31.7491 30.3613
31.7953 30.4169
31.8418 30.3029
31.8881 30.3876
31.9346 30.2674
31.9809 30.193
32.0275 30.0055
32.074 30.021
32.1203 29.8225
32.1668 29.7261
32.2132 29.5032
32.2597 29.4669
32.306 29.422
32.3526 29.1634
32.399 29.0906
32.4455 28.9716
32.4919 28.8699
32.5385 28.8037
32.5848 28.6806
32.6314 28.6198
32.6778 28.5016
32.7244 28.5038
32.7708 28.3889
32.8174 28.3516
32.8638 28.2179
32.9104 28.2463
32.9569 28.2604
33.0035 28.0059
33.0499 28.0062
33.0966 27.9649
33.143 27.9801
33.1897 27.8386
33.2361 27.7495
33.2828 27.7783
33.3293 27.5679
33.3759 27.4964
33.4226 27.4828
33.4691 27.273
33.5158 27.2017
33.5623 27.0637
33.609 26.8246
33.6555 26.917
33.7022 26.847
33.7487 26.6855
33.7954 26.6812
33.842 26.606
33.8887 26.4596
33.9353 26.4498
33.982 26.3968
34.0286 26.2121
34.0753 26.2398
34.1219 26.0451
34.1687 26.0321
34.2152 25.9256
34.262 25.8358
34.3086 25.7632
34.3554 25.6449
34.402 25.5334
34.4488 25.4648
34.4954 25.4134
34.5422 25.3005
34.5889 25.1858
34.6357 25.1121
34.6825 25.0968
34.7292 24.982
34.776 24.9299
34.8227 24.8064
34.8695 24.7727
34.9162 24.7335
34.9631 24.6473
35.0098 24.6223
35.0566 24.4756
35.1033 24.5578
35.1502 24.4412
35.1969 24.3991
35.2438 24.2975
35.2906 24.3114
35.3375 24.1606
35.3842 24.0883
35.4311 24.1066
35.4779 24.1139
35.5248 24.0584
35.5716 23.8831
35.6185 23.818
35.6653 23.7819
35.7123 23.6851
35.759 23.5992
35.806 23.534
35.8528 23.4474
35.8998 23.3727
35.9468 23.2995
35.9936 23.1733
36.0406 23.2159
36.0874 23.0947
36.1345 23.0357
36.1813 22.9407
36.2283 22.8331
36.2752 22.7556
36.3222 22.8122
36.3691 22.6794
36.4161 22.618
36.463 22.6128
36.5101 22.5287
36.557 22.4706
36.6041 22.3107
36.651 22.3301
36.6981 22.2342
36.745 22.1565
36.7921 22.14
36.839 21.9454
36.8861 21.9552
36.9331 21.8884
36.9802 21.8223
37.0272 21.6289
37.0743 21.6315
37.1213 21.5765
37.1684 21.5585
37.2154 21.5187
37.2626 21.4144
37.3098 21.2681
37.3568 21.2607
37.404 21.2774
37.451 21.0947
37.4982 21.0882
37.5452 21.013
37.5924 20.9166
37.6395 21.0102
37.6867 20.7759
37.7337 20.7208
37.781 20.7089
37.8281 20.6138
37.8753 20.5137
37.9224 20.4628
37.9697 20.3797
38.0168 20.3396
38.064 20.3138
38.1111 20.2248
38.1584 20.1778
38.2056 20.0987
38.2529 20.0413
38.3 19.9384
38.3473 19.962
38.3945 19.7786
38.4418 19.7381
38.489 19.7229
38.5363 19.5518
38.5837 19.575
38.6309 19.5703
38.6782 19.4355
38.7254 19.362
38.7728 19.3376
38.82 19.2325
38.8674 19.2125
38.9146 19.203
38.9621 19.1179
39.0093 19.0279
39.0567 19.0191
39.104 18.9189
39.1514 18.8438
39.1987 18.8314
39.2461 18.7376
39.2934 18.6542
39.3409 18.5736
39.3882 18.4864
39.4356 18.4692
39.483 18.4209
39.5304 18.3177
39.5778 18.3468
39.6253 18.197
39.6726 18.2006
39.7201 18.151
39.7675 18.1298
39.815 18.0153
39.8624 17.9495
39.9099 17.9092
39.9575 17.7886
40.0049 17.8054
40.0525 17.7571
40.0999 17.6727
40.1474 17.6185
40.1949 17.5633
40.2425 17.4647
40.2899 17.4866
40.3375 17.4374
40.385 17.3269
40.4326 17.2663
40.48 17.2129
40.5277 17.2732
40.5752 17.1104
40.6228 17.0936
40.6703 17.0342
40.718 16.9541
40.7655 16.9343
40.8132 16.8422
40.8607 16.8711
40.9084 16.7705
40.9559 16.7113
41.0036 16.6922
41.0512 16.6203
41.0989 16.6097
41.1465 16.4332
41.1942 16.4429
41.242 16.3725
41.2896 16.2862
41.3373 16.263
41.3849 16.2103
41.4327 16.1558
41.4803 16.1134
41.5281 16.0162
41.5758 15.9623
41.6236 15.9203
41.6712 15.8683
41.7191 15.8002
41.7667 15.7677
41.8146 15.8037
41.8622 15.6944
41.9101 15.7103
41.9578 15.5756
42.0057 15.487
42.0534 15.452
42.1013 15.4129
42.149 15.3656
42.1969 15.3123
42.2446 15.2275
42.2925 15.2117
42.3403 15.1064
42.3882 15.1198
42.436 15.0906
42.4839 14.9897
42.5319 14.9495
42.5797 14.8931
42.6277 14.8664
42.6755 14.8196
42.7235 14.7033
42.7713 14.683
42.8193 14.646
42.8671 14.5946
42.9152 14.5545
42.963 14.4691
43.0111 14.4419
43.0589 14.358
43.107 14.3637
43.1549 14.2899
43.2029 14.2481
43.2508 14.2083
43.2989 14.1691
43.3468 14.0706
43.3949 14.064
43.4429 13.9999
43.491 14.001
43.5389 13.8826
43.5871 13.8802
43.635 13.8151
43.6832 13.8166
43.7312 13.6587
43.7793 13.6679
43.8273 13.6074
43.8755 13.5377
43.9237 13.5124
43.9717 13.4954
44.0199 13.4278
44.068 13.4292
44.1162 13.2947
44.1642 13.3333
44.2125 13.273
44.2606 13.2204
44.3088 13.1268
44.3569 13.0796
44.4052 13.0915
44.4533 13.0129
44.5016 12.9824
44.5497 12.941
44.598 12.9045
44.6461 12.8593
44.6945 12.8079
44.7426 12.7931
44.791 12.6497
44.8391 12.6415
44.8875 12.6499
44.9357 12.6
44.984 12.577
45.0322 12.4841
45.0806 12.4561
45.1288 12.3939
45.1773 12.3281
45.2257 12.3053
45.2739 12.2009
45.3224 12.1882
45.3706 12.1867
45.4191 12.1401
45.4673 12.1059
45.5158 12.0746
45.5641 11.9742
45.6126 11.9264
45.6609 11.9006
45.7094 11.9026
45.7577 11.873
45.8063 11.7997
45.8546 11.7385
45.9031 11.72
45.9515 11.6434
46.0001 11.6497
46.0484 11.6159
46.097 11.5398
46.1454 11.5266
46.194 11.4848
46.2424 11.4138
46.291 11.3359
46.3395 11.3369
46.3881 11.2965
46.4365 11.2853
46.4852 11.2202
46.5337 11.1336
46.5823 11.1452
46.631 11.125
46.6795 11.0899
46.7282 11.023
46.7767 10.9992
46.8254 10.9225
46.8739 10.8831
46.9226 10.8355
46.9712 10.7847
47.0199 10.7584
47.0685 10.738
47.1173 10.6828
47.1658 10.6641
47.2146 10.591
47.2632 10.5947
47.312 10.5631
47.3606 10.4578
47.4095 10.4408
47.4581 10.4575
47.5069 10.3688
47.5556 10.2936
47.6044 10.2974
47.6531 10.2704
47.702 10.2111
47.7507 10.2028
47.7996 10.1761
47.8483 10.0816
47.8972 10.075
47.9461 10.0335
47.9948 10.0133
48.0438 9.94964
48.0925 9.88754
48.1415 9.87494
48.1902 9.83095
48.2392 9.83368
48.288 9.77999
48.337 9.73247
48.3858 9.71616
48.4348 9.69135
48.4837 9.64172
48.5327 9.61819
48.5815 9.6014
48.6306 9.56487
48.6795 9.51773
48.7285 9.48513
48.7774 9.42959
48.8265 9.43439
48.8754 9.35221
48.9245 9.35723
48.9734 9.33667
49.0226 9.25973
49.0715 9.24303
49.1206 9.15337
49.1696 9.11204
49.2188 9.14636
49.2679 9.09349
49.3169 9.05787
49.3661 9.00453
49.4151 9.0053
49.4643 8.95534
49.5134 8.93635
49.5626 8.86231
49.6117 8.83662
49.6609 8.81312
49.71 8.74303
49.7592 8.74979
49.8083 8.66808
49.8576 8.67975
49.9067 8.62546
49.956 8.62964
50.0052 8.55487
50.0545 8.54581
50.1036 8.51836
50.153 8.49478
50.2022 8.45023
50.2515 8.43368
50.3007 8.36412
50.3501 8.39083
50.3993 8.2845
50.4487 8.26968
50.498 8.25945
50.5474 8.19722
50.5966 8.16847
50.6461 8.14668
50.6955 8.15732
50.7448 8.07752
50.7943 8.06771
50.8436 8.00747
50.8931 8.01145
50.9424 7.97267
50.9919 7.89162
51.0413 7.91317
51.0908 7.86045
51.1402 7.86257
51.1897 7.80863
51.2391 7.77365
51.2887 7.7696
51.3381 7.70536
51.3877 7.6828
51.4371 7.65553
51.4867 7.60119
51.5362 7.59515
51.5858 7.55428
51.6353 7.50502
51.6849 7.47706
51.7344 7.45797
51.7841 7.46853
51.8336 7.37491
51.8833 7.39872
51.9328 7.32921
51.9826 7.32624
52.0323 7.25656
52.0818 7.25354
52.1316 7.20865
52.1812 7.20029
52.231 7.16354
52.2806 7.12603
52.3304 7.09547
52.38 7.05736
52.4298 7.0284
52.4794 7.018
52.5293 7.02488
52.5789 6.95497
52.6288 6.93908
52.6785 6.86658
52.7284 6.89197
52.7781 6.83698
52.828 6.80058
52.8777 6.771
52.9276 6.76077
52.9774 6.74093
53.0273 6.7291
53.0771 6.66607
53.1271 6.65934
53.1769 6.6555
53.2269 6.60458
53.2767 6.57708
53.3267 6.52206
53.3765 6.4584
53.4266 6.49228
53.4766 6.49586
53.5265 6.41341
53.5765 6.393
53.6264 6.37428
53.6765 6.35557
53.7264 6.32127
53.7765 6.29313
53.8265 6.22682
53.8766 6.24647
53.9266 6.18812
53.9767 6.17074
54.0267 6.13858
54.0769 6.12103
54.1269 6.08004
54.1771 6.05108
54.2271 6.02465
54.2773 5.99152
54.3274 5.95826
54.3776 5.93733
54.4277 5.87739
54.478 5.83582
54.528 5.83385
54.5783 5.8064
54.6285 5.73817
54.6788 5.69867
54.7289 5.68285
54.7792 5.5822
54.8296 5.56606
54.8798 5.58159
54.9301 5.53366
54.9803 5.47442
55.0307 5.45124
55.0809 5.36515
55.1314 5.36514
55.1816 5.30463
55.232 5.31711
55.2823 5.24997
55.3328 5.15571
55.383 5.10406
55.4335 5.11824
55.4838 5.00657
55.5344 5.0226
55.5847 4.94779
55.6352 4.91512
55.6856 4.88216
55.7361 4.84453