File: XRD/Ni3Fe_FD0008.xy
TT I
1.27165 35.9345
1.31627 36.3622
1.36089 35.5982
1.40551 32.5963
1.45013 32.833
1.49476 31.6532
1.53938 30.3048
1.584 29.3425
1.62863 28.5485
1.67325 27.5255
1.71787 27.3751
1.7625 26.1817
1.80712 26.3541
1.85174 26.2014
1.89636 26.2157
1.94099 25.5094
1.98562 25.5331
2.03025 25.4883
2.07487 25.4797
2.11949 26.1568
2.16411 25.6052
2.20874 26.0895
2.25338 25.9945
2.298 26.6223
2.34263 26.0857
2.38725 26.4315
2.43188 25.7818
2.4765 27.0262
2.52115 25.9478
2.56577 26.7038
2.6104 27.8995
2.65503 28.2804
2.69965 30.0889
2.7443 31.1628
2.78893 33.952
2.83356 36.5306
2.87818 40.4888
2.92281 44.1351
2.96744 49.7076
3.01209 57.8206
3.05672 65.9694
3.10135 77.0436
3.14599 83.5101
3.19062 86.7183
3.23527 81.1139
3.2799 71.338
3.32454 59.9677
3.36917 51.7666
3.4138 45.7728
3.45844 41.7771
3.50309 40.6955
3.54773 39.5136
3.59237 39.73
3.637 40.9393
3.68164 41.4903
3.7263 42.2334
3.77094 41.6848
3.81558 41.4351
3.86022 41.7225
3.90486 42.9787
3.9495 44.0045
3.99416 45.2364
4.0388 48.4167
4.08344 51.375
4.12809 54.4639
4.17273 60.4091
4.21738 67.1982
4.26204 72.3858
4.30669 78.2056
4.35133 79.8687
4.39598 76.7235
4.44063 73.1556
4.4853 69.7745
4.52995 65.4278
4.5746 61.4442
4.61925 58.7423
4.6639 56.037
4.70855 55.4439
4.75322 56.5813
4.79788 57.7446
4.84253 60.9095
4.88719 64.7849
4.93184 70.0387
4.97652 78.1182
5.02118 91.3603
5.06583 114.137
5.11049 136.211
5.15515 172.003
5.19981 251.307
5.24449 482.752
5.28916 993.383
5.33382 2579.72
5.37848 4109.72
5.42315 1550.34
5.46783 434.994
5.5125 233.844
5.55716 164.316
5.60183 128.749
5.6465 113.476
5.69117 105.936
5.73586 100.257
5.78053 95.4625
5.8252 94.2047
5.86988 97.8552
5.91455 107.068
5.95924 122.214
6.00392 157.761
6.0486 238.685
6.09328 400.774
6.13795 682.741
6.18263 1242.59
6.22733 914.79
6.27201 374.029
6.3167 186.2
6.36138 116.501
6.40606 87.2482
6.45075 73.8501
6.49545 64.9184
6.54014 59.5293
6.58483 56.4554
6.62952 54.9956
6.67421 53.8489
6.71892 52.9494
6.76361 53.0863
6.8083 52.0382
6.853 50.7367
6.89769 49.8654
6.94239 49.3865
6.98711 48.6455
7.03181 48.1681
7.07651 48.9339
7.12121 50.4132
7.16591 52.029
7.21063 53.9688
7.25533 57.4034
7.30004 63.2469
7.34475 69.7185
7.38945 72.133
7.43416 67.9715
7.47889 64.277
7.5236 64.2663
7.56831 89.9681
7.61303 168.657
7.65774 104.901
7.70247 52.812
7.74719 44.5924
7.79191 41.5769
7.83663 40.2747
7.88135 39.8321
7.92607 39.0347
7.97081 39.1908
8.01553 39.5457
8.06026 40.0071
8.10498 40.7127
8.14971 41.6491
8.19446 42.5706
8.23919 44.1024
8.28392 45.7839
8.32865 47.3477
8.37339 50.8908
8.41812 54.6789
8.46288 61.4366
8.50761 72.0351
8.55235 92.1517
8.59709 139.73
8.64183 196.025
8.68658 301.43
8.73134 617.503
8.77609 769.366
8.82083 381.698
8.86558 166.89
8.91033 105.551
8.9551 81.5176
8.99985 71.3995
9.04461 64.991
9.08936 61.3166
9.13412 58.7399
9.17888 58.5855
9.22365 63.751
9.26841 98.5389
9.31318 237.103
9.35794 210.89
9.4027 81.9395
9.44749 56.6027
9.49226 51.4831
9.53703 49.5517
9.5818 49.0916
9.62657 48.749
9.67134 49.1668
9.71614 50.4841
9.76091 51.2985
9.80569 52.8945
9.85047 55.1425
9.89525 58.5222
9.94005 62.9883
9.98484 71.1267
10.0296 86.6845
10.0744 119.238
10.1192 166.316
10.164 209.181
10.2088 366.287
10.2536 728.102
10.2984 733.312
10.3432 350.6
10.388 158.637
10.4328 103.231
10.4776 84.5781
10.5224 81.7806
10.5672 87.881
10.612 93.2841
10.6568 122.867
10.7017 225.995
10.7465 302.011
10.7913 198.946
10.8361 92.8851
10.8809 58.6293
10.9257 49.1951
10.9706 45.5204
11.0154 43.3161
11.0602 42.126
11.105 41.5053
11.1499 40.3257
11.1947 40.1991
11.2395 40.0389
11.2844 39.774
11.3292 39.7188
11.374 39.2246
11.4189 38.8626
11.4637 38.6355
11.5086 37.9218
11.5534 37.3852
11.5983 37.3585
11.6431 37.3991
11.688 37.1071
11.7328 36.9055
11.7777 36.9915
11.8225 36.8725
11.8674 37.34
11.9122 38.8975
11.9571 42.9277
12.002 62.562
12.0468 96.2098
12.0917 78.577
12.1366 50.0427
12.1814 46.1312
12.2263 47.5298
12.2712 51.2138
12.3161 62.1613
12.3609 84.832
12.4058 98.5625
12.4507 77.7103
12.4956 56.4371
12.5405 46.5179
12.5853 42.3941
12.6302 40.2843
12.6751 39.4457
12.72 39.0735
12.7649 39.4687
12.8098 39.2519
12.8547 38.8985
12.8996 38.9899
12.9445 38.8911
12.9894 39.1987
13.0343 39.3755
13.0792 40.8374
13.1242 43.243
13.1691 52.0851
13.214 61.3382
13.2589 61.6057
13.3038 64.9312
13.3487 69.9134
13.3937 81.6402
13.4386 116.703
13.4835 193.082
13.5285 232.418
13.5734 164.698
13.6183 105.132
13.6633 85.7367
13.7082 79.5165
13.7531 87.2256
13.7981 124.838
13.843 200.336
13.888 207.737
13.9329 124.368
13.9779 72.6069
14.0228 53.8697
14.0678 46.3732
14.1127 43.7596
14.1577 44.3966
14.2027 55.3165
14.2476 83.4472
14.2926 85.8655
14.3376 54.8317
14.3825 40.5376
14.4275 37.4846
14.4725 36.7298
14.5175 36.0615
14.5624 35.6285
14.6074 35.3766
14.6524 35.5472
14.6974 35.817
14.7424 36.1284
14.7874 36.7447
14.8324 38.0499
14.8774 40.1553
14.9224 43.7928
14.9674 47.4667
15.0124 49.505
15.0574 54.2425
15.1024 67.9659
15.1474 100.05
15.1924 133.569
15.2374 118.714
15.2824 78.8591
15.3274 54.8855
15.3725 45.151
15.4175 41.033
15.4625 38.9535
15.5076 37.7285
15.5526 37.1924
15.5976 37.0306
15.6426 36.5118
15.6877 36.8064
15.7327 37.5522
15.7778 38.9411
15.8228 41.9328
15.8679 45.3031
15.9129 47.0874
15.958 50.1243
16.003 58.5123
16.0481 79.9505
16.0931 116.738
16.1382 136.705
16.1833 112.346
16.2283 75.0679
16.2734 51.1129
16.3185 41.3173
16.3636 37.2327
16.4086 34.9336
16.4537 33.4104
16.4988 32.5468
16.5439 32.1545
16.589 31.5872
16.6341 31.164
16.6792 30.6581
16.7243 30.5539
16.7694 30.5469
16.8145 30.4228
16.8596 30.4312
16.9047 30.7456
16.9498 31.2433
16.9949 33.1174
17.04 38.0598
17.0851 40.1592
17.1302 35.9448
17.1754 32.696
17.2205 32.0367
17.2656 32.6292
17.3108 33.2497
17.3559 33.4607
17.401 34.2681
17.4462 36.6852
17.4913 41.9459
17.5365 50.2011
17.5815 52.4931
17.6268 44.9994
17.6718 37.9836
17.7171 34.9296
17.7622 33.8631
17.8074 34.3572
17.8525 37.1778
17.8977 41.4639
17.9428 41.3569
17.9881 38.2765
18.0331 38.7087
18.0784 40.5065
18.1237 41.8801
18.1688 42.9525
18.214 46.682
18.2591 55.5163
18.3044 75.8275
18.3495 102.654
18.3948 107.842
18.4399 83.1723
18.4852 61.9843
18.5303 57.3665
18.5756 64.2935
18.6207 77.6377
18.666 77.2693
18.7112 62.8467
18.7565 48.3113
18.8016 39.8853
18.8469 35.9946
18.892 34.466
18.9374 33.381
18.9825 32.6113
19.0278 32.2081
19.073 32.0899
19.1183 31.7835
19.1635 31.7292
19.2088 31.8568
19.254 32.4787
19.2993 33.1323
19.3447 34.4132
19.3898 36.8577
19.4352 42.9432
19.4804 48.997
19.5257 47.9672
19.5709 45.5542
19.6163 49.2208
19.6615 50.819
19.7068 45.4797
19.752 38.6712
19.7974 34.3731
19.8426 32.5415
19.888 31.3847
19.9332 30.7231
19.9786 30.8302
20.0238 31.0804
20.0692 31.3905
20.1144 31.47
20.1598 31.8424
20.205 32.622
20.2504 34.7956
20.2957 38.7769
20.3411 44.8681
20.3863 49.0478
20.4318 46.2519
20.477 40.8725
20.5224 39.3864
20.5677 42.8129
20.6131 46.3508
20.6586 44.0764
20.7038 37.7307
20.7493 32.9695
20.7945 30.8399
20.84 30.5926
20.8853 32.06
20.9307 33.9151
20.976 33.0692
21.0215 30.0866
21.0668 28.4854
21.1122 27.8903
21.1575 27.6147
21.203 27.5181
21.2483 27.5526
21.2938 27.615
21.3391 27.4063
21.3846 27.7371
21.4299 28.3499
21.4754 29.7052
21.5207 31.7038
21.5662 32.671
21.6116 31.7617
21.6571 30.2634
21.7024 29.1721
21.7479 28.6422
21.7933 28.8989
21.8388 29.4449
21.8843 29.9672
21.9297 30.0256
21.9752 30.8156
22.0206 32.0058
22.0661 34.0115
22.1115 37.6997
22.157 43.6031
22.2024 50.5869
22.248 52.3741
22.2933 48.5135
22.3389 44.0096
22.3843 41.5513
22.4299 40.7895
22.4753 38.9715
22.5208 34.9885
22.5662 32.0559
22.6118 30.5796
22.6572 29.3874
22.7028 29.0825
22.7483 28.8377
22.7939 28.8432
22.8393 29.0876
22.8849 30.0614
22.9303 31.2941
22.9759 31.9156
23.0214 31.1102
23.067 30.6319
23.1126 31.0009
23.1581 32.5686
23.2037 35.8167
23.2492 41.2877
23.2948 44.9117
23.3403 43.2405
23.3859 37.6183
23.4314 33.7203
23.477 32.4079
23.5225 32.8976
23.5682 34.5337
23.6137 35.1827
23.6593 33.7747
23.7048 32.5224
23.7505 32.8568
23.796 34.8395
23.8417 39.3361
23.8872 45.3904
23.9329 47.7409
23.9784 43.1991
24.0241 36.1976
24.0697 31.9285
24.1154 29.5615
24.1609 28.8744
24.2066 28.5513
24.2522 28.0357
24.2979 27.0614
24.3434 26.4669
24.3892 25.9594
24.4349 25.8122
24.4805 25.5567
24.5262 25.4789
24.5718 25.3763
24.6175 25.3636
24.6631 25.409
24.7089 25.6109
24.7545 26.3126
24.8002 27.3476
24.8458 27.8206
24.8916 27.1816
24.9372 26.5475
24.983 25.9168
25.0286 25.5646
25.0744 25.3327
25.12 25.3461
25.1658 25.3649
25.2114 25.3451
25.2572 25.7567
25.3029 26.1473
25.3487 26.9135
25.3943 27.847
25.4402 28.9072
25.4858 30.3859
25.5316 30.8376
25.5773 30.7389
25.6231 31.3967
25.669 32.7282
25.7147 33.5766
25.7605 31.897
25.8062 29.1739
25.8521 27.2048
25.8977 26.3964
25.9436 26.4964
25.9893 26.5283
26.0352 26.5118
26.0809 25.802
26.1268 25.2165
26.1725 24.9701
26.2184 25.0436
26.2641 25.2766
26.31 25.5854
26.3557 26.5542
26.4017 27.9175
26.4474 29.2422
26.4933 29.2088
26.5391 28.2809
26.585 26.9222
26.6308 26.0787
26.6767 25.5717
26.7225 25.5099
26.7684 25.7947
26.8142 25.8785
26.8601 26.4986
26.9059 27.6394
26.9519 29.4066
26.9979 31.5747
27.0437 32.534
27.0896 32.1007
27.1354 31.2861
27.1814 30.0821
27.2272 28.4819
27.2732 27.0244
27.3191 25.6311
27.3651 24.9439
27.4109 24.4114
27.4569 24.1765
27.5027 24.0041
27.5488 24.086
27.5946 23.9665
27.6407 24.179
27.6865 24.2573
27.7326 24.183
27.7784 24.3416
27.8245 24.5681
27.8703 25.3773
27.9164 25.877
27.9623 25.7082
28.0084 25.266
28.0543 24.7852
28.1003 24.7949
28.1462 25.2104
28.1923 26.0255
28.2384 26.2646
28.2843 26.2324
28.3304 26.5865
28.3764 27.8297
28.4225 29.573
28.4684 30.2119
28.5145 29.3369
28.5605 28.3397
28.6066 27.8555
28.6526 27.449
28.6987 26.3464
28.7447 25.2953
28.7908 24.2786
28.8368 23.4826
28.8829 22.9861
28.9289 22.5352
28.9751 22.4172
29.0211 22.2068
29.0673 22.1883
29.1133 22.1801
29.1595 22.3441
29.2055 22.6313
29.2517 23.0186
29.2977 23.3688
29.3439 23.2704
29.3899 22.7389
29.4361 22.2863
29.4824 21.7541
29.5284 21.6846
29.5746 21.5911
29.6207 21.666
29.6669 21.8362
29.713 22.1554
29.7593 22.6699
29.8053 23.0764
29.8516 22.8124
29.8977 22.4
29.9439 21.5683
29.99 21.2683
30.0363 20.9962
30.0824 20.897
30.1287 20.8499
30.1748 20.9382
30.2211 21.1374
30.2673 21.3038
30.3136 21.4222
30.3597 21.0432
30.406 20.8137
30.4522 20.6363
30.4985 20.7014
30.5447 20.9974
30.591 21.2825
30.6372 21.4448
30.6835 21.494
30.7297 21.3352
30.7761 20.9856
30.8224 20.9047
30.8686 20.9168
30.915 20.925
30.9612 21.1698
31.0076 21.6417
31.0538 22.2401
31.1002 23.2112
31.1464 23.7654
31.1928 23.683
31.2391 23.3571
31.2855 22.8152
31.3317 22.2589
31.3781 21.516
31.4244 21.0222
31.4708 20.5724
31.5171 20.415
31.5636 20.3795
31.6098 20.2909
31.6563 20.3935
31.7026 20.5356
31.7491 20.6942
31.7953 21.0999
31.8418 21.3733
31.8881 21.8898
31.9346 22.0359
31.9809 21.7978
32.0275 21.2163
32.074 20.7073
32.1203 20.4302
32.1668 20.436
32.2132 20.478
32.2597 20.639
32.306 20.9029
32.3526 21.2631
32.399 21.5888
32.4455 21.3877
32.4919 21.0267
32.5385 20.5414
32.5848 20.2624
32.6314 19.8506
32.6778 19.5286
32.7244 19.2028
32.7708 18.8664
32.8174 18.7933
32.8638 18.5152
32.9104 18.5947
32.9569 18.5896
33.0035 18.47
33.0499 18.5934
33.0966 18.812
33.143 18.9011
33.1897 18.7446
33.2361 18.5366
33.2828 18.3581
33.3293 18.2713
33.3759 18.2863
33.4226 18.3101
33.4691 18.4947
33.5158 18.7001
33.5623 18.9618
33.609 19.1799
33.6555 19.4144
33.7022 19.401
33.7487 19.4794
33.7954 19.314
33.842 18.8694
33.8887 18.4145
33.9353 18.0666
33.982 17.9079
34.0286 17.739
34.0753 17.7175
34.1219 17.6202
34.1687 17.4725
34.2152 17.5331
34.262 17.5518
34.3086 17.6083
34.3554 17.7096
34.402 17.5783
34.4488 17.5081
34.4954 17.2547
34.5422 17.1209
34.5889 16.9896
34.6357 16.9038
34.6825 17.0037
34.7292 17.0529
34.776 17.1389
34.8227 17.2126
34.8695 17.0507
34.9162 16.8876
34.9631 16.5995
35.0098 16.5437
35.0566 16.4365
35.1033 16.3169
35.1502 16.2835
35.1969 16.1722
35.2438 16.1692
35.2906 16.2074
35.3375 16.2694
35.3842 16.2284
35.4311 16.329
35.4779 16.3011
35.5248 16.2709
35.5716 16.2314
35.6185 16.2196
35.6653 16.2989
35.7123 16.3135
35.759 16.5428
35.806 16.6644
35.8528 16.7892
35.8998 17.1174
35.9468 17.2123
35.9936 17.2501
36.0406 16.9991
36.0874 16.7802
36.1345 16.5179
36.1813 16.2023
36.2283 16.0022
36.2752 15.7833
36.3222 15.7306
36.3691 15.6994
36.4161 15.5358
36.463 15.6479
36.5101 15.5876
36.557 15.7531
36.6041 15.7211
36.651 15.8031
36.6981 15.8133
36.745 15.6219
36.7921 15.4625
36.839 15.3547
36.8861 15.2634
36.9331 15.2478
36.9802 15.3625
37.0272 15.3675
37.0743 15.4325
37.1213 15.4912
37.1684 15.3129
37.2154 15.1936
37.2626 15.1051
37.3098 14.9229
37.3568 14.7199
37.404 14.7551
37.451 14.64
37.4982 14.573
37.5452 14.5442
37.5924 14.444
37.6395 14.4687
37.6867 14.4286
37.7337 14.322
37.781 14.2807
37.8281 14.2507
37.8753 14.2074
37.9224 14.1217
37.9697 14.0528
38.0168 14.1208
38.064 14.0698
38.1111 14.1158
38.1584 14.1528
38.2056 14.0752
38.2529 14.0225
38.3 13.9758
38.3473 13.9912
38.3945 13.7199
38.4418 13.6754
38.489 13.5774
38.5363 13.5676
38.5837 13.4656
38.6309 13.5036
38.6782 13.4885
38.7254 13.4508
38.7728 13.4837
38.82 13.5551
38.8674 13.4528
38.9146 13.4127
38.9621 13.3051
39.0093 13.2505
39.0567 13.2239
39.104 13.2437
39.1514 13.3087
39.1987 13.333
39.2461 13.3439
39.2934 13.1852
39.3409 13.0796
39.3882 12.9647
39.4356 12.8536
39.483 12.7943
39.5304 12.7564
39.5778 12.7501
39.6253 12.6684
39.6726 12.5989
39.7201 12.5807
39.7675 12.5608
39.815 12.5578
39.8624 12.5276
39.9099 12.5159
39.9575 12.4142
40.0049 12.3893
40.0525 12.3686
40.0999 12.3638
40.1474 12.3175
40.1949 12.3087
40.2425 12.299
40.2899 12.3228
40.3375 12.3716
40.385 12.3946
40.4326 12.3649
40.48 12.2298
40.5277 12.1887
40.5752 12.0302
40.6228 11.9893
40.6703 12.0203
40.718 12.0165
40.7655 11.9649
40.8132 11.8818
40.8607 11.8948
40.9084 11.8764
40.9559 11.8417
41.0036 11.795
41.0512 11.714
41.0989 11.7291
41.1465 11.7108
41.1942 11.7271
41.242 11.7428
41.2896 11.7296
41.3373 11.7426
41.3849 11.6626
41.4327 11.549
41.4803 11.4478
41.5281 11.3953
41.5758 11.3475
41.6236 11.3098
41.6712 11.1975
41.7191 11.1851
41.7667 11.1858
41.8146 11.1679
41.8622 11.135
41.9101 11.1161
41.9578 11.0124
42.0057 10.9937
42.0534 10.9856
42.1013 10.9961
42.149 10.9809
42.1969 10.9472
42.2446 11.0012
42.2925 11.0164
42.3403 10.9612
42.3882 10.9007
42.436 10.7798
42.4839 10.8008
42.5319 10.6646
42.5797 10.6162
42.6277 10.5395
42.6755 10.5429
42.7235 10.4836
42.7713 10.4385
42.8193 10.3769
42.8671 10.3239
42.9152 10.322
42.963 10.3289
43.0111 10.2514
43.0589 10.2426
43.107 10.1396
43.1549 10.1354
43.2029 10.1451
43.2508 10.103
43.2989 10.055
43.3468 9.96726
43.3949 9.95632
43.4429 9.90724
43.491 9.84038
43.5389 9.83478
43.5871 9.83703
43.635 9.78018
43.6832 9.75139
43.7312 9.70362
43.7793 9.69296
43.8273 9.65463
43.8755 9.61159
43.9237 9.61215
43.9717 9.59381
44.0199 9.54571
44.068 9.52423
44.1162 9.51965
44.1642 9.53014
44.2125 9.50499
44.2606 9.47475
44.3088 9.43898
44.3569 9.39298
44.4052 9.37232
44.4533 9.31192
44.5016 9.26969
44.5497 9.23903
44.598 9.17248
44.6461 9.18397
44.6945 9.15926
44.7426 9.15259
44.791 9.08961
44.8391 9.09174
44.8875 9.06614
44.9357 9.05126
44.984 9.00319
45.0322 8.93098
45.0806 8.95849
45.1288 8.95331
45.1773 8.88498
45.2257 8.83873
45.2739 8.85805
45.3224 8.83759
45.3706 8.77862
45.4191 8.69962
45.4673 8.67269
45.5158 8.6652
45.5641 8.60977
45.6126 8.60689
45.6609 8.5808
45.7094 8.53236
45.7577 8.50026
45.8063 8.43482
45.8546 8.46111
45.9031 8.41864
45.9515 8.41468
46.0001 8.37072
46.0484 8.37084
46.097 8.36004
46.1454 8.36541
46.194 8.29726
46.2424 8.25166
46.291 8.2257
46.3395 8.17513
46.3881 8.15184
46.4365 8.09887
46.4852 8.12501
46.5337 8.05392
46.5823 8.06099
46.631 8.01127
46.6795 8.00685
46.7282 7.99123
46.7767 7.91656
46.8254 7.87152
46.8739 7.8487
46.9226 7.8228
46.9712 7.84124
47.0199 7.80544
47.0685 7.77681
47.1173 7.74635
47.1658 7.70744
47.2146 7.70832
47.2632 7.62105
47.312 7.5956
47.3606 7.55606
47.4095 7.54518
47.4581 7.53193
47.5069 7.48543
47.5556 7.46483
47.6044 7.45701
47.6531 7.40958
47.702 7.38765
47.7507 7.37016
47.7996 7.34054
47.8483 7.31025
47.8972 7.30841
47.9461 7.28912
47.9948 7.23523
48.0438 7.23117
48.0925 7.22718
48.1415 7.18207
48.1902 7.12483
48.2392 7.11489
48.288 7.0987
48.337 7.05796
48.3858 7.04039
48.4348 7.01587
48.4837 6.98146
48.5327 6.93021
48.5815 6.92643
48.6306 6.9135
48.6795 6.88977
48.7285 6.84995
48.7774 6.79119
48.8265 6.81199
48.8754 6.75564
48.9245 6.74615
48.9734 6.72845
49.0226 6.6985
49.0715 6.68039
49.1206 6.66434
49.1696 6.6432
49.2188 6.63936
49.2679 6.6039
49.3169 6.57203
49.3661 6.5323
49.4151 6.48223
49.4643 6.48375
49.5134 6.46426
49.5626 6.4612
49.6117 6.43958
49.6609 6.46052
49.71 6.40052
49.7592 6.38051
49.8083 6.36283
49.8576 6.34888
49.9067 6.33669
49.956 6.26864
50.0052 6.29499
50.0545 6.28158
50.1036 6.23938
50.153 6.17129
50.2022 6.18176
50.2515 6.17973
50.3007 6.122
50.3501 6.10678
50.3993 6.06359
50.4487 6.08734
50.498 6.07212
50.5474 6.04387
50.5966 6.00206
50.6461 6.02866
50.6955 5.99096
50.7448 5.95191
50.7943 5.91079
50.8436 5.91377
50.8931 5.8797
50.9424 5.85317
50.9919 5.81113
51.0413 5.82424
51.0908 5.76559
51.1402 5.76728
51.1897 5.75675
51.2391 5.73752
51.2887 5.70562
51.3381 5.68785
51.3877 5.64267
51.4371 5.66403
51.4867 5.6242
51.5362 5.58791
51.5858 5.56139
51.6353 5.54555
51.6849 5.51158
51.7344 5.50116
51.7841 5.47216
51.8336 5.44675
51.8833 5.45181
51.9328 5.43357
51.9826 5.36891
52.0323 5.36253
52.0818 5.33582
52.1316 5.3181
52.1812 5.33187
52.231 5.2666
52.2806 5.25577
52.3304 5.24056
52.38 5.21001
52.4298 5.18873
52.4794 5.17551
52.5293 5.13681
52.5789 5.14633
52.6288 5.11253
52.6785 5.07963
52.7284 5.07259
52.7781 5.0791
52.828 5.0241
52.8777 4.99008
52.9276 5.02092
52.9774 4.96014
53.0273 4.97661
53.0771 4.93601
53.1271 4.93509
53.1769 4.91252
53.2269 4.87231
53.2767 4.89715
53.3267 4.85119
53.3765 4.81981
53.4266 4.76956
53.4766 4.79334
53.5265 4.73072
53.5765 4.73951
53.6264 4.70325
53.6765 4.70092
53.7264 4.67739
53.7765 4.66049
53.8265 4.64262
53.8766 4.61149
53.9266 4.57829
53.9767 4.56078
54.0267 4.56637
54.0769 4.52715
54.1269 4.4729
54.1771 4.43872
54.2271 4.4081
54.2773 4.3961
54.3274 4.38937
54.3776 4.35564
54.4277 4.33505
54.478 4.30021
54.528 4.27963
54.5783 4.19941
54.6285 4.16097
54.6788 4.19267
54.7289 4.16417
54.7792 4.11171
54.8296 4.08874
54.8798 4.04012
54.9301 4.02853
54.9803 4.02132
55.0307 3.986
55.0809 3.94894
55.1314 3.9428
55.1816 3.87665
55.232 3.83961
55.2823 3.80008
55.3328 3.75065
55.383 3.69281
55.4335 3.69388
55.4838 3.6325
55.5344 3.62278
55.5847 3.56968
55.6352 3.5905
55.6856 3.52356
55.7361 3.51547