File: XRD/Ni3Fe_FD0554.xy
TT I
1.27165 7.26493
1.31627 6.88332
1.36089 6.82009
1.40551 5.76193
1.45013 5.98888
1.49476 6.44252
1.53938 6.07889
1.584 5.68608
1.62863 5.0626
1.67325 4.55691
1.71787 5.17207
1.7625 4.64184
1.80712 5.24905
1.85174 4.96756
1.89636 4.56214
1.94099 4.6028
1.98562 5.10893
2.03025 4.1492
2.07487 4.51457
2.11949 4.8897
2.16411 4.80538
2.20874 12.2569
2.25338 18.0793
2.298 5.72526
2.34263 5.54469
2.38725 6.10606
2.43188 5.66014
2.4765 6.70655
2.52115 6.12411
2.56577 7.41663
2.6104 8.1469
2.65503 7.961
2.69965 7.77172
2.7443 7.63643
2.78893 8.17515
2.83356 8.22923
2.87818 8.50031
2.92281 9.20115
2.96744 10.0835
3.01209 10.9856
3.05672 11.1824
3.10135 12.1036
3.14599 12.5774
3.19062 14.1579
3.23527 15.0639
3.2799 15.6672
3.32454 16.7978
3.36917 17.7188
3.4138 18.7883
3.45844 19.4074
3.50309 20.9454
3.54773 22.0679
3.59237 23.3034
3.637 77.1289
3.68164 50.6108
3.7263 26.2881
3.77094 25.9757
3.81558 26.5505
3.86022 27.5518
3.90486 29.5844
3.9495 29.8791
3.99416 30.6291
4.0388 32.0778
4.08344 33.8189
4.12809 34.4912
4.17273 36.7049
4.21738 41.442
4.26204 199.609
4.30669 172.45
4.35133 46.8095
4.39598 44.5634
4.44063 52.7292
4.4853 61.1237
4.52995 50.5726
4.5746 51.381
4.61925 53.8699
4.6639 55.6618
4.70855 58.5555
4.75322 61.6539
4.79788 64.3953
4.84253 68.1855
4.88719 72.2432
4.93184 76.0534
4.97652 81.9053
5.02118 88.4477
5.06583 96.6806
5.11049 108.928
5.15515 171.765
5.19981 409.384
5.24449 3119.96
5.28916 12259.8
5.33382 3018.38
5.37848 195.982
5.42315 130.502
5.46783 114.369
5.5125 107.179
5.55716 103.071
5.60183 99.4501
5.6465 97.719
5.69117 95.8245
5.73586 93.1106
5.78053 92.7167
5.8252 92.0076
5.86988 93.6006
5.91455 96.4478
5.95924 106.3
6.00392 240.02
6.0486 1077.44
6.09328 4375.31
6.13795 3434.77
6.18263 257.282
6.22733 94.2489
6.27201 83.4005
6.3167 96.5695
6.36138 78.7527
6.40606 69.2764
6.45075 67.6287
6.49545 65.7662
6.54014 64.248
6.58483 63.0862
6.62952 62.7264
6.67421 87.8968
6.71892 124.241
6.76361 66.362
6.8083 58.6519
6.853 57.5263
6.89769 57.3903
6.94239 56.8073
6.98711 55.9845
7.03181 55.3632
7.07651 55.9682
7.12121 55.5645
7.16591 55.3854
7.21063 55.1796
7.25533 67.1287
7.30004 151.043
7.34475 83.3292
7.38945 56.3928
7.43416 54.7916
7.47889 54.536
7.5236 54.8643
7.56831 55.4829
7.61303 56.7709
7.65774 57.271
7.70247 56.3806
7.74719 56.681
7.79191 57.0513
7.83663 57.4543
7.88135 58.4447
7.92607 59.1818
7.97081 60.0438
8.01553 61.0514
8.06026 62.8145
8.10498 64.2613
8.14971 71.8796
8.19446 71.2275
8.23919 70.1086
8.28392 72.3626
8.32865 75.0019
8.37339 79.3724
8.41812 86.1014
8.46288 111.699
8.50761 179.99
8.55235 425.853
8.59709 1221.9
8.64183 2217.64
8.68658 935.804
8.73134 165.751
8.77609 99.8968
8.82083 93.3573
8.86558 90.413
8.91033 90.0169
8.9551 91.0374
8.99985 86.1023
9.04461 84.4056
9.08936 83.5503
9.13412 82.5662
9.17888 82.7507
9.22365 83.7611
9.26841 82.9244
9.31318 83.2063
9.35794 83.4179
9.4027 83.521
9.44749 84.7009
9.49226 85.3426
9.53703 86.2154
9.5818 88.1164
9.62657 92.2286
9.67134 97.4982
9.71614 94.3635
9.76091 95.0047
9.80569 97.308
9.85047 100.861
9.89525 120.915
9.94005 134.608
9.98484 192.774
10.0296 371.396
10.0744 846.965
10.1192 1715.0
10.164 1559.03
10.2088 384.056
10.2536 125.783
10.2984 113.165
10.3432 113.049
10.388 105.704
10.4328 123.328
10.4776 168.273
10.5224 292.708
10.5672 517.757
10.612 501.589
10.6568 191.403
10.7017 95.2548
10.7465 87.4282
10.7913 83.8499
10.8361 81.8044
10.8809 79.2597
10.9257 78.5006
10.9706 78.4639
11.0154 74.9194
11.0602 73.238
11.105 72.3465
11.1499 75.4062
11.1947 80.8214
11.2395 73.3849
11.2844 70.2511
11.3292 67.4262
11.374 66.7687
11.4189 66.0081
11.4637 65.24
11.5086 65.4043
11.5534 67.5122
11.5983 65.4796
11.6431 63.9166
11.688 63.2306
11.7328 63.4104
11.7777 63.0909
11.8225 62.8721
11.8674 62.8667
11.9122 63.3061
11.9571 63.4919
12.002 64.3632
12.0468 69.3974
12.0917 81.2448
12.1366 105.957
12.1814 154.546
12.2263 203.242
12.2712 160.7
12.3161 92.4103
12.3609 69.4628
12.4058 64.9075
12.4507 64.7501
12.4956 64.8776
12.5405 64.9493
12.5853 65.944
12.6302 71.7017
12.6751 76.5084
12.72 69.6143
12.7649 68.3612
12.8098 68.8205
12.8547 70.3963
12.8996 71.5241
12.9445 72.9634
12.9894 74.6297
13.0343 76.3463
13.0792 80.1209
13.1242 91.0777
13.1691 116.699
13.214 156.118
13.2589 246.241
13.3038 373.115
13.3487 427.249
13.3937 257.734
13.4386 121.958
13.4835 108.861
13.5285 125.082
13.5734 165.855
13.6183 254.257
13.6633 352.437
13.7082 340.076
13.7531 180.774
13.7981 96.6157
13.843 82.253
13.888 80.188
13.9329 77.7358
13.9779 76.1005
14.0228 74.8552
14.0678 73.5754
14.1127 73.29
14.1577 72.7797
14.2027 72.0052
14.2476 70.804
14.2926 71.0737
14.3376 71.8008
14.3825 70.4118
14.4275 69.2576
14.4725 69.3848
14.5175 69.4473
14.5624 69.5118
14.6074 71.4161
14.6524 71.8182
14.6974 71.1615
14.7424 73.2578
14.7874 81.1969
14.8324 91.7476
14.8774 114.243
14.9224 156.997
14.9674 208.89
15.0124 218.267
15.0574 145.609
15.1024 88.7277
15.1474 72.6114
15.1924 70.9917
15.2374 71.3107
15.2824 70.0889
15.3274 68.4445
15.3725 67.1366
15.4175 66.8186
15.4625 66.8015
15.5076 66.91
15.5526 66.7766
15.5976 66.4998
15.6426 67.7234
15.6877 74.0663
15.7327 82.1544
15.7778 97.8773
15.8228 129.874
15.8679 171.804
15.9129 194.112
15.958 153.863
16.003 94.6459
16.0481 67.5521
16.0931 64.3617
16.1382 62.5504
16.1833 61.0652
16.2283 59.3767
16.2734 58.8336
16.3185 58.7661
16.3636 59.3488
16.4086 57.7754
16.4537 56.4863
16.4988 55.6484
16.5439 55.8435
16.589 55.6353
16.6341 55.1679
16.6792 54.7816
16.7243 55.2798
16.7694 55.2847
16.8145 55.2632
16.8596 55.479
16.9047 56.7811
16.9498 56.9374
16.9949 56.0489
17.04 56.289
17.0851 57.8078
17.1302 59.4038
17.1754 62.5021
17.2205 67.8236
17.2656 75.3115
17.3108 82.7368
17.3559 81.7994
17.401 71.05
17.4462 62.3025
17.4913 59.6017
17.5365 59.6129
17.5815 59.5672
17.6268 60.0388
17.6718 60.6725
17.7171 61.4347
17.7622 62.0038
17.8074 62.5377
17.8525 65.3525
17.8977 69.6024
17.9428 75.1405
17.9881 84.4184
18.0331 101.947
18.0784 123.152
18.1237 141.73
18.1688 132.735
18.214 102.967
18.2591 87.0171
18.3044 91.6591
18.3495 100.8
18.3948 106.548
18.4399 95.5515
18.4852 77.1374
18.5303 66.1704
18.5756 62.5703
18.6207 61.7689
18.666 60.71
18.7112 59.991
18.7565 59.3542
18.8016 59.0715
18.8469 58.4579
18.892 58.1186
18.9374 57.6353
18.9825 57.3497
19.0278 57.3258
19.073 57.475
19.1183 58.0234
19.1635 58.7365
19.2088 60.1732
19.254 62.8968
19.2993 67.3105
19.3447 73.2718
19.3898 76.7303
19.4352 72.213
19.4804 62.9636
19.5257 56.9175
19.5709 54.6726
19.6163 54.3978
19.6615 53.9468
19.7068 53.8489
19.752 53.6775
19.7974 54.0609
19.8426 55.0898
19.888 55.7542
19.9332 56.8134
19.9786 59.6319
20.0238 63.2308
20.0692 67.9784
20.1144 70.3893
20.1598 68.4113
20.205 63.7381
20.2504 62.554
20.2957 64.6038
20.3411 65.9926
20.3863 64.4571
20.4318 58.2786
20.477 53.6327
20.5224 51.7626
20.5677 51.1903
20.6131 50.7475
20.6586 50.1024
20.7038 49.931
20.7493 49.4441
20.7945 49.3832
20.84 49.3427
20.8853 49.1494
20.9307 48.8452
20.976 49.0996
21.0215 49.0661
21.0668 49.4644
21.1122 50.083
21.1575 50.583
21.203 51.3349
21.2483 51.6828
21.2938 51.7504
21.3391 50.3403
21.3846 49.1564
21.4299 48.7424
21.4754 48.7645
21.5207 48.9563
21.5662 49.2219
21.6116 49.823
21.6571 50.5146
21.7024 51.4941
21.7479 53.2438
21.7933 55.943
21.8388 59.4674
21.8843 63.4032
21.9297 65.0304
21.9752 63.5628
22.0206 59.7824
22.0661 56.7433
22.1115 56.3181
22.157 56.0092
22.2024 54.3777
22.248 51.6712
22.2933 50.1771
22.3389 49.3746
22.3843 49.172
22.4299 49.2344
22.4753 49.2591
22.5208 49.1362
22.5662 48.843
22.6118 49.0248
22.6572 49.3448
22.7028 49.6998
22.7483 50.2043
22.7939 50.9401
22.8393 52.6078
22.8849 54.5906
22.9303 56.5453
22.9759 58.2307
23.0214 57.6986
23.067 54.595
23.1126 51.1596
23.1581 49.5378
23.2037 49.0133
23.2492 49.2321
23.2948 49.2682
23.3403 49.5988
23.3859 50.3415
23.4314 51.3219
23.477 53.3054
23.5225 55.1617
23.5682 57.2675
23.6137 58.3814
23.6593 55.8151
23.7048 51.7182
23.7505 48.4634
23.796 46.9171
23.8417 46.5145
23.8872 45.9546
23.9329 45.5112
23.9784 45.2694
24.0241 44.9145
24.0697 44.7817
24.1154 44.3843
24.1609 44.3654
24.2066 44.1121
24.2522 43.9355
24.2979 43.7612
24.3434 43.664
24.3892 43.4273
24.4349 43.2884
24.4805 43.1909
24.5262 43.1559
24.5718 43.2572
24.6175 43.1767
24.6631 43.0913
24.7089 42.7034
24.7545 42.7021
24.8002 42.6396
24.8458 42.558
24.8916 42.4629
24.9372 42.5534
24.983 42.8135
25.0286 43.1663
25.0744 43.7502
25.12 44.2197
25.1658 44.6668
25.2114 44.9698
25.2572 45.1859
25.3029 45.1012
25.3487 45.2406
25.3943 44.8893
25.4402 43.7472
25.4858 42.6885
25.5316 41.5389
25.5773 41.2483
25.6231 41.0659
25.669 40.7297
25.7147 40.9378
25.7605 40.6901
25.8062 40.7423
25.8521 40.9202
25.8977 40.8017
25.9436 41.1752
25.9893 41.2826
26.0352 41.7235
26.0809 41.971
26.1268 41.9893
26.1725 41.5972
26.2184 41.0212
26.2641 40.5354
26.31 40.3683
26.3557 40.4554
26.4017 40.5177
26.4474 40.7425
26.4933 41.0647
26.5391 41.439
26.585 42.0555
26.6308 42.5281
26.6767 42.5543
26.7225 42.2401
26.7684 41.6955
26.8142 41.0719
26.8601 40.6691
26.9059 40.3285
26.9519 39.7814
26.9979 39.476
27.0437 39.2915
27.0896 39.0727
27.1354 39.0475
27.1814 38.6585
27.2272 38.8179
27.2732 38.86
27.3191 38.6242
27.3651 38.7303
27.4109 38.5663
27.4569 38.8098
27.5027 38.7296
27.5488 38.9069
27.5946 38.6946
27.6407 38.4593
27.6865 38.3884
27.7326 38.0832
27.7784 38.1037
27.8245 38.1113
27.8703 38.2429
27.9164 38.59
27.9623 38.7198
28.0084 38.9591
28.0543 39.3667
28.1003 39.2692
28.1462 39.1766
28.1923 38.6809
28.2384 38.1263
28.2843 37.913
28.3304 37.3649
28.3764 36.9318
28.4225 36.767
28.4684 36.538
28.5145 36.3003
28.5605 36.0446
28.6066 35.8616
28.6526 35.7915
28.6987 35.8175
28.7447 35.6839
28.7908 35.7127
28.8368 35.6793
28.8829 35.6976
28.9289 35.6161
28.9751 35.3343
29.0211 35.1185
29.0673 34.9341
29.1133 34.8729
29.1595 34.6422
29.2055 34.4277
29.2517 34.5686
29.2977 34.501
29.3439 34.5657
29.3899 34.492
29.4361 34.4214
29.4824 34.1533
29.5284 33.9729
29.5746 33.7602
29.6207 33.4448
29.6669 33.2562
29.713 33.1981
29.7593 33.1777
29.8053 33.15
29.8516 33.0621
29.8977 33.0243
29.9439 32.876
29.99 32.7624
30.0363 32.7498
30.0824 32.7345
30.1287 32.6716
30.1748 32.68
30.2211 32.6402
30.2673 32.5249
30.3136 32.5469
30.3597 32.5254
30.406 32.3852
30.4522 32.249
30.4985 32.2752
30.5447 32.3362
30.591 32.3521
30.6372 32.4204
30.6835 32.4127
30.7297 32.4374
30.7761 32.3474
30.8224 32.1478
30.8686 32.0977
30.915 31.8882
30.9612 31.7735
31.0076 31.5067
31.0538 31.3718
31.1002 31.2722
31.1464 31.1611
31.1928 31.1398
31.2391 31.2101
31.2855 30.9892
31.3317 31.0351
31.3781 31.1852
31.4244 31.1493
31.4708 31.0273
31.5171 31.0108
31.5636 30.9709
31.6098 30.6942
31.6563 30.5644
31.7026 30.4846
31.7491 30.395
31.7953 30.4323
31.8418 30.3646
31.8881 30.4844
31.9346 30.3561
31.9809 30.3148
32.0275 30.1128
32.074 29.9651
32.1203 29.7329
32.1668 29.6934
32.2132 29.5769
32.2597 29.3887
32.306 29.4122
32.3526 29.1656
32.399 29.1468
32.4455 28.9505
32.4919 28.8655
32.5385 28.8264
32.5848 28.6842
32.6314 28.7642
32.6778 28.6783
32.7244 28.4644
32.7708 28.3151
32.8174 28.3931
32.8638 28.1981
32.9104 28.2861
32.9569 28.2328
33.0035 28.0601
33.0499 28.0226
33.0966 28.0015
33.143 28.0155
33.1897 27.958
33.2361 27.7779
33.2828 27.8081
33.3293 27.6301
33.3759 27.6272
33.4226 27.4277
33.4691 27.314
33.5158 27.1481
33.5623 27.095
33.609 26.9677
33.6555 26.8788
33.7022 26.8019
33.7487 26.688
33.7954 26.7537
33.842 26.6628
33.8887 26.5557
33.9353 26.5036
33.982 26.2653
34.0286 26.171
34.0753 26.1319
34.1219 26.1024
34.1687 26.0056
34.2152 25.9798
34.262 25.8262
34.3086 25.736
34.3554 25.6972
34.402 25.5541
34.4488 25.5356
34.4954 25.3966
34.5422 25.3558
34.5889 25.1627
34.6357 25.1643
34.6825 25.1424
34.7292 24.9819
34.776 24.8779
34.8227 24.8791
34.8695 24.8695
34.9162 24.8126
34.9631 24.625
35.0098 24.6457
35.0566 24.499
35.1033 24.5059
35.1502 24.4688
35.1969 24.3923
35.2438 24.3138
35.2906 24.2347
35.3375 24.2075
35.3842 24.1121
35.4311 24.1826
35.4779 24.0275
35.5248 24.0115
35.5716 23.846
35.6185 23.8342
35.6653 23.7292
35.7123 23.6055
35.759 23.5667
35.806 23.5043
35.8528 23.3636
35.8998 23.3451
35.9468 23.275
35.9936 23.2965
36.0406 23.1321
36.0874 23.1293
36.1345 23.0766
36.1813 23.0363
36.2283 22.8091
36.2752 22.8563
36.3222 22.8083
36.3691 22.7921
36.4161 22.532
36.463 22.5836
36.5101 22.5392
36.557 22.5023
36.6041 22.3189
36.651 22.3668
36.6981 22.2717
36.745 22.2598
36.7921 22.1872
36.839 22.024
36.8861 21.945
36.9331 21.8967
36.9802 21.794
37.0272 21.7592
37.0743 21.6419
37.1213 21.6111
37.1684 21.5421
37.2154 21.4235
37.2626 21.4604
37.3098 21.3522
37.3568 21.3876
37.404 21.2515
37.451 21.0952
37.4982 21.0915
37.5452 21.0321
37.5924 20.9004
37.6395 21.0136
37.6867 20.8314
37.7337 20.7571
37.781 20.7023
37.8281 20.6417
37.8753 20.5246
37.9224 20.4768
37.9697 20.4577
38.0168 20.3653
38.064 20.2594
38.1111 20.2207
38.1584 20.192
38.2056 20.1101
38.2529 20.0213
38.3 19.9466
38.3473 20.0094
38.3945 19.8729
38.4418 19.8282
38.489 19.7579
38.5363 19.6592
38.5837 19.5508
38.6309 19.5067
38.6782 19.4614
38.7254 19.3984
38.7728 19.3831
38.82 19.3178
38.8674 19.2427
38.9146 19.1641
38.9621 19.0148
39.0093 19.1111
39.0567 18.9414
39.104 18.957
39.1514 18.8217
39.1987 18.7824
39.2461 18.7625
39.2934 18.7143
39.3409 18.5642
39.3882 18.5231
39.4356 18.4548
39.483 18.4252
39.5304 18.3849
39.5778 18.3323
39.6253 18.3043
39.6726 18.1981
39.7201 18.1541
39.7675 18.1102
39.815 18.0663
39.8624 17.9644
39.9099 17.9679
39.9575 17.8349
40.0049 17.773
40.0525 17.7507
40.0999 17.7198
40.1474 17.6305
40.1949 17.559
40.2425 17.459
40.2899 17.4235
40.3375 17.444
40.385 17.3386
40.4326 17.2817
40.48 17.1874
40.5277 17.1961
40.5752 17.1461
40.6228 17.0531
40.6703 17.0207
40.718 17.039
40.7655 16.9298
40.8132 16.8534
40.8607 16.8248
40.9084 16.8165
40.9559 16.6777
41.0036 16.6836
41.0512 16.6402
41.0989 16.5635
41.1465 16.5336
41.1942 16.5022
41.242 16.365
41.2896 16.2921
41.3373 16.2567
41.3849 16.2024
41.4327 16.1178
41.4803 16.0823
41.5281 16.0101
41.5758 16.0166
41.6236 15.9895
41.6712 15.8627
41.7191 15.8134
41.7667 15.7511
41.8146 15.7873
41.8622 15.6848
41.9101 15.6682
41.9578 15.4897
42.0057 15.5329
42.0534 15.4407
42.1013 15.4596
42.149 15.329
42.1969 15.3433
42.2446 15.2721
42.2925 15.2282
42.3403 15.1408
42.3882 15.1524
42.436 15.0534
42.4839 14.9927
42.5319 14.9877
42.5797 14.9423
42.6277 14.8752
42.6755 14.8364
42.7235 14.7986
42.7713 14.7416
42.8193 14.6587
42.8671 14.5782
42.9152 14.6692
42.963 14.4856
43.0111 14.482
43.0589 14.4344
43.107 14.3931
43.1549 14.3549
43.2029 14.2142
43.2508 14.2189
43.2989 14.1608
43.3468 14.1264
43.3949 14.064
43.4429 14.0546
43.491 13.9622
43.5389 13.9684
43.5871 13.9001
43.635 13.8579
43.6832 13.7789
43.7312 13.7426
43.7793 13.6801
43.8273 13.6881
43.8755 13.6118
43.9237 13.5049
43.9717 13.5224
44.0199 13.4768
44.068 13.3887
44.1162 13.3578
44.1642 13.3718
44.2125 13.2978
44.2606 13.2158
44.3088 13.1676
44.3569 13.1406
44.4052 13.1296
44.4533 12.9751
44.5016 13.0217
44.5497 12.9587
44.598 12.8957
44.6461 12.8988
44.6945 12.8027
44.7426 12.7759
44.791 12.6921
44.8391 12.7237
44.8875 12.634
44.9357 12.563
44.984 12.5292
45.0322 12.5016
45.0806 12.4261
45.1288 12.3966
45.1773 12.3815
45.2257 12.3694
45.2739 12.2914
45.3224 12.2743
45.3706 12.197
45.4191 12.149
45.4673 12.1136
45.5158 12.0784
45.5641 12.0134
45.6126 11.9822
45.6609 11.9581
45.7094 11.8872
45.7577 11.8707
45.8063 11.7968
45.8546 11.7666
45.9031 11.7231
45.9515 11.6777
46.0001 11.6548
46.0484 11.5717
46.097 11.5609
46.1454 11.5231
46.194 11.5071
46.2424 11.4087
46.291 11.4205
46.3395 11.3611
46.3881 11.2946
46.4365 11.261
46.4852 11.2089
46.5337 11.1491
46.5823 11.1773
46.631 11.1328
46.6795 11.0859
46.7282 11.0736
46.7767 11.0257
46.8254 10.9157
46.8739 10.874
46.9226 10.8407
46.9712 10.7979
47.0199 10.8099
47.0685 10.7148
47.1173 10.6961
47.1658 10.6362
47.2146 10.6172
47.2632 10.5435
47.312 10.5709
47.3606 10.5161
47.4095 10.453
47.4581 10.4332
47.5069 10.4175
47.5556 10.351
47.6044 10.302
47.6531 10.2494
47.702 10.2385
47.7507 10.2034
47.7996 10.1422
47.8483 10.1166
47.8972 10.095
47.9461 10.0608
47.9948 9.99863
48.0438 9.98767
48.0925 9.98493
48.1415 9.89089
48.1902 9.86759
48.2392 9.85327
48.288 9.81805
48.337 9.78743
48.3858 9.74879
48.4348 9.71678
48.4837 9.69943
48.5327 9.66709
48.5815 9.6101
48.6306 9.56529
48.6795 9.51719
48.7285 9.49298
48.7774 9.41559
48.8265 9.42308
48.8754 9.34948
48.9245 9.37769
48.9734 9.29064
49.0226 9.27018
49.0715 9.2236
49.1206 9.19033
49.1696 9.14694
49.2188 9.13926
49.2679 9.10609
49.3169 9.04823
49.3661 9.02981
49.4151 8.97469
49.4643 8.98759
49.5134 8.9
49.5626 8.8557
49.6117 8.81962
49.6609 8.86793
49.71 8.74144
49.7592 8.72646
49.8083 8.7216
49.8576 8.69748
49.9067 8.65475
49.956 8.61715
50.0052 8.59075
50.0545 8.58919
50.1036 8.49981
50.153 8.47374
50.2022 8.45409
50.2515 8.41331
50.3007 8.40882
50.3501 8.34061
50.3993 8.31783
50.4487 8.28847
50.498 8.27459
50.5474 8.24003
50.5966 8.18541
50.6461 8.17515
50.6955 8.12913
50.7448 8.10841
50.7943 8.06523
50.8436 8.04833
50.8931 8.00143
50.9424 7.98292
50.9919 7.99434
51.0413 7.93081
51.0908 7.87715
51.1402 7.84747
51.1897 7.80672
51.2391 7.82902
51.2887 7.73982
51.3381 7.7167
51.3877 7.69847
51.4371 7.64555
51.4867 7.61253
51.5362 7.60125
51.5858 7.55837
51.6353 7.55705
51.6849 7.46155
51.7344 7.48253
51.7841 7.45323
51.8336 7.44412
51.8833 7.39849
51.9328 7.31442
51.9826 7.31471
52.0323 7.29162
52.0818 7.27815
52.1316 7.25121
52.1812 7.19607
52.231 7.13254
52.2806 7.11765
52.3304 7.11422
52.38 7.07231
52.4298 7.04069
52.4794 7.00308
52.5293 6.97766
52.5789 6.99785
52.6288 6.95991
52.6785 6.88675
52.7284 6.88154
52.7781 6.88672
52.828 6.84557
52.8777 6.78894
52.9276 6.76053
52.9774 6.77718
53.0273 6.69872
53.0771 6.66527
53.1271 6.65505
53.1769 6.61858
53.2269 6.58716
53.2767 6.52346
53.3267 6.53686
53.3765 6.51248
53.4266 6.46982
53.4766 6.49305
53.5265 6.40449
53.5765 6.39535
53.6264 6.37419
53.6765 6.32543
53.7264 6.29322
53.7765 6.30092
53.8265 6.24557
53.8766 6.21926
53.9266 6.19453
53.9767 6.14153
54.0267 6.16158
54.0769 6.13324
54.1269 6.07134
54.1771 6.06094
54.2271 6.05309
54.2773 6.0079
54.3274 5.97134
54.3776 5.94458
54.4277 5.88462
54.478 5.89993
54.528 5.85863
54.5783 5.81406
54.6285 5.76948
54.6788 5.78865
54.7289 5.66854
54.7792 5.63373
54.8296 5.5911
54.8798 5.55581
54.9301 5.53856
54.9803 5.50285
55.0307 5.53426
55.0809 5.43946
55.1314 5.40909
55.1816 5.31695
55.232 5.29442
55.2823 5.24797
55.3328 5.19033
55.383 5.15185
55.4335 5.13848
55.4838 5.04805
55.5344 4.94051
55.5847 4.95067
55.6352 4.92735
55.6856 4.93137
55.7361 4.81536