File: XRD/Ni3Fe_FD0283.xy
TT I
1.27165 7.84418
1.31627 7.15666
1.36089 6.80515
1.40551 6.31825
1.45013 6.96012
1.49476 6.47282
1.53938 5.74802
1.584 5.36865
1.62863 5.20662
1.67325 5.74016
1.71787 5.38956
1.7625 5.13931
1.80712 5.54351
1.85174 5.12211
1.89636 5.25839
1.94099 4.89707
1.98562 4.42418
2.03025 4.881
2.07487 4.58148
2.11949 4.97563
2.16411 4.61069
2.20874 14.944
2.25338 26.0304
2.298 6.36502
2.34263 5.07838
2.38725 4.3854
2.43188 4.89005
2.4765 5.92963
2.52115 4.67856
2.56577 6.10718
2.6104 6.17869
2.65503 6.67592
2.69965 6.95709
2.7443 7.35727
2.78893 7.23648
2.83356 8.10499
2.87818 8.25188
2.92281 8.66643
2.96744 9.53949
3.01209 10.155
3.05672 10.8825
3.10135 12.177
3.14599 13.091
3.19062 14.0949
3.23527 15.2668
3.2799 15.8179
3.32454 17.2698
3.36917 17.6715
3.4138 19.4429
3.45844 20.0636
3.50309 21.9193
3.54773 22.1791
3.59237 24.9647
3.637 102.922
3.68164 65.4294
3.7263 27.1164
3.77094 27.4951
3.81558 27.5009
3.86022 28.1697
3.90486 29.6782
3.9495 30.6545
3.99416 31.8084
4.0388 32.6482
4.08344 35.0688
4.12809 35.8864
4.17273 38.1818
4.21738 45.6583
4.26204 276.193
4.30669 250.072
4.35133 51.3208
4.39598 46.1689
4.44063 55.8916
4.4853 69.5047
4.52995 53.5537
4.5746 53.309
4.61925 55.2278
4.6639 57.7174
4.70855 59.9552
4.75322 62.8779
4.79788 66.3288
4.84253 69.1131
4.88719 74.9972
4.93184 77.7913
4.97652 84.3965
5.02118 91.4155
5.06583 100.339
5.11049 115.482
5.15515 201.992
5.19981 510.212
5.24449 3233.49
5.28916 10956.2
5.33382 4187.46
5.37848 261.45
5.42315 148.077
5.46783 124.926
5.5125 114.26
5.55716 108.125
5.60183 104.337
5.6465 101.892
5.69117 98.7947
5.73586 96.9866
5.78053 97.7908
5.8252 97.5651
5.86988 98.7737
5.91455 101.265
5.95924 114.017
6.00392 264.315
6.0486 1108.13
6.09328 3685.06
6.13795 3709.21
6.18263 386.512
6.22733 107.254
6.27201 90.7602
6.3167 110.719
6.36138 86.0661
6.40606 72.7951
6.45075 70.5991
6.49545 68.0919
6.54014 66.4498
6.58483 65.8884
6.62952 65.3928
6.67421 99.3331
6.71892 160.372
6.76361 73.2045
6.8083 61.0277
6.853 59.7105
6.89769 59.6221
6.94239 58.818
6.98711 58.3568
7.03181 57.7711
7.07651 57.0715
7.12121 57.5994
7.16591 57.3299
7.21063 58.0963
7.25533 73.8556
7.30004 201.335
7.34475 101.385
7.38945 59.0315
7.43416 56.9216
7.47889 56.3035
7.5236 56.6966
7.56831 57.5474
7.61303 59.3218
7.65774 60.0547
7.70247 58.3485
7.74719 58.4562
7.79191 58.9017
7.83663 59.4481
7.88135 59.7397
7.92607 61.0256
7.97081 62.1252
8.01553 63.1483
8.06026 64.5677
8.10498 66.4616
8.14971 77.4407
8.19446 76.0355
8.23919 72.2618
8.28392 75.0238
8.32865 77.3443
8.37339 81.7862
8.41812 89.7386
8.46288 123.925
8.50761 192.745
8.55235 456.8
8.59709 1038.27
8.64183 2066.19
8.68658 1306.58
8.73134 238.219
8.77609 109.216
8.82083 98.4075
8.86558 94.8835
8.91033 94.3953
8.9551 96.3495
8.99985 88.968
9.04461 86.7514
9.08936 86.3863
9.13412 85.2147
9.17888 84.8986
9.22365 85.9833
9.26841 85.3148
9.31318 86.2584
9.35794 86.2772
9.4027 86.4719
9.44749 86.9673
9.49226 87.9671
9.53703 88.9352
9.5818 91.355
9.62657 96.3119
9.67134 103.918
9.71614 97.5793
9.76091 97.9749
9.80569 100.946
9.85047 104.62
9.89525 131.242
9.94005 148.497
9.98484 201.719
10.0296 401.804
10.0744 739.561
10.1192 1491.93
10.164 1765.53
10.2088 599.028
10.2536 151.867
10.2984 121.238
10.3432 122.831
10.388 110.944
10.4328 127.584
10.4776 177.572
10.5224 262.042
10.5672 452.876
10.612 548.964
10.6568 264.596
10.7017 108.047
10.7465 91.2594
10.7913 87.26
10.8361 84.751
10.8809 82.2181
10.9257 81.9458
10.9706 83.1417
11.0154 78.1573
11.0602 75.6636
11.105 74.8179
11.1499 79.4085
11.1947 88.9447
11.2395 78.4454
11.2844 73.639
11.3292 70.218
11.374 68.9299
11.4189 68.2495
11.4637 67.4313
11.5086 68.1245
11.5534 71.5675
11.5983 68.87
11.6431 66.2251
11.688 65.2566
11.7328 65.6392
11.7777 65.3374
11.8225 64.83
11.8674 64.9545
11.9122 65.2158
11.9571 65.3049
12.002 66.1368
12.0468 71.4168
12.0917 85.4818
12.1366 104.287
12.1814 139.94
12.2263 198.053
12.2712 191.926
12.3161 113.671
12.3609 76.0677
12.4058 67.8801
12.4507 67.1656
12.4956 67.2648
12.5405 67.1895
12.5853 68.0903
12.6302 76.5845
12.6751 83.8885
12.72 73.8101
12.7649 70.5291
12.8098 71.0837
12.8547 72.5273
12.8996 73.9898
12.9445 74.9942
12.9894 76.9748
13.0343 78.6159
13.0792 82.1563
13.1242 93.5588
13.1691 122.889
13.214 158.06
13.2589 218.23
13.3038 326.839
13.3487 432.322
13.3937 321.274
13.4386 151.711
13.4835 115.53
13.5285 133.105
13.5734 160.515
13.6183 221.303
13.6633 317.007
13.7082 366.637
13.7531 237.808
13.7981 113.446
13.843 86.5125
13.888 83.1647
13.9329 80.5999
13.9779 78.551
14.0228 77.3926
14.0678 76.0883
14.1127 75.4575
14.1577 75.3929
14.2027 74.5453
14.2476 73.2603
14.2926 73.5632
14.3376 74.7067
14.3825 73.269
14.4275 71.7198
14.4725 71.3323
14.5175 71.5837
14.5624 71.7407
14.6074 74.1338
14.6524 74.8299
14.6974 73.3753
14.7424 75.083
14.7874 83.506
14.8324 95.883
14.8774 111.922
14.9224 140.812
14.9674 189.133
15.0124 222.557
15.0574 174.996
15.1024 106.19
15.1474 77.3198
15.1924 73.9079
15.2374 74.4156
15.2824 73.5233
15.3274 71.061
15.3725 69.7209
15.4175 68.9862
15.4625 68.7401
15.5076 69.1091
15.5526 68.7951
15.5976 68.4835
15.6426 69.9297
15.6877 76.7601
15.7327 86.1088
15.7778 97.105
15.8228 118.123
15.8679 154.608
15.9129 190.738
15.958 176.149
16.003 117.071
16.0481 74.6887
16.0931 68.2145
16.1382 65.8025
16.1833 63.4061
16.2283 61.6265
16.2734 60.7509
16.3185 61.1914
16.3636 62.0978
16.4086 60.6753
16.4537 58.7471
16.4988 57.7267
16.5439 57.6603
16.589 57.4004
16.6341 57.0663
16.6792 56.6671
16.7243 57.1953
16.7694 57.1795
16.8145 57.1061
16.8596 57.5935
16.9047 59.0702
16.9498 59.7127
16.9949 58.1467
17.04 58.0589
17.0851 59.5748
17.1302 61.5904
17.1754 64.4821
17.2205 67.6169
17.2656 73.2973
17.3108 81.8513
17.3559 85.9604
17.401 77.8811
17.4462 66.6933
17.4913 61.9157
17.5365 61.432
17.5815 61.642
17.6268 61.8733
17.6718 62.7907
17.7171 63.4378
17.7622 63.7061
17.8074 64.4028
17.8525 66.9596
17.8977 72.3034
17.9428 78.524
17.9881 84.3675
18.0331 96.2811
18.0784 114.282
18.1237 137.378
18.1688 142.729
18.214 117.911
18.2591 93.0769
18.3044 89.618
18.3495 97.8998
18.3948 108.342
18.4399 104.665
18.4852 85.7801
18.5303 70.8472
18.5756 65.2534
18.6207 64.1016
18.666 63.095
18.7112 62.2589
18.7565 61.4344
18.8016 60.9258
18.8469 60.4306
18.892 60.0521
18.9374 59.6087
18.9825 59.3507
19.0278 59.3028
19.073 59.2888
19.1183 60.1622
19.1635 61.0374
19.2088 62.315
19.254 63.6356
19.2993 66.5734
19.3447 72.4831
19.3898 77.898
19.4352 77.4026
19.4804 68.9847
19.5257 60.8418
19.5709 56.8622
19.6163 55.8751
19.6615 56.0256
19.7068 55.4451
19.752 55.6786
19.7974 55.8391
19.8426 56.8615
19.888 57.669
19.9332 58.5806
19.9786 60.2103
20.0238 63.1072
20.0692 67.4187
20.1144 71.7185
20.1598 72.3887
20.205 67.5012
20.2504 64.1072
20.2957 64.3676
20.3411 67.114
20.3863 67.6582
20.4318 62.7078
20.477 57.0693
20.5224 54.3379
20.5677 53.2862
20.6131 52.4248
20.6586 51.7876
20.7038 51.6969
20.7493 51.1218
20.7945 51.1344
20.84 50.8879
20.8853 50.6516
20.9307 50.7439
20.976 50.7959
21.0215 50.7262
21.0668 51.0457
21.1122 51.2944
21.1575 51.8501
21.203 52.3949
21.2483 53.3095
21.2938 53.6572
21.3391 52.4179
21.3846 51.4471
21.4299 50.6085
21.4754 50.3916
21.5207 50.4772
21.5662 50.8062
21.6116 51.3123
21.6571 52.0719
21.7024 53.1616
21.7479 54.5859
21.7933 56.2371
21.8388 59.2711
21.8843 63.0423
21.9297 66.5908
21.9752 66.9724
22.0206 63.4563
22.0661 59.1342
22.1115 57.834
22.157 57.8875
22.2024 57.0224
22.248 54.4612
22.2933 52.6263
22.3389 51.2855
22.3843 51.0381
22.4299 50.9918
22.4753 50.7611
22.5208 50.7389
22.5662 50.5233
22.6118 50.5661
22.6572 50.8287
22.7028 51.3853
22.7483 51.8521
22.7939 52.1896
22.8393 53.555
22.8849 55.0022
22.9303 56.9463
22.9759 59.0526
23.0214 60.0283
23.067 57.9731
23.1126 54.383
23.1581 51.819
23.2037 50.8345
23.2492 50.9728
23.2948 51.0361
23.3403 51.3064
23.3859 51.7013
23.4314 52.3543
23.477 53.5381
23.5225 55.271
23.5682 57.707
23.6137 59.6832
23.6593 59.0244
23.7048 55.2234
23.7505 51.2744
23.796 48.9025
23.8417 47.9469
23.8872 47.3781
23.9329 47.0769
23.9784 46.8495
24.0241 46.513
24.0697 46.3184
24.1154 46.0509
24.1609 45.9006
24.2066 45.6283
24.2522 45.4927
24.2979 45.1488
24.3434 45.1721
24.3892 44.9155
24.4349 44.8571
24.4805 44.6319
24.5262 44.7137
24.5718 44.4614
24.6175 44.6352
24.6631 44.4751
24.7089 44.2977
24.7545 44.26
24.8002 44.0951
24.8458 44.1177
24.8916 43.939
24.9372 43.8425
24.983 44.2371
25.0286 44.5469
25.0744 44.8522
25.12 45.2127
25.1658 45.8057
25.2114 46.202
25.2572 46.2875
25.3029 46.3761
25.3487 46.4888
25.3943 46.4497
25.4402 45.7007
25.4858 44.7673
25.5316 43.4965
25.5773 42.6685
25.6231 42.6732
25.669 42.1065
25.7147 42.3249
25.7605 42.0674
25.8062 42.2073
25.8521 42.2669
25.8977 42.0979
25.9436 42.3853
25.9893 42.4053
26.0352 42.7591
26.0809 42.993
26.1268 43.2323
26.1725 43.2233
26.2184 42.6227
26.2641 42.1153
26.31 41.8184
26.3557 41.7591
26.4017 41.7608
26.4474 42.0348
26.4933 42.2589
26.5391 42.5652
26.585 42.9761
26.6308 43.3162
26.6767 43.6002
26.7225 43.6417
26.7684 43.1782
26.8142 42.6551
26.8601 42.1581
26.9059 41.7781
26.9519 41.3136
26.9979 40.9028
27.0437 40.4059
27.0896 40.3517
27.1354 40.4291
27.1814 40.0958
27.2272 40.1397
27.2732 40.0039
27.3191 39.9172
27.3651 39.9825
27.4109 39.8715
27.4569 39.9094
27.5027 39.9617
27.5488 40.1611
27.5946 40.06
27.6407 39.8718
27.6865 39.5642
27.7326 39.3728
27.7784 39.3676
27.8245 39.2836
27.8703 39.4138
27.9164 39.7237
27.9623 39.6815
28.0084 39.9757
28.0543 40.3794
28.1003 40.5885
28.1462 40.5199
28.1923 40.0919
28.2384 39.6243
28.2843 39.3021
28.3304 38.677
28.3764 38.3781
28.4225 37.9324
28.4684 37.7969
28.5145 37.3897
28.5605 37.2985
28.6066 36.9876
28.6526 37.0765
28.6987 37.0534
28.7447 36.8684
28.7908 36.898
28.8368 36.7958
28.8829 36.8629
28.9289 36.6187
28.9751 36.535
29.0211 36.3971
29.0673 36.1524
29.1133 36.0001
29.1595 35.7441
29.2055 35.6603
29.2517 35.6157
29.2977 35.651
29.3439 35.5787
29.3899 35.5035
29.4361 35.5182
29.4824 35.377
29.5284 35.2264
29.5746 34.8324
29.6207 34.5083
29.6669 34.3307
29.713 34.3098
29.7593 34.2611
29.8053 34.2628
29.8516 34.0631
29.8977 34.0823
29.9439 33.9519
29.99 33.785
30.0363 33.6665
30.0824 33.7582
30.1287 33.7523
30.1748 33.7335
30.2211 33.697
30.2673 33.5858
30.3136 33.7452
30.3597 33.5634
30.406 33.5324
30.4522 33.384
30.4985 33.4051
30.5447 33.4582
30.591 33.3285
30.6372 33.477
30.6835 33.3794
30.7297 33.4175
30.7761 33.5214
30.8224 33.3247
30.8686 33.073
30.915 32.8974
30.9612 32.9466
31.0076 32.5815
31.0538 32.4331
31.1002 32.3942
31.1464 32.1754
31.1928 32.1343
31.2391 32.1238
31.2855 32.0445
31.3317 32.0507
31.3781 32.0886
31.4244 32.122
31.4708 31.9978
31.5171 31.9905
31.5636 32.1428
31.6098 31.7773
31.6563 31.6409
31.7026 31.4347
31.7491 31.3607
31.7953 31.3704
31.8418 31.3292
31.8881 31.3123
31.9346 31.3771
31.9809 31.2667
32.0275 31.0703
32.074 31.0405
32.1203 30.8465
32.1668 30.6916
32.2132 30.59
32.2597 30.4088
32.306 30.3178
32.3526 30.1611
32.399 30.1356
32.4455 29.988
32.4919 29.8618
32.5385 29.8094
32.5848 29.5503
32.6314 29.6915
32.6778 29.5809
32.7244 29.3969
32.7708 29.247
32.8174 29.2805
32.8638 29.1218
32.9104 29.1887
32.9569 29.1673
33.0035 28.9676
33.0499 28.9359
33.0966 28.9155
33.143 28.8779
33.1897 28.7203
33.2361 28.6815
33.2828 28.7854
33.3293 28.5236
33.3759 28.5338
33.4226 28.4129
33.4691 28.2642
33.5158 28.1705
33.5623 27.9897
33.609 27.7891
33.6555 27.7646
33.7022 27.5903
33.7487 27.5566
33.7954 27.4902
33.842 27.4498
33.8887 27.3306
33.9353 27.3344
33.982 27.2522
34.0286 27.1324
34.0753 27.0551
34.1219 26.937
34.1687 26.844
34.2152 26.8318
34.262 26.6979
34.3086 26.5733
34.3554 26.5667
34.402 26.4868
34.4488 26.3329
34.4954 26.3003
34.5422 26.1681
34.5889 26.0985
34.6357 26.034
34.6825 25.9515
34.7292 25.8343
34.776 25.7075
34.8227 25.6983
34.8695 25.6229
34.9162 25.5563
34.9631 25.4574
35.0098 25.4532
35.0566 25.3941
35.1033 25.2959
35.1502 25.1836
35.1969 25.1166
35.2438 25.1113
35.2906 25.0909
35.3375 25.0013
35.3842 24.9185
35.4311 24.9388
35.4779 24.8288
35.5248 24.8551
35.5716 24.707
35.6185 24.683
35.6653 24.6165
35.7123 24.5048
35.759 24.4794
35.806 24.2333
35.8528 24.2286
35.8998 24.1364
35.9468 23.9841
35.9936 23.9828
36.0406 23.9078
36.0874 23.8724
36.1345 23.8643
36.1813 23.6999
36.2283 23.5425
36.2752 23.567
36.3222 23.6277
36.3691 23.5413
36.4161 23.3495
36.463 23.3527
36.5101 23.2966
36.557 23.2449
36.6041 22.9983
36.651 23.0656
36.6981 23.0221
36.745 22.9536
36.7921 22.8825
36.839 22.7334
36.8861 22.6896
36.9331 22.6095
36.9802 22.5441
37.0272 22.4913
37.0743 22.3538
37.1213 22.3428
37.1684 22.224
37.2154 22.1595
37.2626 22.1362
37.3098 21.9854
37.3568 21.9451
37.404 21.9343
37.451 21.8625
37.4982 21.789
37.5452 21.6361
37.5924 21.6559
37.6395 21.7696
37.6867 21.4986
37.7337 21.4216
37.781 21.4174
37.8281 21.3467
37.8753 21.2617
37.9224 21.156
37.9697 21.0735
38.0168 21.0091
38.064 20.9553
38.1111 20.9265
38.1584 20.8424
38.2056 20.8283
38.2529 20.703
38.3 20.5788
38.3473 20.6648
38.3945 20.4737
38.4418 20.4331
38.489 20.3832
38.5363 20.2956
38.5837 20.2035
38.6309 20.1904
38.6782 20.18
38.7254 20.025
38.7728 19.9798
38.82 19.8962
38.8674 19.8849
38.9146 19.8049
38.9621 19.7059
39.0093 19.7409
39.0567 19.6594
39.104 19.5241
39.1514 19.5114
39.1987 19.3896
39.2461 19.4435
39.2934 19.3724
39.3409 19.204
39.3882 19.1543
39.4356 19.0981
39.483 19.0458
39.5304 18.9516
39.5778 19.0243
39.6253 18.8699
39.6726 18.8262
39.7201 18.7995
39.7675 18.7559
39.815 18.6356
39.8624 18.5763
39.9099 18.5362
39.9575 18.4272
40.0049 18.4241
40.0525 18.3547
40.0999 18.3144
40.1474 18.2224
40.1949 18.1301
40.2425 18.0907
40.2899 18.0637
40.3375 18.0016
40.385 17.9518
40.4326 17.9245
40.48 17.9138
40.5277 17.7941
40.5752 17.7098
40.6228 17.6288
40.6703 17.5835
40.718 17.5063
40.7655 17.5326
40.8132 17.3938
40.8607 17.3765
40.9084 17.3652
40.9559 17.2436
41.0036 17.2476
41.0512 17.1917
41.0989 17.1072
41.1465 16.9906
41.1942 17.0423
41.242 16.9947
41.2896 16.8855
41.3373 16.7821
41.3849 16.772
41.4327 16.6833
41.4803 16.6721
41.5281 16.6178
41.5758 16.5929
41.6236 16.4888
41.6712 16.4698
41.7191 16.3534
41.7667 16.3022
41.8146 16.2566
41.8622 16.2406
41.9101 16.2025
41.9578 16.1042
42.0057 16.0398
42.0534 15.963
42.1013 15.9813
42.149 15.9096
42.1969 15.7981
42.2446 15.7856
42.2925 15.7394
42.3403 15.666
42.3882 15.6752
42.436 15.6658
42.4839 15.5457
42.5319 15.5507
42.5797 15.4343
42.6277 15.3676
42.6755 15.3069
42.7235 15.2146
42.7713 15.2721
42.8193 15.1853
42.8671 15.1067
42.9152 15.0376
42.963 15.0097
43.0111 14.9038
43.0589 14.9004
43.107 14.8883
43.1549 14.7966
43.2029 14.7114
43.2508 14.7342
43.2989 14.617
43.3468 14.5557
43.3949 14.57
43.4429 14.4739
43.491 14.4763
43.5389 14.3863
43.5871 14.3376
43.635 14.3222
43.6832 14.2546
43.7312 14.2203
43.7793 14.1695
43.8273 14.1012
43.8755 14.0122
43.9237 14.037
43.9717 13.952
44.0199 13.8963
44.068 13.8682
44.1162 13.7426
44.1642 13.828
44.2125 13.7176
44.2606 13.713
44.3088 13.6289
44.3569 13.6156
44.4052 13.5733
44.4533 13.4925
44.5016 13.3982
44.5497 13.395
44.598 13.3604
44.6461 13.3531
44.6945 13.2402
44.7426 13.1841
44.791 13.1442
44.8391 13.093
44.8875 13.0622
44.9357 12.9902
44.984 12.9763
45.0322 12.9084
45.0806 12.8928
45.1288 12.836
45.1773 12.8125
45.2257 12.7181
45.2739 12.6832
45.3224 12.6482
45.3706 12.6273
45.4191 12.548
45.4673 12.4952
45.5158 12.4501
45.5641 12.4105
45.6126 12.3876
45.6609 12.3202
45.7094 12.2969
45.7577 12.2614
45.8063 12.1574
45.8546 12.1332
45.9031 12.0849
45.9515 12.0829
46.0001 11.968
46.0484 11.9471
46.097 11.9658
46.1454 11.9134
46.194 11.8593
46.2424 11.7865
46.291 11.7634
46.3395 11.699
46.3881 11.6247
46.4365 11.6723
46.4852 11.6051
46.5337 11.5595
46.5823 11.4907
46.631 11.4772
46.6795 11.4241
46.7282 11.3925
46.7767 11.3462
46.8254 11.2609
46.8739 11.2221
46.9226 11.2302
46.9712 11.1579
47.0199 11.1304
47.0685 11.1855
47.1173 11.0367
47.1658 11.0443
47.2146 10.9426
47.2632 10.898
47.312 10.9015
47.3606 10.8432
47.4095 10.7986
47.4581 10.7777
47.5069 10.7274
47.5556 10.6872
47.6044 10.6273
47.6531 10.5725
47.702 10.5504
47.7507 10.5418
47.7996 10.4958
47.8483 10.4754
47.8972 10.4154
47.9461 10.3638
47.9948 10.2901
48.0438 10.2771
48.0925 10.2778
48.1415 10.1855
48.1902 10.1629
48.2392 10.1721
48.288 10.1204
48.337 10.0662
48.3858 10.0548
48.4348 10.0193
48.4837 9.96457
48.5327 9.93024
48.5815 9.90441
48.6306 9.87691
48.6795 9.86133
48.7285 9.79154
48.7774 9.77677
48.8265 9.72902
48.8754 9.67034
48.9245 9.65535
48.9734 9.61108
49.0226 9.61921
49.0715 9.53876
49.1206 9.51345
49.1696 9.47923
49.2188 9.41631
49.2679 9.4216
49.3169 9.36607
49.3661 9.33183
49.4151 9.31763
49.4643 9.26194
49.5134 9.21694
49.5626 9.15157
49.6117 9.17043
49.6609 9.13977
49.71 9.08798
49.7592 9.04317
49.8083 8.99197
49.8576 9.00556
49.9067 8.94921
49.956 8.94838
50.0052 8.88805
50.0545 8.82633
50.1036 8.82107
50.153 8.74635
50.2022 8.73961
50.2515 8.70115
50.3007 8.66121
50.3501 8.60338
50.3993 8.60676
50.4487 8.56254
50.498 8.56824
50.5474 8.48806
50.5966 8.43929
50.6461 8.44578
50.6955 8.41844
50.7448 8.40936
50.7943 8.35669
50.8436 8.29827
50.8931 8.26168
50.9424 8.26642
50.9919 8.25337
51.0413 8.20163
51.0908 8.17187
51.1402 8.10753
51.1897 8.0648
51.2391 8.05947
51.2887 8.02979
51.3381 7.96691
51.3877 7.95115
51.4371 7.92646
51.4867 7.84886
51.5362 7.87952
51.5858 7.82254
51.6353 7.75646
51.6849 7.74358
51.7344 7.72748
51.7841 7.69561
51.8336 7.68251
51.8833 7.65382
51.9328 7.54576
51.9826 7.53573
52.0323 7.51363
52.0818 7.52053
52.1316 7.49235
52.1812 7.43694
52.231 7.40462
52.2806 7.36882
52.3304 7.33893
52.38 7.2998
52.4298 7.26433
52.4794 7.26201
52.5293 7.25669
52.5789 7.18653
52.6288 7.15708
52.6785 7.11895
52.7284 7.13394
52.7781 7.10831
52.828 7.05894
52.8777 7.01026
52.9276 6.99462
52.9774 6.97839
53.0273 6.92707
53.0771 6.90061
53.1271 6.88474
53.1769 6.84038
53.2269 6.83762
53.2767 6.78386
53.3267 6.75375
53.3765 6.71502
53.4266 6.69832
53.4766 6.65871
53.5265 6.62482
53.5765 6.63927
53.6264 6.5811
53.6765 6.53519
53.7264 6.50206
53.7765 6.49598
53.8265 6.45646
53.8766 6.41691
53.9266 6.38783
53.9767 6.37047
54.0267 6.36555
54.0769 6.36625
54.1269 6.27558
54.1771 6.28503
54.2271 6.24835
54.2773 6.18327
54.3274 6.16296
54.3776 6.12778
54.4277 6.07945
54.478 6.06015
54.528 6.00079
54.5783 5.99935
54.6285 5.92382
54.6788 5.88595
54.7289 5.83817
54.7792 5.80263
54.8296 5.77764
54.8798 5.72976
54.9301 5.73892
54.9803 5.69091
55.0307 5.6378
55.0809 5.60875
55.1314 5.51962
55.1816 5.4971
55.232 5.43743
55.2823 5.38268
55.3328 5.36797
55.383 5.24465
55.4335 5.27135
55.4838 5.2622
55.5344 5.16795
55.5847 5.11185
55.6352 5.11746
55.6856 5.02002
55.7361 5.00182