File: XRD/Ni3Fe_FD0526.xy
TT I
1.27165 7.51783
1.31627 6.54764
1.36089 7.43976
1.40551 6.86703
1.45013 6.58415
1.49476 5.43071
1.53938 6.46478
1.584 4.99958
1.62863 5.40806
1.67325 5.33474
1.71787 4.55861
1.7625 4.39203
1.80712 5.69686
1.85174 4.33042
1.89636 4.86884
1.94099 5.07604
1.98562 5.65295
2.03025 5.01466
2.07487 4.36883
2.11949 4.81298
2.16411 5.27531
2.20874 16.2844
2.25338 27.1299
2.298 6.40421
2.34263 4.56335
2.38725 5.66133
2.43188 5.11329
2.4765 6.59015
2.52115 6.83852
2.56577 7.54547
2.6104 7.61341
2.65503 7.4029
2.69965 7.53725
2.7443 7.92056
2.78893 7.8806
2.83356 8.38137
2.87818 8.46338
2.92281 8.54286
2.96744 9.42362
3.01209 10.5756
3.05672 11.3553
3.10135 12.4428
3.14599 12.8137
3.19062 14.1857
3.23527 15.285
3.2799 15.7362
3.32454 16.5754
3.36917 17.9027
3.4138 19.1036
3.45844 19.8922
3.50309 21.1709
3.54773 22.4744
3.59237 24.2952
3.637 109.221
3.68164 68.8648
3.7263 26.74
3.77094 26.4679
3.81558 27.0391
3.86022 27.9061
3.90486 29.3971
3.9495 30.348
3.99416 31.3991
4.0388 32.212
4.08344 34.454
4.12809 35.5655
4.17273 37.573
4.21738 44.7579
4.26204 295.338
4.30669 265.807
4.35133 50.8492
4.39598 45.4393
4.44063 56.1328
4.4853 70.6991
4.52995 51.0244
4.5746 51.765
4.61925 53.5057
4.6639 55.6812
4.70855 58.7623
4.75322 61.1846
4.79788 63.7155
4.84253 67.2435
4.88719 71.6957
4.93184 75.3478
4.97652 81.1329
5.02118 87.7124
5.06583 94.9259
5.11049 106.812
5.15515 188.141
5.19981 373.746
5.24449 2755.51
5.28916 12013.3
5.33382 3373.77
5.37848 206.011
5.42315 133.413
5.46783 116.086
5.5125 107.745
5.55716 103.637
5.60183 99.8594
5.6465 98.1596
5.69117 95.2903
5.73586 93.2172
5.78053 92.2199
5.8252 91.6162
5.86988 92.6601
5.91455 94.9814
5.95924 102.672
6.00392 207.831
6.0486 955.262
6.09328 4103.83
6.13795 3513.31
6.18263 299.005
6.22733 97.2795
6.27201 85.0858
6.3167 110.097
6.36138 84.0901
6.40606 69.8168
6.45075 68.2066
6.49545 66.2346
6.54014 64.6236
6.58483 63.9241
6.62952 64.02
6.67421 101.007
6.71892 166.698
6.76361 72.3023
6.8083 59.5378
6.853 58.4136
6.89769 57.7133
6.94239 57.2349
6.98711 56.6092
7.03181 56.3773
7.07651 56.0979
7.12121 55.9712
7.16591 56.4859
7.21063 56.2714
7.25533 73.6643
7.30004 211.816
7.34475 103.462
7.38945 58.0276
7.43416 55.5881
7.47889 55.0257
7.5236 55.1355
7.56831 56.1008
7.61303 57.9455
7.65774 58.5082
7.70247 56.8463
7.74719 56.5844
7.79191 57.4531
7.83663 57.3618
7.88135 58.3096
7.92607 58.9635
7.97081 60.2234
8.01553 61.2712
8.06026 62.6017
8.10498 64.5631
8.14971 75.5175
8.19446 74.4167
8.23919 70.005
8.28392 72.3698
8.32865 74.4054
8.37339 78.5321
8.41812 85.8934
8.46288 120.222
8.50761 165.226
8.55235 381.316
8.59709 1096.28
8.64183 2131.07
8.68658 1084.14
8.73134 196.359
8.77609 101.897
8.82083 93.7279
8.86558 90.5659
8.91033 90.7969
8.9551 93.8183
8.99985 86.6002
9.04461 84.0651
9.08936 83.1578
9.13412 82.1919
9.17888 82.4984
9.22365 83.7222
9.26841 82.6714
9.31318 82.966
9.35794 83.3562
9.4027 83.6327
9.44749 84.6157
9.49226 84.8966
9.53703 85.9825
9.5818 87.5453
9.62657 93.1147
9.67134 101.392
9.71614 94.5534
9.76091 94.6662
9.80569 97.3192
9.85047 100.842
9.89525 129.041
9.94005 143.837
9.98484 175.059
10.0296 337.066
10.0744 761.46
10.1192 1620.96
10.164 1668.89
10.2088 465.476
10.2536 135.266
10.2984 116.215
10.3432 119.084
10.388 106.058
10.4328 118.192
10.4776 158.462
10.5224 269.462
10.5672 493.46
10.612 542.371
10.6568 226.892
10.7017 100.26
10.7465 87.7049
10.7913 83.7352
10.8361 81.8742
10.8809 79.727
10.9257 79.5973
10.9706 80.7464
11.0154 76.0511
11.0602 73.3286
11.105 72.4217
11.1499 78.064
11.1947 87.5307
11.2395 77.0253
11.2844 71.8063
11.3292 68.2451
11.374 66.9585
11.4189 66.2685
11.4637 65.6002
11.5086 66.3164
11.5534 70.4822
11.5983 66.9492
11.6431 64.1696
11.688 63.7032
11.7328 63.5801
11.7777 63.3685
11.8225 63.198
11.8674 62.9312
11.9122 63.3853
11.9571 63.4205
12.002 64.1252
12.0468 68.0168
12.0917 79.4182
12.1366 102.124
12.1814 147.274
12.2263 202.638
12.2712 177.94
12.3161 103.682
12.3609 73.4609
12.4058 65.7194
12.4507 64.8476
12.4956 64.9289
12.5405 65.1428
12.5853 66.0578
12.6302 75.5294
12.6751 82.9982
12.72 71.5571
12.7649 68.6418
12.8098 69.0692
12.8547 70.0028
12.8996 71.684
12.9445 72.8886
12.9894 74.4876
13.0343 76.0201
13.0792 79.2747
13.1242 87.7544
13.1691 112.137
13.214 147.065
13.2589 226.023
13.3038 350.514
13.3487 436.796
13.3937 290.126
13.4386 132.613
13.4835 106.533
13.5285 120.275
13.5734 155.538
13.6183 235.359
13.6633 335.962
13.7082 349.484
13.7531 203.344
13.7981 103.692
13.843 83.1165
13.888 80.5509
13.9329 77.9161
13.9779 76.447
14.0228 74.9658
14.0678 73.4187
14.1127 73.389
14.1577 73.4737
14.2027 72.3943
14.2476 70.8153
14.2926 71.2738
14.3376 72.8354
14.3825 71.3158
14.4275 69.4002
14.4725 69.3271
14.5175 69.3874
14.5624 69.6242
14.6074 72.1969
14.6524 72.8604
14.6974 71.0152
14.7424 72.2577
14.7874 78.7735
14.8324 88.938
14.8774 108.778
14.9224 147.071
14.9674 198.181
15.0124 219.228
15.0574 159.046
15.1024 96.0098
15.1474 73.6223
15.1924 71.3937
15.2374 72.5125
15.2824 71.7637
15.3274 69.125
15.3725 67.5999
15.4175 67.0266
15.4625 66.7834
15.5076 67.2396
15.5526 66.8459
15.5976 66.3725
15.6426 67.2083
15.6877 72.421
15.7327 79.7826
15.7778 94.0234
15.8228 122.089
15.8679 163.632
15.9129 194.28
15.958 165.123
16.003 103.948
16.0481 70.6597
16.0931 66.2865
16.1382 64.0505
16.1833 61.5388
16.2283 59.4723
16.2734 59.1945
16.3185 59.5672
16.3636 60.6869
16.4086 58.9618
16.4537 56.9946
16.4988 56.1952
16.5439 56.199
16.589 55.6808
16.6341 55.4047
16.6792 55.0251
16.7243 55.6796
16.7694 55.8427
16.8145 55.6581
16.8596 55.9507
16.9047 57.6873
16.9498 57.8416
16.9949 56.2606
17.04 56.0996
17.0851 57.4212
17.1302 58.9199
17.1754 62.0382
17.2205 66.6088
17.2656 73.9545
17.3108 82.9574
17.3559 83.264
17.401 73.1402
17.4462 63.6926
17.4913 60.0891
17.5365 59.6481
17.5815 59.8287
17.6268 59.8828
17.6718 61.1486
17.7171 61.6321
17.7622 61.9387
17.8074 62.361
17.8525 64.3839
17.8977 68.4739
17.9428 73.9668
17.9881 82.1158
18.0331 97.1099
18.0784 117.048
18.1237 137.362
18.1688 135.817
18.214 108.782
18.2591 88.3853
18.3044 89.6421
18.3495 99.1568
18.3948 106.64
18.4399 100.26
18.4852 80.9737
18.5303 68.0469
18.5756 63.112
18.6207 62.097
18.666 61.1686
18.7112 60.2657
18.7565 59.7335
18.8016 59.2858
18.8469 58.7166
18.892 58.3974
18.9374 57.7174
18.9825 57.7008
19.0278 57.5156
19.073 57.5453
19.1183 57.972
19.1635 58.9678
19.2088 60.052
19.254 62.1712
19.2993 66.2803
19.3447 72.234
19.3898 76.7255
19.4352 74.1333
19.4804 65.0435
19.5257 57.9934
19.5709 54.9061
19.6163 54.5239
19.6615 54.1859
19.7068 53.8703
19.752 53.7352
19.7974 54.2382
19.8426 55.0472
19.888 55.4979
19.9332 56.727
19.9786 58.7299
20.0238 62.0284
20.0692 66.7888
20.1144 70.1391
20.1598 69.2339
20.205 64.6821
20.2504 62.6886
20.2957 63.8026
20.3411 66.1097
20.3863 65.2883
20.4318 59.7206
20.477 54.9003
20.5224 52.6379
20.5677 51.8717
20.6131 50.8202
20.6586 50.2829
20.7038 50.132
20.7493 49.5905
20.7945 49.5194
20.84 49.4413
20.8853 49.248
20.9307 49.1222
20.976 49.2289
21.0215 49.1833
21.0668 49.6008
21.1122 49.9707
21.1575 50.5435
21.203 51.1403
21.2483 51.8258
21.2938 52.2204
21.3391 50.9565
21.3846 49.8847
21.4299 49.0292
21.4754 48.6899
21.5207 49.0848
21.5662 49.3732
21.6116 49.6046
21.6571 50.1489
21.7024 51.4021
21.7479 52.8871
21.7933 55.269
21.8388 58.6355
21.8843 62.4673
21.9297 65.1296
21.9752 64.5695
22.0206 60.9666
22.0661 57.553
22.1115 56.5063
22.157 56.6316
22.2024 55.2341
22.248 52.434
22.2933 50.5465
22.3389 49.6956
22.3843 49.6311
22.4299 49.5739
22.4753 49.4901
22.5208 49.2525
22.5662 49.0662
22.6118 49.1707
22.6572 49.2999
22.7028 49.6845
22.7483 50.014
22.7939 50.7734
22.8393 52.2616
22.8849 54.1624
22.9303 56.0851
22.9759 58.1818
23.0214 58.377
23.067 56.0299
23.1126 52.2264
23.1581 49.9992
23.2037 49.3877
23.2492 49.3839
23.2948 49.3564
23.3403 49.5969
23.3859 50.1437
23.4314 51.1357
23.477 52.73
23.5225 54.8401
23.5682 57.0707
23.6137 58.5971
23.6593 56.8819
23.7048 52.9373
23.7505 49.2892
23.796 47.3327
23.8417 46.5684
23.8872 46.1805
23.9329 45.6724
23.9784 45.3665
24.0241 45.1097
24.0697 44.9667
24.1154 44.7621
24.1609 44.5426
24.2066 44.509
24.2522 44.2738
24.2979 43.9507
24.3434 43.9035
24.3892 43.8249
24.4349 43.6188
24.4805 43.303
24.5262 43.4349
24.5718 43.3395
24.6175 43.4507
24.6631 43.2305
24.7089 43.0828
24.7545 43.0039
24.8002 42.7079
24.8458 42.6688
24.8916 42.4378
24.9372 42.6471
24.983 43.0315
25.0286 43.3787
25.0744 43.6783
25.12 44.019
25.1658 44.7536
25.2114 45.1587
25.2572 45.1206
25.3029 45.1845
25.3487 45.5188
25.3943 45.298
25.4402 44.1142
25.4858 43.2626
25.5316 42.1016
25.5773 41.4273
25.6231 41.3884
25.669 40.9314
25.7147 40.9971
25.7605 40.8899
25.8062 41.0377
25.8521 41.1918
25.8977 40.9945
25.9436 41.2704
25.9893 41.3895
26.0352 41.835
26.0809 41.955
26.1268 42.1362
26.1725 41.9579
26.2184 41.364
26.2641 40.9196
26.31 40.591
26.3557 40.6772
26.4017 40.5472
26.4474 40.8453
26.4933 41.1074
26.5391 41.6964
26.585 42.067
26.6308 42.4704
26.6767 42.6003
26.7225 42.6853
26.7684 41.9745
26.8142 41.506
26.8601 40.9185
26.9059 40.5665
26.9519 39.978
26.9979 39.7529
27.0437 39.4048
27.0896 39.0603
27.1354 39.2075
27.1814 38.9797
27.2272 39.0613
27.2732 38.9647
27.3191 38.8091
27.3651 38.8466
27.4109 38.848
27.4569 38.8286
27.5027 38.9088
27.5488 39.0367
27.5946 38.8712
27.6407 38.6
27.6865 38.3993
27.7326 38.1449
27.7784 38.3455
27.8245 38.2419
27.8703 38.4294
27.9164 38.6911
27.9623 38.9022
28.0084 39.0423
28.0543 39.3565
28.1003 39.3291
28.1462 39.2263
28.1923 38.9766
28.2384 38.4121
28.2843 38.0736
28.3304 37.7982
28.3764 37.3205
28.4225 36.9231
28.4684 36.7725
28.5145 36.4471
28.5605 36.321
28.6066 36.0994
28.6526 36.0811
28.6987 35.9819
28.7447 35.9638
28.7908 35.8378
28.8368 35.7303
28.8829 35.8036
28.9289 35.7451
28.9751 35.6033
29.0211 35.4106
29.0673 35.0208
29.1133 35.071
29.1595 34.8361
29.2055 34.6615
29.2517 34.7281
29.2977 34.7573
29.3439 34.7403
29.3899 34.6785
29.4361 34.5407
29.4824 34.4458
29.5284 34.1949
29.5746 33.7621
29.6207 33.5518
29.6669 33.4871
29.713 33.3989
29.7593 33.2463
29.8053 33.229
29.8516 33.2195
29.8977 33.1985
29.9439 32.8761
29.99 33.0544
30.0363 32.7871
30.0824 32.9339
30.1287 32.7588
30.1748 32.8442
30.2211 32.7823
30.2673 32.5308
30.3136 32.7062
30.3597 32.6933
30.406 32.6028
30.4522 32.4169
30.4985 32.4084
30.5447 32.5746
30.591 32.4727
30.6372 32.5604
30.6835 32.4676
30.7297 32.5601
30.7761 32.5318
30.8224 32.3312
30.8686 32.2929
30.915 32.1068
30.9612 31.9167
31.0076 31.7351
31.0538 31.5025
31.1002 31.4766
31.1464 31.3977
31.1928 31.373
31.2391 31.3314
31.2855 31.2514
31.3317 31.2653
31.3781 31.1763
31.4244 31.1492
31.4708 31.1252
31.5171 31.2544
31.5636 31.14
31.6098 30.8551
31.6563 30.7027
31.7026 30.5832
31.7491 30.4872
31.7953 30.5065
31.8418 30.5026
31.8881 30.5574
31.9346 30.4685
31.9809 30.3875
32.0275 30.3393
32.074 30.2358
32.1203 29.9635
32.1668 29.9586
32.2132 29.7371
32.2597 29.6023
32.306 29.4581
32.3526 29.3458
32.399 29.2248
32.4455 29.1328
32.4919 29.0282
32.5385 28.9914
32.5848 28.8204
32.6314 28.7669
32.6778 28.6384
32.7244 28.6459
32.7708 28.464
32.8174 28.4795
32.8638 28.3947
32.9104 28.4432
32.9569 28.3016
33.0035 28.2544
33.0499 28.1674
33.0966 28.1193
33.143 28.1986
33.1897 28.035
33.2361 27.9534
33.2828 27.9284
33.3293 27.741
33.3759 27.6934
33.4226 27.6253
33.4691 27.4236
33.5158 27.3384
33.5623 27.1225
33.609 27.079
33.6555 27.0558
33.7022 26.9119
33.7487 26.7543
33.7954 26.9289
33.842 26.7406
33.8887 26.6089
33.9353 26.5571
33.982 26.4541
34.0286 26.4587
34.0753 26.3099
34.1219 26.1875
34.1687 26.2002
34.2152 26.0469
34.262 25.9882
34.3086 25.9029
34.3554 25.8262
34.402 25.7419
34.4488 25.6013
34.4954 25.4935
34.5422 25.4355
34.5889 25.2867
34.6357 25.3137
34.6825 25.2934
34.7292 25.1493
34.776 25.0181
34.8227 24.9224
34.8695 24.9303
34.9162 24.8573
34.9631 24.7947
35.0098 24.7486
35.0566 24.6117
35.1033 24.5394
35.1502 24.5654
35.1969 24.5133
35.2438 24.4135
35.2906 24.3878
35.3375 24.279
35.3842 24.3503
35.4311 24.2063
35.4779 24.1929
35.5248 24.2123
35.5716 24.0729
35.6185 24.0255
35.6653 23.796
35.7123 23.8432
35.759 23.7582
35.806 23.5935
35.8528 23.5153
35.8998 23.4853
35.9468 23.3555
35.9936 23.3332
36.0406 23.269
36.0874 23.3497
36.1345 23.1216
36.1813 23.1594
36.2283 23.0424
36.2752 22.975
36.3222 22.9635
36.3691 22.7196
36.4161 22.6546
36.463 22.701
36.5101 22.6015
36.557 22.5932
36.6041 22.4334
36.651 22.442
36.6981 22.4175
36.745 22.2841
36.7921 22.171
36.839 22.0836
36.8861 22.047
36.9331 21.9781
36.9802 21.8844
37.0272 21.8615
37.0743 21.7548
37.1213 21.7786
37.1684 21.7514
37.2154 21.5418
37.2626 21.5078
37.3098 21.4762
37.3568 21.3557
37.404 21.372
37.451 21.2166
37.4982 21.2281
37.5452 21.0808
37.5924 20.9734
37.6395 21.0242
37.6867 20.9726
37.7337 20.9081
37.781 20.8071
37.8281 20.6847
37.8753 20.6655
37.9224 20.5578
37.9697 20.514
38.0168 20.4549
38.064 20.4204
38.1111 20.2689
38.1584 20.3028
38.2056 20.2321
38.2529 20.1256
38.3 20.0574
38.3473 20.1035
38.3945 19.952
38.4418 19.9559
38.489 19.7872
38.5363 19.7482
38.5837 19.6937
38.6309 19.6411
38.6782 19.5578
38.7254 19.4897
38.7728 19.435
38.82 19.3891
38.8674 19.3264
38.9146 19.3233
38.9621 19.2815
39.0093 19.1414
39.0567 19.0931
39.104 19.0685
39.1514 18.9305
39.1987 18.8262
39.2461 18.9201
39.2934 18.7807
39.3409 18.7298
39.3882 18.6569
39.4356 18.5883
39.483 18.555
39.5304 18.4745
39.5778 18.5052
39.6253 18.3414
39.6726 18.2446
39.7201 18.2607
39.7675 18.2292
39.815 18.195
39.8624 18.094
39.9099 18.0643
39.9575 17.9378
40.0049 17.9546
40.0525 17.8625
40.0999 17.837
40.1474 17.751
40.1949 17.7196
40.2425 17.6421
40.2899 17.5851
40.3375 17.5311
40.385 17.4468
40.4326 17.4205
40.48 17.3664
40.5277 17.315
40.5752 17.2213
40.6228 17.1577
40.6703 17.1828
40.718 17.0914
40.7655 17.0099
40.8132 16.9365
40.8607 16.9324
40.9084 16.9163
40.9559 16.7845
41.0036 16.7615
41.0512 16.7338
41.0989 16.674
41.1465 16.6062
41.1942 16.517
41.242 16.4671
41.2896 16.4258
41.3373 16.4155
41.3849 16.3526
41.4327 16.2652
41.4803 16.1833
41.5281 16.1481
41.5758 16.0734
41.6236 16.0324
41.6712 15.9922
41.7191 15.9139
41.7667 15.8771
41.8146 15.855
41.8622 15.774
41.9101 15.7587
41.9578 15.6394
42.0057 15.6304
42.0534 15.5801
42.1013 15.5315
42.149 15.4629
42.1969 15.4232
42.2446 15.3581
42.2925 15.303
42.3403 15.231
42.3882 15.2316
42.436 15.1685
42.4839 15.0941
42.5319 15.0875
42.5797 15.0072
42.6277 14.9409
42.6755 14.8894
42.7235 14.8807
42.7713 14.7868
42.8193 14.7481
42.8671 14.7052
42.9152 14.6327
42.963 14.5887
43.0111 14.539
43.0589 14.5311
43.107 14.4518
43.1549 14.3991
43.2029 14.3002
43.2508 14.3699
43.2989 14.2657
43.3468 14.2082
43.3949 14.1255
43.4429 14.1023
43.491 14.0771
43.5389 13.9774
43.5871 13.9389
43.635 13.8899
43.6832 13.8462
43.7312 13.7943
43.7793 13.7197
43.8273 13.6929
43.8755 13.6701
43.9237 13.6314
43.9717 13.6178
44.0199 13.539
44.068 13.5093
44.1162 13.4469
44.1642 13.3736
44.2125 13.303
44.2606 13.3297
44.3088 13.2271
44.3569 13.1907
44.4052 13.1548
44.4533 13.0962
44.5016 13.0258
44.5497 13.0552
44.598 13.0019
44.6461 12.9715
44.6945 12.8731
44.7426 12.8085
44.791 12.773
44.8391 12.7616
44.8875 12.6995
44.9357 12.7171
44.984 12.614
45.0322 12.5835
45.0806 12.5226
45.1288 12.4826
45.1773 12.4312
45.2257 12.3755
45.2739 12.3313
45.3224 12.2835
45.3706 12.2348
45.4191 12.2126
45.4673 12.1872
45.5158 12.1479
45.5641 12.1052
45.6126 12.0536
45.6609 11.9777
45.7094 11.9339
45.7577 11.929
45.8063 11.8366
45.8546 11.8557
45.9031 11.7875
45.9515 11.7821
46.0001 11.751
46.0484 11.651
46.097 11.7105
46.1454 11.5933
46.194 11.5736
46.2424 11.516
46.291 11.4176
46.3395 11.4019
46.3881 11.3419
46.4365 11.3446
46.4852 11.2941
46.5337 11.2426
46.5823 11.2064
46.631 11.1336
46.6795 11.1002
46.7282 11.0944
46.7767 11.0504
46.8254 11.0119
46.8739 10.9487
46.9226 10.8681
46.9712 10.8863
47.0199 10.8184
47.0685 10.7885
47.1173 10.7952
47.1658 10.6929
47.2146 10.6726
47.2632 10.5884
47.312 10.6366
47.3606 10.5565
47.4095 10.4931
47.4581 10.4724
47.5069 10.4409
47.5556 10.3925
47.6044 10.3693
47.6531 10.3146
47.702 10.2924
47.7507 10.2494
47.7996 10.247
47.8483 10.1858
47.8972 10.1426
47.9461 10.1154
47.9948 10.0885
48.0438 10.0435
48.0925 10.0315
48.1415 9.95462
48.1902 9.89591
48.2392 9.8957
48.288 9.87661
48.337 9.80267
48.3858 9.81631
48.4348 9.73763
48.4837 9.72135
48.5327 9.68362
48.5815 9.66111
48.6306 9.63448
48.6795 9.58646
48.7285 9.51472
48.7774 9.52066
48.8265 9.49711
48.8754 9.44572
48.9245 9.40524
48.9734 9.38391
49.0226 9.36627
49.0715 9.31374
49.1206 9.23816
49.1696 9.22769
49.2188 9.22455
49.2679 9.13937
49.3169 9.10514
49.3661 9.04217
49.4151 9.04762
49.4643 9.05804
49.5134 8.98946
49.5626 8.91409
49.6117 8.93373
49.6609 8.90977
49.71 8.83715
49.7592 8.7764
49.8083 8.74686
49.8576 8.74959
49.9067 8.72359
49.956 8.66216
50.0052 8.63898
50.0545 8.65703
50.1036 8.60638
50.153 8.54718
50.2022 8.49061
50.2515 8.50049
50.3007 8.41652
50.3501 8.40155
50.3993 8.36631
50.4487 8.35159
50.498 8.30556
50.5474 8.29509
50.5966 8.24238
50.6461 8.18342
50.6955 8.20765
50.7448 8.14337
50.7943 8.12504
50.8436 8.07804
50.8931 8.07377
50.9424 8.03411
50.9919 8.02361
51.0413 7.96161
51.0908 7.97425
51.1402 7.8996
51.1897 7.88252
51.2391 7.85068
51.2887 7.81554
51.3381 7.74674
51.3877 7.72909
51.4371 7.72074
51.4867 7.67379
51.5362 7.6319
51.5858 7.63512
51.6353 7.58709
51.6849 7.5434
51.7344 7.52516
51.7841 7.52485
51.8336 7.4695
51.8833 7.42552
51.9328 7.38262
51.9826 7.37007
52.0323 7.34834
52.0818 7.29793
52.1316 7.26974
52.1812 7.2683
52.231 7.25642
52.2806 7.20859
52.3304 7.17325
52.38 7.11795
52.4298 7.06248
52.4794 7.05387
52.5293 7.06214
52.5789 7.00855
52.6288 7.01576
52.6785 6.96291
52.7284 6.92399
52.7781 6.85549
52.828 6.87157
52.8777 6.8065
52.9276 6.83701
52.9774 6.77666
53.0273 6.78534
53.0771 6.72434
53.1271 6.7133
53.1769 6.64961
53.2269 6.604
53.2767 6.57187
53.3267 6.5906
53.3765 6.55144
53.4266 6.53249
53.4766 6.51473
53.5265 6.44493
53.5765 6.44034
53.6264 6.3959
53.6765 6.39302
53.7264 6.3232
53.7765 6.31833
53.8265 6.2924
53.8766 6.22259
53.9266 6.23091
53.9767 6.22839
54.0267 6.22138
54.0769 6.14805
54.1269 6.15127
54.1771 6.13101
54.2271 6.08183
54.2773 6.02463
54.3274 5.98993
54.3776 5.95409
54.4277 5.95211
54.478 5.89675
54.528 5.86823
54.5783 5.84272
54.6285 5.80803
54.6788 5.7989
54.7289 5.70926
54.7792 5.68375
54.8296 5.5988
54.8798 5.58244
54.9301 5.55176
54.9803 5.554
55.0307 5.50277
55.0809 5.41925
55.1314 5.42155
55.1816 5.35062
55.232 5.25857
55.2823 5.2651
55.3328 5.24725
55.383 5.14452
55.4335 5.1339
55.4838 5.05224
55.5344 5.02774
55.5847 5.01295
55.6352 4.99065
55.6856 4.93169
55.7361 4.9084