File: XRD/Ni3Fe_FD1033.xy
TT I
1.27165 7.08874
1.31627 6.98997
1.36089 6.30878
1.40551 5.4926
1.45013 5.79503
1.49476 5.63365
1.53938 5.64864
1.584 5.30804
1.62863 4.86909
1.67325 4.564
1.71787 4.6287
1.7625 4.80549
1.80712 4.77786
1.85174 4.20377
1.89636 4.17632
1.94099 4.50855
1.98562 4.63562
2.03025 4.08865
2.07487 3.39685
2.11949 4.92719
2.16411 4.46866
2.20874 5.06545
2.25338 6.38442
2.298 5.07886
2.34263 5.85395
2.38725 6.20024
2.43188 6.30932
2.4765 6.82964
2.52115 7.29876
2.56577 7.91789
2.6104 8.97246
2.65503 8.98853
2.69965 8.55119
2.7443 8.30162
2.78893 9.00024
2.83356 8.94409
2.87818 9.17802
2.92281 9.2895
2.96744 9.17631
3.01209 10.7189
3.05672 11.0833
3.10135 12.0861
3.14599 12.7741
3.19062 14.3953
3.23527 15.1504
3.2799 15.1915
3.32454 15.9405
3.36917 17.1544
3.4138 18.4049
3.45844 18.8961
3.50309 19.8815
3.54773 20.3012
3.59237 21.4158
3.637 27.9895
3.68164 26.8314
3.7263 24.3352
3.77094 24.8307
3.81558 25.0388
3.86022 26.129
3.90486 27.5139
3.9495 28.2934
3.99416 29.1446
4.0388 30.1894
4.08344 31.3072
4.12809 32.425
4.17273 33.8297
4.21738 35.1679
4.26204 52.7114
4.30669 57.3898
4.35133 40.4838
4.39598 40.9243
4.44063 43.2362
4.4853 46.1796
4.52995 46.6617
4.5746 48.7446
4.61925 50.5062
4.6639 52.7451
4.70855 55.1414
4.75322 58.1485
4.79788 60.569
4.84253 64.4453
4.88719 67.2625
4.93184 71.6811
4.97652 76.7259
5.02118 82.8293
5.06583 89.0548
5.11049 97.0788
5.15515 117.743
5.19981 230.029
5.24449 2440.29
5.28916 13504.9
5.33382 3321.53
5.37848 220.155
5.42315 124.727
5.46783 108.591
5.5125 100.622
5.55716 97.0256
5.60183 92.9596
5.6465 91.1786
5.69117 89.4377
5.73586 87.6982
5.78053 86.72
5.8252 85.9018
5.86988 87.0968
5.91455 88.464
5.95924 94.8416
6.00392 161.942
6.0486 870.166
6.09328 4552.08
6.13795 3549.4
6.18263 241.264
6.22733 87.3066
6.27201 75.5849
6.3167 73.2774
6.36138 68.4405
6.40606 64.7416
6.45075 63.6491
6.49545 61.8372
6.54014 60.1514
6.58483 58.5282
6.62952 57.712
6.67421 58.3818
6.71892 63.9784
6.76361 56.5964
6.8083 54.4135
6.853 53.6569
6.89769 53.2146
6.94239 53.1601
6.98711 52.3418
7.03181 51.9005
7.07651 51.8233
7.12121 51.6781
7.16591 52.0031
7.21063 50.8866
7.25533 51.9514
7.30004 61.903
7.34475 55.9833
7.38945 51.7366
7.43416 51.254
7.47889 51.5358
7.5236 60.4038
7.56831 77.5223
7.61303 57.791
7.65774 52.7699
7.70247 53.1933
7.74719 53.0582
7.79191 53.9044
7.83663 53.7385
7.88135 54.8349
7.92607 55.798
7.97081 56.6258
8.01553 57.3569
8.06026 58.8101
8.10498 59.9521
8.14971 62.1929
8.19446 63.7757
8.23919 65.376
8.28392 67.9075
8.32865 69.8804
8.37339 73.9137
8.41812 77.2984
8.46288 86.0547
8.50761 126.521
8.55235 360.983
8.59709 1069.06
8.64183 2251.39
8.68658 1111.92
8.73134 177.188
8.77609 95.0292
8.82083 88.4938
8.86558 85.7275
8.91033 83.057
8.9551 82.2744
8.99985 80.6828
9.04461 80.077
9.08936 79.6027
9.13412 79.0094
9.17888 79.5305
9.22365 93.7229
9.26841 119.879
9.31318 91.3614
9.35794 80.2189
9.4027 80.1628
9.44749 80.3124
9.49226 80.6111
9.53703 81.7116
9.5818 82.9706
9.62657 84.193
9.67134 86.3267
9.71614 87.4231
9.76091 89.3994
9.80569 91.1611
9.85047 93.5145
9.89525 98.3887
9.94005 105.872
9.98484 145.299
10.0296 339.047
10.0744 757.718
10.1192 1746.61
10.164 1676.08
10.2088 444.745
10.2536 125.957
10.2984 102.801
10.3432 100.279
10.388 97.6905
10.4328 107.053
10.4776 157.717
10.5224 264.845
10.5672 504.824
10.612 539.818
10.6568 224.954
10.7017 105.774
10.7465 86.6143
10.7913 79.8018
10.8361 77.7804
10.8809 75.246
10.9257 73.5224
10.9706 72.4472
11.0154 70.7025
11.0602 69.3269
11.105 67.7725
11.1499 66.7906
11.1947 66.9339
11.2395 65.4506
11.2844 64.6189
11.3292 63.5826
11.374 62.9048
11.4189 62.2364
11.4637 61.7435
11.5086 60.9313
11.5534 60.8993
11.5983 60.7156
11.6431 60.3416
11.688 59.8873
11.7328 59.9655
11.7777 59.4959
11.8225 59.6382
11.8674 59.6688
11.9122 62.0758
11.9571 69.3426
12.002 67.273
12.0468 64.4352
12.0917 76.2185
12.1366 98.066
12.1814 146.728
12.2263 207.117
12.2712 176.225
12.3161 95.7253
12.3609 64.2827
12.4058 61.0743
12.4507 60.8043
12.4956 61.1345
12.5405 61.16
12.5853 61.7632
12.6302 62.38
12.6751 63.6842
12.72 63.6836
12.7649 64.081
12.8098 65.1215
12.8547 66.4261
12.8996 67.4809
12.9445 69.0639
12.9894 70.6862
13.0343 72.4391
13.0792 76.322
13.1242 82.4808
13.1691 106.642
13.214 144.884
13.2589 224.85
13.3038 362.759
13.3487 440.725
13.3937 279.139
13.4386 127.054
13.4835 98.3424
13.5285 118.292
13.5734 153.928
13.6183 234.165
13.6633 353.324
13.7082 362.851
13.7531 206.909
13.7981 100.728
13.843 79.3198
13.888 76.4892
13.9329 74.4464
13.9779 72.9606
14.0228 71.7852
14.0678 70.6568
14.1127 71.7697
14.1577 76.3826
14.2027 74.4134
14.2476 69.0144
14.2926 67.3603
14.3376 67.1722
14.3825 66.6765
14.4275 66.0122
14.4725 65.9131
14.5175 66.2186
14.5624 65.9416
14.6074 66.393
14.6524 66.8714
14.6974 67.1703
14.7424 68.3041
14.7874 73.8659
14.8324 87.8331
14.8774 108.02
14.9224 145.966
14.9674 206.856
15.0124 228.61
15.0574 160.352
15.1024 93.2774
15.1474 71.06
15.1924 67.7114
15.2374 66.546
15.2824 65.5056
15.3274 64.5756
15.3725 64.2465
15.4175 63.9661
15.4625 63.3336
15.5076 63.2006
15.5526 63.1195
15.5976 63.1498
15.6426 63.6901
15.6877 68.248
15.7327 78.6381
15.7778 93.2688
15.8228 120.799
15.8679 167.553
15.9129 200.842
15.958 167.018
16.003 102.826
16.0481 69.5999
16.0931 62.94
16.1382 59.9677
16.1833 58.338
16.2283 56.5732
16.2734 56.0646
16.3185 55.4125
16.3636 54.9953
16.4086 54.2055
16.4537 53.6341
16.4988 53.3022
16.5439 53.141
16.589 52.8937
16.6341 52.8357
16.6792 52.5312
16.7243 52.528
16.7694 52.6157
16.8145 52.4408
16.8596 52.6696
16.9047 53.5681
16.9498 54.4409
16.9949 53.8452
17.04 53.7421
17.0851 54.6525
17.1302 56.7365
17.1754 59.7065
17.2205 64.316
17.2656 72.0852
17.3108 81.4732
17.3559 82.6001
17.401 71.6177
17.4462 61.1707
17.4913 57.4071
17.5365 57.084
17.5815 57.1151
17.6268 57.3839
17.6718 58.0054
17.7171 58.7238
17.7622 59.6916
17.8074 60.8059
17.8525 61.688
17.8977 66.0607
17.9428 72.4668
17.9881 81.0666
18.0331 96.8132
18.0784 120.266
18.1237 141.611
18.1688 136.867
18.214 108.481
18.2591 87.5513
18.3044 88.2526
18.3495 98.866
18.3948 106.717
18.4399 97.6565
18.4852 79.0219
18.5303 65.5501
18.5756 61.317
18.6207 60.0328
18.666 58.5022
18.7112 57.8054
18.7565 57.1354
18.8016 56.8987
18.8469 56.2391
18.892 55.9189
18.9374 55.4042
18.9825 55.0494
19.0278 54.7766
19.073 54.7704
19.1183 54.9277
19.1635 55.9921
19.2088 57.566
19.254 60.2939
19.2993 65.5129
19.3447 71.9542
19.3898 75.9624
19.4352 72.1989
19.4804 63.1152
19.5257 56.0545
19.5709 52.7211
19.6163 52.3716
19.6615 52.2029
19.7068 51.5805
19.752 51.7571
19.7974 51.7293
19.8426 52.4787
19.888 53.2237
19.9332 54.8818
19.9786 57.096
20.0238 60.7013
20.0692 66.1468
20.1144 70.1491
20.1598 68.6638
20.205 63.7509
20.2504 61.4018
20.2957 63.1187
20.3411 65.2268
20.3863 63.9832
20.4318 58.0008
20.477 52.6881
20.5224 49.6782
20.5677 48.9697
20.6131 48.7524
20.6586 48.32
20.7038 48.0228
20.7493 48.1319
20.7945 47.8328
20.84 47.8468
20.8853 47.1641
20.9307 46.9396
20.976 47.2045
21.0215 47.1361
21.0668 47.5052
21.1122 47.8737
21.1575 48.5066
21.203 49.328
21.2483 50.2499
21.2938 50.5453
21.3391 49.0855
21.3846 47.9012
21.4299 47.0551
21.4754 47.086
21.5207 47.4826
21.5662 47.4209
21.6116 47.5964
21.6571 48.643
21.7024 49.6752
21.7479 51.4225
21.7933 53.854
21.8388 57.6637
21.8843 62.3489
21.9297 65.0676
21.9752 63.7994
22.0206 59.6086
22.0661 56.0795
22.1115 55.7554
22.157 55.8368
22.2024 54.2933
22.248 51.0692
22.2933 48.9415
22.3389 47.735
22.3843 47.5625
22.4299 47.3745
22.4753 47.2858
22.5208 47.22
22.5662 47.1494
22.6118 47.1437
22.6572 47.4927
22.7028 48.1973
22.7483 48.8813
22.7939 49.4716
22.8393 51.0054
22.8849 53.0565
22.9303 55.4608
22.9759 57.612
23.0214 57.3336
23.067 54.4547
23.1126 50.7412
23.1581 48.4657
23.2037 47.5808
23.2492 47.463
23.2948 47.6697
23.3403 48.2427
23.3859 49.1046
23.4314 50.0123
23.477 51.8477
23.5225 54.281
23.5682 56.9016
23.6137 58.2524
23.6593 56.3526
23.7048 51.8961
23.7505 48.0191
23.796 45.8421
23.8417 44.9626
23.8872 44.4426
23.9329 44.1031
23.9784 43.802
24.0241 43.7227
24.0697 43.4966
24.1154 43.079
24.1609 42.7753
24.2066 42.693
24.2522 42.533
24.2979 42.3235
24.3434 42.2068
24.3892 42.0385
24.4349 41.9749
24.4805 41.7763
24.5262 41.8781
24.5718 41.9641
24.6175 41.9524
24.6631 41.812
24.7089 41.5329
24.7545 41.5574
24.8002 40.9871
24.8458 41.1649
24.8916 41.1384
24.9372 41.353
24.983 41.5061
25.0286 41.948
25.0744 42.4672
25.12 43.0713
25.1658 43.721
25.2114 43.8612
25.2572 44.2243
25.3029 44.3284
25.3487 44.4458
25.3943 44.1982
25.4402 43.1033
25.4858 41.8128
25.5316 40.6036
25.5773 40.1858
25.6231 39.9776
25.669 39.6079
25.7147 39.5975
25.7605 39.4946
25.8062 39.6584
25.8521 39.6882
25.8977 39.7162
25.9436 39.829
25.9893 40.2037
26.0352 40.6302
26.0809 40.8994
26.1268 41.198
26.1725 40.8853
26.2184 40.2468
26.2641 39.5287
26.31 39.3984
26.3557 39.2952
26.4017 39.4421
26.4474 39.4888
26.4933 39.8904
26.5391 40.4483
26.585 41.1259
26.6308 41.5619
26.6767 41.7629
26.7225 41.5598
26.7684 41.2218
26.8142 40.466
26.8601 39.8842
26.9059 39.6075
26.9519 38.8632
26.9979 38.6103
27.0437 38.1572
27.0896 38.0928
27.1354 37.9081
27.1814 37.7711
27.2272 37.7792
27.2732 37.7084
27.3191 37.4979
27.3651 37.6618
27.4109 37.5878
27.4569 37.7159
27.5027 37.7813
27.5488 37.9273
27.5946 37.7335
27.6407 37.4936
27.6865 37.4214
27.7326 37.0772
27.7784 37.2156
27.8245 37.0096
27.8703 37.2134
27.9164 37.6333
27.9623 37.8687
28.0084 38.2647
28.0543 38.7447
28.1003 38.835
28.1462 38.4631
28.1923 38.145
28.2384 37.6087
28.2843 37.1904
28.3304 36.6038
28.3764 36.2129
28.4225 35.6832
28.4684 35.4858
28.5145 35.2974
28.5605 35.0381
28.6066 34.9227
28.6526 34.8753
28.6987 34.8246
28.7447 34.7087
28.7908 34.6558
28.8368 34.6478
28.8829 34.7428
28.9289 34.7316
28.9751 34.4075
29.0211 34.313
29.0673 34.0982
29.1133 33.8742
29.1595 33.5944
29.2055 33.5896
29.2517 33.6003
29.2977 33.5588
29.3439 33.4507
29.3899 33.6216
29.4361 33.5732
29.4824 33.263
29.5284 33.1108
29.5746 32.746
29.6207 32.4492
29.6669 32.3412
29.713 32.2356
29.7593 32.0305
29.8053 32.1739
29.8516 32.0439
29.8977 32.1117
29.9439 31.9116
29.99 31.8439
30.0363 31.8554
30.0824 31.7731
30.1287 31.7735
30.1748 31.7687
30.2211 31.7224
30.2673 31.6683
30.3136 31.8008
30.3597 31.6109
30.406 31.5657
30.4522 31.4431
30.4985 31.383
30.5447 31.4812
30.591 31.4899
30.6372 31.6344
30.6835 31.675
30.7297 31.7616
30.7761 31.6572
30.8224 31.5342
30.8686 31.3299
30.915 30.9778
30.9612 30.9636
31.0076 30.7106
31.0538 30.5798
31.1002 30.5756
31.1464 30.3572
31.1928 30.3635
31.2391 30.3284
31.2855 30.2854
31.3317 30.2974
31.3781 30.4045
31.4244 30.3113
31.4708 30.3517
31.5171 30.3206
31.5636 30.2502
31.6098 30.1075
31.6563 29.8107
31.7026 29.7512
31.7491 29.5718
31.7953 29.5963
31.8418 29.6868
31.8881 29.6735
31.9346 29.587
31.9809 29.609
32.0275 29.4858
32.074 29.3317
32.1203 29.13
32.1668 29.0215
32.2132 28.8243
32.2597 28.7233
32.306 28.5907
32.3526 28.4143
32.399 28.2881
32.4455 28.2121
32.4919 28.1878
32.5385 28.1329
32.5848 27.9434
32.6314 27.9536
32.6778 27.8044
32.7244 27.6482
32.7708 27.6288
32.8174 27.6452
32.8638 27.5182
32.9104 27.5898
32.9569 27.4585
33.0035 27.3719
33.0499 27.2975
33.0966 27.3401
33.143 27.29
33.1897 27.146
33.2361 27.0879
33.2828 27.1635
33.3293 26.8464
33.3759 26.9527
33.4226 26.814
33.4691 26.5958
33.5158 26.4661
33.5623 26.4409
33.609 26.3237
33.6555 26.1475
33.7022 26.1671
33.7487 26.0422
33.7954 26.0114
33.842 25.8897
33.8887 25.8301
33.9353 25.7731
33.982 25.6481
34.0286 25.6091
34.0753 25.4683
34.1219 25.4213
34.1687 25.308
34.2152 25.2201
34.262 25.1409
34.3086 25.0821
34.3554 25.0729
34.402 24.885
34.4488 24.814
34.4954 24.7581
34.5422 24.7138
34.5889 24.5565
34.6357 24.4057
34.6825 24.3265
34.7292 24.4092
34.776 24.2302
34.8227 24.2445
34.8695 24.142
34.9162 24.1489
34.9631 24.0245
35.0098 24.1009
35.0566 23.9068
35.1033 23.8628
35.1502 23.7628
35.1969 23.77
35.2438 23.6638
35.2906 23.6646
35.3375 23.5438
35.3842 23.5464
35.4311 23.4684
35.4779 23.4778
35.5248 23.4476
35.5716 23.3387
35.6185 23.2825
35.6653 23.2214
35.7123 23.1263
35.759 23.0443
35.806 22.8578
35.8528 22.7549
35.8998 22.7817
35.9468 22.7575
35.9936 22.6995
36.0406 22.5449
36.0874 22.6133
36.1345 22.4124
36.1813 22.4246
36.2283 22.2055
36.2752 22.2623
36.3222 22.267
36.3691 22.143
36.4161 22.0648
36.463 22.029
36.5101 21.9957
36.557 21.9699
36.6041 21.7703
36.651 21.7616
36.6981 21.7174
36.745 21.6664
36.7921 21.5196
36.839 21.4796
36.8861 21.4704
36.9331 21.3577
36.9802 21.271
37.0272 21.1446
37.0743 21.1405
37.1213 21.0524
37.1684 21.0252
37.2154 20.9638
37.2626 20.8855
37.3098 20.8285
37.3568 20.7985
37.404 20.6487
37.451 20.607
37.4982 20.5048
37.5452 20.4284
37.5924 20.3482
37.6395 20.4389
37.6867 20.2929
37.7337 20.2226
37.781 20.1834
37.8281 20.0953
37.8753 19.9806
37.9224 19.962
37.9697 19.927
38.0168 19.8064
38.064 19.7149
38.1111 19.6254
38.1584 19.5816
38.2056 19.5684
38.2529 19.5798
38.3 19.4106
38.3473 19.4362
38.3945 19.3256
38.4418 19.3063
38.489 19.2657
38.5363 19.1046
38.5837 19.0543
38.6309 18.9909
38.6782 18.979
38.7254 18.8989
38.7728 18.8428
38.82 18.7129
38.8674 18.7578
38.9146 18.6523
38.9621 18.5589
39.0093 18.5909
39.0567 18.4548
39.104 18.4011
39.1514 18.3305
39.1987 18.3161
39.2461 18.2579
39.2934 18.146
39.3409 18.1223
39.3882 17.9953
39.4356 18.0244
39.483 17.9385
39.5304 17.925
39.5778 17.9033
39.6253 17.809
39.6726 17.7695
39.7201 17.7333
39.7675 17.6616
39.815 17.5741
39.8624 17.4271
39.9099 17.521
39.9575 17.3738
40.0049 17.4094
40.0525 17.3013
40.0999 17.2533
40.1474 17.2677
40.1949 17.0788
40.2425 17.0789
40.2899 17.0107
40.3375 16.9884
40.385 16.9213
40.4326 16.8873
40.48 16.7458
40.5277 16.7674
40.5752 16.7296
40.6228 16.6729
40.6703 16.593
40.718 16.5563
40.7655 16.4704
40.8132 16.441
40.8607 16.4023
40.9084 16.4297
40.9559 16.3499
41.0036 16.2942
41.0512 16.1895
41.0989 16.1622
41.1465 16.0927
41.1942 15.993
41.242 15.9618
41.2896 15.8892
41.3373 15.8096
41.3849 15.8646
41.4327 15.7432
41.4803 15.7101
41.5281 15.6676
41.5758 15.5439
41.6236 15.5749
41.6712 15.4788
41.7191 15.426
41.7667 15.431
41.8146 15.3568
41.8622 15.2808
41.9101 15.2572
41.9578 15.1305
42.0057 15.1097
42.0534 15.1309
42.1013 15.073
42.149 14.9469
42.1969 14.9884
42.2446 14.8114
42.2925 14.8015
42.3403 14.7644
42.3882 14.7434
42.436 14.727
42.4839 14.5712
42.5319 14.5931
42.5797 14.5499
42.6277 14.4933
42.6755 14.4684
42.7235 14.3779
42.7713 14.3649
42.8193 14.2382
42.8671 14.1893
42.9152 14.1982
42.963 14.129
43.0111 14.1013
43.0589 14.0343
43.107 14.0105
43.1549 13.9676
43.2029 13.8608
43.2508 13.8369
43.2989 13.8152
43.3468 13.7388
43.3949 13.7362
43.4429 13.6488
43.491 13.596
43.5389 13.5464
43.5871 13.5216
43.635 13.452
43.6832 13.489
43.7312 13.3241
43.7793 13.3202
43.8273 13.294
43.8755 13.26
43.9237 13.1815
43.9717 13.1408
44.0199 13.125
44.068 13.0616
44.1162 12.996
44.1642 12.966
44.2125 12.985
44.2606 12.8801
44.3088 12.796
44.3569 12.7589
44.4052 12.7312
44.4533 12.705
44.5016 12.665
44.5497 12.6407
44.598 12.645
44.6461 12.5591
44.6945 12.4599
44.7426 12.4605
44.791 12.3683
44.8391 12.3943
44.8875 12.3404
44.9357 12.2894
44.984 12.2262
45.0322 12.192
45.0806 12.1434
45.1288 12.1011
45.1773 12.0727
45.2257 12.008
45.2739 12.0186
45.3224 11.9278
45.3706 11.8674
45.4191 11.795
45.4673 11.8373
45.5158 11.7804
45.5641 11.7112
45.6126 11.6955
45.6609 11.6351
45.7094 11.5897
45.7577 11.5312
45.8063 11.4398
45.8546 11.4355
45.9031 11.4072
45.9515 11.4294
46.0001 11.3611
46.0484 11.3398
46.097 11.2699
46.1454 11.2314
46.194 11.1824
46.2424 11.1452
46.291 11.0867
46.3395 11.0493
46.3881 10.954
46.4365 11.0101
46.4852 10.9386
46.5337 10.9267
46.5823 10.8975
46.631 10.8366
46.6795 10.8361
46.7282 10.7687
46.7767 10.7113
46.8254 10.6422
46.8739 10.5827
46.9226 10.5601
46.9712 10.5248
47.0199 10.5121
47.0685 10.4362
47.1173 10.4461
47.1658 10.3695
47.2146 10.3399
47.2632 10.3115
47.312 10.2891
47.3606 10.2313
47.4095 10.202
47.4581 10.168
47.5069 10.1423
47.5556 10.0468
47.6044 10.0426
47.6531 10.0299
47.702 9.95272
47.7507 9.96323
47.7996 9.89052
47.8483 9.85374
47.8972 9.82414
47.9461 9.79861
47.9948 9.75564
48.0438 9.70847
48.0925 9.7228
48.1415 9.67397
48.1902 9.64491
48.2392 9.5997
48.288 9.58986
48.337 9.52951
48.3858 9.48648
48.4348 9.45169
48.4837 9.45523
48.5327 9.39315
48.5815 9.3495
48.6306 9.32609
48.6795 9.28648
48.7285 9.23199
48.7774 9.25926
48.8265 9.20672
48.8754 9.12672
48.9245 9.13303
48.9734 9.05244
49.0226 9.08429
49.0715 9.01776
49.1206 8.95668
49.1696 8.92582
49.2188 8.91595
49.2679 8.86217
49.3169 8.82093
49.3661 8.80641
49.4151 8.75808
49.4643 8.73162
49.5134 8.72533
49.5626 8.65369
49.6117 8.6465
49.6609 8.60353
49.71 8.56212
49.7592 8.55269
49.8083 8.48955
49.8576 8.50315
49.9067 8.42781
49.956 8.37603
50.0052 8.37323
50.0545 8.37236
50.1036 8.30758
50.153 8.28295
50.2022 8.23142
50.2515 8.20549
50.3007 8.14191
50.3501 8.17817
50.3993 8.13147
50.4487 8.09939
50.498 8.04647
50.5474 8.00512
50.5966 8.00424
50.6461 7.97188
50.6955 7.94594
50.7448 7.90169
50.7943 7.87364
50.8436 7.83471
50.8931 7.79401
50.9424 7.77339
50.9919 7.73448
51.0413 7.74113
51.0908 7.67264
51.1402 7.69558
51.1897 7.63384
51.2391 7.62485
51.2887 7.54558
51.3381 7.52636
51.3877 7.53491
51.4371 7.44187
51.4867 7.42534
51.5362 7.41518
51.5858 7.39306
51.6353 7.34984
51.6849 7.31689
51.7344 7.3244
51.7841 7.26205
51.8336 7.23637
51.8833 7.20223
51.9328 7.1498
51.9826 7.11649
52.0323 7.10615
52.0818 7.07626
52.1316 7.03019
52.1812 7.03123
52.231 6.96073
52.2806 6.94621
52.3304 6.93279
52.38 6.90099
52.4298 6.88132
52.4794 6.86123
52.5293 6.81108
52.5789 6.80313
52.6288 6.77441
52.6785 6.69469
52.7284 6.71496
52.7781 6.66608
52.828 6.63922
52.8777 6.59505
52.9276 6.57066
52.9774 6.56005
53.0273 6.55243
53.0771 6.53303
53.1271 6.50026
53.1769 6.44131
53.2269 6.40509
53.2767 6.39684
53.3267 6.36627
53.3765 6.37485
53.4266 6.33862
53.4766 6.3258
53.5265 6.2742
53.5765 6.2349
53.6264 6.19606
53.6765 6.15653
53.7264 6.16151
53.7765 6.15671
53.8265 6.11373
53.8766 6.08522
53.9266 6.08821
53.9767 6.03995
54.0267 6.01332
54.0769 6.0109
54.1269 5.94753
54.1771 5.90468
54.2271 5.94059
54.2773 5.80136
54.3274 5.81952
54.3776 5.81013
54.4277 5.76996
54.478 5.74473
54.528 5.67786
54.5783 5.67621
54.6285 5.60092
54.6788 5.57846
54.7289 5.50044
54.7792 5.51931
54.8296 5.48985
54.8798 5.41612
54.9301 5.41145
54.9803 5.36364
55.0307 5.35571
55.0809 5.27933
55.1314 5.27911
55.1816 5.16982
55.232 5.18927
55.2823 5.14405
55.3328 5.02892
55.383 5.00758
55.4335 4.98346
55.4838 4.94145
55.5344 4.85183
55.5847 4.8371
55.6352 4.80567
55.6856 4.7443
55.7361 4.80504