File: XRD/Ni3Fe_FD0049.xy
TT I
1.27165 33.2634
1.31627 31.4156
1.36089 30.3366
1.40551 28.6398
1.45013 27.8313
1.49476 26.7148
1.53938 25.6254
1.584 24.6394
1.62863 23.805
1.67325 23.0377
1.71787 22.4613
1.7625 21.9401
1.80712 21.7399
1.85174 21.4062
1.89636 21.0501
1.94099 21.0514
1.98562 20.9307
2.03025 20.7201
2.07487 20.8608
2.11949 20.8121
2.16411 20.6486
2.20874 21.1961
2.25338 21.153
2.298 21.6761
2.34263 21.8955
2.38725 21.9986
2.43188 21.3951
2.4765 21.3722
2.52115 22.3623
2.56577 22.5265
2.6104 23.9476
2.65503 24.6558
2.69965 25.9377
2.7443 27.6823
2.78893 30.3318
2.83356 32.1921
2.87818 37.0528
2.92281 41.233
2.96744 46.7133
3.01209 55.2097
3.05672 63.8937
3.10135 73.4941
3.14599 77.6121
3.19062 74.8406
3.23527 67.7244
3.2799 56.9213
3.32454 47.6492
3.36917 40.0637
3.4138 35.2943
3.45844 31.6182
3.50309 29.8011
3.54773 28.184
3.59237 27.0633
3.637 26.4784
3.68164 26.2639
3.7263 25.9098
3.77094 25.7247
3.81558 25.7522
3.86022 26.1267
3.90486 26.6384
3.9495 26.9018
3.99416 27.5281
4.0388 27.838
4.08344 28.7475
4.12809 29.5166
4.17273 30.128
4.21738 32.0113
4.26204 33.6032
4.30669 37.7144
4.35133 42.1734
4.39598 40.3538
4.44063 37.3569
4.4853 37.0114
4.52995 38.1335
4.5746 39.4539
4.61925 40.7176
4.6639 41.8843
4.70855 44.0132
4.75322 46.9978
4.79788 49.9259
4.84253 54.2116
4.88719 59.3518
4.93184 68.0944
4.97652 81.9767
5.02118 103.262
5.06583 121.878
5.11049 140.605
5.15515 185.219
5.19981 305.99
5.24449 697.812
5.28916 1573.78
5.33382 4026.02
5.37848 3260.7
5.42315 852.345
5.46783 314.235
5.5125 198.961
5.55716 151.827
5.60183 126.177
5.6465 114.83
5.69117 109.482
5.73586 102.723
5.78053 99.4721
5.8252 101.185
5.86988 106.778
5.91455 118.292
5.95924 140.161
6.00392 194.161
6.0486 324.447
6.09328 556.478
6.13795 1024.04
6.18263 1152.21
6.22733 522.382
6.27201 228.699
6.3167 133.193
6.36138 93.1222
6.40606 74.2075
6.45075 64.6199
6.49545 57.1367
6.54014 52.5755
6.58483 49.3637
6.62952 46.896
6.67421 45.0907
6.71892 43.6861
6.76361 42.3538
6.8083 41.3126
6.853 40.9853
6.89769 40.7202
6.94239 40.7699
6.98711 40.8207
7.03181 41.8816
7.07651 44.3482
7.12121 46.3638
7.16591 43.3687
7.21063 40.2402
7.25533 39.5526
7.30004 38.9329
7.34475 38.7677
7.38945 39.1964
7.43416 39.4183
7.47889 42.1351
7.5236 57.6776
7.56831 160.443
7.61303 176.017
7.65774 65.4021
7.70247 43.6164
7.74719 39.984
7.79191 38.7267
7.83663 38.0923
7.88135 38.1038
7.92607 38.5668
7.97081 38.8159
8.01553 39.4895
8.06026 40.4975
8.10498 40.9568
8.14971 42.0973
8.19446 43.5714
8.23919 45.8539
8.28392 48.902
8.32865 51.8638
8.37339 55.39
8.41812 58.0643
8.46288 66.3457
8.50761 81.2811
8.55235 119.916
8.59709 182.726
8.64183 265.477
8.68658 554.612
8.73134 762.839
8.77609 398.267
8.82083 175.43
8.86558 107.333
8.91033 85.2932
8.9551 74.4933
8.99985 69.3469
9.04461 66.2631
9.08936 64.8176
9.13412 64.6835
9.17888 68.0715
9.22365 88.2945
9.26841 239.816
9.31318 333.776
9.35794 129.173
9.4027 71.0503
9.44749 61.8974
9.49226 58.0036
9.53703 56.9262
9.5818 56.4032
9.62657 56.3295
9.67134 56.6611
9.71614 57.85
9.76091 58.6364
9.80569 60.3947
9.85047 62.6149
9.89525 66.5644
9.94005 72.5346
9.98484 84.987
10.0296 116.133
10.0744 163.256
10.1192 206.425
10.164 339.687
10.2088 674.656
10.2536 663.897
10.2984 302.125
10.3432 153.724
10.388 101.907
10.4328 85.5028
10.4776 83.8163
10.5224 91.327
10.5672 98.0157
10.612 125.601
10.6568 217.596
10.7017 276.923
10.7465 208.121
10.7913 105.617
10.8361 65.4495
10.8809 55.3732
10.9257 51.3051
10.9706 49.0256
11.0154 47.4107
11.0602 45.5126
11.105 44.5236
11.1499 43.2994
11.1947 43.1824
11.2395 42.9888
11.2844 42.6245
11.3292 41.4894
11.374 40.6534
11.4189 39.9524
11.4637 39.478
11.5086 38.9144
11.5534 38.8517
11.5983 38.6913
11.6431 38.6941
11.688 38.6236
11.7328 38.7955
11.7777 39.0361
11.8225 39.4919
11.8674 40.412
11.9122 43.6709
11.9571 63.0623
12.002 113.683
12.0468 96.3134
12.0917 55.2531
12.1366 48.825
12.1814 49.8081
12.2263 53.8053
12.2712 64.5818
12.3161 84.2412
12.3609 87.9101
12.4058 67.3092
12.4507 51.7953
12.4956 45.5095
12.5405 42.3064
12.5853 40.7215
12.6302 40.0134
12.6751 39.69
12.72 39.6329
12.7649 39.8889
12.8098 40.0868
12.8547 40.1956
12.8996 41.0595
12.9445 41.963
12.9894 42.7988
13.0343 43.8852
13.0792 47.2933
13.1242 56.6534
13.1691 67.6993
13.214 66.3099
13.2589 68.5172
13.3038 72.1221
13.3487 85.7874
13.3937 124.906
13.4386 187.486
13.4835 184.274
13.5285 121.349
13.5734 90.6531
13.6183 81.5878
13.6633 79.2847
13.7082 92.5051
13.7531 133.138
13.7981 186.23
13.843 153.537
13.888 92.0333
13.9329 65.0193
13.9779 55.3871
14.0228 50.8213
14.0678 48.9318
14.1127 49.5863
14.1577 62.0206
14.2027 99.2583
14.2476 98.1317
14.2926 59.8077
14.3376 46.7647
14.3825 43.7775
14.4275 42.5159
14.4725 41.5935
14.5175 41.5021
14.5624 40.9602
14.6074 40.9558
14.6524 41.1596
14.6974 41.3288
14.7424 41.5549
14.7874 42.2614
14.8324 44.7436
14.8774 48.2708
14.9224 51.2287
14.9674 52.7577
15.0124 58.62
15.0574 74.8315
15.1024 103.384
15.1474 111.354
15.1924 86.8603
15.2374 62.7226
15.2824 50.2473
15.3274 45.0691
15.3725 43.0774
15.4175 41.8986
15.4625 41.2397
15.5076 40.6558
15.5526 40.4813
15.5976 40.3187
15.6426 40.4553
15.6877 40.9247
15.7327 42.4945
15.7778 45.2281
15.8228 47.7609
15.8679 49.3281
15.9129 52.7372
15.958 63.0061
16.003 84.0915
16.0481 106.759
16.0931 101.962
16.1382 83.7489
16.1833 62.0837
16.2283 46.1324
16.2734 40.8962
16.3185 38.3953
16.3636 36.9364
16.4086 36.0634
16.4537 35.442
16.4988 34.9295
16.5439 34.4293
16.589 34.2741
16.6341 33.9213
16.6792 33.6026
16.7243 33.8217
16.7694 33.7781
16.8145 33.4843
16.8596 33.6542
16.9047 34.0578
16.9498 36.7525
16.9949 42.2829
17.04 42.4576
17.0851 37.3437
17.1302 34.9646
17.1754 35.1134
17.2205 35.4417
17.2656 35.6565
17.3108 36.4137
17.3559 37.4626
17.401 40.2653
17.4462 45.6266
17.4913 48.7485
17.5365 45.1731
17.5815 39.9039
17.6268 37.536
17.6718 36.744
17.7171 36.5847
17.7622 37.6184
17.8074 41.6675
17.8525 45.0369
17.8977 43.0432
17.9428 40.8977
17.9881 41.6805
18.0331 43.3156
18.0784 43.5839
18.1237 45.5526
18.1688 50.1739
18.214 61.0036
18.2591 78.584
18.3044 85.4243
18.3495 71.1818
18.3948 56.6546
18.4399 52.4202
18.4852 55.7079
18.5303 63.5941
18.5756 64.4341
18.6207 57.7114
18.666 50.1602
18.7112 43.5806
18.7565 39.5993
18.8016 38.0971
18.8469 36.9009
18.892 36.6701
18.9374 36.0874
18.9825 35.7413
19.0278 35.3899
19.073 35.3112
19.1183 35.1028
19.1635 35.0828
19.2088 35.574
19.254 36.0958
19.2993 37.0064
19.3447 40.2655
19.3898 46.8337
19.4352 50.0297
19.4804 46.1747
19.5257 45.1119
19.5709 45.2566
19.6163 42.1929
19.6615 38.1297
19.7068 35.5779
19.752 34.3689
19.7974 33.6787
19.8426 33.3107
19.888 33.1017
19.9332 33.1557
19.9786 33.4241
20.0238 33.4134
20.0692 33.4842
20.1144 34.0695
20.1598 35.3591
20.205 37.4516
20.2504 41.1088
20.2957 43.4569
20.3411 41.2877
20.3863 38.4426
20.4318 37.5012
20.477 39.4286
20.5224 41.161
20.5677 39.5634
20.6131 36.1961
20.6586 33.5428
20.7038 32.5709
20.7493 31.8188
20.7945 32.7483
20.84 34.8954
20.8853 35.548
20.9307 33.352
20.976 31.4193
21.0215 30.3865
21.0668 30.2921
21.1122 30.0999
21.1575 30.0963
21.203 30.0788
21.2483 29.8853
21.2938 30.274
21.3391 30.3995
21.3846 31.0287
21.4299 31.9666
21.4754 32.3793
21.5207 31.8822
21.5662 31.5678
21.6116 30.9827
21.6571 30.5827
21.7024 30.5022
21.7479 30.8716
21.7933 31.1502
21.8388 31.4079
21.8843 31.708
21.9297 32.2719
21.9752 33.4554
22.0206 35.6458
22.0661 38.611
22.1115 41.5821
22.157 41.5622
22.2024 40.3518
22.248 39.1683
22.2933 38.0666
22.3389 36.8467
22.3843 35.193
22.4299 33.3193
22.4753 31.8743
22.5208 31.3535
22.5662 30.8625
22.6118 30.8262
22.6572 30.5674
22.7028 30.6755
22.7483 30.6678
22.7939 31.0051
22.8393 31.9964
22.8849 32.7645
22.9303 32.3625
22.9759 31.796
23.0214 31.8928
23.067 32.7873
23.1126 34.3746
23.1581 36.7967
23.2037 37.9001
23.2492 36.2108
23.2948 33.5936
23.3403 32.1721
23.3859 31.8638
23.4314 32.2609
23.477 33.2948
23.5225 34.5298
23.5682 33.7532
23.6137 32.6719
23.6593 32.5566
23.7048 33.6
23.7505 35.7404
23.796 37.9123
23.8417 37.7934
23.8872 35.036
23.9329 32.3816
23.9784 30.6688
24.0241 29.8853
24.0697 29.5853
24.1154 29.4037
24.1609 29.3946
24.2066 28.8532
24.2522 28.2672
24.2979 27.9676
24.3434 27.8574
24.3892 27.5235
24.4349 27.467
24.4805 27.4189
24.5262 27.4278
24.5718 27.2116
24.6175 27.2447
24.6631 27.5659
24.7089 28.196
24.7545 28.6606
24.8002 28.1321
24.8458 27.5217
24.8916 27.1038
24.9372 26.7861
24.983 26.9216
25.0286 26.8057
25.0744 26.8576
25.12 26.7917
25.1658 26.8621
25.2114 27.1483
25.2572 27.3246
25.3029 27.9881
25.3487 28.6534
25.3943 28.8835
25.4402 28.6424
25.4858 28.6936
25.5316 29.088
25.5773 29.4352
25.6231 29.2745
25.669 28.0857
25.7147 27.2364
25.7605 26.55
25.8062 26.4576
25.8521 26.6202
25.8977 26.7818
25.9436 26.8547
25.9893 26.3259
26.0352 26.1668
26.0809 25.9293
26.1268 25.9049
26.1725 26.0123
26.2184 26.1159
26.2641 26.5027
26.31 26.9432
26.3557 27.2799
26.4017 26.9331
26.4474 26.4988
26.4933 26.1499
26.5391 26.0833
26.585 25.9324
26.6308 25.8952
26.6767 25.8821
26.7225 26.127
26.7684 26.557
26.8142 26.9291
26.8601 27.6836
26.9059 28.0086
26.9519 28.0255
26.9979 28.0254
27.0437 27.8742
27.0896 27.3203
27.1354 26.7052
27.1814 25.9047
27.2272 25.6211
27.2732 25.3999
27.3191 25.1855
27.3651 25.0731
27.4109 24.9722
27.4569 24.8798
27.5027 24.8247
27.5488 25.0534
27.5946 24.9274
27.6407 24.9348
27.6865 25.0172
27.7326 25.0068
27.7784 25.1216
27.8245 24.9833
27.8703 24.9395
27.9164 24.8699
27.9623 24.6202
28.0084 24.7618
28.0543 25.2097
28.1003 25.3467
28.1462 25.514
28.1923 25.3913
28.2384 25.5075
28.2843 25.9653
28.3304 26.0663
28.3764 25.7622
28.4225 25.427
28.4684 25.3822
28.5145 25.0088
28.5605 24.6579
28.6066 24.2856
28.6526 24.0799
28.6987 23.8922
28.7447 23.5254
28.7908 23.3212
28.8368 23.053
28.8829 23.0225
28.9289 23.0291
28.9751 22.9025
29.0211 22.853
29.0673 22.8215
29.1133 22.9791
29.1595 22.961
29.2055 22.9831
29.2517 22.744
29.2977 22.4629
29.3439 22.3163
29.3899 22.213
29.4361 22.1239
29.4824 22.0679
29.5284 22.092
29.5746 22.0361
29.6207 22.1182
29.6669 22.2137
29.713 22.0993
29.7593 21.9084
29.8053 21.7989
29.8516 21.6198
29.8977 21.432
29.9439 21.3357
29.99 21.3414
30.0363 21.1926
30.0824 21.3895
30.1287 21.4315
30.1748 21.5169
30.2211 21.4851
30.2673 21.2154
30.3136 21.1996
30.3597 21.0927
30.406 21.2074
30.4522 21.1559
30.4985 21.1609
30.5447 21.232
30.591 21.0037
30.6372 20.9196
30.6835 20.854
30.7297 20.8398
30.7761 20.8325
30.8224 20.9047
30.8686 21.0576
30.915 21.0775
30.9612 21.3115
31.0076 21.3785
31.0538 21.3318
31.1002 21.3154
31.1464 21.1364
31.1928 21.1322
31.2391 20.8316
31.2855 20.6743
31.3317 20.4656
31.3781 20.5873
31.4244 20.42
31.4708 20.4111
31.5171 20.2654
31.5636 20.3483
31.6098 20.314
31.6563 20.4141
31.7026 20.4153
31.7491 20.4691
31.7953 20.5104
31.8418 20.391
31.8881 20.1703
31.9346 20.1095
31.9809 20.0254
32.0275 19.9271
32.074 19.9667
32.1203 19.9573
32.1668 20.0405
32.2132 20.0306
32.2597 19.9895
32.306 19.8899
32.3526 19.7485
32.399 19.6526
32.4455 19.4234
32.4919 19.3761
32.5385 19.3481
32.5848 19.1118
32.6314 19.1485
32.6778 19.0304
32.7244 18.9376
32.7708 18.7912
32.8174 18.8316
32.8638 18.6952
32.9104 18.7497
32.9569 18.7961
33.0035 18.6819
33.0499 18.7343
33.0966 18.6371
33.143 18.5125
33.1897 18.3656
33.2361 18.319
33.2828 18.3168
33.3293 18.3321
33.3759 18.3563
33.4226 18.3956
33.4691 18.3941
33.5158 18.4249
33.5623 18.3224
33.609 18.2822
33.6555 18.0898
33.7022 17.9408
33.7487 17.9313
33.7954 17.7932
33.842 17.6826
33.8887 17.7176
33.9353 17.6578
33.982 17.5655
34.0286 17.4116
34.0753 17.4549
34.1219 17.4079
34.1687 17.4256
34.2152 17.3598
34.262 17.2704
34.3086 17.1909
34.3554 17.1409
34.402 17.0371
34.4488 16.9436
34.4954 16.9833
34.5422 16.9369
34.5889 16.8468
34.6357 16.8421
34.6825 16.7903
34.7292 16.7046
34.776 16.6619
34.8227 16.5518
34.8695 16.5114
34.9162 16.5433
34.9631 16.3796
35.0098 16.4076
35.0566 16.2703
35.1033 16.2244
35.1502 16.2692
35.1969 16.2457
35.2438 16.1818
35.2906 16.1499
35.3375 16.1243
35.3842 16.1003
35.4311 16.025
35.4779 16.029
35.5248 16.0311
35.5716 16.0243
35.6185 15.9958
35.6653 16.0415
35.7123 16.0142
35.759 16.0296
35.806 16.0245
35.8528 15.8511
35.8998 15.8876
35.9468 15.7893
35.9936 15.7191
36.0406 15.6307
36.0874 15.6297
36.1345 15.5042
36.1813 15.4268
36.2283 15.4145
36.2752 15.3071
36.3222 15.3568
36.3691 15.348
36.4161 15.2311
36.463 15.2438
36.5101 15.2624
36.557 15.2037
36.6041 15.1174
36.651 15.0582
36.6981 15.0136
36.745 14.9696
36.7921 14.9702
36.839 14.8822
36.8861 14.8547
36.9331 14.7921
36.9802 14.793
37.0272 14.6952
37.0743 14.6638
37.1213 14.5802
37.1684 14.5439
37.2154 14.523
37.2626 14.4413
37.3098 14.3702
37.3568 14.3462
37.404 14.3526
37.451 14.2441
37.4982 14.3069
37.5452 14.1767
37.5924 14.1376
37.6395 14.1865
37.6867 14.0459
37.7337 14.0131
37.781 14.002
37.8281 13.9353
37.8753 13.8942
37.9224 13.8927
37.9697 13.8308
38.0168 13.8296
38.064 13.6897
38.1111 13.7502
38.1584 13.6837
38.2056 13.6026
38.2529 13.5792
38.3 13.4602
38.3473 13.4297
38.3945 13.3662
38.4418 13.3618
38.489 13.3724
38.5363 13.2776
38.5837 13.2464
38.6309 13.2494
38.6782 13.1554
38.7254 13.1186
38.7728 13.0745
38.82 13.0569
38.8674 13.0514
38.9146 12.9633
38.9621 12.9275
39.0093 12.9872
39.0567 12.8809
39.104 12.9132
39.1514 12.7571
39.1987 12.7093
39.2461 12.7543
39.2934 12.6954
39.3409 12.6344
39.3882 12.5595
39.4356 12.5463
39.483 12.5294
39.5304 12.4674
39.5778 12.4925
39.6253 12.4645
39.6726 12.4096
39.7201 12.3377
39.7675 12.277
39.815 12.2221
39.8624 12.2425
39.9099 12.188
39.9575 12.1551
40.0049 12.1001
40.0525 12.0854
40.0999 12.0755
40.1474 12.0028
40.1949 11.995
40.2425 11.9243
40.2899 11.9439
40.3375 11.9433
40.385 11.7961
40.4326 11.7932
40.48 11.75
40.5277 11.7205
40.5752 11.7449
40.6228 11.652
40.6703 11.6662
40.718 11.6364
40.7655 11.5466
40.8132 11.5084
40.8607 11.5085
40.9084 11.5138
40.9559 11.4398
41.0036 11.395
41.0512 11.3592
41.0989 11.3805
41.1465 11.2988
41.1942 11.318
41.242 11.1994
41.2896 11.2108
41.3373 11.1283
41.3849 11.1522
41.4327 11.0581
41.4803 11.0037
41.5281 11.002
41.5758 10.9802
41.6236 10.9376
41.6712 10.8787
41.7191 10.8514
41.7667 10.8162
41.8146 10.7982
41.8622 10.7936
41.9101 10.7308
41.9578 10.6354
42.0057 10.6316
42.0534 10.6355
42.1013 10.6307
42.149 10.6001
42.1969 10.5651
42.2446 10.489
42.2925 10.4463
42.3403 10.3907
42.3882 10.4003
42.436 10.3307
42.4839 10.2685
42.5319 10.2868
42.5797 10.3006
42.6277 10.2326
42.6755 10.1866
42.7235 10.159
42.7713 10.1193
42.8193 10.0613
42.8671 10.058
42.9152 10.0666
42.963 9.98292
43.0111 9.94686
43.0589 9.95645
43.107 9.90087
43.1549 9.85485
43.2029 9.79758
43.2508 9.77951
43.2989 9.78892
43.3468 9.69249
43.3949 9.68866
43.4429 9.6712
43.491 9.65736
43.5389 9.62554
43.5871 9.56296
43.635 9.53035
43.6832 9.50132
43.7312 9.4717
43.7793 9.4311
43.8273 9.41964
43.8755 9.37305
43.9237 9.36008
43.9717 9.33709
44.0199 9.26839
44.068 9.26973
44.1162 9.2305
44.1642 9.16561
44.2125 9.16977
44.2606 9.20791
44.3088 9.11614
44.3569 9.11488
44.4052 9.04966
44.4533 8.97806
44.5016 8.95193
44.5497 8.9729
44.598 8.93419
44.6461 8.89688
44.6945 8.88858
44.7426 8.82905
44.791 8.78371
44.8391 8.79477
44.8875 8.75719
44.9357 8.72666
44.984 8.71123
45.0322 8.62174
45.0806 8.62101
45.1288 8.62436
45.1773 8.57001
45.2257 8.51985
45.2739 8.53139
45.3224 8.48721
45.3706 8.45638
45.4191 8.40197
45.4673 8.45714
45.5158 8.36223
45.5641 8.36671
45.6126 8.32072
45.6609 8.28124
45.7094 8.25291
45.7577 8.20193
45.8063 8.17945
45.8546 8.18445
45.9031 8.1491
45.9515 8.13203
46.0001 8.12207
46.0484 8.0866
46.097 8.04408
46.1454 8.00061
46.194 8.00745
46.2424 7.9572
46.291 7.95002
46.3395 7.89582
46.3881 7.85252
46.4365 7.83565
46.4852 7.81652
46.5337 7.80805
46.5823 7.74453
46.631 7.74954
46.6795 7.72758
46.7282 7.66524
46.7767 7.67921
46.8254 7.63852
46.8739 7.542
46.9226 7.51845
46.9712 7.50046
47.0199 7.52779
47.0685 7.52355
47.1173 7.43104
47.1658 7.46927
47.2146 7.41328
47.2632 7.36066
47.312 7.3455
47.3606 7.26824
47.4095 7.28414
47.4581 7.26748
47.5069 7.25898
47.5556 7.22917
47.6044 7.17095
47.6531 7.15533
47.702 7.13166
47.7507 7.13062
47.7996 7.05891
47.8483 7.06482
47.8972 7.05062
47.9461 7.05838
47.9948 6.99789
48.0438 6.96944
48.0925 6.94206
48.1415 6.91
48.1902 6.89135
48.2392 6.88487
48.288 6.85029
48.337 6.84992
48.3858 6.80704
48.4348 6.79339
48.4837 6.7416
48.5327 6.74898
48.5815 6.71126
48.6306 6.68773
48.6795 6.67821
48.7285 6.61137
48.7774 6.58874
48.8265 6.6042
48.8754 6.53611
48.9245 6.54262
48.9734 6.5328
49.0226 6.48922
49.0715 6.46721
49.1206 6.43807
49.1696 6.41477
49.2188 6.40815
49.2679 6.36459
49.3169 6.36476
49.3661 6.30719
49.4151 6.30731
49.4643 6.25164
49.5134 6.2668
49.5626 6.26517
49.6117 6.19611
49.6609 6.20916
49.71 6.19164
49.7592 6.12998
49.8083 6.16129
49.8576 6.12575
49.9067 6.07984
49.956 6.08116
50.0052 6.03254
50.0545 6.01786
50.1036 6.00956
50.153 5.98129
50.2022 5.95376
50.2515 5.9349
50.3007 5.89212
50.3501 5.88622
50.3993 5.89833
50.4487 5.83945
50.498 5.8301
50.5474 5.81574
50.5966 5.78791
50.6461 5.7862
50.6955 5.75848
50.7448 5.72748
50.7943 5.74171
50.8436 5.67676
50.8931 5.67989
50.9424 5.63383
50.9919 5.62113
51.0413 5.57988
51.0908 5.55817
51.1402 5.56607
51.1897 5.53365
51.2391 5.50066
51.2887 5.48171
51.3381 5.44887
51.3877 5.46084
51.4371 5.43173
51.4867 5.40126
51.5362 5.37103
51.5858 5.33168
51.6353 5.34035
51.6849 5.28386
51.7344 5.3033
51.7841 5.27745
51.8336 5.28295
51.8833 5.24481
51.9328 5.18542
51.9826 5.17785
52.0323 5.18206
52.0818 5.17055
52.1316 5.10783
52.1812 5.14319
52.231 5.09343
52.2806 5.04493
52.3304 5.05384
52.38 5.08744
52.4298 5.02178
52.4794 4.97185
52.5293 4.96397
52.5789 4.9381
52.6288 4.96117
52.6785 4.90546
52.7284 4.89826
52.7781 4.85978
52.828 4.86993
52.8777 4.85071
52.9276 4.81457
52.9774 4.84851
53.0273 4.79086
53.0771 4.74795
53.1271 4.74481
53.1769 4.72304
53.2269 4.69403
53.2767 4.70591
53.3267 4.64675
53.3765 4.66497
53.4266 4.60044
53.4766 4.62567
53.5265 4.55802
53.5765 4.57718
53.6264 4.58247
53.6765 4.52676
53.7264 4.53393
53.7765 4.49092
53.8265 4.42366
53.8766 4.44501
53.9266 4.45853
53.9767 4.38477
54.0267 4.4154
54.0769 4.33444
54.1269 4.32513
54.1771 4.27514
54.2271 4.27686
54.2773 4.22939
54.3274 4.25071
54.3776 4.20307
54.4277 4.18346
54.478 4.14647
54.528 4.10009
54.5783 4.02563
54.6285 4.01081
54.6788 4.03043
54.7289 3.98872
54.7792 3.92965
54.8296 3.93322
54.8798 3.88169
54.9301 3.90544
54.9803 3.82879
55.0307 3.84143
55.0809 3.76716
55.1314 3.74844
55.1816 3.72045
55.232 3.69021
55.2823 3.60523
55.3328 3.56138
55.383 3.60082
55.4335 3.54584
55.4838 3.49326
55.5344 3.44226
55.5847 3.41676
55.6352 3.40007
55.6856 3.41465
55.7361 3.37193