File: XRD/Ni3Fe_FD0957.xy
TT I
1.27165 7.59094
1.31627 6.92545
1.36089 7.40756
1.40551 5.70739
1.45013 6.31323
1.49476 6.10489
1.53938 6.13458
1.584 5.15743
1.62863 4.7064
1.67325 5.36241
1.71787 5.28224
1.7625 4.30704
1.80712 5.37246
1.85174 4.91036
1.89636 4.74425
1.94099 5.23181
1.98562 4.42189
2.03025 4.19165
2.07487 4.7703
2.11949 5.2042
2.16411 4.88087
2.20874 11.6914
2.25338 17.5131
2.298 6.32929
2.34263 5.72198
2.38725 6.54077
2.43188 6.55499
2.4765 8.20371
2.52115 7.48066
2.56577 8.1963
2.6104 8.45465
2.65503 8.10707
2.69965 9.25766
2.7443 8.85423
2.78893 8.5714
2.83356 8.60282
2.87818 8.83958
2.92281 9.09762
2.96744 9.76589
3.01209 10.863
3.05672 11.5555
3.10135 13.1968
3.14599 13.3237
3.19062 14.4026
3.23527 15.2981
3.2799 16.2389
3.32454 16.5591
3.36917 17.9954
3.4138 18.933
3.45844 19.4173
3.50309 21.103
3.54773 21.7139
3.59237 23.6858
3.637 73.6678
3.68164 48.8489
3.7263 25.7581
3.77094 25.855
3.81558 26.6749
3.86022 26.7259
3.90486 28.7931
3.9495 29.3353
3.99416 30.441
4.0388 31.8587
4.08344 32.963
4.12809 34.2599
4.17273 36.0916
4.21738 41.5052
4.26204 194.308
4.30669 168.464
4.35133 47.0184
4.39598 43.8974
4.44063 51.0245
4.4853 60.01
4.52995 51.3627
4.5746 52.1347
4.61925 52.7876
4.6639 54.9124
4.70855 57.1714
4.75322 60.79
4.79788 64.1729
4.84253 66.7397
4.88719 71.3775
4.93184 74.4564
4.97652 78.9986
5.02118 85.4079
5.06583 92.8201
5.11049 102.787
5.15515 158.022
5.19981 294.319
5.24449 2551.78
5.28916 13399.8
5.33382 2788.72
5.37848 177.099
5.42315 125.004
5.46783 112.417
5.5125 105.651
5.55716 100.498
5.60183 96.5454
5.6465 94.8424
5.69117 92.9433
5.73586 90.8971
5.78053 91.2313
5.8252 90.457
5.86988 92.0822
5.91455 91.6011
5.95924 97.9194
6.00392 182.506
6.0486 846.748
6.09328 4538.27
6.13795 3113.62
6.18263 214.852
6.22733 88.4651
6.27201 80.1757
6.3167 93.1938
6.36138 76.4647
6.40606 68.0455
6.45075 66.9237
6.49545 64.512
6.54014 63.0129
6.58483 61.8965
6.62952 61.9552
6.67421 85.2644
6.71892 118.888
6.76361 65.2417
6.8083 58.046
6.853 57.1951
6.89769 56.0982
6.94239 55.96
6.98711 55.1122
7.03181 54.8764
7.07651 54.3444
7.12121 54.196
7.16591 54.8749
7.21063 54.9507
7.25533 66.5131
7.30004 143.748
7.34475 80.0302
7.38945 55.1939
7.43416 53.7333
7.47889 53.8237
7.5236 54.0321
7.56831 54.4333
7.61303 55.7555
7.65774 55.9973
7.70247 55.2294
7.74719 55.2369
7.79191 55.6963
7.83663 55.8589
7.88135 56.9623
7.92607 58.0738
7.97081 59.0469
8.01553 60.0227
8.06026 61.717
8.10498 62.9461
8.14971 70.7954
8.19446 70.4494
8.23919 68.4268
8.28392 70.652
8.32865 72.7416
8.37339 76.8407
8.41812 83.2596
8.46288 104.855
8.50761 146.982
8.55235 349.566
8.59709 1177.24
8.64183 2204.17
8.68658 910.642
8.73134 154.396
8.77609 96.6396
8.82083 91.1443
8.86558 88.7202
8.91033 89.0756
8.9551 89.2727
8.99985 84.1252
9.04461 82.571
9.08936 82.1546
9.13412 80.8543
9.17888 80.9256
9.22365 81.4134
9.26841 80.5884
9.31318 81.7948
9.35794 82.5344
9.4027 82.6363
9.44749 82.8445
9.49226 83.4067
9.53703 84.2005
9.5818 86.4096
9.62657 90.8029
9.67134 95.2874
9.71614 92.0479
9.76091 92.4955
9.80569 95.3589
9.85047 98.2111
9.89525 116.656
9.94005 125.669
9.98484 161.506
10.0296 314.704
10.0744 793.985
10.1192 1792.95
10.164 1554.69
10.2088 359.199
10.2536 122.013
10.2984 109.425
10.3432 109.677
10.388 101.959
10.4328 113.093
10.4776 152.45
10.5224 278.863
10.5672 528.665
10.612 494.01
10.6568 191.927
10.7017 94.044
10.7465 84.9478
10.7913 81.6353
10.8361 79.5949
10.8809 77.5957
10.9257 76.9607
10.9706 77.1532
11.0154 73.5183
11.0602 71.7482
11.105 70.8447
11.1499 73.7007
11.1947 78.3304
11.2395 71.5605
11.2844 68.5005
11.3292 66.0562
11.374 65.3489
11.4189 64.6079
11.4637 63.4933
11.5086 64.1568
11.5534 66.0132
11.5983 64.0048
11.6431 62.6849
11.688 61.763
11.7328 62.1086
11.7777 61.8584
11.8225 61.3965
11.8674 61.3122
11.9122 61.8068
11.9571 61.9358
12.002 62.3102
12.0468 65.9256
12.0917 75.9438
12.1366 100.195
12.1814 156.526
12.2263 203.572
12.2712 160.437
12.3161 92.6247
12.3609 67.8692
12.4058 63.239
12.4507 63.1552
12.4956 63.3098
12.5405 63.3278
12.5853 64.5526
12.6302 70.6095
12.6751 74.056
12.72 67.9537
12.7649 66.4697
12.8098 67.1971
12.8547 68.5797
12.8996 69.8159
12.9445 71.2179
12.9894 72.8649
13.0343 74.4666
13.0792 78.1759
13.1242 84.8623
13.1691 105.7
13.214 142.291
13.2589 239.444
13.3038 384.393
13.3487 421.785
13.3937 246.579
13.4386 118.36
13.4835 101.007
13.5285 114.615
13.5734 153.463
13.6183 253.451
13.6633 360.067
13.7082 323.026
13.7531 176.782
13.7981 94.7227
13.843 79.94
13.888 78.1833
13.9329 75.6864
13.9779 74.5972
14.0228 73.1449
14.0678 71.8414
14.1127 71.2236
14.1577 70.9139
14.2027 70.2291
14.2476 69.1846
14.2926 69.2804
14.3376 69.9144
14.3825 68.8418
14.4275 67.6103
14.4725 67.4642
14.5175 67.5809
14.5624 68.0374
14.6074 69.4404
14.6524 69.7736
14.6974 69.0239
14.7424 70.3645
14.7874 76.0171
14.8324 85.7703
14.8774 108.247
14.9224 156.178
14.9674 215.355
15.0124 215.716
15.0574 143.672
15.1024 86.8678
15.1474 70.8513
15.1924 69.0982
15.2374 69.1141
15.2824 68.4616
15.3274 66.527
15.3725 65.4435
15.4175 65.1943
15.4625 64.8436
15.5076 64.7644
15.5526 64.8394
15.5976 64.5819
15.6426 65.3909
15.6877 69.759
15.7327 77.1095
15.7778 92.534
15.8228 127.039
15.8679 175.323
15.9129 192.742
15.958 148.153
16.003 91.8924
16.0481 66.5416
16.0931 62.8558
16.1382 60.9777
16.1833 59.4186
16.2283 57.9082
16.2734 57.1052
16.3185 57.4169
16.3636 57.6404
16.4086 56.3899
16.4537 54.9629
16.4988 54.4633
16.5439 54.5471
16.589 54.1137
16.6341 53.9017
16.6792 53.6847
16.7243 53.9085
16.7694 53.9738
16.8145 53.9248
16.8596 54.1557
16.9047 55.2948
16.9498 55.5121
16.9949 54.5068
17.04 54.5302
17.0851 55.9426
17.1302 57.1278
17.1754 60.3867
17.2205 65.7344
17.2656 74.7435
17.3108 82.8255
17.3559 79.9522
17.401 68.8439
17.4462 60.612
17.4913 58.0952
17.5365 58.0439
17.5815 58.2169
17.6268 58.6974
17.6718 59.1379
17.7171 59.8703
17.7622 60.0883
17.8074 60.8368
17.8525 62.6595
17.8977 66.32
17.9428 71.3324
17.9881 80.7034
18.0331 99.6359
18.0784 122.827
18.1237 136.719
18.1688 124.837
18.214 99.4575
18.2591 84.5183
18.3044 90.1749
18.3495 100.899
18.3948 104.716
18.4399 93.0024
18.4852 74.7203
18.5303 64.4625
18.5756 60.81
18.6207 60.2556
18.666 59.1813
18.7112 58.5314
18.7565 57.8441
18.8016 57.5351
18.8469 57.216
18.892 56.6517
18.9374 56.399
18.9825 56.139
19.0278 55.6597
19.073 55.9865
19.1183 56.179
19.1635 56.7664
19.2088 58.1648
19.254 61.0341
19.2993 65.9024
19.3447 71.5032
19.3898 74.1586
19.4352 69.5171
19.4804 61.301
19.5257 55.3896
19.5709 53.327
19.6163 52.9788
19.6615 52.7379
19.7068 52.364
19.752 52.2628
19.7974 52.4952
19.8426 53.291
19.888 53.8317
19.9332 55.1422
19.9786 57.6714
20.0238 61.7315
20.0692 66.9435
20.1144 68.4886
20.1598 66.1129
20.205 62.3276
20.2504 61.4872
20.2957 63.7612
20.3411 64.8381
20.3863 62.3443
20.4318 56.8795
20.477 52.4745
20.5224 50.5431
20.5677 49.9827
20.6131 49.282
20.6586 48.7292
20.7038 48.6735
20.7493 48.2264
20.7945 48.1009
20.84 47.8916
20.8853 47.7606
20.9307 47.7131
20.976 47.7564
21.0215 47.7876
21.0668 48.2105
21.1122 48.3881
21.1575 49.3813
21.203 50.0098
21.2483 50.5713
21.2938 50.4066
21.3391 49.042
21.3846 47.9926
21.4299 47.7291
21.4754 47.5749
21.5207 47.6218
21.5662 47.8034
21.6116 48.2853
21.6571 48.8453
21.7024 49.7773
21.7479 51.6439
21.7933 54.5822
21.8388 58.4744
21.8843 62.314
21.9297 63.2052
21.9752 61.3456
22.0206 58.0176
22.0661 55.7698
22.1115 55.2029
22.157 54.78
22.2024 52.9237
22.248 50.5211
22.2933 48.9163
22.3389 48.1766
22.3843 48.0992
22.4299 47.9379
22.4753 47.8124
22.5208 47.6282
22.5662 47.6046
22.6118 47.811
22.6572 47.8806
22.7028 48.3844
22.7483 48.6771
22.7939 49.1891
22.8393 51.0879
22.8849 53.3771
22.9303 55.7487
22.9759 56.9249
23.0214 55.989
23.067 53.2999
23.1126 50.0158
23.1581 48.3788
23.2037 47.7589
23.2492 47.8652
23.2948 47.8627
23.3403 48.1652
23.3859 48.7144
23.4314 49.9207
23.477 52.0129
23.5225 54.3732
23.5682 56.4701
23.6137 56.881
23.6593 54.1477
23.7048 50.5339
23.7505 47.2825
23.796 45.733
23.8417 45.1464
23.8872 44.7707
23.9329 44.4473
23.9784 44.0091
24.0241 43.7587
24.0697 43.5459
24.1154 43.4166
24.1609 43.2306
24.2066 43.0546
24.2522 42.8975
24.2979 42.793
24.3434 42.6405
24.3892 42.4453
24.4349 42.286
24.4805 42.1486
24.5262 42.4358
24.5718 42.2479
24.6175 42.0894
24.6631 42.0351
24.7089 41.7091
24.7545 41.7341
24.8002 41.5198
24.8458 41.5274
24.8916 41.4111
24.9372 41.3736
24.983 41.7154
25.0286 42.0228
25.0744 42.544
25.12 43.0722
25.1658 43.533
25.2114 43.9003
25.2572 44.0
25.3029 44.2872
25.3487 44.2345
25.3943 43.7525
25.4402 42.7026
25.4858 41.6598
25.5316 40.7108
25.5773 40.2338
25.6231 40.2096
25.669 39.694
25.7147 39.6183
25.7605 39.6874
25.8062 39.7021
25.8521 39.9128
25.8977 39.849
25.9436 40.0965
25.9893 40.459
26.0352 40.8098
26.0809 40.9036
26.1268 40.9147
26.1725 40.5315
26.2184 39.966
26.2641 39.5598
26.31 39.3337
26.3557 39.4716
26.4017 39.3781
26.4474 39.6209
26.4933 40.0677
26.5391 40.5844
26.585 41.1974
26.6308 41.4846
26.6767 41.4449
26.7225 41.1191
26.7684 40.6507
26.8142 40.1499
26.8601 39.7192
26.9059 39.3143
26.9519 38.6744
26.9979 38.4577
27.0437 38.1579
27.0896 38.11
27.1354 38.0669
27.1814 37.7951
27.2272 37.9219
27.2732 37.9333
27.3191 37.6879
27.3651 37.7446
27.4109 37.7429
27.4569 37.8593
27.5027 37.8426
27.5488 37.8483
27.5946 37.6399
27.6407 37.5017
27.6865 37.4138
27.7326 37.0939
27.7784 37.2167
27.8245 37.017
27.8703 37.3748
27.9164 37.5676
27.9623 37.7512
28.0084 38.0315
28.0543 38.4375
28.1003 38.2516
28.1462 38.1578
28.1923 37.9687
28.2384 37.2892
28.2843 36.8963
28.3304 36.4526
28.3764 36.0741
28.4225 35.8711
28.4684 35.5257
28.5145 35.3202
28.5605 35.0865
28.6066 35.072
28.6526 34.887
28.6987 34.9748
28.7447 34.955
28.7908 34.9271
28.8368 34.8061
28.8829 34.8032
28.9289 34.7508
28.9751 34.5299
29.0211 34.3177
29.0673 34.2048
29.1133 33.9149
29.1595 33.7588
29.2055 33.7466
29.2517 33.817
29.2977 33.7674
29.3439 33.7563
29.3899 33.6146
29.4361 33.6182
29.4824 33.3359
29.5284 33.1165
29.5746 32.8886
29.6207 32.5104
29.6669 32.4287
29.713 32.36
29.7593 32.2506
29.8053 32.3815
29.8516 32.3002
29.8977 32.2602
29.9439 32.022
29.99 32.0648
30.0363 31.8941
30.0824 31.9976
30.1287 31.8772
30.1748 31.9494
30.2211 31.8889
30.2673 31.7725
30.3136 31.8228
30.3597 31.75
30.406 31.6948
30.4522 31.5707
30.4985 31.456
30.5447 31.5765
30.591 31.5478
30.6372 31.7005
30.6835 31.6973
30.7297 31.6217
30.7761 31.5879
30.8224 31.4313
30.8686 31.2524
30.915 31.0174
30.9612 31.0073
31.0076 30.7577
31.0538 30.671
31.1002 30.6571
31.1464 30.4092
31.1928 30.3786
31.2391 30.4798
31.2855 30.2978
31.3317 30.413
31.3781 30.4708
31.4244 30.3928
31.4708 30.2685
31.5171 30.2472
31.5636 30.211
31.6098 29.978
31.6563 29.8522
31.7026 29.736
31.7491 29.6293
31.7953 29.6257
31.8418 29.6145
31.8881 29.6723
31.9346 29.6415
31.9809 29.5749
32.0275 29.3432
32.074 29.3604
32.1203 29.0589
32.1668 29.0089
32.2132 29.0221
32.2597 28.8243
32.306 28.663
32.3526 28.4472
32.399 28.4053
32.4455 28.2882
32.4919 28.2073
32.5385 28.1489
32.5848 27.9225
32.6314 28.1047
32.6778 27.9029
32.7244 27.8167
32.7708 27.6382
32.8174 27.7016
32.8638 27.6074
32.9104 27.6498
32.9569 27.5063
33.0035 27.3299
33.0499 27.3814
33.0966 27.2847
33.143 27.3062
33.1897 27.1292
33.2361 27.1146
33.2828 27.1681
33.3293 26.9829
33.3759 26.9589
33.4226 26.8174
33.4691 26.6053
33.5158 26.5491
33.5623 26.4249
33.609 26.2617
33.6555 26.2094
33.7022 26.0331
33.7487 26.0519
33.7954 26.0006
33.842 25.9558
33.8887 25.917
33.9353 25.8379
33.982 25.6946
34.0286 25.559
34.0753 25.569
34.1219 25.4481
34.1687 25.4567
34.2152 25.3302
34.262 25.1209
34.3086 25.1917
34.3554 25.0733
34.402 25.1082
34.4488 24.9055
34.4954 24.7972
34.5422 24.6653
34.5889 24.6184
34.6357 24.6023
34.6825 24.4324
34.7292 24.3961
34.776 24.401
34.8227 24.3049
34.8695 24.2138
34.9162 24.1345
34.9631 24.1309
35.0098 24.1106
35.0566 23.8915
35.1033 23.8398
35.1502 23.8603
35.1969 23.8282
35.2438 23.7021
35.2906 23.6467
35.3375 23.6118
35.3842 23.6164
35.4311 23.5866
35.4779 23.5629
35.5248 23.5269
35.5716 23.4261
35.6185 23.2664
35.6653 23.1741
35.7123 23.1877
35.759 23.1089
35.806 22.9976
35.8528 22.8811
35.8998 22.8099
35.9468 22.6749
35.9936 22.7012
36.0406 22.5866
36.0874 22.6163
36.1345 22.526
36.1813 22.426
36.2283 22.3136
36.2752 22.3022
36.3222 22.3344
36.3691 22.1626
36.4161 22.1513
36.463 22.0796
36.5101 22.0473
36.557 21.98
36.6041 21.8172
36.651 21.7806
36.6981 21.727
36.745 21.6766
36.7921 21.6402
36.839 21.4905
36.8861 21.482
36.9331 21.3438
36.9802 21.3197
37.0272 21.2092
37.0743 21.12
37.1213 21.1056
37.1684 21.0242
37.2154 20.9203
37.2626 20.907
37.3098 20.8634
37.3568 20.7784
37.404 20.7612
37.451 20.5882
37.4982 20.5974
37.5452 20.4535
37.5924 20.4705
37.6395 20.5034
37.6867 20.3643
37.7337 20.2581
37.781 20.1797
37.8281 20.0782
37.8753 20.0833
37.9224 19.966
37.9697 19.9377
38.0168 19.8512
38.064 19.7595
38.1111 19.7082
38.1584 19.6876
38.2056 19.6195
38.2529 19.5717
38.3 19.4555
38.3473 19.5472
38.3945 19.2944
38.4418 19.2924
38.489 19.2761
38.5363 19.2602
38.5837 19.1288
38.6309 19.1644
38.6782 19.0763
38.7254 18.9156
38.7728 18.884
38.82 18.8256
38.8674 18.8192
38.9146 18.7206
38.9621 18.6631
39.0093 18.6019
39.0567 18.5326
39.104 18.4331
39.1514 18.4175
39.1987 18.3692
39.2461 18.3796
39.2934 18.1858
39.3409 18.1459
39.3882 18.0859
39.4356 18.0997
39.483 17.9786
39.5304 17.9191
39.5778 17.8967
39.6253 17.8521
39.6726 17.7253
39.7201 17.7739
39.7675 17.6807
39.815 17.643
39.8624 17.5464
39.9099 17.5588
39.9575 17.4235
40.0049 17.4107
40.0525 17.3277
40.0999 17.2507
40.1474 17.2275
40.1949 17.1289
40.2425 17.0877
40.2899 17.0689
40.3375 17.032
40.385 16.9779
40.4326 16.8635
40.48 16.8068
40.5277 16.8554
40.5752 16.7842
40.6228 16.6779
40.6703 16.6597
40.718 16.5674
40.7655 16.5175
40.8132 16.4295
40.8607 16.4447
40.9084 16.395
40.9559 16.3367
41.0036 16.3158
41.0512 16.2413
41.0989 16.2249
41.1465 16.1096
41.1942 16.081
41.242 15.9164
41.2896 15.9587
41.3373 15.8722
41.3849 15.8147
41.4327 15.8771
41.4803 15.6439
41.5281 15.7221
41.5758 15.5954
41.6236 15.5908
41.6712 15.5166
41.7191 15.473
41.7667 15.4266
41.8146 15.4251
41.8622 15.2696
41.9101 15.2518
41.9578 15.1299
42.0057 15.1392
42.0534 15.0494
42.1013 15.0795
42.149 15.0102
42.1969 14.9247
42.2446 14.8801
42.2925 14.8913
42.3403 14.7759
42.3882 14.8184
42.436 14.7728
42.4839 14.6618
42.5319 14.6209
42.5797 14.6002
42.6277 14.4991
42.6755 14.4718
42.7235 14.4121
42.7713 14.4344
42.8193 14.3738
42.8671 14.2951
42.9152 14.191
42.963 14.1838
43.0111 14.1483
43.0589 14.1007
43.107 14.0301
43.1549 13.9751
43.2029 13.9201
43.2508 13.9322
43.2989 13.8607
43.3468 13.774
43.3949 13.7275
43.4429 13.7056
43.491 13.6557
43.5389 13.6553
43.5871 13.5621
43.635 13.4814
43.6832 13.4508
43.7312 13.4295
43.7793 13.3473
43.8273 13.2939
43.8755 13.2509
43.9237 13.2368
43.9717 13.2301
44.0199 13.1736
44.068 13.1188
44.1162 13.0693
44.1642 13.0358
44.2125 12.9687
44.2606 12.9093
44.3088 12.8483
44.3569 12.8027
44.4052 12.7663
44.4533 12.7126
44.5016 12.6765
44.5497 12.6594
44.598 12.6566
44.6461 12.5798
44.6945 12.5321
44.7426 12.4515
44.791 12.4285
44.8391 12.3917
44.8875 12.3715
44.9357 12.2769
44.984 12.2841
45.0322 12.2469
45.0806 12.2068
45.1288 12.1297
45.1773 12.0695
45.2257 12.0239
45.2739 11.975
45.3224 11.9482
45.3706 11.8697
45.4191 11.8608
45.4673 11.8235
45.5158 11.7953
45.5641 11.6982
45.6126 11.6991
45.6609 11.6281
45.7094 11.5596
45.7577 11.5775
45.8063 11.5208
45.8546 11.504
45.9031 11.4407
45.9515 11.4109
46.0001 11.3512
46.0484 11.3647
46.097 11.3373
46.1454 11.2669
46.194 11.215
46.2424 11.2093
46.291 11.1384
46.3395 11.095
46.3881 11.0388
46.4365 11.0239
46.4852 10.9639
46.5337 10.9542
46.5823 10.9221
46.631 10.8628
46.6795 10.7993
46.7282 10.7936
46.7767 10.7736
46.8254 10.6637
46.8739 10.6287
46.9226 10.6189
46.9712 10.5744
47.0199 10.5539
47.0685 10.509
47.1173 10.3918
47.1658 10.4359
47.2146 10.392
47.2632 10.3649
47.312 10.309
47.3606 10.2072
47.4095 10.2125
47.4581 10.1747
47.5069 10.1925
47.5556 10.1076
47.6044 10.0863
47.6531 9.99479
47.702 9.98636
47.7507 9.93241
47.7996 9.91014
47.8483 9.91177
47.8972 9.88569
47.9461 9.81215
47.9948 9.7947
48.0438 9.76136
48.0925 9.69634
48.1415 9.70802
48.1902 9.62383
48.2392 9.59391
48.288 9.61933
48.337 9.53
48.3858 9.50943
48.4348 9.46923
48.4837 9.47104
48.5327 9.42835
48.5815 9.36865
48.6306 9.35619
48.6795 9.30736
48.7285 9.26505
48.7774 9.24374
48.8265 9.199
48.8754 9.16947
48.9245 9.12664
48.9734 9.09694
49.0226 9.04282
49.0715 9.0214
49.1206 9.01887
49.1696 8.95322
49.2188 8.94936
49.2679 8.84497
49.3169 8.84108
49.3661 8.81158
49.4151 8.76441
49.4643 8.72567
49.5134 8.73393
49.5626 8.68117
49.6117 8.69062
49.6609 8.64454
49.71 8.57549
49.7592 8.55422
49.8083 8.49813
49.8576 8.49161
49.9067 8.42618
49.956 8.44932
50.0052 8.39668
50.0545 8.36239
50.1036 8.35126
50.153 8.29154
50.2022 8.27678
50.2515 8.21328
50.3007 8.19483
50.3501 8.16178
50.3993 8.14571
50.4487 8.1051
50.498 8.06361
50.5474 8.03985
50.5966 7.97824
50.6461 7.99473
50.6955 7.96182
50.7448 7.94991
50.7943 7.84924
50.8436 7.86565
50.8931 7.82937
50.9424 7.80729
50.9919 7.76117
51.0413 7.77226
51.0908 7.70285
51.1402 7.65405
51.1897 7.68332
51.2391 7.61161
51.2887 7.57743
51.3381 7.55285
51.3877 7.52432
51.4371 7.50929
51.4867 7.4309
51.5362 7.44456
51.5858 7.38705
51.6353 7.39094
51.6849 7.30848
51.7344 7.32115
51.7841 7.28446
51.8336 7.26914
51.8833 7.22023
51.9328 7.19864
51.9826 7.15072
52.0323 7.11379
52.0818 7.09786
52.1316 7.06257
52.1812 7.04483
52.231 7.01046
52.2806 6.96417
52.3304 7.00971
52.38 6.92406
52.4298 6.87166
52.4794 6.86435
52.5293 6.82406
52.5789 6.79428
52.6288 6.81089
52.6785 6.74467
52.7284 6.71427
52.7781 6.68785
52.828 6.67375
52.8777 6.64152
52.9276 6.60479
52.9774 6.56822
53.0273 6.61166
53.0771 6.53263
53.1271 6.51877
53.1769 6.47208
53.2269 6.46735
53.2767 6.41412
53.3267 6.42517
53.3765 6.36101
53.4266 6.34219
53.4766 6.32346
53.5265 6.26431
53.5765 6.26834
53.6264 6.23219
53.6765 6.18632
53.7264 6.19219
53.7765 6.16363
53.8265 6.09386
53.8766 6.09359
53.9266 6.0258
53.9767 6.02033
54.0267 6.04469
54.0769 5.98428
54.1269 5.96494
54.1771 5.94651
54.2271 5.91586
54.2773 5.86223
54.3274 5.84098
54.3776 5.83111
54.4277 5.77384
54.478 5.75891
54.528 5.74502
54.5783 5.67794
54.6285 5.67246
54.6788 5.58138
54.7289 5.5931
54.7792 5.54403
54.8296 5.44499
54.8798 5.39758
54.9301 5.39029
54.9803 5.373
55.0307 5.3331
55.0809 5.23429
55.1314 5.30561
55.1816 5.20022
55.232 5.16216
55.2823 5.10808
55.3328 5.07896
55.383 5.02313
55.4335 4.97891
55.4838 4.95158
55.5344 4.85429
55.5847 4.84411
55.6352 4.7866
55.6856 4.77533
55.7361 4.77486