File: XRD/Ni3Fe_FD0439.xy
TT I
1.27165 7.27345
1.31627 6.81523
1.36089 6.75853
1.40551 6.10798
1.45013 6.14836
1.49476 5.42289
1.53938 6.15672
1.584 5.18185
1.62863 5.40059
1.67325 5.85765
1.71787 5.55314
1.7625 5.31997
1.80712 5.21834
1.85174 4.15878
1.89636 5.24168
1.94099 5.05239
1.98562 4.19739
2.03025 4.78047
2.07487 4.6875
2.11949 4.66997
2.16411 4.02275
2.20874 12.5386
2.25338 19.4114
2.298 5.75932
2.34263 5.33231
2.38725 5.2193
2.43188 5.88319
2.4765 6.85721
2.52115 6.3899
2.56577 6.77439
2.6104 7.59682
2.65503 7.58111
2.69965 7.42063
2.7443 8.13329
2.78893 8.12596
2.83356 8.45127
2.87818 8.9169
2.92281 8.78923
2.96744 9.69912
3.01209 10.255
3.05672 10.9908
3.10135 12.6925
3.14599 12.621
3.19062 13.7762
3.23527 15.0261
3.2799 15.8035
3.32454 17.2963
3.36917 18.072
3.4138 18.6624
3.45844 19.5422
3.50309 20.8619
3.54773 21.8767
3.59237 23.9701
3.637 79.4926
3.68164 51.9702
3.7263 26.1651
3.77094 26.4443
3.81558 26.9066
3.86022 28.0135
3.90486 29.3383
3.9495 29.9246
3.99416 31.164
4.0388 32.4655
4.08344 34.0143
4.12809 34.9622
4.17273 37.1746
4.21738 42.6817
4.26204 209.181
4.30669 176.79
4.35133 47.8625
4.39598 44.5653
4.44063 52.8013
4.4853 62.2284
4.52995 51.1125
4.5746 51.769
4.61925 54.3965
4.6639 56.5604
4.70855 59.1193
4.75322 62.0745
4.79788 64.8191
4.84253 68.6266
4.88719 72.6381
4.93184 76.7246
4.97652 82.8203
5.02118 89.4533
5.06583 97.8474
5.11049 111.015
5.15515 177.78
5.19981 463.502
5.24449 3303.27
5.28916 11700.4
5.33382 3084.07
5.37848 205.362
5.42315 133.823
5.46783 116.703
5.5125 108.374
5.55716 104.58
5.60183 100.663
5.6465 98.4283
5.69117 96.6597
5.73586 94.4637
5.78053 94.0296
5.8252 94.1596
5.86988 95.4591
5.91455 98.8978
5.95924 110.131
6.00392 259.224
6.0486 1139.33
6.09328 4343.39
6.13795 3413.35
6.18263 280.771
6.22733 97.8333
6.27201 84.5494
6.3167 98.3887
6.36138 79.9057
6.40606 70.4088
6.45075 68.323
6.49545 66.3179
6.54014 64.7016
6.58483 63.8387
6.62952 63.4477
6.67421 87.6901
6.71892 126.439
6.76361 67.541
6.8083 59.3791
6.853 58.0168
6.89769 57.4198
6.94239 57.2856
6.98711 56.6925
7.03181 56.0272
7.07651 56.3792
7.12121 55.8522
7.16591 56.0811
7.21063 55.876
7.25533 68.7885
7.30004 151.924
7.34475 84.1014
7.38945 56.942
7.43416 54.9869
7.47889 54.9761
7.5236 55.1382
7.56831 56.1127
7.61303 57.4968
7.65774 57.5509
7.70247 56.8002
7.74719 56.7588
7.79191 57.5113
7.83663 57.6785
7.88135 58.7581
7.92607 59.6225
7.97081 60.974
8.01553 61.9691
8.06026 63.3715
8.10498 64.8545
8.14971 72.7504
8.19446 72.3176
8.23919 70.6394
8.28392 73.5684
8.32865 75.3396
8.37339 79.7191
8.41812 87.2464
8.46288 114.009
8.50761 191.431
8.55235 449.097
8.59709 1225.17
8.64183 2136.97
8.68658 1027.99
8.73134 175.022
8.77609 102.187
8.82083 94.4998
8.86558 91.3163
8.91033 90.8671
8.9551 91.9176
8.99985 86.395
9.04461 85.0363
9.08936 84.3525
9.13412 83.3136
9.17888 83.31
9.22365 84.1188
9.26841 83.6267
9.31318 84.0395
9.35794 84.2065
9.4027 84.4643
9.44749 85.2017
9.49226 85.9439
9.53703 87.0452
9.5818 88.854
9.62657 92.7711
9.67134 98.353
9.71614 94.988
9.76091 95.6585
9.80569 98.5939
9.85047 101.943
9.89525 122.279
9.94005 137.495
9.98484 203.165
10.0296 393.108
10.0744 854.856
10.1192 1719.7
10.164 1634.95
10.2088 429.082
10.2536 132.071
10.2984 114.957
10.3432 114.968
10.388 107.503
10.4328 126.608
10.4776 174.464
10.5224 293.011
10.5672 504.454
10.612 499.992
10.6568 206.86
10.7017 98.3389
10.7465 87.9462
10.7913 84.4945
10.8361 82.3091
10.8809 80.0771
10.9257 79.3811
10.9706 79.7314
11.0154 75.9108
11.0602 73.7661
11.105 72.8568
11.1499 76.0961
11.1947 81.5185
11.2395 74.1127
11.2844 70.8672
11.3292 68.3187
11.374 67.3556
11.4189 66.7578
11.4637 65.9512
11.5086 66.3513
11.5534 68.585
11.5983 66.3157
11.6431 64.6578
11.688 63.9278
11.7328 63.7064
11.7777 63.5884
11.8225 63.6283
11.8674 63.3017
11.9122 63.7929
11.9571 63.9103
12.002 64.9328
12.0468 70.5619
12.0917 83.4433
12.1366 107.651
12.1814 154.279
12.2263 203.483
12.2712 171.093
12.3161 96.5032
12.3609 70.8103
12.4058 65.6347
12.4507 65.2117
12.4956 65.3514
12.5405 65.4047
12.5853 66.5547
12.6302 72.6812
12.6751 77.4725
12.72 70.4276
12.7649 69.011
12.8098 69.6006
12.8547 70.9081
12.8996 72.4431
12.9445 73.4544
12.9894 75.5338
13.0343 77.2114
13.0792 81.1448
13.1242 93.3125
13.1691 120.036
13.214 159.934
13.2589 245.338
13.3038 362.33
13.3487 422.078
13.3937 270.371
13.4386 127.523
13.4835 111.574
13.5285 128.51
13.5734 167.68
13.6183 248.938
13.6633 338.452
13.7082 345.69
13.7531 193.527
13.7981 98.7109
13.843 83.1761
13.888 80.7963
13.9329 78.2629
13.9779 77.239
14.0228 75.9275
14.0678 74.2703
14.1127 73.9308
14.1577 73.4508
14.2027 72.6471
14.2476 71.4126
14.2926 71.5961
14.3376 72.5994
14.3825 71.4511
14.4275 69.9964
14.4725 70.1077
14.5175 70.2315
14.5624 70.3762
14.6074 72.0983
14.6524 72.8513
14.6974 71.8392
14.7424 74.0054
14.7874 82.4161
14.8324 93.8695
14.8774 116.29
14.9224 155.351
14.9674 203.103
15.0124 218.279
15.0574 153.189
15.1024 92.0408
15.1474 73.602
15.1924 71.5492
15.2374 71.7523
15.2824 71.2918
15.3274 69.1383
15.3725 68.037
15.4175 67.6949
15.4625 67.2147
15.5076 67.3247
15.5526 67.14
15.5976 67.251
15.6426 68.9412
15.6877 75.6185
15.7327 83.9264
15.7778 100.048
15.8228 128.623
15.8679 166.916
15.9129 191.768
15.958 158.749
16.003 97.5192
16.0481 69.1267
16.0931 65.1734
16.1382 63.6318
16.1833 61.5854
16.2283 59.9282
16.2734 59.1625
16.3185 59.2292
16.3636 60.0606
16.4086 58.6696
16.4537 57.2671
16.4988 56.5401
16.5439 56.3267
16.589 56.323
16.6341 55.763
16.6792 55.3151
16.7243 55.7537
16.7694 55.86
16.8145 55.7865
16.8596 56.1591
16.9047 57.5199
16.9498 57.6009
16.9949 56.5796
17.04 56.9165
17.0851 58.4533
17.1302 60.2572
17.1754 63.2611
17.2205 68.0559
17.2656 74.7235
17.3108 82.2972
17.3559 82.9845
17.401 72.4679
17.4462 63.0714
17.4913 60.2705
17.5365 60.0222
17.5815 60.3009
17.6268 60.7894
17.6718 61.3689
17.7171 62.0269
17.7622 62.6301
17.8074 63.4068
17.8525 66.2467
17.8977 70.8396
17.9428 76.6307
17.9881 85.6447
18.0331 102.026
18.0784 120.953
18.1237 139.186
18.1688 133.128
18.214 106.598
18.2591 88.6304
18.3044 91.6969
18.3495 100.461
18.3948 106.697
18.4399 97.9995
18.4852 78.6694
18.5303 67.025
18.5756 63.3357
18.6207 62.3629
18.666 61.4137
18.7112 60.8524
18.7565 59.9338
18.8016 59.7069
18.8469 59.0095
18.892 58.8264
18.9374 58.0594
18.9825 57.9929
19.0278 57.8125
19.073 58.1489
19.1183 58.7414
19.1635 59.4854
19.2088 60.8982
19.254 63.5102
19.2993 67.7125
19.3447 73.199
19.3898 77.3015
19.4352 73.4196
19.4804 64.2657
19.5257 57.4939
19.5709 55.3153
19.6163 54.8571
19.6615 54.8747
19.7068 54.1957
19.752 54.1084
19.7974 54.532
19.8426 55.7451
19.888 56.3836
19.9332 57.5799
19.9786 60.0074
20.0238 63.4321
20.0692 67.8672
20.1144 70.8706
20.1598 69.3746
20.205 65.0089
20.2504 62.9026
20.2957 64.5256
20.3411 66.5081
20.3863 65.224
20.4318 59.3516
20.477 54.5097
20.5224 52.4092
20.5677 51.7347
20.6131 51.0765
20.6586 50.6017
20.7038 50.4445
20.7493 49.9232
20.7945 49.7171
20.84 49.6327
20.8853 49.6977
20.9307 49.53
20.976 49.6956
21.0215 49.4537
21.0668 49.9731
21.1122 50.1036
21.1575 50.8634
21.203 51.6349
21.2483 52.2894
21.2938 52.4137
21.3391 51.0368
21.3846 49.9281
21.4299 49.1665
21.4754 49.3609
21.5207 49.4186
21.5662 49.8675
21.6116 50.4149
21.6571 50.9449
21.7024 51.9213
21.7479 53.9549
21.7933 56.396
21.8388 59.953
21.8843 63.3432
21.9297 65.433
21.9752 64.5096
22.0206 60.4827
22.0661 57.3537
22.1115 56.6336
22.157 56.6718
22.2024 55.4305
22.248 52.586
22.2933 50.8101
22.3389 50.0288
22.3843 49.8875
22.4299 49.585
22.4753 49.6746
22.5208 49.5692
22.5662 49.3055
22.6118 49.6242
22.6572 49.8269
22.7028 50.4387
22.7483 50.8772
22.7939 51.5254
22.8393 53.0944
22.8849 54.9075
22.9303 56.6644
22.9759 58.6338
23.0214 58.1963
23.067 55.4557
23.1126 52.0868
23.1581 50.0203
23.2037 49.7217
23.2492 49.8111
23.2948 49.926
23.3403 50.2311
23.3859 50.7388
23.4314 51.7173
23.477 53.5622
23.5225 55.4238
23.5682 57.4924
23.6137 58.6478
23.6593 56.8319
23.7048 52.6748
23.7505 49.3212
23.796 47.4124
23.8417 46.9222
23.8872 46.3756
23.9329 46.0974
23.9784 45.6256
24.0241 45.4026
24.0697 45.3282
24.1154 44.9056
24.1609 44.7404
24.2066 44.6403
24.2522 44.4597
24.2979 44.2707
24.3434 44.0904
24.3892 43.9547
24.4349 43.8148
24.4805 43.6858
24.5262 43.8017
24.5718 43.7
24.6175 43.7658
24.6631 43.543
24.7089 43.4037
24.7545 43.1103
24.8002 43.0144
24.8458 42.8366
24.8916 42.8304
24.9372 43.106
24.983 43.2151
25.0286 43.5214
25.0744 44.0513
25.12 44.5134
25.1658 45.1654
25.2114 45.5555
25.2572 45.5872
25.3029 45.4599
25.3487 45.6349
25.3943 45.4272
25.4402 44.2692
25.4858 43.2561
25.5316 42.0914
25.5773 41.653
25.6231 41.587
25.669 41.2539
25.7147 41.2975
25.7605 41.2985
25.8062 41.181
25.8521 41.2983
25.8977 41.2727
25.9436 41.5763
25.9893 41.7253
26.0352 42.1788
26.0809 42.3002
26.1268 42.3773
26.1725 42.1773
26.2184 41.5072
26.2641 40.8808
26.31 40.7692
26.3557 40.8541
26.4017 40.9578
26.4474 41.3155
26.4933 41.4759
26.5391 41.969
26.585 42.359
26.6308 42.7822
26.6767 42.884
26.7225 42.7837
26.7684 42.0781
26.8142 41.5586
26.8601 41.1134
26.9059 40.739
26.9519 40.1613
26.9979 39.9032
27.0437 39.4292
27.0896 39.458
27.1354 39.374
27.1814 39.252
27.2272 39.3313
27.2732 39.2747
27.3191 38.9312
27.3651 39.165
27.4109 39.0358
27.4569 39.2042
27.5027 39.2458
27.5488 39.1672
27.5946 39.0944
27.6407 38.8715
27.6865 38.7045
27.7326 38.5204
27.7784 38.5307
27.8245 38.5602
27.8703 38.6794
27.9164 39.056
27.9623 39.0454
28.0084 39.2732
28.0543 39.6813
28.1003 39.5679
28.1462 39.5022
28.1923 39.0248
28.2384 38.651
28.2843 38.2911
28.3304 37.8704
28.3764 37.2821
28.4225 37.051
28.4684 36.8824
28.5145 36.6337
28.5605 36.4504
28.6066 36.318
28.6526 36.1423
28.6987 36.2624
28.7447 36.2222
28.7908 36.0817
28.8368 36.055
28.8829 35.9724
28.9289 35.8049
28.9751 35.8047
29.0211 35.5696
29.0673 35.1808
29.1133 35.198
29.1595 35.028
29.2055 35.0194
29.2517 34.9192
29.2977 34.8109
29.3439 34.9094
29.3899 34.8786
29.4361 34.8402
29.4824 34.5264
29.5284 34.3472
29.5746 33.9675
29.6207 33.6904
29.6669 33.6313
29.713 33.5443
29.7593 33.4139
29.8053 33.393
29.8516 33.3558
29.8977 33.4491
29.9439 33.17
29.99 33.1109
30.0363 33.0029
30.0824 32.984
30.1287 33.0542
30.1748 32.9813
30.2211 33.0213
30.2673 32.8741
30.3136 32.8932
30.3597 32.8321
30.406 32.78
30.4522 32.6374
30.4985 32.6193
30.5447 32.7601
30.591 32.7154
30.6372 32.6956
30.6835 32.6719
30.7297 32.7863
30.7761 32.7507
30.8224 32.6096
30.8686 32.5057
30.915 32.0853
30.9612 32.0493
31.0076 31.8496
31.0538 31.7534
31.1002 31.6614
31.1464 31.5653
31.1928 31.3799
31.2391 31.3983
31.2855 31.439
31.3317 31.3938
31.3781 31.4085
31.4244 31.4278
31.4708 31.326
31.5171 31.3357
31.5636 31.3568
31.6098 31.0333
31.6563 30.9804
31.7026 30.8619
31.7491 30.6564
31.7953 30.733
31.8418 30.7618
31.8881 30.7165
31.9346 30.5338
31.9809 30.4749
32.0275 30.3917
32.074 30.3939
32.1203 30.1473
32.1668 30.134
32.2132 29.9289
32.2597 29.7879
32.306 29.7565
32.3526 29.5404
32.399 29.3937
32.4455 29.3384
32.4919 29.1145
32.5385 29.1749
32.5848 28.9062
32.6314 29.0161
32.6778 28.8935
32.7244 28.7517
32.7708 28.628
32.8174 28.7099
32.8638 28.5695
32.9104 28.5141
32.9569 28.5033
33.0035 28.2626
33.0499 28.3891
33.0966 28.3013
33.143 28.2571
33.1897 28.1299
33.2361 28.0617
33.2828 28.0682
33.3293 27.8996
33.3759 27.8377
33.4226 27.7094
33.4691 27.5933
33.5158 27.5647
33.5623 27.3788
33.609 27.1144
33.6555 27.1155
33.7022 27.0677
33.7487 26.8713
33.7954 26.9531
33.842 26.8462
33.8887 26.6796
33.9353 26.7121
33.982 26.5554
34.0286 26.4679
34.0753 26.4547
34.1219 26.3453
34.1687 26.2625
34.2152 26.2564
34.262 26.0303
34.3086 25.9659
34.3554 25.9292
34.402 25.926
34.4488 25.7913
34.4954 25.6735
34.5422 25.5676
34.5889 25.5168
34.6357 25.4256
34.6825 25.4423
34.7292 25.3356
34.776 25.1385
34.8227 25.1239
34.8695 25.0393
34.9162 25.006
34.9631 24.9654
35.0098 24.8728
35.0566 24.6487
35.1033 24.7455
35.1502 24.5941
35.1969 24.539
35.2438 24.5385
35.2906 24.4437
35.3375 24.473
35.3842 24.3212
35.4311 24.3663
35.4779 24.2559
35.5248 24.2838
35.5716 24.1991
35.6185 24.0691
35.6653 24.0371
35.7123 24.0139
35.759 23.8817
35.806 23.7253
35.8528 23.6397
35.8998 23.6034
35.9468 23.4682
35.9936 23.4483
36.0406 23.4026
36.0874 23.4376
36.1345 23.2352
36.1813 23.1338
36.2283 23.1164
36.2752 23.0182
36.3222 23.0576
36.3691 22.9735
36.4161 22.8479
36.463 22.7496
36.5101 22.8712
36.557 22.7528
36.6041 22.5397
36.651 22.5882
36.6981 22.3752
36.745 22.474
36.7921 22.3537
36.839 22.2137
36.8861 22.211
36.9331 22.0669
36.9802 22.0079
37.0272 21.9795
37.0743 21.8114
37.1213 21.8473
37.1684 21.7517
37.2154 21.6918
37.2626 21.6723
37.3098 21.5726
37.3568 21.5441
37.404 21.4524
37.451 21.2947
37.4982 21.3167
37.5452 21.2328
37.5924 21.1852
37.6395 21.1721
37.6867 21.0733
37.7337 20.8846
37.781 20.8636
37.8281 20.7634
37.8753 20.7694
37.9224 20.6362
37.9697 20.6155
38.0168 20.5486
38.064 20.4866
38.1111 20.447
38.1584 20.3237
38.2056 20.3318
38.2529 20.233
38.3 20.1084
38.3473 20.1179
38.3945 20.0337
38.4418 20.0175
38.489 19.9679
38.5363 19.8146
38.5837 19.831
38.6309 19.7159
38.6782 19.6632
38.7254 19.62
38.7728 19.4706
38.82 19.4834
38.8674 19.4259
38.9146 19.3661
38.9621 19.2712
39.0093 19.2017
39.0567 19.2259
39.104 19.1475
39.1514 19.0063
39.1987 19.034
39.2461 18.9701
39.2934 18.897
39.3409 18.7897
39.3882 18.7222
39.4356 18.7321
39.483 18.6139
39.5304 18.5417
39.5778 18.5256
39.6253 18.507
39.6726 18.3963
39.7201 18.3582
39.7675 18.3094
39.815 18.2171
39.8624 18.1458
39.9099 18.1583
39.9575 18.0201
40.0049 17.9865
40.0525 17.9107
40.0999 17.9049
40.1474 17.8371
40.1949 17.7135
40.2425 17.7237
40.2899 17.6533
40.3375 17.5873
40.385 17.5448
40.4326 17.4722
40.48 17.3961
40.5277 17.4764
40.5752 17.3385
40.6228 17.2835
40.6703 17.1885
40.718 17.2031
40.7655 17.103
40.8132 17.0112
40.8607 17.0447
40.9084 16.9755
40.9559 16.8471
41.0036 16.8864
41.0512 16.7475
41.0989 16.7056
41.1465 16.7183
41.1942 16.5674
41.242 16.5036
41.2896 16.5021
41.3373 16.4809
41.3849 16.387
41.4327 16.3544
41.4803 16.2934
41.5281 16.2262
41.5758 16.1805
41.6236 16.1388
41.6712 16.0397
41.7191 16.0279
41.7667 15.9356
41.8146 15.9335
41.8622 15.8569
41.9101 15.8198
41.9578 15.6964
42.0057 15.6473
42.0534 15.6379
42.1013 15.6556
42.149 15.541
42.1969 15.4633
42.2446 15.4256
42.2925 15.3741
42.3403 15.3064
42.3882 15.2791
42.436 15.2446
42.4839 15.1827
42.5319 15.1303
42.5797 15.0918
42.6277 15.035
42.6755 15.0162
42.7235 14.8556
42.7713 14.8863
42.8193 14.7795
42.8671 14.7449
42.9152 14.6856
42.963 14.6507
43.0111 14.5857
43.0589 14.5114
43.107 14.4896
43.1549 14.4954
43.2029 14.3657
43.2508 14.3987
43.2989 14.3154
43.3468 14.2206
43.3949 14.1775
43.4429 14.181
43.491 14.0802
43.5389 14.1046
43.5871 14.011
43.635 13.9185
43.6832 13.9373
43.7312 13.8805
43.7793 13.8177
43.8273 13.7808
43.8755 13.787
43.9237 13.6306
43.9717 13.6719
44.0199 13.5986
44.068 13.5325
44.1162 13.4839
44.1642 13.4332
44.2125 13.4093
44.2606 13.3469
44.3088 13.3145
44.3569 13.2458
44.4052 13.2368
44.4533 13.1332
44.5016 13.1248
44.5497 13.0495
44.598 12.9969
44.6461 12.9716
44.6945 12.9716
44.7426 12.8913
44.791 12.84
44.8391 12.827
44.8875 12.7463
44.9357 12.7323
44.984 12.6647
45.0322 12.6057
45.0806 12.5319
45.1288 12.5378
45.1773 12.4745
45.2257 12.4701
45.2739 12.4201
45.3224 12.3615
45.3706 12.338
45.4191 12.2723
45.4673 12.1946
45.5158 12.2125
45.5641 12.1083
45.6126 12.0857
45.6609 12.0599
45.7094 12.0102
45.7577 11.9373
45.8063 11.8662
45.8546 11.8463
45.9031 11.8428
45.9515 11.8086
46.0001 11.7114
46.0484 11.7264
46.097 11.6442
46.1454 11.6451
46.194 11.6076
46.2424 11.5691
46.291 11.5135
46.3395 11.4831
46.3881 11.415
46.4365 11.3971
46.4852 11.3408
46.5337 11.3111
46.5823 11.2358
46.631 11.2341
46.6795 11.1476
46.7282 11.1629
46.7767 11.1136
46.8254 11.0162
46.8739 10.9919
46.9226 10.9349
46.9712 10.9237
47.0199 10.9165
47.0685 10.868
47.1173 10.8009
47.1658 10.7844
47.2146 10.7392
47.2632 10.6471
47.312 10.6736
47.3606 10.613
47.4095 10.5921
47.4581 10.5015
47.5069 10.5057
47.5556 10.4825
47.6044 10.3913
47.6531 10.3483
47.702 10.3234
47.7507 10.315
47.7996 10.239
47.8483 10.2437
47.8972 10.2072
47.9461 10.1483
47.9948 10.1214
48.0438 10.0461
48.0925 10.0591
48.1415 10.0142
48.1902 9.97762
48.2392 9.97154
48.288 9.88183
48.337 9.87076
48.3858 9.83731
48.4348 9.78229
48.4837 9.79618
48.5327 9.70552
48.5815 9.6752
48.6306 9.65887
48.6795 9.61634
48.7285 9.57628
48.7774 9.54723
48.8265 9.55624
48.8754 9.47812
48.9245 9.42093
48.9734 9.38726
49.0226 9.40259
49.0715 9.3354
49.1206 9.29712
49.1696 9.26207
49.2188 9.23107
49.2679 9.19874
49.3169 9.14983
49.3661 9.12139
49.4151 9.09722
49.4643 9.08464
49.5134 9.0367
49.5626 8.99363
49.6117 8.9507
49.6609 8.93602
49.71 8.85831
49.7592 8.81349
49.8083 8.85324
49.8576 8.74817
49.9067 8.73786
49.956 8.70925
50.0052 8.68871
50.0545 8.63966
50.1036 8.55332
50.153 8.54808
50.2022 8.55727
50.2515 8.49874
50.3007 8.46988
50.3501 8.43225
50.3993 8.40342
50.4487 8.36413
50.498 8.34521
50.5474 8.30442
50.5966 8.24908
50.6461 8.278
50.6955 8.25253
50.7448 8.20545
50.7943 8.19197
50.8436 8.10246
50.8931 8.07674
50.9424 8.05059
50.9919 8.04333
51.0413 7.99481
51.0908 7.96234
51.1402 7.91898
51.1897 7.9123
51.2391 7.88713
51.2887 7.8152
51.3381 7.78969
51.3877 7.74099
51.4371 7.73274
51.4867 7.70513
51.5362 7.69266
51.5858 7.63625
51.6353 7.60876
51.6849 7.60828
51.7344 7.55986
51.7841 7.54725
51.8336 7.50308
51.8833 7.4464
51.9328 7.42729
51.9826 7.34894
52.0323 7.39165
52.0818 7.3544
52.1316 7.27544
52.1812 7.28393
52.231 7.20953
52.2806 7.17904
52.3304 7.16705
52.38 7.13747
52.4298 7.10318
52.4794 7.05909
52.5293 7.06402
52.5789 7.05836
52.6288 7.01239
52.6785 6.94799
52.7284 6.93686
52.7781 6.94224
52.828 6.92371
52.8777 6.84337
52.9276 6.80266
52.9774 6.81391
53.0273 6.77932
53.0771 6.75537
53.1271 6.72784
53.1769 6.72234
53.2269 6.67227
53.2767 6.64429
53.3267 6.58814
53.3765 6.58114
53.4266 6.55689
53.4766 6.53919
53.5265 6.48265
53.5765 6.49627
53.6264 6.39698
53.6765 6.40934
53.7264 6.38555
53.7765 6.36626
53.8265 6.33868
53.8766 6.26218
53.9266 6.26526
53.9767 6.22246
54.0267 6.2488
54.0769 6.16267
54.1269 6.12195
54.1771 6.11831
54.2271 6.13247
54.2773 6.05976
54.3274 6.07585
54.3776 5.9669
54.4277 5.94137
54.478 5.96625
54.528 5.88157
54.5783 5.8649
54.6285 5.82075
54.6788 5.78554
54.7289 5.7454
54.7792 5.71798
54.8296 5.62968
54.8798 5.61036
54.9301 5.57942
54.9803 5.5472
55.0307 5.5343
55.0809 5.44822
55.1314 5.43746
55.1816 5.37596
55.232 5.36998
55.2823 5.33584
55.3328 5.24083
55.383 5.22727
55.4335 5.16963
55.4838 5.0358
55.5344 5.08238
55.5847 5.0354
55.6352 4.96051
55.6856 4.91204
55.7361 4.9069