File: XRD/Ni3Fe_FD0854.xy
TT I
1.27165 6.93084
1.31627 6.20285
1.36089 6.54492
1.40551 5.31796
1.45013 6.24154
1.49476 5.76302
1.53938 5.89209
1.584 5.19346
1.62863 5.43532
1.67325 5.59616
1.71787 4.88356
1.7625 4.64612
1.80712 5.06469
1.85174 4.6695
1.89636 4.75203
1.94099 5.01819
1.98562 4.86143
2.03025 4.02692
2.07487 4.95816
2.11949 5.2179
2.16411 5.38834
2.20874 13.7798
2.25338 22.4065
2.298 5.76176
2.34263 5.21032
2.38725 6.2936
2.43188 6.23249
2.4765 7.07711
2.52115 7.54072
2.56577 8.40894
2.6104 8.17001
2.65503 8.33141
2.69965 8.51031
2.7443 8.51028
2.78893 8.03349
2.83356 8.26395
2.87818 9.09231
2.92281 8.94215
2.96744 9.64769
3.01209 10.0531
3.05672 10.6887
3.10135 12.1339
3.14599 12.9945
3.19062 14.4173
3.23527 15.1267
3.2799 15.5834
3.32454 17.051
3.36917 17.7958
3.4138 18.5932
3.45844 19.0628
3.50309 21.1759
3.54773 21.5792
3.59237 23.9737
3.637 88.7708
3.68164 57.1472
3.7263 26.0534
3.77094 26.2566
3.81558 26.4849
3.86022 27.7564
3.90486 28.6381
3.9495 29.742
3.99416 30.7554
4.0388 32.4355
4.08344 33.0431
4.12809 34.5488
4.17273 36.9854
4.21738 42.677
4.26204 239.816
4.30669 209.866
4.35133 48.3221
4.39598 44.288
4.44063 52.8716
4.4853 64.1038
4.52995 49.661
4.5746 50.9518
4.61925 52.6813
4.6639 54.9109
4.70855 57.4305
4.75322 60.4106
4.79788 63.1506
4.84253 66.1799
4.88719 70.555
4.93184 73.632
4.97652 79.4102
5.02118 85.3748
5.06583 92.2223
5.11049 102.622
5.15515 164.482
5.19981 296.876
5.24449 2511.62
5.28916 12323.3
5.33382 2674.11
5.37848 176.59
5.42315 125.056
5.46783 110.981
5.5125 104.026
5.55716 100.727
5.60183 96.9536
5.6465 95.3732
5.69117 92.8996
5.73586 90.6092
5.78053 90.0525
5.8252 89.3114
5.86988 89.6616
5.91455 91.8125
5.95924 97.7857
6.00392 177.507
6.0486 843.809
6.09328 4446.24
6.13795 3181.98
6.18263 222.544
6.22733 90.1186
6.27201 81.0506
6.3167 99.9353
6.36138 79.0575
6.40606 67.9803
6.45075 66.401
6.49545 64.5596
6.54014 63.0377
6.58483 62.3514
6.62952 62.0154
6.67421 92.1035
6.71892 137.617
6.76361 67.925
6.8083 57.8219
6.853 56.7418
6.89769 56.0896
6.94239 56.0355
6.98711 55.1174
7.03181 55.0107
7.07651 54.6083
7.12121 54.7292
7.16591 54.8437
7.21063 54.8982
7.25533 69.9447
7.30004 171.481
7.34475 88.4824
7.38945 56.0004
7.43416 54.104
7.47889 54.2063
7.5236 54.4621
7.56831 54.9109
7.61303 56.4186
7.65774 56.8718
7.70247 55.575
7.74719 55.5527
7.79191 56.1267
7.83663 56.2525
7.88135 57.2717
7.92607 58.1116
7.97081 59.2704
8.01553 60.0003
8.06026 61.2422
8.10498 63.2041
8.14971 72.0587
8.19446 71.5211
8.23919 68.7638
8.28392 70.7667
8.32865 73.1565
8.37339 76.9737
8.41812 83.6714
8.46288 110.746
8.50761 147.253
8.55235 343.648
8.59709 1135.41
8.64183 2232.9
8.68658 931.611
8.73134 166.818
8.77609 97.4494
8.82083 91.1018
8.86558 88.3196
8.91033 88.619
8.9551 90.3204
8.99985 84.2052
9.04461 82.6424
9.08936 81.7103
9.13412 81.1078
9.17888 81.2376
9.22365 82.0278
9.26841 81.1942
9.31318 81.7352
9.35794 81.3117
9.4027 82.1788
9.44749 82.8488
9.49226 83.461
9.53703 84.5739
9.5818 86.1859
9.62657 91.1637
9.67134 96.9542
9.71614 92.3936
9.76091 92.7585
9.80569 95.1387
9.85047 98.1926
9.89525 120.73
9.94005 132.004
9.98484 159.735
10.0296 311.025
10.0744 791.282
10.1192 1770.44
10.164 1564.41
10.2088 395.017
10.2536 123.834
10.2984 111.194
10.3432 112.72
10.388 102.234
10.4328 112.891
10.4776 151.251
10.5224 277.33
10.5672 536.264
10.612 507.97
10.6568 202.145
10.7017 95.6072
10.7465 85.3497
10.7913 82.0417
10.8361 79.9771
10.8809 77.8382
10.9257 77.4753
10.9706 77.8124
11.0154 73.9664
11.0602 71.8754
11.105 70.8138
11.1499 75.1412
11.1947 82.1482
11.2395 73.386
11.2844 69.4067
11.3292 66.2609
11.374 65.2908
11.4189 64.5593
11.4637 64.1807
11.5086 64.3173
11.5534 67.536
11.5983 64.7716
11.6431 62.7686
11.688 62.1018
11.7328 62.1138
11.7777 61.8674
11.8225 61.7181
11.8674 61.612
11.9122 62.0405
11.9571 62.2812
12.002 62.2952
12.0468 65.8319
12.0917 75.648
12.1366 99.0983
12.1814 153.634
12.2263 213.012
12.2712 168.191
12.3161 94.7643
12.3609 69.4503
12.4058 63.8384
12.4507 63.4385
12.4956 63.4875
12.5405 63.5534
12.5853 64.7664
12.6302 71.9636
12.6751 77.0625
12.72 68.9449
12.7649 66.7852
12.8098 67.1677
12.8547 68.7624
12.8996 69.8108
12.9445 70.7483
12.9894 72.8324
13.0343 74.3477
13.0792 77.4764
13.1242 84.8233
13.1691 105.498
13.214 140.787
13.2589 233.727
13.3038 374.697
13.3487 422.258
13.3937 255.761
13.4386 121.321
13.4835 101.094
13.5285 114.457
13.5734 152.535
13.6183 248.982
13.6633 359.309
13.7082 334.175
13.7531 181.952
13.7981 95.8429
13.843 80.6191
13.888 78.3826
13.9329 75.8175
13.9779 74.8556
14.0228 73.518
14.0678 71.9133
14.1127 71.7002
14.1577 71.418
14.2027 70.5406
14.2476 69.3034
14.2926 69.4732
14.3376 70.5141
14.3825 69.3751
14.4275 67.7996
14.4725 67.7172
14.5175 67.8924
14.5624 68.0852
14.6074 69.8948
14.6524 70.7962
14.6974 69.2311
14.7424 70.2108
14.7874 75.6523
14.8324 85.075
14.8774 106.782
14.9224 153.049
14.9674 211.837
15.0124 218.406
15.0574 147.424
15.1024 89.9305
15.1474 71.3523
15.1924 69.4514
15.2374 70.1145
15.2824 69.3497
15.3274 67.2088
15.3725 65.9569
15.4175 65.2912
15.4625 65.3449
15.5076 65.4108
15.5526 65.2547
15.5976 64.8209
15.6426 65.3984
15.6877 69.7587
15.7327 76.7812
15.7778 91.7449
15.8228 125.094
15.8679 172.502
15.9129 193.709
15.958 152.958
16.003 93.4107
16.0481 67.4255
16.0931 63.7053
16.1382 61.9396
16.1833 59.7925
16.2283 58.149
16.2734 57.4188
16.3185 57.8145
16.3636 58.6503
16.4086 56.8231
16.4537 55.2069
16.4988 54.671
16.5439 54.738
16.589 54.4059
16.6341 54.1966
16.6792 53.7578
16.7243 54.0161
16.7694 54.3255
16.8145 54.0355
16.8596 54.5855
16.9047 55.9503
16.9498 55.9287
16.9949 54.7931
17.04 54.7214
17.0851 55.9073
17.1302 57.5838
17.1754 60.5757
17.2205 65.75
17.2656 74.0334
17.3108 82.8149
17.3559 81.3927
17.401 69.9936
17.4462 60.9766
17.4913 58.294
17.5365 58.2268
17.5815 58.4835
17.6268 58.7774
17.6718 59.4655
17.7171 60.2767
17.7622 60.1354
17.8074 60.8856
17.8525 62.8252
17.8977 66.3476
17.9428 71.3969
17.9881 80.5262
18.0331 98.4234
18.0784 121.627
18.1237 137.64
18.1688 127.05
18.214 100.902
18.2591 84.8777
18.3044 89.9576
18.3495 100.564
18.3948 104.458
18.4399 93.6975
18.4852 76.1505
18.5303 65.1238
18.5756 61.2878
18.6207 60.3831
18.666 59.5548
18.7112 58.9654
18.7565 58.1678
18.8016 57.7505
18.8469 57.2092
18.892 56.8658
18.9374 56.5142
18.9825 56.2117
19.0278 56.1678
19.073 56.3498
19.1183 56.4565
19.1635 57.177
19.2088 58.4047
19.254 61.116
19.2993 66.0115
19.3447 72.2891
19.3898 75.7906
19.4352 70.8624
19.4804 62.2316
19.5257 55.962
19.5709 53.5482
19.6163 53.1554
19.6615 53.1034
19.7068 52.6422
19.752 52.6224
19.7974 52.7841
19.8426 53.5819
19.888 54.0626
19.9332 55.3792
19.9786 57.925
20.0238 61.751
20.0692 66.8509
20.1144 68.7917
20.1598 67.0387
20.205 62.4967
20.2504 61.533
20.2957 63.7843
20.3411 65.1083
20.3863 63.1053
20.4318 57.5788
20.477 52.9948
20.5224 50.8075
20.5677 50.245
20.6131 49.6644
20.6586 48.9891
20.7038 48.7624
20.7493 48.4897
20.7945 48.3181
20.84 48.1792
20.8853 48.1346
20.9307 47.9162
20.976 47.9456
21.0215 47.9611
21.0668 48.4469
21.1122 48.8931
21.1575 49.6016
21.203 50.3727
21.2483 50.8148
21.2938 50.7896
21.3391 49.2173
21.3846 48.4172
21.4299 47.7559
21.4754 47.6906
21.5207 47.8327
21.5662 47.9931
21.6116 48.2569
21.6571 48.9879
21.7024 49.9592
21.7479 51.7613
21.7933 54.5727
21.8388 58.4676
21.8843 62.2492
21.9297 63.5136
21.9752 62.1017
22.0206 58.6025
22.0661 55.9087
22.1115 55.5746
22.157 55.0788
22.2024 53.3701
22.248 50.7011
22.2933 49.3019
22.3389 48.532
22.3843 48.3929
22.4299 48.2328
22.4753 48.2665
22.5208 47.9503
22.5662 47.7593
22.6118 48.0724
22.6572 48.2757
22.7028 48.5035
22.7483 48.7951
22.7939 49.6224
22.8393 51.2695
22.8849 53.4625
22.9303 55.7545
22.9759 57.2778
23.0214 56.6646
23.067 53.6998
23.1126 50.3666
23.1581 48.5002
23.2037 48.1067
23.2492 48.1831
23.2948 48.0908
23.3403 48.4352
23.3859 49.0069
23.4314 50.052
23.477 52.0054
23.5225 54.4288
23.5682 56.5738
23.6137 57.1415
23.6593 54.7264
23.7048 50.8069
23.7505 47.62
23.796 46.0865
23.8417 45.4172
23.8872 44.8433
23.9329 44.591
23.9784 44.2904
24.0241 44.1109
24.0697 43.9924
24.1154 43.6789
24.1609 43.4885
24.2066 43.2997
24.2522 43.2017
24.2979 42.8758
24.3434 42.8492
24.3892 42.4619
24.4349 42.5625
24.4805 42.4289
24.5262 42.5892
24.5718 42.4572
24.6175 42.2058
24.6631 42.2996
24.7089 42.0144
24.7545 42.0417
24.8002 41.7077
24.8458 41.6937
24.8916 41.4502
24.9372 41.6327
24.983 41.912
25.0286 42.2501
25.0744 42.7831
25.12 43.2152
25.1658 43.87
25.2114 44.0778
25.2572 44.3835
25.3029 44.389
25.3487 44.4959
25.3943 44.092
25.4402 42.9651
25.4858 41.9767
25.5316 40.8646
25.5773 40.3467
25.6231 40.4332
25.669 40.0606
25.7147 40.0257
25.7605 39.9678
25.8062 39.9577
25.8521 40.0895
25.8977 39.956
25.9436 40.3872
25.9893 40.4637
26.0352 41.0476
26.0809 40.9919
26.1268 41.1872
26.1725 40.7116
26.2184 40.1857
26.2641 39.8734
26.31 39.501
26.3557 39.5952
26.4017 39.5978
26.4474 39.8767
26.4933 40.2777
26.5391 40.7481
26.585 41.1838
26.6308 41.5226
26.6767 41.6238
26.7225 41.4
26.7684 40.8872
26.8142 40.2437
26.8601 39.8366
26.9059 39.524
26.9519 38.9508
26.9979 38.7596
27.0437 38.573
27.0896 38.2544
27.1354 38.2749
27.1814 38.0625
27.2272 38.0444
27.2732 38.0591
27.3191 37.8846
27.3651 37.8608
27.4109 37.9437
27.4569 38.1224
27.5027 38.1002
27.5488 38.1165
27.5946 37.952
27.6407 37.5979
27.6865 37.5485
27.7326 37.3436
27.7784 37.4032
27.8245 37.3718
27.8703 37.6035
27.9164 37.8756
27.9623 37.9165
28.0084 38.132
28.0543 38.5894
28.1003 38.5031
28.1462 38.4138
28.1923 37.9713
28.2384 37.6526
28.2843 37.0824
28.3304 36.7397
28.3764 36.3424
28.4225 36.0161
28.4684 35.7121
28.5145 35.5209
28.5605 35.4845
28.6066 35.1504
28.6526 35.16
28.6987 35.1312
28.7447 34.9828
28.7908 35.0293
28.8368 35.1531
28.8829 34.9852
28.9289 34.8251
28.9751 34.6884
29.0211 34.4496
29.0673 34.2794
29.1133 34.1612
29.1595 33.9222
29.2055 33.9094
29.2517 33.8642
29.2977 33.7593
29.3439 33.8515
29.3899 33.8643
29.4361 33.7433
29.4824 33.4448
29.5284 33.2938
29.5746 33.0479
29.6207 32.8056
29.6669 32.6801
29.713 32.6823
29.7593 32.4794
29.8053 32.6043
29.8516 32.3239
29.8977 32.3168
29.9439 32.2649
29.99 32.2113
30.0363 32.0428
30.0824 32.0645
30.1287 32.0019
30.1748 31.9523
30.2211 32.127
30.2673 31.9881
30.3136 32.0175
30.3597 31.8102
30.406 31.8138
30.4522 31.6774
30.4985 31.6291
30.5447 31.7029
30.591 31.7421
30.6372 31.8027
30.6835 31.8433
30.7297 31.8729
30.7761 31.6779
30.8224 31.5346
30.8686 31.3872
30.915 31.2385
30.9612 31.069
31.0076 30.865
31.0538 30.8074
31.1002 30.7176
31.1464 30.5444
31.1928 30.5501
31.2391 30.6123
31.2855 30.5055
31.3317 30.4171
31.3781 30.5356
31.4244 30.4447
31.4708 30.4655
31.5171 30.3668
31.5636 30.263
31.6098 30.1648
31.6563 30.031
31.7026 29.8125
31.7491 29.7625
31.7953 29.7705
31.8418 29.7926
31.8881 29.7908
31.9346 29.6684
31.9809 29.696
32.0275 29.5786
32.074 29.4841
32.1203 29.2917
32.1668 29.2157
32.2132 28.9946
32.2597 28.8041
32.306 28.805
32.3526 28.621
32.399 28.5973
32.4455 28.4303
32.4919 28.4365
32.5385 28.29
32.5848 28.0898
32.6314 28.1594
32.6778 28.0664
32.7244 27.9349
32.7708 27.8362
32.8174 27.8232
32.8638 27.6401
32.9104 27.7309
32.9569 27.6538
33.0035 27.5482
33.0499 27.4828
33.0966 27.5219
33.143 27.396
33.1897 27.3302
33.2361 27.2577
33.2828 27.2242
33.3293 26.9571
33.3759 26.986
33.4226 26.8361
33.4691 26.8154
33.5158 26.68
33.5623 26.5997
33.609 26.4331
33.6555 26.3673
33.7022 26.2354
33.7487 26.1744
33.7954 26.2418
33.842 26.1013
33.8887 26.0819
33.9353 25.9823
33.982 25.8149
34.0286 25.7042
34.0753 25.6389
34.1219 25.6034
34.1687 25.5052
34.2152 25.4899
34.262 25.3447
34.3086 25.262
34.3554 25.1449
34.402 25.0542
34.4488 24.9737
34.4954 24.9724
34.5422 24.8979
34.5889 24.7874
34.6357 24.6832
34.6825 24.6612
34.7292 24.5124
34.776 24.4178
34.8227 24.3421
34.8695 24.3358
34.9162 24.2906
34.9631 24.2708
35.0098 24.2641
35.0566 24.0468
35.1033 24.0093
35.1502 23.9779
35.1969 23.8901
35.2438 23.8747
35.2906 23.7889
35.3375 23.706
35.3842 23.704
35.4311 23.6551
35.4779 23.6622
35.5248 23.5793
35.5716 23.498
35.6185 23.4133
35.6653 23.3507
35.7123 23.234
35.759 23.1929
35.806 23.0446
35.8528 23.0336
35.8998 22.9651
35.9468 22.913
35.9936 22.8638
36.0406 22.7514
36.0874 22.7218
36.1345 22.6787
36.1813 22.5731
36.2283 22.4688
36.2752 22.3764
36.3222 22.3849
36.3691 22.2874
36.4161 22.2594
36.463 22.1965
36.5101 22.1699
36.557 22.0253
36.6041 21.9224
36.651 21.9168
36.6981 21.8602
36.745 21.817
36.7921 21.7174
36.839 21.6263
36.8861 21.5531
36.9331 21.4511
36.9802 21.441
37.0272 21.3169
37.0743 21.1986
37.1213 21.2614
37.1684 21.1889
37.2154 21.0966
37.2626 20.9024
37.3098 20.9617
37.3568 20.9831
37.404 20.8523
37.451 20.7808
37.4982 20.6135
37.5452 20.63
37.5924 20.5249
37.6395 20.6117
37.6867 20.4633
37.7337 20.3171
37.781 20.2969
37.8281 20.2646
37.8753 20.1473
37.9224 20.0194
37.9697 20.0224
38.0168 19.9365
38.064 19.8785
38.1111 19.8228
38.1584 19.78
38.2056 19.7847
38.2529 19.647
38.3 19.6204
38.3473 19.6046
38.3945 19.4692
38.4418 19.4188
38.489 19.2862
38.5363 19.2243
38.5837 19.1841
38.6309 19.2077
38.6782 19.1071
38.7254 19.0355
38.7728 18.9993
38.82 18.9302
38.8674 18.875
38.9146 18.8134
38.9621 18.6783
39.0093 18.7769
39.0567 18.661
39.104 18.5471
39.1514 18.431
39.1987 18.4783
39.2461 18.4472
39.2934 18.388
39.3409 18.3505
39.3882 18.2161
39.4356 18.1541
39.483 18.0919
39.5304 18.0522
39.5778 18.01
39.6253 17.9295
39.6726 17.8976
39.7201 17.8201
39.7675 17.785
39.815 17.7554
39.8624 17.5929
39.9099 17.6247
39.9575 17.4836
40.0049 17.4836
40.0525 17.4152
40.0999 17.3901
40.1474 17.3036
40.1949 17.2613
40.2425 17.2119
40.2899 17.1447
40.3375 17.0961
40.385 17.0229
40.4326 16.9767
40.48 16.9699
40.5277 16.8537
40.5752 16.8629
40.6228 16.7533
40.6703 16.729
40.718 16.6785
40.7655 16.6088
40.8132 16.5763
40.8607 16.5119
40.9084 16.4545
40.9559 16.4312
41.0036 16.3782
41.0512 16.3146
41.0989 16.2771
41.1465 16.1926
41.1942 16.1005
41.242 16.0506
41.2896 15.9796
41.3373 15.9648
41.3849 15.8928
41.4327 15.868
41.4803 15.731
41.5281 15.744
41.5758 15.6713
41.6236 15.6609
41.6712 15.5965
41.7191 15.5456
41.7667 15.5218
41.8146 15.5209
41.8622 15.4035
41.9101 15.3773
41.9578 15.2161
42.0057 15.2133
42.0534 15.1881
42.1013 15.1593
42.149 15.1025
42.1969 15.0685
42.2446 15.0067
42.2925 14.9987
42.3403 14.9132
42.3882 14.9243
42.436 14.8076
42.4839 14.7228
42.5319 14.7043
42.5797 14.6103
42.6277 14.6744
42.6755 14.5988
42.7235 14.5337
42.7713 14.4721
42.8193 14.3873
42.8671 14.3516
42.9152 14.3368
42.963 14.2839
43.0111 14.1533
43.0589 14.1657
43.107 14.1026
43.1549 14.0605
43.2029 14.0123
43.2508 13.9623
43.2989 13.8852
43.3468 13.8857
43.3949 13.803
43.4429 13.7315
43.491 13.7496
43.5389 13.6589
43.5871 13.6453
43.635 13.5562
43.6832 13.5576
43.7312 13.4876
43.7793 13.4006
43.8273 13.4174
43.8755 13.3907
43.9237 13.313
43.9717 13.2833
44.0199 13.1628
44.068 13.1666
44.1162 13.1149
44.1642 13.1027
44.2125 13.0467
44.2606 13.0078
44.3088 12.9439
44.3569 12.8554
44.4052 12.8918
44.4533 12.8029
44.5016 12.6913
44.5497 12.7236
44.598 12.676
44.6461 12.6357
44.6945 12.6258
44.7426 12.5675
44.791 12.4722
44.8391 12.4577
44.8875 12.399
44.9357 12.3934
44.984 12.3082
45.0322 12.227
45.0806 12.2399
45.1288 12.2059
45.1773 12.1642
45.2257 12.1095
45.2739 12.0695
45.3224 11.9986
45.3706 11.967
45.4191 11.8993
45.4673 11.9063
45.5158 11.8889
45.5641 11.7971
45.6126 11.783
45.6609 11.6941
45.7094 11.6806
45.7577 11.6231
45.8063 11.5583
45.8546 11.5387
45.9031 11.5169
45.9515 11.4882
46.0001 11.4671
46.0484 11.4078
46.097 11.3644
46.1454 11.2992
46.194 11.2623
46.2424 11.2091
46.291 11.2238
46.3395 11.1651
46.3881 11.1297
46.4365 11.0758
46.4852 11.0209
46.5337 11.0057
46.5823 10.9655
46.631 10.9272
46.6795 10.8806
46.7282 10.8693
46.7767 10.7932
46.8254 10.7282
46.8739 10.7325
46.9226 10.6721
46.9712 10.6463
47.0199 10.5943
47.0685 10.5774
47.1173 10.496
47.1658 10.4667
47.2146 10.4487
47.2632 10.3843
47.312 10.3935
47.3606 10.317
47.4095 10.2785
47.4581 10.2556
47.5069 10.2174
47.5556 10.1807
47.6044 10.1201
47.6531 10.109
47.702 10.0635
47.7507 10.0542
47.7996 9.96506
47.8483 9.95363
47.8972 9.94022
47.9461 9.86644
47.9948 9.83415
48.0438 9.79439
48.0925 9.78137
48.1415 9.7178
48.1902 9.65546
48.2392 9.66085
48.288 9.60985
48.337 9.63583
48.3858 9.57312
48.4348 9.52525
48.4837 9.46751
48.5327 9.49086
48.5815 9.40487
48.6306 9.42789
48.6795 9.36059
48.7285 9.29994
48.7774 9.25956
48.8265 9.25607
48.8754 9.19411
48.9245 9.18348
48.9734 9.13637
49.0226 9.14051
49.0715 9.08071
49.1206 9.02408
49.1696 9.04189
49.2188 8.98793
49.2679 8.9354
49.3169 8.88869
49.3661 8.86587
49.4151 8.85903
49.4643 8.81395
49.5134 8.77584
49.5626 8.69392
49.6117 8.65303
49.6609 8.68074
49.71 8.61256
49.7592 8.61037
49.8083 8.57357
49.8576 8.55307
49.9067 8.4827
49.956 8.46441
50.0052 8.44021
50.0545 8.39111
50.1036 8.34083
50.153 8.34598
50.2022 8.30076
50.2515 8.25814
50.3007 8.22303
50.3501 8.22383
50.3993 8.2051
50.4487 8.163
50.498 8.10238
50.5474 8.09411
50.5966 8.07632
50.6461 7.99789
50.6955 7.9808
50.7448 7.99279
50.7943 7.95807
50.8436 7.90846
50.8931 7.84113
50.9424 7.84162
50.9919 7.79506
51.0413 7.77239
51.0908 7.72852
51.1402 7.7114
51.1897 7.69456
51.2391 7.64525
51.2887 7.63283
51.3381 7.58036
51.3877 7.55777
51.4371 7.52114
51.4867 7.51072
51.5362 7.45149
51.5858 7.42235
51.6353 7.41126
51.6849 7.38353
51.7344 7.35943
51.7841 7.33247
51.8336 7.29433
51.8833 7.24067
51.9328 7.23239
51.9826 7.1748
52.0323 7.17121
52.0818 7.12255
52.1316 7.06532
52.1812 7.09052
52.231 7.05707
52.2806 7.00762
52.3304 6.99062
52.38 6.98183
52.4298 6.9806
52.4794 6.91044
52.5293 6.84344
52.5789 6.81481
52.6288 6.84073
52.6785 6.77794
52.7284 6.72224
52.7781 6.71895
52.828 6.72055
52.8777 6.63201
52.9276 6.64628
52.9774 6.61876
53.0273 6.60782
53.0771 6.56274
53.1271 6.54099
53.1769 6.49901
53.2269 6.47605
53.2767 6.46305
53.3267 6.47332
53.3765 6.37308
53.4266 6.40262
53.4766 6.35301
53.5265 6.29208
53.5765 6.31295
53.6264 6.29661
53.6765 6.226
53.7264 6.19389
53.7765 6.18235
53.8265 6.15258
53.8766 6.10962
53.9266 6.09924
53.9767 6.05702
54.0267 6.08654
54.0769 6.0007
54.1269 5.99332
54.1771 5.94448
54.2271 5.93397
54.2773 5.86292
54.3274 5.85221
54.3776 5.82654
54.4277 5.79032
54.478 5.78799
54.528 5.74944
54.5783 5.68196
54.6285 5.65441
54.6788 5.64005
54.7289 5.53953
54.7792 5.51674
54.8296 5.46048
54.8798 5.43526
54.9301 5.45479
54.9803 5.42448
55.0307 5.36403
55.0809 5.33413
55.1314 5.31812
55.1816 5.20933
55.232 5.19208
55.2823 5.1071
55.3328 5.08814
55.383 5.03623
55.4335 4.99699
55.4838 4.94759
55.5344 4.88219
55.5847 4.84971
55.6352 4.8571
55.6856 4.82642
55.7361 4.75925