File: XRD/Ni3Fe_FD0785.xy
TT I
1.27165 7.12469
1.31627 6.86241
1.36089 6.84118
1.40551 7.12593
1.45013 6.19169
1.49476 6.39557
1.53938 5.88757
1.584 5.05798
1.62863 5.59827
1.67325 4.90496
1.71787 5.32826
1.7625 4.73046
1.80712 5.0756
1.85174 5.02826
1.89636 4.78353
1.94099 5.49991
1.98562 4.83798
2.03025 4.20109
2.07487 4.24365
2.11949 4.98046
2.16411 4.5472
2.20874 11.8745
2.25338 17.3147
2.298 5.95441
2.34263 5.40625
2.38725 5.81817
2.43188 5.91055
2.4765 7.00591
2.52115 7.37674
2.56577 7.60648
2.6104 8.2161
2.65503 7.61484
2.69965 7.94688
2.7443 8.38293
2.78893 8.18419
2.83356 8.58223
2.87818 8.80256
2.92281 8.88162
2.96744 9.52752
3.01209 10.6213
3.05672 11.4943
3.10135 11.8364
3.14599 12.8127
3.19062 14.2475
3.23527 14.6752
3.2799 15.7225
3.32454 17.0323
3.36917 17.2448
3.4138 18.9474
3.45844 19.8286
3.50309 20.8337
3.54773 21.4126
3.59237 23.5179
3.637 73.4407
3.68164 48.8847
3.7263 25.9896
3.77094 26.0298
3.81558 26.2761
3.86022 27.4207
3.90486 28.7151
3.9495 29.5889
3.99416 30.7215
4.0388 31.8543
4.08344 32.9
4.12809 34.7488
4.17273 36.6256
4.21738 41.1502
4.26204 191.687
4.30669 164.731
4.35133 46.0339
4.39598 43.3969
4.44063 51.8153
4.4853 59.649
4.52995 50.3109
4.5746 51.2774
4.61925 52.4467
4.6639 55.2035
4.70855 57.5535
4.75322 60.5467
4.79788 63.9174
4.84253 66.9325
4.88719 71.0101
4.93184 74.6202
4.97652 80.4618
5.02118 86.3063
5.06583 93.7582
5.11049 104.68
5.15515 159.861
5.19981 347.653
5.24449 2802.6
5.28916 12746.3
5.33382 2638.16
5.37848 175.542
5.42315 125.052
5.46783 111.898
5.5125 104.489
5.55716 101.276
5.60183 96.9242
5.6465 95.1565
5.69117 93.2741
5.73586 91.5762
5.78053 90.67
5.8252 90.5169
5.86988 91.8468
5.91455 93.4044
5.95924 101.802
6.00392 210.124
6.0486 952.082
6.09328 4516.64
6.13795 3151.28
6.18263 208.431
6.22733 89.6539
6.27201 80.7296
6.3167 93.7321
6.36138 77.0236
6.40606 68.317
6.45075 66.4159
6.49545 64.3723
6.54014 63.2589
6.58483 62.1838
6.62952 61.6335
6.67421 85.1862
6.71892 119.481
6.76361 65.869
6.8083 57.9364
6.853 56.9476
6.89769 56.069
6.94239 56.0566
6.98711 55.251
7.03181 54.9567
7.07651 54.4423
7.12121 54.3355
7.16591 54.4638
7.21063 54.3394
7.25533 66.1652
7.30004 143.012
7.34475 80.2656
7.38945 55.2949
7.43416 53.7781
7.47889 53.9571
7.5236 54.1476
7.56831 54.76
7.61303 55.5752
7.65774 56.2073
7.70247 55.3308
7.74719 55.6937
7.79191 56.1652
7.83663 56.2323
7.88135 57.2743
7.92607 58.3041
7.97081 59.3733
8.01553 60.3694
8.06026 61.4793
8.10498 63.2481
8.14971 70.5894
8.19446 70.2319
8.23919 69.0729
8.28392 70.9708
8.32865 73.5428
8.37339 77.8522
8.41812 83.8486
8.46288 107.879
8.50761 166.296
8.55235 379.923
8.59709 1205.28
8.64183 2184.15
8.68658 841.323
8.73134 147.878
8.77609 97.0478
8.82083 91.2919
8.86558 88.3709
8.91033 88.4309
8.9551 89.0319
8.99985 84.3491
9.04461 82.2357
9.08936 81.8745
9.13412 80.9578
9.17888 81.2947
9.22365 81.9084
9.26841 81.0793
9.31318 81.7765
9.35794 81.9816
9.4027 82.2697
9.44749 83.2697
9.49226 83.6504
9.53703 84.5881
9.5818 86.6175
9.62657 90.4036
9.67134 95.0957
9.71614 92.6119
9.76091 92.6016
9.80569 95.7763
9.85047 98.8223
9.89525 117.275
9.94005 130.285
9.98484 177.242
10.0296 339.814
10.0744 818.855
10.1192 1762.1
10.164 1503.2
10.2088 343.075
10.2536 119.723
10.2984 109.69
10.3432 110.155
10.388 103.208
10.4328 118.144
10.4776 160.118
10.5224 288.72
10.5672 533.655
10.612 480.725
10.6568 183.998
10.7017 93.7317
10.7465 85.2708
10.7913 81.9889
10.8361 80.0954
10.8809 77.9265
10.9257 77.0533
10.9706 77.3271
11.0154 74.0825
11.0602 71.8391
11.105 70.8484
11.1499 73.4276
11.1947 78.7306
11.2395 72.1885
11.2844 68.9252
11.3292 66.2097
11.374 65.3331
11.4189 64.8175
11.4637 64.461
11.5086 64.3621
11.5534 66.103
11.5983 64.2353
11.6431 63.0206
11.688 62.0856
11.7328 62.0463
11.7777 61.9073
11.8225 61.7263
11.8674 61.7791
11.9122 62.0284
11.9571 62.3474
12.002 62.8723
12.0468 67.191
12.0917 77.7193
12.1366 101.732
12.1814 156.824
12.2263 212.647
12.2712 167.038
12.3161 88.4838
12.3609 67.5573
12.4058 63.6147
12.4507 63.7817
12.4956 63.7466
12.5405 63.5458
12.5853 64.7676
12.6302 70.3139
12.6751 73.9882
12.72 68.3573
12.7649 66.8968
12.8098 67.368
12.8547 68.8147
12.8996 70.268
12.9445 71.5631
12.9894 73.1573
13.0343 74.8985
13.0792 78.7843
13.1242 88.0193
13.1691 110.527
13.214 147.357
13.2589 244.27
13.3038 386.966
13.3487 425.265
13.3937 243.36
13.4386 116.941
13.4835 104.391
13.5285 118.72
13.5734 157.344
13.6183 254.004
13.6633 361.878
13.7082 331.485
13.7531 168.11
13.7981 92.4197
13.843 80.2348
13.888 78.5594
13.9329 76.0368
13.9779 75.071
14.0228 73.3738
14.0678 72.0545
14.1127 71.6016
14.1577 71.1867
14.2027 70.6663
14.2476 69.5693
14.2926 69.7325
14.3376 70.2793
14.3825 69.2149
14.4275 67.9983
14.4725 67.8085
14.5175 67.96
14.5624 68.039
14.6074 69.7803
14.6524 70.2636
14.6974 69.7346
14.7424 71.6277
14.7874 78.3494
14.8324 87.8616
14.8774 110.291
14.9224 156.754
14.9674 214.741
15.0124 220.287
15.0574 142.589
15.1024 86.0168
15.1474 71.0051
15.1924 69.4197
15.2374 69.4951
15.2824 68.9003
15.3274 67.3244
15.3725 65.8145
15.4175 65.5547
15.4625 65.3772
15.5076 65.2343
15.5526 65.5314
15.5976 65.0926
15.6426 66.3217
15.6877 71.6142
15.7327 78.8853
15.7778 93.9331
15.8228 128.478
15.8679 178.873
15.9129 199.022
15.958 148.565
16.003 89.4953
16.0481 65.9144
16.0931 63.0301
16.1382 61.4869
16.1833 59.6378
16.2283 58.176
16.2734 57.4294
16.3185 57.716
16.3636 58.0092
16.4086 56.8561
16.4537 55.5289
16.4988 54.7576
16.5439 54.9709
16.589 54.6749
16.6341 54.2986
16.6792 53.8954
16.7243 54.1676
16.7694 54.3173
16.8145 54.0605
16.8596 54.586
16.9047 55.5011
16.9498 55.7159
16.9949 54.8111
17.04 55.3723
17.0851 56.4819
17.1302 58.1487
17.1754 60.9573
17.2205 66.3688
17.2656 74.8699
17.3108 83.1464
17.3559 81.3403
17.401 68.9147
17.4462 60.6652
17.4913 58.2756
17.5365 58.3444
17.5815 58.6104
17.6268 58.6627
17.6718 59.6507
17.7171 60.3875
17.7622 60.739
17.8074 61.5857
17.8525 63.7443
17.8977 67.6593
17.9428 72.9746
17.9881 82.1191
18.0331 100.667
18.0784 125.078
18.1237 141.363
18.1688 126.961
18.214 98.5171
18.2591 84.5644
18.3044 90.7778
18.3495 101.798
18.3948 105.605
18.4399 92.5423
18.4852 74.3982
18.5303 64.2994
18.5756 61.3634
18.6207 60.4878
18.666 59.7145
18.7112 58.9683
18.7565 58.3284
18.8016 57.9703
18.8469 57.3567
18.892 57.1243
18.9374 56.5601
18.9825 56.3254
19.0278 56.1976
19.073 56.1176
19.1183 56.7288
19.1635 57.2951
19.2088 58.864
19.254 61.4744
19.2993 66.2989
19.3447 72.7261
19.3898 76.0222
19.4352 70.2725
19.4804 61.3071
19.5257 55.4409
19.5709 53.3999
19.6163 53.4117
19.6615 53.22
19.7068 52.7012
19.752 52.8005
19.7974 53.0716
19.8426 53.7576
19.888 54.2826
19.9332 55.7406
19.9786 58.3186
20.0238 62.6176
20.0692 67.7238
20.1144 69.5281
20.1598 66.9083
20.205 62.2074
20.2504 61.541
20.2957 64.0974
20.3411 65.3904
20.3863 63.1982
20.4318 56.7408
20.477 52.5312
20.5224 50.6724
20.5677 50.2104
20.6131 49.711
20.6586 49.0366
20.7038 49.0201
20.7493 48.5265
20.7945 48.363
20.84 48.3423
20.8853 48.0735
20.9307 47.9265
20.976 48.1874
21.0215 48.0371
21.0668 48.5086
21.1122 48.8383
21.1575 49.5383
21.203 50.6512
21.2483 51.0918
21.2938 50.8978
21.3391 49.2791
21.3846 48.3037
21.4299 47.9892
21.4754 47.7492
21.5207 48.0727
21.5662 48.3302
21.6116 48.7044
21.6571 49.2311
21.7024 50.2651
21.7479 52.1243
21.7933 55.1619
21.8388 59.0162
21.8843 62.7517
21.9297 64.1028
21.9752 61.8706
22.0206 58.2848
22.0661 55.8869
22.1115 55.6418
22.157 55.4789
22.2024 53.3826
22.248 50.6253
22.2933 49.2032
22.3389 48.3786
22.3843 48.3047
22.4299 48.1202
22.4753 48.2445
22.5208 48.1202
22.5662 47.8976
22.6118 48.1971
22.6572 48.3991
22.7028 48.8141
22.7483 49.3206
22.7939 49.9674
22.8393 51.3748
22.8849 53.808
22.9303 56.0575
22.9759 57.6966
23.0214 56.2976
23.067 53.3514
23.1126 50.1198
23.1581 48.5137
23.2037 48.2507
23.2492 48.2846
23.2948 48.3492
23.3403 48.6947
23.3859 49.1723
23.4314 50.1605
23.477 52.2952
23.5225 54.707
23.5682 57.0007
23.6137 57.4275
23.6593 54.4012
23.7048 50.4497
23.7505 47.4393
23.796 46.0119
23.8417 45.6471
23.8872 44.9526
23.9329 44.7806
23.9784 44.4979
24.0241 44.0821
24.0697 43.8873
24.1154 43.5708
24.1609 43.4787
24.2066 43.437
24.2522 43.1353
24.2979 42.9456
24.3434 42.6625
24.3892 42.6047
24.4349 42.5495
24.4805 42.4454
24.5262 42.6959
24.5718 42.432
24.6175 42.4866
24.6631 42.3855
24.7089 41.8787
24.7545 42.0324
24.8002 41.7533
24.8458 41.8665
24.8916 41.5249
24.9372 41.7856
24.983 42.1203
25.0286 42.3697
25.0744 42.9771
25.12 43.3701
25.1658 43.9939
25.2114 44.4432
25.2572 44.2949
25.3029 44.3505
25.3487 44.4843
25.3943 44.1608
25.4402 43.0385
25.4858 41.9399
25.5316 40.9359
25.5773 40.4398
25.6231 40.2757
25.669 40.161
25.7147 40.0438
25.7605 39.9819
25.8062 40.0687
25.8521 40.2778
25.8977 40.1304
25.9436 40.4248
25.9893 40.642
26.0352 41.0978
26.0809 41.2671
26.1268 41.4101
26.1725 40.8917
26.2184 40.2422
26.2641 39.7502
26.31 39.7751
26.3557 39.765
26.4017 39.7429
26.4474 40.0543
26.4933 40.3654
26.5391 40.9619
26.585 41.3891
26.6308 41.8528
26.6767 41.7321
26.7225 41.356
26.7684 41.0528
26.8142 40.3581
26.8601 39.9854
26.9059 39.4835
26.9519 39.1317
26.9979 38.7321
27.0437 38.4567
27.0896 38.353
27.1354 38.3786
27.1814 38.1356
27.2272 38.0608
27.2732 38.1212
27.3191 37.9923
27.3651 38.0759
27.4109 37.9975
27.4569 38.0627
27.5027 38.1496
27.5488 38.2637
27.5946 37.906
27.6407 37.8105
27.6865 37.6876
27.7326 37.4146
27.7784 37.4489
27.8245 37.2967
27.8703 37.7198
27.9164 38.0033
27.9623 38.1452
28.0084 38.3965
28.0543 38.7937
28.1003 38.55
28.1462 38.3188
28.1923 37.9636
28.2384 37.4578
28.2843 37.1515
28.3304 36.6494
28.3764 36.3667
28.4225 36.0572
28.4684 35.9348
28.5145 35.597
28.5605 35.5831
28.6066 35.2336
28.6526 35.2631
28.6987 35.241
28.7447 35.2498
28.7908 35.1464
28.8368 35.1027
28.8829 35.0817
28.9289 34.8748
28.9751 34.827
29.0211 34.5359
29.0673 34.2677
29.1133 34.1812
29.1595 34.0596
29.2055 33.9477
29.2517 34.0322
29.2977 33.9591
29.3439 33.9089
29.3899 33.8997
29.4361 33.8127
29.4824 33.6689
29.5284 33.2889
29.5746 32.9906
29.6207 32.7089
29.6669 32.7527
29.713 32.6781
29.7593 32.5194
29.8053 32.6242
29.8516 32.502
29.8977 32.4637
29.9439 32.2836
29.99 32.2353
30.0363 32.0771
30.0824 32.1083
30.1287 32.1239
30.1748 32.2361
30.2211 32.1788
30.2673 31.9715
30.3136 32.0673
30.3597 31.9186
30.406 31.8581
30.4522 31.6618
30.4985 31.5847
30.5447 31.8755
30.591 31.8844
30.6372 31.8699
30.6835 31.8587
30.7297 31.8879
30.7761 31.7823
30.8224 31.6265
30.8686 31.5553
30.915 31.3751
30.9612 31.2524
31.0076 31.013
31.0538 30.8071
31.1002 30.8694
31.1464 30.5367
31.1928 30.5395
31.2391 30.6534
31.2855 30.551
31.3317 30.5496
31.3781 30.6316
31.4244 30.581
31.4708 30.6257
31.5171 30.4622
31.5636 30.47
31.6098 30.1908
31.6563 29.9653
31.7026 29.8513
31.7491 29.8228
31.7953 29.9524
31.8418 29.9627
31.8881 29.7979
31.9346 29.8153
31.9809 29.7019
32.0275 29.566
32.074 29.46
32.1203 29.254
32.1668 29.1471
32.2132 29.0596
32.2597 28.9324
32.306 28.8332
32.3526 28.7071
32.399 28.5975
32.4455 28.4117
32.4919 28.4426
32.5385 28.2853
32.5848 28.1985
32.6314 28.2176
32.6778 28.0861
32.7244 27.9641
32.7708 27.8615
32.8174 27.8589
32.8638 27.7118
32.9104 27.7337
32.9569 27.7463
33.0035 27.5265
33.0499 27.5961
33.0966 27.4275
33.143 27.5579
33.1897 27.3827
33.2361 27.3854
33.2828 27.3894
33.3293 27.1189
33.3759 27.0248
33.4226 26.8753
33.4691 26.7953
33.5158 26.7114
33.5623 26.6209
33.609 26.5131
33.6555 26.3846
33.7022 26.2891
33.7487 26.2261
33.7954 26.1465
33.842 26.1292
33.8887 25.9646
33.9353 25.9889
33.982 25.7817
34.0286 25.8576
34.0753 25.7561
34.1219 25.5471
34.1687 25.6386
34.2152 25.4778
34.262 25.3966
34.3086 25.2645
34.3554 25.3158
34.402 25.2233
34.4488 24.9829
34.4954 25.0439
34.5422 24.8456
34.5889 24.7604
34.6357 24.7329
34.6825 24.6341
34.7292 24.5652
34.776 24.5682
34.8227 24.4267
34.8695 24.3943
34.9162 24.3301
34.9631 24.332
35.0098 24.247
35.0566 24.0754
35.1033 24.0894
35.1502 23.9325
35.1969 23.986
35.2438 23.8759
35.2906 23.8897
35.3375 23.7246
35.3842 23.6616
35.4311 23.6852
35.4779 23.7451
35.5248 23.6708
35.5716 23.5403
35.6185 23.4416
35.6653 23.3168
35.7123 23.3454
35.759 23.2335
35.806 23.1687
35.8528 23.0115
35.8998 23.0523
35.9468 22.8889
35.9936 22.8815
36.0406 22.7842
36.0874 22.785
36.1345 22.6255
36.1813 22.5775
36.2283 22.4699
36.2752 22.3959
36.3222 22.4337
36.3691 22.3915
36.4161 22.2477
36.463 22.1884
36.5101 22.1794
36.557 22.1025
36.6041 22.0063
36.651 21.9466
36.6981 21.8788
36.745 21.8502
36.7921 21.692
36.839 21.6638
36.8861 21.6294
36.9331 21.5448
36.9802 21.44
37.0272 21.348
37.0743 21.2753
37.1213 21.2829
37.1684 21.1653
37.2154 21.1143
37.2626 21.0636
37.3098 21.076
37.3568 20.9362
37.404 20.8459
37.451 20.6904
37.4982 20.7107
37.5452 20.676
37.5924 20.6176
37.6395 20.6048
37.6867 20.4547
37.7337 20.3518
37.781 20.3093
37.8281 20.2744
37.8753 20.1737
37.9224 20.0814
37.9697 20.0612
38.0168 19.9494
38.064 19.9554
38.1111 19.9383
38.1584 19.8324
38.2056 19.7094
38.2529 19.7303
38.3 19.6394
38.3473 19.64
38.3945 19.4874
38.4418 19.4261
38.489 19.3922
38.5363 19.3296
38.5837 19.2317
38.6309 19.2223
38.6782 19.1398
38.7254 19.0184
38.7728 19.0153
38.82 19.0072
38.8674 18.8946
38.9146 18.8878
38.9621 18.791
39.0093 18.706
39.0567 18.6532
39.104 18.6064
39.1514 18.5196
39.1987 18.4973
39.2461 18.4092
39.2934 18.396
39.3409 18.2486
39.3882 18.2353
39.4356 18.2011
39.483 18.1613
39.5304 18.0925
39.5778 18.0351
39.6253 17.958
39.6726 17.8588
39.7201 17.8389
39.7675 17.8128
39.815 17.7684
39.8624 17.7026
39.9099 17.6558
39.9575 17.5091
40.0049 17.5651
40.0525 17.4262
40.0999 17.3958
40.1474 17.326
40.1949 17.2876
40.2425 17.258
40.2899 17.1897
40.3375 17.101
40.385 17.0459
40.4326 16.9629
40.48 16.9297
40.5277 16.9409
40.5752 16.8813
40.6228 16.7971
40.6703 16.6849
40.718 16.6833
40.7655 16.6651
40.8132 16.5718
40.8607 16.5781
40.9084 16.5316
40.9559 16.42
41.0036 16.4133
41.0512 16.3469
41.0989 16.2788
41.1465 16.2379
41.1942 16.1972
41.242 16.0835
41.2896 16.0405
41.3373 16.0435
41.3849 16.0086
41.4327 15.9539
41.4803 15.8399
41.5281 15.7746
41.5758 15.7365
41.6236 15.6525
41.6712 15.6614
41.7191 15.5591
41.7667 15.5452
41.8146 15.5471
41.8622 15.412
41.9101 15.3793
41.9578 15.2927
42.0057 15.3069
42.0534 15.1805
42.1013 15.1713
42.149 15.1175
42.1969 15.0562
42.2446 14.9987
42.2925 15.0174
42.3403 14.9036
42.3882 14.905
42.436 14.8454
42.4839 14.7601
42.5319 14.7233
42.5797 14.6829
42.6277 14.601
42.6755 14.6081
42.7235 14.5424
42.7713 14.4853
42.8193 14.4279
42.8671 14.3809
42.9152 14.3283
42.963 14.2479
43.0111 14.2293
43.0589 14.1589
43.107 14.1342
43.1549 14.0876
43.2029 14.0564
43.2508 13.981
43.2989 13.8963
43.3468 13.8573
43.3949 13.8198
43.4429 13.8042
43.491 13.747
43.5389 13.7205
43.5871 13.6544
43.635 13.5987
43.6832 13.5628
43.7312 13.4835
43.7793 13.4409
43.8273 13.4255
43.8755 13.3327
43.9237 13.3049
43.9717 13.2253
44.0199 13.2599
44.068 13.2443
44.1162 13.129
44.1642 13.1208
44.2125 13.0444
44.2606 13.026
44.3088 12.9721
44.3569 12.9481
44.4052 12.9378
44.4533 12.8316
44.5016 12.783
44.5497 12.7137
44.598 12.6976
44.6461 12.6199
44.6945 12.6136
44.7426 12.5694
44.791 12.4822
44.8391 12.4721
44.8875 12.4364
44.9357 12.4211
44.984 12.3307
45.0322 12.3495
45.0806 12.2423
45.1288 12.1898
45.1773 12.1409
45.2257 12.0849
45.2739 12.0798
45.3224 12.0674
45.3706 12.0412
45.4191 11.9106
45.4673 11.9589
45.5158 11.8908
45.5641 11.8076
45.6126 11.7553
45.6609 11.7546
45.7094 11.6949
45.7577 11.6224
45.8063 11.624
45.8546 11.5969
45.9031 11.5422
45.9515 11.4861
46.0001 11.4263
46.0484 11.4235
46.097 11.3972
46.1454 11.3495
46.194 11.2996
46.2424 11.2702
46.291 11.1962
46.3395 11.191
46.3881 11.108
46.4365 11.0671
46.4852 11.0154
46.5337 11.0493
46.5823 10.9381
46.631 10.9169
46.6795 10.8801
46.7282 10.8702
46.7767 10.805
46.8254 10.7888
46.8739 10.7281
46.9226 10.7035
46.9712 10.6398
47.0199 10.5986
47.0685 10.5863
47.1173 10.5379
47.1658 10.4613
47.2146 10.4541
47.2632 10.408
47.312 10.4099
47.3606 10.3261
47.4095 10.282
47.4581 10.2831
47.5069 10.2285
47.5556 10.1586
47.6044 10.1675
47.6531 10.0992
47.702 10.0782
47.7507 10.0252
47.7996 9.97994
47.8483 9.91819
47.8972 9.92657
47.9461 9.89411
47.9948 9.84223
48.0438 9.80877
48.0925 9.77712
48.1415 9.74135
48.1902 9.67735
48.2392 9.7243
48.288 9.62986
48.337 9.6082
48.3858 9.52737
48.4348 9.53486
48.4837 9.5601
48.5327 9.46676
48.5815 9.43925
48.6306 9.41976
48.6795 9.34105
48.7285 9.32298
48.7774 9.27612
48.8265 9.28008
48.8754 9.20591
48.9245 9.19313
48.9734 9.17076
49.0226 9.14602
49.0715 9.06048
49.1206 9.05431
49.1696 9.01728
49.2188 8.9908
49.2679 8.97456
49.3169 8.91108
49.3661 8.81913
49.4151 8.81324
49.4643 8.82302
49.5134 8.80032
49.5626 8.70902
49.6117 8.70842
49.6609 8.67821
49.71 8.60623
49.7592 8.6308
49.8083 8.55026
49.8576 8.54647
49.9067 8.45852
49.956 8.46249
50.0052 8.42396
50.0545 8.41514
50.1036 8.37786
50.153 8.33897
50.2022 8.32382
50.2515 8.27888
50.3007 8.21089
50.3501 8.23215
50.3993 8.20315
50.4487 8.15754
50.498 8.13804
50.5474 8.08762
50.5966 8.03538
50.6461 8.04102
50.6955 8.00041
50.7448 7.96902
50.7943 7.96865
50.8436 7.89352
50.8931 7.88262
50.9424 7.86956
50.9919 7.83642
51.0413 7.76461
51.0908 7.73197
51.1402 7.76659
51.1897 7.69596
51.2391 7.63485
51.2887 7.60837
51.3381 7.57567
51.3877 7.54287
51.4371 7.53465
51.4867 7.49275
51.5362 7.47258
51.5858 7.46231
51.6353 7.40421
51.6849 7.36892
51.7344 7.37978
51.7841 7.32516
51.8336 7.30676
51.8833 7.30624
51.9328 7.2228
51.9826 7.18668
52.0323 7.1484
52.0818 7.1532
52.1316 7.09411
52.1812 7.09562
52.231 7.03927
52.2806 6.99948
52.3304 6.99835
52.38 6.97854
52.4298 6.91353
52.4794 6.89442
52.5293 6.87575
52.5789 6.85496
52.6288 6.8051
52.6785 6.79754
52.7284 6.71411
52.7781 6.73279
52.828 6.69824
52.8777 6.68091
52.9276 6.64881
52.9774 6.59176
53.0273 6.61302
53.0771 6.57549
53.1271 6.55233
53.1769 6.47759
53.2269 6.47234
53.2767 6.46562
53.3267 6.39038
53.3765 6.38032
53.4266 6.37651
53.4766 6.36383
53.5265 6.36682
53.5765 6.3032
53.6264 6.27698
53.6765 6.23931
53.7264 6.23745
53.7765 6.24554
53.8265 6.19049
53.8766 6.07733
53.9266 6.11475
53.9767 6.09576
54.0267 6.02685
54.0769 6.038
54.1269 5.99448
54.1771 5.95386
54.2271 5.93777
54.2773 5.89691
54.3274 5.84514
54.3776 5.82291
54.4277 5.84404
54.478 5.79182
54.528 5.78811
54.5783 5.72266
54.6285 5.62817
54.6788 5.60493
54.7289 5.56155
54.7792 5.52581
54.8296 5.51062
54.8798 5.46361
54.9301 5.4284
54.9803 5.40156
55.0307 5.35734
55.0809 5.2651
55.1314 5.29231
55.1816 5.23389
55.232 5.15521
55.2823 5.15497
55.3328 5.0841
55.383 5.01592
55.4335 4.98501
55.4838 4.95458
55.5344 4.89937
55.5847 4.84421
55.6352 4.86828
55.6856 4.81437
55.7361 4.78203