File: XRD/Ni3Fe_FD0717.xy
TT I
1.27165 7.48587
1.31627 6.93105
1.36089 6.84516
1.40551 5.4916
1.45013 6.39695
1.49476 6.17773
1.53938 6.1271
1.584 5.95668
1.62863 5.49941
1.67325 5.30468
1.71787 4.86065
1.7625 4.65355
1.80712 4.9026
1.85174 4.89834
1.89636 4.7436
1.94099 4.3628
1.98562 4.81398
2.03025 5.08696
2.07487 4.71651
2.11949 4.41498
2.16411 5.08818
2.20874 9.63967
2.25338 11.8667
2.298 5.36778
2.34263 5.5515
2.38725 5.49669
2.43188 5.59093
2.4765 6.59666
2.52115 7.42858
2.56577 7.60585
2.6104 7.94633
2.65503 8.19217
2.69965 8.32893
2.7443 8.49206
2.78893 8.39748
2.83356 8.23306
2.87818 8.51205
2.92281 8.91565
2.96744 9.2935
3.01209 10.0605
3.05672 11.1241
3.10135 12.0766
3.14599 13.4066
3.19062 14.1648
3.23527 15.3037
3.2799 15.8199
3.32454 17.1182
3.36917 17.3888
3.4138 19.0093
3.45844 19.6382
3.50309 20.9212
3.54773 21.4442
3.59237 23.4466
3.637 55.4787
3.68164 38.9315
3.7263 25.6385
3.77094 25.8577
3.81558 26.6288
3.86022 27.661
3.90486 28.8386
3.9495 30.0521
3.99416 30.53
4.0388 32.0381
4.08344 33.661
4.12809 35.1849
4.17273 36.8485
4.21738 40.7143
4.26204 138.463
4.30669 116.781
4.35133 46.0383
4.39598 44.2724
4.44063 49.9628
4.4853 55.1844
4.52995 54.8028
4.5746 55.206
4.61925 53.707
4.6639 55.7575
4.70855 58.9128
4.75322 62.0277
4.79788 66.9802
4.84253 68.4359
4.88719 74.2598
4.93184 76.3363
4.97652 81.2352
5.02118 88.6588
5.06583 97.1633
5.11049 107.527
5.15515 157.151
5.19981 388.087
5.24449 3066.83
5.28916 12657.7
5.33382 2898.46
5.37848 198.194
5.42315 131.754
5.46783 118.453
5.5125 110.935
5.55716 102.754
5.60183 98.6708
5.6465 97.0743
5.69117 94.9645
5.73586 93.2142
5.78053 96.4299
5.8252 96.2889
5.86988 98.3421
5.91455 95.4005
5.95924 104.355
6.00392 235.263
6.0486 1032.13
6.09328 4461.68
6.13795 3159.34
6.18263 227.472
6.22733 91.7337
6.27201 81.8997
6.3167 87.2356
6.36138 75.0926
6.40606 69.9603
6.45075 69.0974
6.49545 65.6172
6.54014 63.7131
6.58483 62.9262
6.62952 62.9548
6.67421 76.921
6.71892 95.9425
6.76361 63.1365
6.8083 59.0386
6.853 58.8976
6.89769 56.915
6.94239 56.4551
6.98711 55.5918
7.03181 56.0045
7.07651 55.3658
7.12121 56.0361
7.16591 56.8371
7.21063 55.5441
7.25533 63.2914
7.30004 108.423
7.34475 69.5949
7.38945 55.1472
7.43416 53.7824
7.47889 54.3085
7.5236 54.5781
7.56831 54.8602
7.61303 55.6268
7.65774 56.5844
7.70247 56.6831
7.74719 56.2725
7.79191 56.8164
7.83663 56.9484
7.88135 57.9789
7.92607 58.8381
7.97081 59.6721
8.01553 61.0538
8.06026 62.412
8.10498 64.2175
8.14971 70.9609
8.19446 70.7296
8.23919 69.5569
8.28392 72.2849
8.32865 74.305
8.37339 79.0505
8.41812 84.7574
8.46288 103.521
8.50761 176.043
8.55235 410.833
8.59709 1224.01
8.64183 2137.2
8.68658 930.921
8.73134 162.77
8.77609 99.5661
8.82083 93.0536
8.86558 91.7956
8.91033 91.4752
8.9551 89.7094
8.99985 85.6156
9.04461 84.3255
9.08936 84.1518
9.13412 82.9738
9.17888 82.825
9.22365 82.6504
9.26841 82.6803
9.31318 84.2792
9.35794 85.8744
9.4027 85.0951
9.44749 85.1137
9.49226 85.1306
9.53703 86.5091
9.5818 89.0951
9.62657 93.0892
9.67134 95.6029
9.71614 93.1598
9.76091 95.1417
9.80569 99.0066
9.85047 101.623
9.89525 114.074
9.94005 126.055
9.98484 188.533
10.0296 364.584
10.0744 855.94
10.1192 1744.04
10.164 1562.87
10.2088 393.616
10.2536 125.89
10.2984 111.0
10.3432 109.408
10.388 105.192
10.4328 122.188
10.4776 166.957
10.5224 296.361
10.5672 499.757
10.612 495.707
10.6568 203.02
10.7017 96.074
10.7465 86.2275
10.7913 83.7511
10.8361 81.1014
10.8809 79.1623
10.9257 78.3318
10.9706 77.9796
11.0154 75.1086
11.0602 72.8649
11.105 71.4769
11.1499 72.8572
11.1947 75.5693
11.2395 70.797
11.2844 68.9418
11.3292 67.2567
11.374 66.3458
11.4189 65.6037
11.4637 65.0444
11.5086 65.16
11.5534 65.8933
11.5983 64.5545
11.6431 63.344
11.688 63.0593
11.7328 63.0399
11.7777 62.8127
11.8225 62.9503
11.8674 62.7636
11.9122 62.8105
11.9571 63.008
12.002 64.461
12.0468 68.7693
12.0917 79.6198
12.1366 105.091
12.1814 153.916
12.2263 200.467
12.2712 160.649
12.3161 93.0042
12.3609 68.0918
12.4058 64.2332
12.4507 64.2127
12.4956 64.5385
12.5405 64.9146
12.5853 65.288
12.6302 69.2223
12.6751 71.3453
12.72 68.0958
12.7649 67.9777
12.8098 68.6485
12.8547 69.7985
12.8996 71.5161
12.9445 72.9004
12.9894 74.6924
13.0343 76.2053
13.0792 79.7893
13.1242 91.5369
13.1691 113.281
13.214 154.676
13.2589 249.32
13.3038 369.266
13.3487 413.019
13.3937 261.103
13.4386 125.158
13.4835 107.686
13.5285 122.95
13.5734 165.281
13.6183 254.578
13.6633 342.334
13.7082 325.304
13.7531 182.971
13.7981 97.7261
13.843 82.1302
13.888 79.6028
13.9329 77.5306
13.9779 75.9715
14.0228 74.3369
14.0678 73.5431
14.1127 72.4932
14.1577 72.3172
14.2027 71.3305
14.2476 70.5406
14.2926 70.2954
14.3376 70.5446
14.3825 69.9683
14.4275 68.9164
14.4725 68.9078
14.5175 68.8779
14.5624 69.1343
14.6074 70.1969
14.6524 70.5522
14.6974 70.6023
14.7424 73.3941
14.7874 79.6428
14.8324 90.6041
14.8774 114.678
14.9224 158.644
14.9674 206.872
15.0124 213.026
15.0574 145.957
15.1024 89.5422
15.1474 72.4542
15.1924 70.1377
15.2374 70.0083
15.2824 69.1427
15.3274 67.7856
15.3725 66.9839
15.4175 66.6404
15.4625 66.0187
15.5076 65.7846
15.5526 66.0553
15.5976 65.7778
15.6426 67.5874
15.6877 72.9892
15.7327 81.0421
15.7778 97.7702
15.8228 130.064
15.8679 171.309
15.9129 189.603
15.958 152.2
16.003 96.0786
16.0481 67.8972
16.0931 63.3923
16.1382 61.7006
16.1833 60.4779
16.2283 58.8375
16.2734 58.2836
16.3185 57.9984
16.3636 57.9427
16.4086 57.013
16.4537 56.1003
16.4988 55.3364
16.5439 55.3886
16.589 55.1719
16.6341 54.7794
16.6792 54.4457
16.7243 54.7074
16.7694 54.7926
16.8145 54.815
16.8596 55.0264
16.9047 55.6508
16.9498 55.8028
16.9949 55.4049
17.04 56.0748
17.0851 57.3188
17.1302 58.7403
17.1754 62.2094
17.2205 67.5608
17.2656 75.0702
17.3108 82.097
17.3559 81.3678
17.401 70.6257
17.4462 62.3429
17.4913 59.1933
17.5365 59.0619
17.5815 59.2878
17.6268 59.6245
17.6718 60.3309
17.7171 60.7546
17.7622 61.4012
17.8074 62.1857
17.8525 65.0919
17.8977 68.7329
17.9428 74.4394
17.9881 84.6027
18.0331 102.597
18.0784 123.233
18.1237 137.713
18.1688 130.544
18.214 103.688
18.2591 87.9603
18.3044 91.5765
18.3495 99.5366
18.3948 104.186
18.4399 94.3065
18.4852 76.5689
18.5303 65.4319
18.5756 62.2091
18.6207 61.1985
18.666 60.2921
18.7112 59.5893
18.7565 58.9798
18.8016 58.8298
18.8469 58.1018
18.892 57.705
18.9374 57.1581
18.9825 56.9967
19.0278 56.894
19.073 57.1578
19.1183 57.4511
19.1635 57.807
19.2088 59.3787
19.254 62.6222
19.2993 67.2255
19.3447 72.5712
19.3898 74.9402
19.4352 70.9335
19.4804 62.82
19.5257 56.5584
19.5709 54.2607
19.6163 54.0122
19.6615 53.63
19.7068 53.3551
19.752 53.3253
19.7974 53.8153
19.8426 54.3878
19.888 54.9686
19.9332 56.4429
19.9786 59.222
20.0238 62.903
20.0692 67.1531
20.1144 69.051
20.1598 67.9395
20.205 63.8515
20.2504 62.3305
20.2957 63.8839
20.3411 64.9684
20.3863 63.4556
20.4318 58.0526
20.477 53.357
20.5224 51.1284
20.5677 50.5975
20.6131 50.1391
20.6586 49.5549
20.7038 49.639
20.7493 49.1663
20.7945 48.8067
20.84 48.8962
20.8853 48.8229
20.9307 48.5768
20.976 48.7633
21.0215 48.6142
21.0668 49.0454
21.1122 49.4634
21.1575 50.0666
21.203 50.7862
21.2483 51.2323
21.2938 51.2418
21.3391 50.1112
21.3846 48.89
21.4299 48.4768
21.4754 48.5338
21.5207 48.7423
21.5662 48.8962
21.6116 49.3099
21.6571 49.9326
21.7024 51.0
21.7479 53.0232
21.7933 55.8096
21.8388 59.1317
21.8843 62.6503
21.9297 64.1072
21.9752 62.8764
22.0206 59.0821
22.0661 56.5379
22.1115 55.7926
22.157 55.4706
22.2024 54.0206
22.248 51.2496
22.2933 50.0134
22.3389 49.0427
22.3843 48.9041
22.4299 48.7379
22.4753 48.7449
22.5208 48.4641
22.5662 48.5831
22.6118 48.6637
22.6572 48.8274
22.7028 49.2348
22.7483 49.5851
22.7939 50.5611
22.8393 52.2108
22.8849 54.3946
22.9303 56.152
22.9759 57.4182
23.0214 57.0275
23.067 54.2543
23.1126 51.1281
23.1581 49.1787
23.2037 48.6928
23.2492 48.8225
23.2948 48.9429
23.3403 49.1808
23.3859 49.7882
23.4314 50.88
23.477 52.736
23.5225 54.9025
23.5682 56.7601
23.6137 57.393
23.6593 55.1099
23.7048 51.1713
23.7505 48.2213
23.796 46.6419
23.8417 46.0267
23.8872 45.3884
23.9329 45.2137
23.9784 44.8767
24.0241 44.5985
24.0697 44.4419
24.1154 44.0218
24.1609 43.9316
24.2066 43.7672
24.2522 43.6697
24.2979 43.4578
24.3434 43.2151
24.3892 43.1242
24.4349 43.1314
24.4805 42.9285
24.5262 43.0447
24.5718 42.9211
24.6175 42.7795
24.6631 42.5975
24.7089 42.4935
24.7545 42.2519
24.8002 42.2189
24.8458 42.1737
24.8916 41.9768
24.9372 42.1062
24.983 42.509
25.0286 43.1045
25.0744 43.312
25.12 43.8449
25.1658 44.3055
25.2114 44.5718
25.2572 44.8452
25.3029 44.6342
25.3487 44.79
25.3943 44.3885
25.4402 43.4968
25.4858 42.362
25.5316 41.4674
25.5773 40.8417
25.6231 40.7998
25.669 40.5137
25.7147 40.4271
25.7605 40.4369
25.8062 40.4486
25.8521 40.5871
25.8977 40.4525
25.9436 40.8268
25.9893 41.0364
26.0352 41.4677
26.0809 41.4522
26.1268 41.5699
26.1725 41.3137
26.2184 40.6911
26.2641 40.3256
26.31 40.1599
26.3557 40.1552
26.4017 40.0954
26.4474 40.3839
26.4933 40.5989
26.5391 41.3025
26.585 41.6539
26.6308 41.9161
26.6767 42.0881
26.7225 41.732
26.7684 41.3546
26.8142 40.8008
26.8601 40.4174
26.9059 39.8863
26.9519 39.4603
26.9979 39.1485
27.0437 38.9306
27.0896 38.6688
27.1354 38.6569
27.1814 38.4875
27.2272 38.5468
27.2732 38.4844
27.3191 38.4506
27.3651 38.4397
27.4109 38.403
27.4569 38.4994
27.5027 38.4712
27.5488 38.5938
27.5946 38.3267
27.6407 38.2113
27.6865 37.9707
27.7326 37.8613
27.7784 37.7094
27.8245 37.6548
27.8703 37.988
27.9164 38.1803
27.9623 38.3406
28.0084 38.7717
28.0543 39.1068
28.1003 38.9678
28.1462 38.8171
28.1923 38.507
28.2384 37.8838
28.2843 37.5962
28.3304 37.0714
28.3764 36.6891
28.4225 36.3227
28.4684 36.3057
28.5145 35.863
28.5605 35.8501
28.6066 35.6491
28.6526 35.6442
28.6987 35.7168
28.7447 35.4318
28.7908 35.3578
28.8368 35.4483
28.8829 35.4193
28.9289 35.3372
28.9751 35.0911
29.0211 34.9724
29.0673 34.6503
29.1133 34.6354
29.1595 34.4238
29.2055 34.3828
29.2517 34.4
29.2977 34.3085
29.3439 34.2603
29.3899 34.2537
29.4361 34.0433
29.4824 33.9104
29.5284 33.774
29.5746 33.3615
29.6207 33.1795
29.6669 33.0563
29.713 33.0713
29.7593 32.7438
29.8053 32.907
29.8516 32.7186
29.8977 32.8215
29.9439 32.5793
29.99 32.6688
30.0363 32.4448
30.0824 32.5404
30.1287 32.4035
30.1748 32.3949
30.2211 32.4073
30.2673 32.2317
30.3136 32.3465
30.3597 32.1474
30.406 32.155
30.4522 32.0803
30.4985 32.0123
30.5447 32.2734
30.591 32.108
30.6372 32.1987
30.6835 32.164
30.7297 32.139
30.7761 32.1315
30.8224 31.9864
30.8686 31.9155
30.915 31.5523
30.9612 31.5199
31.0076 31.3062
31.0538 31.1967
31.1002 30.9752
31.1464 30.8879
31.1928 30.9915
31.2391 30.9748
31.2855 30.8214
31.3317 30.7763
31.3781 30.9518
31.4244 30.8346
31.4708 30.8406
31.5171 30.7505
31.5636 30.67
31.6098 30.4585
31.6563 30.3709
31.7026 30.246
31.7491 30.1631
31.7953 30.1525
31.8418 30.0768
31.8881 30.1536
31.9346 30.0311
31.9809 29.9838
32.0275 29.8571
32.074 29.7973
32.1203 29.5974
32.1668 29.4626
32.2132 29.3856
32.2597 29.2313
32.306 29.1247
32.3526 29.002
32.399 28.8634
32.4455 28.7683
32.4919 28.6988
32.5385 28.656
32.5848 28.4937
32.6314 28.4201
32.6778 28.3465
32.7244 28.2457
32.7708 28.1421
32.8174 28.0932
32.8638 27.9725
32.9104 28.0744
32.9569 28.0169
33.0035 27.8688
33.0499 27.8413
33.0966 27.7566
33.143 27.747
33.1897 27.6585
33.2361 27.5578
33.2828 27.5343
33.3293 27.4004
33.3759 27.2876
33.4226 27.1453
33.4691 27.0233
33.5158 27.0401
33.5623 26.8675
33.609 26.6716
33.6555 26.711
33.7022 26.5965
33.7487 26.4943
33.7954 26.5103
33.842 26.319
33.8887 26.2627
33.9353 26.2248
33.982 26.0714
34.0286 26.0314
34.0753 25.9744
34.1219 25.8314
34.1687 25.7909
34.2152 25.7457
34.262 25.6453
34.3086 25.5362
34.3554 25.5252
34.402 25.361
34.4488 25.3043
34.4954 25.2017
34.5422 25.1193
34.5889 24.9984
34.6357 24.8849
34.6825 24.8827
34.7292 24.801
34.776 24.6804
34.8227 24.6186
34.8695 24.5332
34.9162 24.5599
34.9631 24.4582
35.0098 24.4655
35.0566 24.2433
35.1033 24.2625
35.1502 24.1721
35.1969 24.1509
35.2438 24.1554
35.2906 24.0069
35.3375 23.9788
35.3842 23.8845
35.4311 23.9235
35.4779 24.0266
35.5248 23.8509
35.5716 23.7562
35.6185 23.6732
35.6653 23.6471
35.7123 23.4963
35.759 23.3909
35.806 23.32
35.8528 23.1737
35.8998 23.18
35.9468 23.0863
35.9936 23.0277
36.0406 23.0171
36.0874 22.9488
36.1345 22.9016
36.1813 22.8138
36.2283 22.7055
36.2752 22.5736
36.3222 22.5452
36.3691 22.6141
36.4161 22.4294
36.463 22.4237
36.5101 22.3884
36.557 22.3177
36.6041 22.1276
36.651 22.1329
36.6981 22.0922
36.745 22.0254
36.7921 21.9275
36.839 21.7981
36.8861 21.8588
36.9331 21.7112
36.9802 21.5941
37.0272 21.5128
37.0743 21.4816
37.1213 21.4625
37.1684 21.4055
37.2154 21.4053
37.2626 21.2772
37.3098 21.1678
37.3568 21.1239
37.404 21.0368
37.451 21.0222
37.4982 20.909
37.5452 20.7955
37.5924 20.7447
37.6395 20.7561
37.6867 20.6632
37.7337 20.5556
37.781 20.5189
37.8281 20.4392
37.8753 20.369
37.9224 20.3081
37.9697 20.2941
38.0168 20.1633
38.064 20.1041
38.1111 19.9921
38.1584 19.9635
38.2056 20.0259
38.2529 19.8241
38.3 19.8203
38.3473 19.7989
38.3945 19.6758
38.4418 19.6781
38.489 19.6191
38.5363 19.489
38.5837 19.4003
38.6309 19.4432
38.6782 19.2736
38.7254 19.2881
38.7728 19.1682
38.82 19.0545
38.8674 19.0707
38.9146 19.014
38.9621 18.9633
39.0093 18.8753
39.0567 18.8572
39.104 18.7577
39.1514 18.6827
39.1987 18.6868
39.2461 18.6889
39.2934 18.4991
39.3409 18.4474
39.3882 18.374
39.4356 18.3945
39.483 18.2936
39.5304 18.1748
39.5778 18.2198
39.6253 18.1238
39.6726 18.1265
39.7201 18.0397
39.7675 17.9457
39.815 17.8954
39.8624 17.8368
39.9099 17.7361
39.9575 17.7291
40.0049 17.6443
40.0525 17.6351
40.0999 17.6286
40.1474 17.5556
40.1949 17.4623
40.2425 17.3298
40.2899 17.3395
40.3375 17.2757
40.385 17.2144
40.4326 17.1831
40.48 17.1248
40.5277 17.1056
40.5752 16.951
40.6228 16.8817
40.6703 16.8775
40.718 16.8647
40.7655 16.7944
40.8132 16.7378
40.8607 16.7146
40.9084 16.6069
40.9559 16.6064
41.0036 16.5685
41.0512 16.4635
41.0989 16.4353
41.1465 16.383
41.1942 16.3013
41.242 16.2404
41.2896 16.2386
41.3373 16.1371
41.3849 16.1125
41.4327 16.0293
41.4803 15.925
41.5281 15.9359
41.5758 15.8476
41.6236 15.827
41.6712 15.7665
41.7191 15.7004
41.7667 15.6419
41.8146 15.6603
41.8622 15.5412
41.9101 15.5871
41.9578 15.4441
42.0057 15.4002
42.0534 15.3323
42.1013 15.3176
42.149 15.2256
42.1969 15.1874
42.2446 15.164
42.2925 15.1222
42.3403 15.0646
42.3882 14.9726
42.436 14.9513
42.4839 14.8584
42.5319 14.8547
42.5797 14.8012
42.6277 14.7332
42.6755 14.728
42.7235 14.6134
42.7713 14.5823
42.8193 14.5646
42.8671 14.5026
42.9152 14.477
42.963 14.442
43.0111 14.3644
43.0589 14.3239
43.107 14.1915
43.1549 14.1961
43.2029 14.0787
43.2508 14.1143
43.2989 13.9931
43.3468 13.9749
43.3949 13.9104
43.4429 13.9031
43.491 13.8815
43.5389 13.8098
43.5871 13.7973
43.635 13.6851
43.6832 13.6889
43.7312 13.6339
43.7793 13.6346
43.8273 13.5509
43.8755 13.5018
43.9237 13.396
43.9717 13.443
44.0199 13.3613
44.068 13.3168
44.1162 13.2481
44.1642 13.223
44.2125 13.1683
44.2606 13.1281
44.3088 13.1015
44.3569 13.019
44.4052 12.9956
44.4533 12.927
44.5016 12.8453
44.5497 12.8343
44.598 12.8071
44.6461 12.7582
44.6945 12.7066
44.7426 12.6325
44.791 12.5651
44.8391 12.5675
44.8875 12.5367
44.9357 12.5225
44.984 12.4004
45.0322 12.3818
45.0806 12.3705
45.1288 12.2703
45.1773 12.2128
45.2257 12.2186
45.2739 12.1353
45.3224 12.1285
45.3706 12.1003
45.4191 12.0157
45.4673 12.0262
45.5158 11.96
45.5641 11.9352
45.6126 11.9114
45.6609 11.8127
45.7094 11.7736
45.7577 11.7772
45.8063 11.6438
45.8546 11.7142
45.9031 11.6236
45.9515 11.581
46.0001 11.5453
46.0484 11.519
46.097 11.4822
46.1454 11.4496
46.194 11.3944
46.2424 11.3103
46.291 11.2909
46.3395 11.2638
46.3881 11.2052
46.4365 11.1514
46.4852 11.103
46.5337 11.1326
46.5823 11.0473
46.631 10.9442
46.6795 10.9797
46.7282 10.9389
46.7767 10.8673
46.8254 10.8515
46.8739 10.8119
46.9226 10.7609
46.9712 10.7195
47.0199 10.6828
47.0685 10.6286
47.1173 10.55
47.1658 10.5607
47.2146 10.5431
47.2632 10.4943
47.312 10.4551
47.3606 10.4163
47.4095 10.3838
47.4581 10.2979
47.5069 10.2745
47.5556 10.276
47.6044 10.2162
47.6531 10.1929
47.702 10.145
47.7507 10.1095
47.7996 10.0453
47.8483 10.023
47.8972 10.023
47.9461 9.94576
47.9948 9.90215
48.0438 9.84722
48.0925 9.85489
48.1415 9.82862
48.1902 9.77516
48.2392 9.788
48.288 9.76053
48.337 9.66331
48.3858 9.61126
48.4348 9.63814
48.4837 9.58857
48.5327 9.52032
48.5815 9.49822
48.6306 9.48909
48.6795 9.43629
48.7285 9.37578
48.7774 9.37393
48.8265 9.33598
48.8754 9.3254
48.9245 9.24033
48.9734 9.20419
49.0226 9.21654
49.0715 9.15526
49.1206 9.1362
49.1696 9.11322
49.2188 9.05555
49.2679 9.04181
49.3169 8.97404
49.3661 8.95365
49.4151 8.91687
49.4643 8.8658
49.5134 8.86958
49.5626 8.75723
49.6117 8.82984
49.6609 8.76293
49.71 8.67776
49.7592 8.65588
49.8083 8.62836
49.8576 8.60791
49.9067 8.53358
49.956 8.53219
50.0052 8.51889
50.0545 8.48461
50.1036 8.45805
50.153 8.40233
50.2022 8.36664
50.2515 8.35353
50.3007 8.30075
50.3501 8.24175
50.3993 8.2413
50.4487 8.21219
50.498 8.21326
50.5474 8.1469
50.5966 8.09179
50.6461 8.11428
50.6955 8.03775
50.7448 8.01929
50.7943 8.02964
50.8436 8.00354
50.8931 7.9398
50.9424 7.90951
50.9919 7.87984
51.0413 7.84299
51.0908 7.79375
51.1402 7.79473
51.1897 7.74813
51.2391 7.73992
51.2887 7.68522
51.3381 7.65126
51.3877 7.64221
51.4371 7.60236
51.4867 7.59764
51.5362 7.5228
51.5858 7.51661
51.6353 7.49016
51.6849 7.43651
51.7344 7.4121
51.7841 7.3741
51.8336 7.31488
51.8833 7.34993
51.9328 7.32992
51.9826 7.23493
52.0323 7.22429
52.0818 7.18228
52.1316 7.16096
52.1812 7.16817
52.231 7.1115
52.2806 7.08693
52.3304 7.02247
52.38 6.99512
52.4298 6.9979
52.4794 6.95255
52.5293 6.95426
52.5789 6.9605
52.6288 6.90838
52.6785 6.83304
52.7284 6.84404
52.7781 6.81288
52.828 6.74884
52.8777 6.75127
52.9276 6.70212
52.9774 6.66818
53.0273 6.66155
53.0771 6.59039
53.1271 6.60121
53.1769 6.56306
53.2269 6.55169
53.2767 6.56425
53.3267 6.48288
53.3765 6.4385
53.4266 6.43827
53.4766 6.40604
53.5265 6.36603
53.5765 6.34824
53.6264 6.31351
53.6765 6.31184
53.7264 6.30903
53.7765 6.23702
53.8265 6.26897
53.8766 6.19784
53.9266 6.17663
53.9767 6.15853
54.0267 6.14609
54.0769 6.0569
54.1269 6.06256
54.1771 5.99927
54.2271 5.994
54.2773 5.95458
54.3274 5.95567
54.3776 5.9279
54.4277 5.89197
54.478 5.86312
54.528 5.77641
54.5783 5.78325
54.6285 5.74386
54.6788 5.68309
54.7289 5.67299
54.7792 5.63514
54.8296 5.54535
54.8798 5.45875
54.9301 5.48645
54.9803 5.44392
55.0307 5.40359
55.0809 5.40387
55.1314 5.34268
55.1816 5.23798
55.232 5.25558
55.2823 5.26575
55.3328 5.16077
55.383 5.08799
55.4335 5.05078
55.4838 5.01372
55.5344 4.96327
55.5847 4.97753
55.6352 4.92247
55.6856 4.85977
55.7361 4.80015