File: XRD/Ni3Fe_FD0153.xy
TT I
1.27165 7.70904
1.31627 6.81943
1.36089 6.85651
1.40551 6.10329
1.45013 6.80721
1.49476 6.47929
1.53938 6.47127
1.584 5.6871
1.62863 5.73328
1.67325 5.40755
1.71787 5.9333
1.7625 5.11058
1.80712 5.57849
1.85174 4.94626
1.89636 4.64488
1.94099 5.24423
1.98562 5.1671
2.03025 4.4981
2.07487 5.06171
2.11949 5.00271
2.16411 4.30715
2.20874 4.54823
2.25338 4.67483
2.298 4.00047
2.34263 4.34813
2.38725 4.10127
2.43188 3.92962
2.4765 4.22243
2.52115 4.32754
2.56577 4.62079
2.6104 5.35143
2.65503 5.41293
2.69965 5.10827
2.7443 6.65312
2.78893 6.32016
2.83356 7.47167
2.87818 7.95128
2.92281 8.57108
2.96744 9.32937
3.01209 10.7841
3.05672 11.6961
3.10135 12.2468
3.14599 12.9849
3.19062 13.8503
3.23527 14.9759
3.2799 15.7399
3.32454 16.8187
3.36917 17.4277
3.4138 19.1677
3.45844 19.6511
3.50309 20.8388
3.54773 21.0973
3.59237 21.9907
3.637 22.4132
3.68164 23.1567
3.7263 23.9908
3.77094 24.7632
3.81558 26.1027
3.86022 26.5238
3.90486 28.0256
3.9495 28.7047
3.99416 29.7288
4.0388 30.6949
4.08344 31.4756
4.12809 32.5981
4.17273 33.8815
4.21738 35.7831
4.26204 36.7231
4.30669 37.4369
4.35133 39.6665
4.39598 41.2865
4.44063 43.3679
4.4853 44.7173
4.52995 47.1477
4.5746 49.4114
4.61925 51.5522
4.6639 53.5303
4.70855 56.5203
4.75322 59.6599
4.79788 61.9818
4.84253 65.8924
4.88719 70.4639
4.93184 75.1852
4.97652 82.532
5.02118 90.457
5.06583 100.922
5.11049 117.12
5.15515 153.797
5.19981 545.115
5.24449 3767.62
5.28916 8239.36
5.33382 6319.99
5.37848 452.64
5.42315 162.656
5.46783 127.151
5.5125 113.785
5.55716 107.5
5.60183 101.372
5.6465 98.9787
5.69117 97.162
5.73586 94.9679
5.78053 95.2566
5.8252 95.4414
5.86988 98.1747
5.91455 104.902
5.95924 123.757
6.00392 287.303
6.0486 1383.76
6.09328 2721.71
6.13795 3987.89
6.18263 749.847
6.22733 121.976
6.27201 88.9691
6.3167 78.3625
6.36138 72.8632
6.40606 68.442
6.45075 66.1454
6.49545 63.9734
6.54014 62.0756
6.58483 60.8796
6.62952 59.4319
6.67421 58.2782
6.71892 58.0569
6.76361 56.6565
6.8083 55.4669
6.853 54.7117
6.89769 54.6319
6.94239 54.1977
6.98711 53.2993
7.03181 53.0994
7.07651 52.7407
7.12121 52.3986
7.16591 52.1734
7.21063 51.5061
7.25533 51.8081
7.30004 51.8497
7.34475 51.9926
7.38945 52.1997
7.43416 51.742
7.47889 51.995
7.5236 55.8834
7.56831 63.0672
7.61303 54.6994
7.65774 53.1356
7.70247 53.8919
7.74719 54.2965
7.79191 54.8295
7.83663 54.8675
7.88135 56.2788
7.92607 56.878
7.97081 58.1053
8.01553 59.2186
8.06026 60.4116
8.10498 61.6195
8.14971 63.6094
8.19446 65.3706
8.23919 67.7537
8.28392 70.6826
8.32865 73.2633
8.37339 77.9272
8.41812 83.3996
8.46288 95.3016
8.50761 171.778
8.55235 600.387
8.59709 888.928
8.64183 1490.52
8.68658 1636.71
8.73134 392.462
8.77609 116.194
8.82083 96.967
8.86558 91.0036
8.91033 87.6549
8.9551 85.077
8.99985 83.8565
9.04461 82.9413
9.08936 81.9627
9.13412 81.3925
9.17888 81.1823
9.22365 87.0222
9.26841 96.8985
9.31318 86.3488
9.35794 82.1358
9.4027 82.1801
9.44749 82.8517
9.49226 83.2987
9.53703 84.489
9.5818 86.2445
9.62657 86.4051
9.67134 88.3713
9.71614 90.4454
9.76091 92.8553
9.80569 95.4723
9.85047 98.8133
9.89525 103.831
9.94005 113.827
9.98484 184.907
10.0296 543.469
10.0744 734.679
10.1192 1034.09
10.164 1656.13
10.2088 983.498
10.2536 214.235
10.2984 115.919
10.3432 107.442
10.388 104.194
10.4328 121.143
10.4776 214.904
10.5224 262.807
10.5672 329.637
10.612 485.241
10.6568 366.657
10.7017 134.683
10.7465 90.6518
10.7913 83.5618
10.8361 80.428
10.8809 77.8765
10.9257 75.7853
10.9706 74.4745
11.0154 72.6196
11.0602 71.0554
11.105 70.1676
11.1499 68.5538
11.1947 67.6095
11.2395 66.5167
11.2844 66.0172
11.3292 65.2477
11.374 64.6931
11.4189 63.8681
11.4637 63.4171
11.5086 62.5043
11.5534 62.5452
11.5983 61.9835
11.6431 62.0853
11.688 61.2011
11.7328 61.3525
11.7777 61.2398
11.8225 61.0331
11.8674 60.875
11.9122 62.2227
11.9571 65.8619
12.002 65.3184
12.0468 67.4296
12.0917 90.2685
12.1366 107.808
12.1814 117.772
12.2263 151.019
12.2712 190.976
12.3161 138.04
12.3609 75.0187
12.4058 63.934
12.4507 63.2432
12.4956 63.0051
12.5405 62.9044
12.5853 63.6008
12.6302 63.9183
12.6751 64.2215
12.72 64.9465
12.7649 65.9346
12.8098 66.6573
12.8547 68.1764
12.8996 69.6138
12.9445 70.9772
12.9894 73.0498
13.0343 74.927
13.0792 79.0929
13.1242 86.1181
13.1691 132.362
13.214 186.58
13.2589 204.723
13.3038 245.251
13.3487 348.961
13.3937 381.226
13.4386 212.139
13.4835 119.531
13.5285 154.093
13.5734 182.101
13.6183 192.78
13.6633 237.95
13.7082 333.044
13.7531 308.312
13.7981 152.441
13.843 88.3152
13.888 80.4438
13.9329 77.4518
13.9779 75.9065
14.0228 74.3341
14.0678 72.7432
14.1127 72.6835
14.1577 74.0173
14.2027 72.6939
14.2476 70.4969
14.2926 69.1233
14.3376 69.043
14.3825 68.3532
14.4275 68.0822
14.4725 67.8115
14.5175 68.4297
14.5624 68.0364
14.6074 68.587
14.6524 69.1188
14.6974 69.5759
14.7424 71.1899
14.7874 80.3572
14.8324 106.636
14.8774 120.734
14.9224 126.552
14.9674 148.261
15.0124 191.987
15.0574 203.548
15.1024 138.69
15.1474 81.9024
15.1924 71.2221
15.2374 69.0005
15.2824 67.6659
15.3274 66.9269
15.3725 66.3595
15.4175 66.1334
15.4625 65.5579
15.5076 65.3544
15.5526 65.5116
15.5976 65.5067
15.6426 66.1271
15.6877 73.5058
15.7327 94.7231
15.7778 107.298
15.8228 110.758
15.8679 124.887
15.9129 154.382
15.958 184.693
16.003 151.653
16.0481 88.4265
16.0931 65.9544
16.1382 61.6459
16.1833 60.0891
16.2283 58.7518
16.2734 57.8123
16.3185 57.0969
16.3636 56.3492
16.4086 55.8705
16.4537 55.4302
16.4988 54.9687
16.5439 54.726
16.589 54.7504
16.6341 54.4183
16.6792 53.7773
16.7243 53.9936
16.7694 54.1021
16.8145 54.0482
16.8596 54.1267
16.9047 54.4309
16.9498 54.8431
16.9949 54.955
17.04 55.2027
17.0851 56.6201
17.1302 61.0288
17.1754 64.0656
17.2205 65.2489
17.2656 67.1534
17.3108 72.0845
17.3559 79.2242
17.401 80.5449
17.4462 70.9188
17.4913 61.4425
17.5365 59.1866
17.5815 58.8313
17.6268 59.2275
17.6718 59.7315
17.7171 60.0685
17.7622 61.1935
17.8074 62.0509
17.8525 63.7195
17.8977 71.8537
17.9428 83.3123
17.9881 88.4627
18.0331 91.0414
18.0784 98.2858
18.1237 115.18
18.1688 140.827
18.214 141.982
18.2591 110.356
18.3044 88.1888
18.3495 86.3052
18.3948 94.8457
18.4399 103.587
18.4852 94.9415
18.5303 76.3021
18.5756 64.9948
18.6207 62.1567
18.666 60.8745
18.7112 59.9058
18.7565 58.8714
18.8016 58.6853
18.8469 58.1068
18.892 57.8121
18.9374 57.1276
18.9825 56.9503
19.0278 56.6704
19.073 56.6751
19.1183 57.1258
19.1635 59.5825
19.2088 61.6573
19.254 62.3665
19.2993 62.9578
19.3447 65.2291
19.3898 69.0459
19.4352 73.47
19.4804 72.2653
19.5257 63.7106
19.5709 56.2764
19.6163 54.2796
19.6615 53.6049
19.7068 53.3641
19.752 53.2141
19.7974 53.532
19.8426 54.5796
19.888 56.5412
19.9332 58.16
19.9786 58.5407
20.0238 59.2196
20.0692 61.9051
20.1144 66.533
20.1598 72.3805
20.205 71.0587
20.2504 65.3026
20.2957 60.9266
20.3411 61.4857
20.3863 64.4822
20.4318 64.4415
20.477 58.7884
20.5224 53.2815
20.5677 50.8449
20.6131 50.2516
20.6586 49.842
20.7038 49.5689
20.7493 49.2267
20.7945 49.2275
20.84 48.9462
20.8853 48.7321
20.9307 48.5319
20.976 48.7624
21.0215 48.9059
21.0668 49.4152
21.1122 49.361
21.1575 49.5004
21.203 49.8007
21.2483 50.1422
21.2938 51.4402
21.3391 51.3148
21.3846 50.3004
21.4299 49.1997
21.4754 48.7272
21.5207 48.5913
21.5662 48.8678
21.6116 49.2718
21.6571 51.1742
21.7024 53.0162
21.7479 54.0305
21.7933 54.4362
21.8388 55.8136
21.8843 58.4745
21.9297 62.0732
21.9752 65.9344
22.0206 65.702
22.0661 60.5982
22.1115 56.2778
22.157 55.4603
22.2024 56.5281
22.248 55.263
22.2933 52.4787
22.3389 50.0496
22.3843 49.2229
22.4299 48.7653
22.4753 48.8052
22.5208 48.7034
22.5662 48.6498
22.6118 48.8356
22.6572 49.1119
22.7028 50.2101
22.7483 51.4802
22.7939 51.9464
22.8393 52.1373
22.8849 52.525
22.9303 53.4544
22.9759 55.0875
23.0214 57.1367
23.067 58.2394
23.1126 55.8587
23.1581 52.017
23.2037 49.7055
23.2492 49.2406
23.2948 49.5307
23.3403 50.865
23.3859 51.7005
23.4314 51.721
23.477 51.8942
23.5225 52.4309
23.5682 53.434
23.6137 55.7615
23.6593 57.8653
23.7048 57.1369
23.7505 53.2813
23.796 49.0832
23.8417 47.0298
23.8872 46.1712
23.9329 45.6804
23.9784 45.2482
24.0241 44.9446
24.0697 44.7328
24.1154 44.3067
24.1609 44.2409
24.2066 44.0331
24.2522 43.9082
24.2979 43.606
24.3434 43.5174
24.3892 43.2806
24.4349 43.1955
24.4805 42.9368
24.5262 43.2153
24.5718 42.8138
24.6175 43.0369
24.6631 43.1323
24.7089 42.8716
24.7545 42.8398
24.8002 42.5386
24.8458 42.3437
24.8916 42.4316
24.9372 42.7782
24.983 42.8607
25.0286 43.1342
25.0744 43.4756
25.12 43.7823
25.1658 44.3704
25.2114 44.5733
25.2572 44.9785
25.3029 44.8866
25.3487 44.8295
25.3943 44.7826
25.4402 44.8919
25.4858 44.4957
25.5316 43.038
25.5773 41.6968
25.6231 41.3388
25.669 40.8403
25.7147 40.8345
25.7605 40.7563
25.8062 40.9337
25.8521 41.1349
25.8977 41.017
25.9436 40.9241
25.9893 40.8877
26.0352 41.1489
26.0809 41.1202
26.1268 41.6333
26.1725 42.0479
26.2184 42.1123
26.2641 41.4874
26.31 41.0225
26.3557 40.8635
26.4017 40.7056
26.4474 40.912
26.4933 40.8499
26.5391 41.1864
26.585 41.3857
26.6308 41.8678
26.6767 42.014
26.7225 42.5168
26.7684 42.6827
26.8142 41.9507
26.8601 41.2617
26.9059 40.7732
26.9519 40.3441
26.9979 40.0791
27.0437 39.4613
27.0896 39.1154
27.1354 39.1725
27.1814 38.9775
27.2272 38.92
27.2732 38.9875
27.3191 38.6367
27.3651 38.821
27.4109 38.6134
27.4569 38.6063
27.5027 38.6315
27.5488 38.6353
27.5946 38.7389
27.6407 38.7285
27.6865 38.6463
27.7326 38.5596
27.7784 38.4165
27.8245 38.3298
27.8703 38.4255
27.9164 38.6442
27.9623 38.4346
28.0084 38.7746
28.0543 38.9128
28.1003 39.2081
28.1462 39.4283
28.1923 39.4521
28.2384 38.8734
28.2843 38.2934
28.3304 38.0925
28.3764 37.6532
28.4225 37.1916
28.4684 36.8503
28.5145 36.3013
28.5605 36.129
28.6066 35.9474
28.6526 36.0824
28.6987 35.9581
28.7447 35.7022
28.7908 35.5721
28.8368 35.5762
28.8829 35.6032
28.9289 35.5618
28.9751 35.4136
29.0211 35.4337
29.0673 35.2105
29.1133 35.1115
29.1595 34.696
29.2055 34.597
29.2517 34.491
29.2977 34.3854
29.3439 34.261
29.3899 34.3323
29.4361 34.3793
29.4824 34.3982
29.5284 34.1928
29.5746 33.8673
29.6207 33.4827
29.6669 33.3737
29.713 33.2149
29.7593 32.9382
29.8053 32.9997
29.8516 32.9255
29.8977 32.907
29.9439 32.7638
29.99 32.7312
30.0363 32.6274
30.0824 32.6168
30.1287 32.5642
30.1748 32.5609
30.2211 32.5901
30.2673 32.4712
30.3136 32.6701
30.3597 32.6231
30.406 32.6319
30.4522 32.575
30.4985 32.2223
30.5447 32.3338
30.591 32.2361
30.6372 32.3664
30.6835 32.3091
30.7297 32.337
30.7761 32.4339
30.8224 32.4376
30.8686 32.307
30.915 32.1138
30.9612 31.9689
31.0076 31.6891
31.0538 31.5956
31.1002 31.5348
31.1464 31.2695
31.1928 31.3044
31.2391 31.2654
31.2855 31.141
31.3317 31.0939
31.3781 31.0716
31.4244 31.0192
31.4708 31.026
31.5171 31.073
31.5636 31.071
31.6098 30.8971
31.6563 30.9547
31.7026 30.7234
31.7491 30.4253
31.7953 30.4327
31.8418 30.3725
31.8881 30.3845
31.9346 30.1997
31.9809 30.2772
32.0275 30.1909
32.074 30.2135
32.1203 30.0584
32.1668 29.9231
32.2132 29.7654
32.2597 29.6016
32.306 29.5391
32.3526 29.294
32.399 29.1693
32.4455 29.0033
32.4919 28.8283
32.5385 28.896
32.5848 28.6968
32.6314 28.7776
32.6778 28.6481
32.7244 28.4592
32.7708 28.3673
32.8174 28.3952
32.8638 28.211
32.9104 28.2492
32.9569 28.3108
33.0035 28.0481
33.0499 28.0514
33.0966 27.9678
33.143 27.9964
33.1897 27.8835
33.2361 27.86
33.2828 27.8745
33.3293 27.6138
33.3759 27.6161
33.4226 27.4974
33.4691 27.5114
33.5158 27.3498
33.5623 27.1568
33.609 27.1127
33.6555 26.9351
33.7022 26.8166
33.7487 26.7655
33.7954 26.706
33.842 26.5798
33.8887 26.4937
33.9353 26.4337
33.982 26.3156
34.0286 26.3164
34.0753 26.1948
34.1219 26.1222
34.1687 26.004
34.2152 25.9103
34.262 25.7264
34.3086 25.7232
34.3554 25.7424
34.402 25.5987
34.4488 25.4834
34.4954 25.4203
34.5422 25.3653
34.5889 25.2561
34.6357 25.1696
34.6825 25.0764
34.7292 25.0235
34.776 24.9124
34.8227 24.7806
34.8695 24.8016
34.9162 24.8203
34.9631 24.6206
35.0098 24.6342
35.0566 24.5226
35.1033 24.4954
35.1502 24.4797
35.1969 24.3527
35.2438 24.3513
35.2906 24.269
35.3375 24.1964
35.3842 24.1665
35.4311 24.096
35.4779 24.0633
35.5248 24.0281
35.5716 23.9447
35.6185 23.8912
35.6653 23.7772
35.7123 23.7559
35.759 23.7063
35.806 23.5343
35.8528 23.3976
35.8998 23.3773
35.9468 23.3299
35.9936 23.2413
36.0406 23.1749
36.0874 23.1101
36.1345 23.007
36.1813 22.955
36.2283 22.9287
36.2752 22.8723
36.3222 22.8433
36.3691 22.755
36.4161 22.5959
36.463 22.6523
36.5101 22.5532
36.557 22.5423
36.6041 22.3447
36.651 22.3381
36.6981 22.2781
36.745 22.2793
36.7921 22.1314
36.839 21.9917
36.8861 21.9817
36.9331 21.9047
36.9802 21.8001
37.0272 21.7578
37.0743 21.5933
37.1213 21.6368
37.1684 21.5971
37.2154 21.423
37.2626 21.3224
37.3098 21.3552
37.3568 21.3416
37.404 21.2534
37.451 21.1234
37.4982 21.0725
37.5452 21.0029
37.5924 20.8976
37.6395 21.0271
37.6867 20.8939
37.7337 20.7924
37.781 20.7189
37.8281 20.6857
37.8753 20.5409
37.9224 20.5281
37.9697 20.4472
38.0168 20.4531
38.064 20.2643
38.1111 20.2198
38.1584 20.1219
38.2056 20.0991
38.2529 20.0473
38.3 19.9979
38.3473 19.9644
38.3945 19.8474
38.4418 19.8021
38.489 19.6746
38.5363 19.6353
38.5837 19.6126
38.6309 19.5236
38.6782 19.4289
38.7254 19.4199
38.7728 19.3608
38.82 19.2839
38.8674 19.3106
38.9146 19.1529
38.9621 19.1235
39.0093 19.0234
39.0567 18.9889
39.104 18.9121
39.1514 18.8448
39.1987 18.7681
39.2461 18.7465
39.2934 18.6817
39.3409 18.5634
39.3882 18.5396
39.4356 18.476
39.483 18.4257
39.5304 18.3522
39.5778 18.373
39.6253 18.2463
39.6726 18.2053
39.7201 18.1936
39.7675 18.1654
39.815 18.0747
39.8624 17.9584
39.9099 17.9879
39.9575 17.8407
40.0049 17.8494
40.0525 17.7993
40.0999 17.711
40.1474 17.6694
40.1949 17.5841
40.2425 17.4996
40.2899 17.5013
40.3375 17.4428
40.385 17.3486
40.4326 17.3241
40.48 17.3052
40.5277 17.2556
40.5752 17.1492
40.6228 17.0707
40.6703 17.0757
40.718 16.9351
40.7655 16.9353
40.8132 16.8445
40.8607 16.8879
40.9084 16.7981
40.9559 16.755
41.0036 16.7209
41.0512 16.5934
41.0989 16.6317
41.1465 16.514
41.1942 16.5163
41.242 16.3564
41.2896 16.3172
41.3373 16.2774
41.3849 16.2558
41.4327 16.1439
41.4803 16.0902
41.5281 16.1134
41.5758 16.0088
41.6236 15.9745
41.6712 15.9147
41.7191 15.8517
41.7667 15.785
41.8146 15.7854
41.8622 15.6859
41.9101 15.6477
41.9578 15.5287
42.0057 15.5002
42.0534 15.5021
42.1013 15.4154
42.149 15.3957
42.1969 15.3427
42.2446 15.2323
42.2925 15.2365
42.3403 15.1597
42.3882 15.1556
42.436 15.0736
42.4839 15.0104
42.5319 14.9951
42.5797 14.9132
42.6277 14.8899
42.6755 14.8533
42.7235 14.787
42.7713 14.7328
42.8193 14.6744
42.8671 14.6567
42.9152 14.5737
42.963 14.54
43.0111 14.4494
43.0589 14.3812
43.107 14.319
43.1549 14.3218
43.2029 14.3242
43.2508 14.2423
43.2989 14.2121
43.3468 14.1361
43.3949 14.1158
43.4429 14.0693
43.491 13.9732
43.5389 13.9434
43.5871 13.9303
43.635 13.8463
43.6832 13.8127
43.7312 13.7508
43.7793 13.7082
43.8273 13.6447
43.8755 13.573
43.9237 13.5707
43.9717 13.5434
44.0199 13.5114
44.068 13.3826
44.1162 13.2996
44.1642 13.3247
44.2125 13.2688
44.2606 13.2426
44.3088 13.1383
44.3569 13.1361
44.4052 13.1335
44.4533 13.0263
44.5016 12.9604
44.5497 12.9871
44.598 12.9331
44.6461 12.8803
44.6945 12.815
44.7426 12.7761
44.791 12.6838
44.8391 12.7081
44.8875 12.6251
44.9357 12.5395
44.984 12.5586
45.0322 12.5194
45.0806 12.4606
45.1288 12.3608
45.1773 12.3256
45.2257 12.2687
45.2739 12.2543
45.3224 12.2717
45.3706 12.2244
45.4191 12.1261
45.4673 12.1287
45.5158 12.0794
45.5641 11.9979
45.6126 11.9951
45.6609 11.9183
45.7094 11.8571
45.7577 11.8534
45.8063 11.7717
45.8546 11.7891
45.9031 11.7307
45.9515 11.6765
46.0001 11.6461
46.0484 11.6083
46.097 11.5758
46.1454 11.4943
46.194 11.5101
46.2424 11.4256
46.291 11.3916
46.3395 11.3265
46.3881 11.3101
46.4365 11.2629
46.4852 11.2351
46.5337 11.1734
46.5823 11.1948
46.631 11.0785
46.6795 11.0475
46.7282 11.0243
46.7767 11.0028
46.8254 10.9182
46.8739 10.8892
46.9226 10.8368
46.9712 10.8198
47.0199 10.7916
47.0685 10.7002
47.1173 10.677
47.1658 10.672
47.2146 10.6061
47.2632 10.5461
47.312 10.5664
47.3606 10.5163
47.4095 10.4603
47.4581 10.4209
47.5069 10.3929
47.5556 10.3906
47.6044 10.3033
47.6531 10.261
47.702 10.1886
47.7507 10.2255
47.7996 10.1665
47.8483 10.1262
47.8972 10.092
47.9461 10.0092
47.9948 10.0039
48.0438 9.94731
48.0925 9.92192
48.1415 9.88546
48.1902 9.88631
48.2392 9.8163
48.288 9.8023
48.337 9.78877
48.3858 9.73109
48.4348 9.69418
48.4837 9.68276
48.5327 9.63689
48.5815 9.58855
48.6306 9.56352
48.6795 9.54911
48.7285 9.47444
48.7774 9.46638
48.8265 9.44222
48.8754 9.38908
48.9245 9.35645
48.9734 9.30743
49.0226 9.2913
49.0715 9.24961
49.1206 9.2185
49.1696 9.1793
49.2188 9.14755
49.2679 9.08705
49.3169 9.08029
49.3661 9.00603
49.4151 8.98405
49.4643 8.977
49.5134 8.94975
49.5626 8.89159
49.6117 8.87409
49.6609 8.82908
49.71 8.80237
49.7592 8.71822
49.8083 8.68149
49.8576 8.68406
49.9067 8.63518
49.956 8.64429
50.0052 8.59631
50.0545 8.5502
50.1036 8.51764
50.153 8.47973
50.2022 8.43901
50.2515 8.4252
50.3007 8.35421
50.3501 8.37454
50.3993 8.32862
50.4487 8.33266
50.498 8.24798
50.5474 8.2651
50.5966 8.22279
50.6461 8.20384
50.6955 8.12126
50.7448 8.09879
50.7943 8.08414
50.8436 8.03753
50.8931 8.03663
50.9424 7.96709
50.9919 7.94692
51.0413 7.90836
51.0908 7.91129
51.1402 7.86369
51.1897 7.84484
51.2391 7.8197
51.2887 7.79294
51.3381 7.71695
51.3877 7.72958
51.4371 7.66081
51.4867 7.65978
51.5362 7.62233
51.5858 7.60957
51.6353 7.53526
51.6849 7.51063
51.7344 7.46333
51.7841 7.44859
51.8336 7.40861
51.8833 7.42186
51.9328 7.36933
51.9826 7.31533
52.0323 7.28894
52.0818 7.25807
52.1316 7.21664
52.1812 7.2255
52.231 7.19635
52.2806 7.14635
52.3304 7.14886
52.38 7.08343
52.4298 7.07502
52.4794 7.03262
52.5293 7.00342
52.5789 6.9755
52.6288 6.91894
52.6785 6.92347
52.7284 6.88753
52.7781 6.87036
52.828 6.84536
52.8777 6.79147
52.9276 6.77797
52.9774 6.73278
53.0273 6.69781
53.0771 6.68193
53.1271 6.66633
53.1769 6.65797
53.2269 6.59912
53.2767 6.58348
53.3267 6.58509
53.3765 6.51292
53.4266 6.48841
53.4766 6.47508
53.5265 6.42666
53.5765 6.37837
53.6264 6.38076
53.6765 6.3546
53.7264 6.34825
53.7765 6.31454
53.8265 6.26289
53.8766 6.15752
53.9266 6.24484
53.9767 6.17975
54.0267 6.16862
54.0769 6.14116
54.1269 6.10958
54.1771 6.00771
54.2271 6.04497
54.2773 6.00517
54.3274 5.95851
54.3776 5.90784
54.4277 5.89999
54.478 5.84204
54.528 5.78279
54.5783 5.7678
54.6285 5.69289
54.6788 5.63401
54.7289 5.61398
54.7792 5.58379
54.8296 5.56383
54.8798 5.51809
54.9301 5.44504
54.9803 5.4842
55.0307 5.3788
55.0809 5.32528
55.1314 5.31288
55.1816 5.2777
55.232 5.19905
55.2823 5.19488
55.3328 5.05898
55.383 4.99909
55.4335 5.01842
55.4838 4.94772
55.5344 4.89634
55.5847 4.86599
55.6352 4.8714
55.6856 4.80575
55.7361 4.79639