File: XRD/Ni3Fe_FD0115.xy
TT I
1.27165 8.32673
1.31627 7.29891
1.36089 7.68533
1.40551 6.1744
1.45013 6.60415
1.49476 5.87757
1.53938 6.60195
1.584 5.55882
1.62863 5.88255
1.67325 6.02272
1.71787 5.26016
1.7625 5.67703
1.80712 5.84419
1.85174 5.194
1.89636 5.18204
1.94099 4.9973
1.98562 5.911
2.03025 4.18097
2.07487 4.76282
2.11949 4.97443
2.16411 4.30071
2.20874 5.05712
2.25338 4.18534
2.298 4.96688
2.34263 4.72026
2.38725 4.51461
2.43188 3.19516
2.4765 4.2753
2.52115 3.73098
2.56577 3.4673
2.6104 4.5352
2.65503 3.86258
2.69965 4.58946
2.7443 5.59079
2.78893 5.98209
2.83356 6.79323
2.87818 7.6254
2.92281 7.90447
2.96744 9.11303
3.01209 9.94984
3.05672 10.8628
3.10135 12.4411
3.14599 12.8697
3.19062 13.5431
3.23527 14.9161
3.2799 15.5014
3.32454 16.2807
3.36917 17.0794
3.4138 18.8205
3.45844 19.1012
3.50309 20.4251
3.54773 20.581
3.59237 21.571
3.637 22.1369
3.68164 22.617
3.7263 24.1051
3.77094 24.6316
3.81558 25.4725
3.86022 26.3776
3.90486 27.3213
3.9495 28.4298
3.99416 29.4581
4.0388 30.541
4.08344 31.6363
4.12809 32.3476
4.17273 33.8388
4.21738 35.0125
4.26204 36.0836
4.30669 37.7362
4.35133 39.2914
4.39598 40.925
4.44063 43.008
4.4853 43.9781
4.52995 46.5475
4.5746 48.7063
4.61925 51.3712
4.6639 53.1
4.70855 55.9553
4.75322 59.3347
4.79788 62.1715
4.84253 66.0349
4.88719 70.0402
4.93184 75.257
4.97652 82.8322
5.02118 92.0248
5.06583 103.196
5.11049 120.502
5.15515 161.934
5.19981 608.051
5.24449 3779.62
5.28916 7479.27
5.33382 6745.88
5.37848 559.413
5.42315 175.733
5.46783 132.468
5.5125 116.696
5.55716 109.444
5.60183 102.877
5.6465 99.5122
5.69117 98.2168
5.73586 96.1548
5.78053 96.2106
5.8252 96.71
5.86988 100.285
5.91455 107.898
5.95924 129.679
6.00392 311.293
6.0486 1413.95
6.09328 2420.53
6.13795 3922.44
6.18263 810.723
6.22733 133.483
6.27201 91.8602
6.3167 79.5229
6.36138 73.0477
6.40606 68.7446
6.45075 66.5062
6.49545 63.7138
6.54014 62.256
6.58483 60.6963
6.62952 59.3091
6.67421 58.1129
6.71892 56.8978
6.76361 55.8933
6.8083 55.1339
6.853 54.3055
6.89769 53.7827
6.94239 53.681
6.98711 52.7119
7.03181 52.4631
7.07651 52.0849
7.12121 51.7377
7.16591 51.7207
7.21063 51.167
7.25533 51.3358
7.30004 51.52
7.34475 51.7194
7.38945 51.9789
7.43416 51.3104
7.47889 51.5772
7.5236 56.9667
7.56831 68.5111
7.61303 56.6011
7.65774 52.9359
7.70247 53.6548
7.74719 53.5002
7.79191 54.6824
7.83663 54.6535
7.88135 55.5284
7.92607 56.496
7.97081 57.7508
8.01553 58.3518
8.06026 60.256
8.10498 61.4017
8.14971 63.3501
8.19446 64.7989
8.23919 66.9643
8.28392 70.1032
8.32865 73.279
8.37339 77.4534
8.41812 83.586
8.46288 96.6902
8.50761 180.648
8.55235 626.739
8.59709 816.427
8.64183 1310.81
8.68658 1702.61
8.73134 481.435
8.77609 122.26
8.82083 98.7269
8.86558 91.5608
8.91033 87.6726
8.9551 84.7893
8.99985 83.6307
9.04461 82.3772
9.08936 81.8254
9.13412 80.7653
9.17888 81.1396
9.22365 89.2776
9.26841 105.576
9.31318 89.9298
9.35794 81.9463
9.4027 81.5409
9.44749 82.5987
9.49226 83.0746
9.53703 83.912
9.5818 85.7147
9.62657 86.2286
9.67134 87.8405
9.71614 89.9457
9.76091 92.0188
9.80569 94.803
9.85047 98.1509
9.89525 104.501
9.94005 114.623
9.98484 192.15
10.0296 568.463
10.0744 701.011
10.1192 892.83
10.164 1565.24
10.2088 1104.1
10.2536 242.781
10.2984 118.887
10.3432 108.393
10.388 104.889
10.4328 122.402
10.4776 221.86
10.5224 252.554
10.5672 294.129
10.612 464.269
10.6568 399.919
10.7017 144.942
10.7465 92.3441
10.7913 83.4459
10.8361 80.4824
10.8809 77.5383
10.9257 75.2012
10.9706 74.0078
11.0154 72.364
11.0602 70.8739
11.105 69.4912
11.1499 68.3241
11.1947 67.1933
11.2395 66.0394
11.2844 65.3908
11.3292 64.7299
11.374 63.8689
11.4189 63.553
11.4637 62.7657
11.5086 61.88
11.5534 61.6376
11.5983 61.2707
11.6431 61.2944
11.688 61.1083
11.7328 60.7669
11.7777 60.705
11.8225 60.452
11.8674 60.6463
11.9122 62.3415
11.9571 67.3266
12.002 66.5593
12.0468 68.1275
12.0917 91.5892
12.1366 107.383
12.1814 110.42
12.2263 137.162
12.2712 186.8
12.3161 148.618
12.3609 78.2772
12.4058 64.1843
12.4507 62.8822
12.4956 62.4877
12.5405 62.6835
12.5853 63.0682
12.6302 63.176
12.6751 63.7407
12.72 64.4609
12.7649 65.5118
12.8098 66.428
12.8547 67.5306
12.8996 69.2844
12.9445 70.6026
12.9894 72.5351
13.0343 74.5586
13.0792 79.0714
13.1242 86.5279
13.1691 135.229
13.214 190.463
13.2589 193.599
13.3038 219.419
13.3487 320.214
13.3937 390.184
13.4386 233.433
13.4835 124.73
13.5285 158.284
13.5734 182.842
13.6183 179.007
13.6633 213.677
13.7082 308.308
13.7531 319.19
13.7981 167.977
13.843 89.615
13.888 80.3657
13.9329 77.2709
13.9779 75.432
14.0228 73.8621
14.0678 72.4169
14.1127 72.7922
14.1577 74.9725
14.2027 73.4801
14.2476 70.464
14.2926 68.6507
14.3376 68.0128
14.3825 67.9068
14.4275 67.4589
14.4725 67.5974
14.5175 67.7633
14.5624 67.6328
14.6074 67.9496
14.6524 68.3301
14.6974 69.1769
14.7424 70.553
14.7874 80.6527
14.8324 108.59
14.8774 120.311
14.9224 119.838
14.9674 135.322
15.0124 178.275
15.0574 206.687
15.1024 150.264
15.1474 84.8088
15.1924 71.3477
15.2374 68.5946
15.2824 67.3761
15.3274 66.3937
15.3725 65.7976
15.4175 65.5923
15.4625 65.1246
15.5076 64.7353
15.5526 64.6658
15.5976 64.8456
15.6426 66.2403
15.6877 73.6959
15.7327 96.0306
15.7778 107.579
15.8228 105.634
15.8679 114.407
15.9129 141.933
15.958 182.156
16.003 160.806
16.0481 94.5396
16.0931 67.29
16.1382 61.7858
16.1833 60.0043
16.2283 58.3873
16.2734 57.4825
16.3185 56.684
16.3636 56.0722
16.4086 55.4632
16.4537 55.0353
16.4988 54.6474
16.5439 54.3575
16.589 54.0962
16.6341 53.8737
16.6792 53.3297
16.7243 53.8298
16.7694 53.419
16.8145 53.5636
16.8596 53.7368
16.9047 54.3036
16.9498 54.555
16.9949 54.5059
17.04 54.7362
17.0851 56.1817
17.1302 60.6433
17.1754 64.1661
17.2205 64.0896
17.2656 64.7141
17.3108 69.3652
17.3559 76.6128
17.401 81.315
17.4462 72.67
17.4913 61.8283
17.5365 58.6402
17.5815 58.4848
17.6268 58.7649
17.6718 59.1175
17.7171 59.5871
17.7622 60.8492
17.8074 61.6388
17.8525 63.4465
17.8977 71.6645
17.9428 84.2425
17.9881 87.8809
18.0331 87.3407
18.0784 92.1577
18.1237 106.963
18.1688 135.079
18.214 145.558
18.2591 115.477
18.3044 87.5359
18.3495 83.1838
18.3948 90.7962
18.4399 101.116
18.4852 97.4421
18.5303 78.671
18.5756 65.3411
18.6207 61.7657
18.666 60.5887
18.7112 59.6579
18.7565 58.7157
18.8016 58.3089
18.8469 57.6467
18.892 57.4102
18.9374 56.8017
18.9825 56.4195
19.0278 56.2658
19.073 56.2285
19.1183 56.8552
19.1635 59.151
19.2088 61.5401
19.254 61.6373
19.2993 61.7811
19.3447 63.3576
19.3898 66.8509
19.4352 72.0219
19.4804 72.8455
19.5257 64.8839
19.5709 56.479
19.6163 53.813
19.6615 53.4606
19.7068 52.8899
19.752 52.7858
19.7974 52.904
19.8426 54.2596
19.888 56.4756
19.9332 58.0142
19.9786 57.7046
20.0238 57.9424
20.0692 60.3049
20.1144 65.1658
20.1598 70.8849
20.205 71.2337
20.2504 65.3338
20.2957 60.2112
20.3411 60.0338
20.3863 63.1274
20.4318 64.2695
20.477 59.6292
20.5224 53.6802
20.5677 50.7822
20.6131 49.7849
20.6586 49.5088
20.7038 49.208
20.7493 48.8372
20.7945 48.8585
20.84 48.7038
20.8853 48.4542
20.9307 48.1339
20.976 48.4171
21.0215 48.4546
21.0668 49.1417
21.1122 48.9891
21.1575 48.823
21.203 48.9296
21.2483 49.4457
21.2938 50.5942
21.3391 50.9504
21.3846 50.2733
21.4299 48.9906
21.4754 48.2562
21.5207 48.2651
21.5662 48.6005
21.6116 48.9381
21.6571 51.0148
21.7024 52.827
21.7479 53.5494
21.7933 53.5048
21.8388 54.5121
21.8843 56.8694
21.9297 60.2123
21.9752 64.4972
22.0206 65.5974
22.0661 61.0105
22.1115 55.8609
22.157 54.5308
22.2024 55.8579
22.248 54.8733
22.2933 52.8261
22.3389 49.9838
22.3843 48.7222
22.4299 48.3913
22.4753 48.3237
22.5208 48.3168
22.5662 48.2383
22.6118 48.573
22.6572 48.6141
22.7028 49.8636
22.7483 51.0336
22.7939 51.5822
22.8393 51.251
22.8849 51.5545
22.9303 52.1088
22.9759 53.5351
23.0214 55.8399
23.067 57.8597
23.1126 56.4538
23.1581 52.7746
23.2037 49.6221
23.2492 48.7301
23.2948 49.313
23.3403 50.5205
23.3859 51.5305
23.4314 51.3293
23.477 50.9783
23.5225 51.2414
23.5682 52.1938
23.6137 54.2743
23.6593 56.6576
23.7048 57.2586
23.7505 53.9804
23.796 49.3053
23.8417 46.6908
23.8872 45.6628
23.9329 45.3157
23.9784 44.8422
24.0241 44.5851
24.0697 44.244
24.1154 43.9951
24.1609 43.7635
24.2066 43.6329
24.2522 43.3116
24.2979 43.2079
24.3434 43.1548
24.3892 42.96
24.4349 42.9188
24.4805 42.5011
24.5262 42.6077
24.5718 42.5665
24.6175 42.6379
24.6631 42.7375
24.7089 42.7601
24.7545 42.3816
24.8002 42.0715
24.8458 42.0914
24.8916 42.0369
24.9372 42.3147
24.983 42.4444
25.0286 42.533
25.0744 42.9484
25.12 43.3057
25.1658 43.7827
25.2114 44.0442
25.2572 44.3502
25.3029 44.4485
25.3487 44.2637
25.3943 44.1334
25.4402 44.6516
25.4858 44.3734
25.5316 43.105
25.5773 41.5045
25.6231 41.0054
25.669 40.614
25.7147 40.5441
25.7605 40.2958
25.8062 40.7019
25.8521 40.8649
25.8977 40.6492
25.9436 40.5966
25.9893 40.4257
26.0352 40.6782
26.0809 40.6633
26.1268 40.9709
26.1725 41.4875
26.2184 41.7269
26.2641 41.1883
26.31 40.7189
26.3557 40.6997
26.4017 40.581
26.4474 40.6286
26.4933 40.4173
26.5391 40.7053
26.585 40.91
26.6308 41.0654
26.6767 41.4069
26.7225 42.1166
26.7684 42.3306
26.8142 41.7862
26.8601 41.1238
26.9059 40.514
26.9519 40.1804
26.9979 39.8729
27.0437 39.229
27.0896 38.8561
27.1354 38.9508
27.1814 38.66
27.2272 38.6161
27.2732 38.6366
27.3191 38.3877
27.3651 38.4765
27.4109 38.3694
27.4569 38.296
27.5027 38.2355
27.5488 38.3346
27.5946 38.3289
27.6407 38.4261
27.6865 38.4153
27.7326 38.1973
27.7784 38.337
27.8245 38.0188
27.8703 38.0725
27.9164 38.2769
27.9623 37.948
28.0084 38.2123
28.0543 38.5426
28.1003 38.5892
28.1462 38.97
28.1923 39.0824
28.2384 38.5196
28.2843 38.0595
28.3304 37.6389
28.3764 37.2618
28.4225 36.8982
28.4684 36.4898
28.5145 36.1512
28.5605 35.91
28.6066 35.6669
28.6526 35.7065
28.6987 35.6277
28.7447 35.4585
28.7908 35.2495
28.8368 35.2723
28.8829 35.1765
28.9289 35.1532
28.9751 35.1504
29.0211 35.0694
29.0673 34.9402
29.1133 34.7604
29.1595 34.4993
29.2055 34.2191
29.2517 34.2193
29.2977 34.0991
29.3439 33.9985
29.3899 33.8819
29.4361 33.9556
29.4824 33.9759
29.5284 34.0393
29.5746 33.6937
29.6207 33.3293
29.6669 33.1756
29.713 32.8681
29.7593 32.7407
29.8053 32.6761
29.8516 32.5994
29.8977 32.6469
29.9439 32.5901
29.99 32.4845
30.0363 32.1833
30.0824 32.4101
30.1287 32.3487
30.1748 32.2082
30.2211 32.28
30.2673 32.0883
30.3136 32.2273
30.3597 32.3567
30.406 32.2534
30.4522 32.1155
30.4985 32.0089
30.5447 32.0367
30.591 31.9634
30.6372 31.9926
30.6835 31.8494
30.7297 32.0262
30.7761 32.0987
30.8224 32.16
30.8686 32.0441
30.915 31.909
30.9612 31.6806
31.0076 31.4787
31.0538 31.32
31.1002 31.2039
31.1464 31.0397
31.1928 30.9287
31.2391 30.9979
31.2855 30.8587
31.3317 30.8061
31.3781 30.8089
31.4244 30.6879
31.4708 30.4579
31.5171 30.7276
31.5636 30.7291
31.6098 30.7007
31.6563 30.5488
31.7026 30.549
31.7491 30.1478
31.7953 30.1624
31.8418 30.1338
31.8881 30.09
31.9346 29.9292
31.9809 29.8312
32.0275 29.9367
32.074 29.8515
32.1203 29.6798
32.1668 29.587
32.2132 29.3998
32.2597 29.3908
32.306 29.2716
32.3526 28.965
32.399 29.0044
32.4455 28.8369
32.4919 28.6627
32.5385 28.5443
32.5848 28.346
32.6314 28.3752
32.6778 28.3341
32.7244 28.2743
32.7708 28.1223
32.8174 28.1559
32.8638 28.0495
32.9104 28.0228
32.9569 27.9332
33.0035 27.7836
33.0499 27.8282
33.0966 27.719
33.143 27.551
33.1897 27.582
33.2361 27.5125
33.2828 27.4728
33.3293 27.3763
33.3759 27.3672
33.4226 27.3227
33.4691 27.182
33.5158 27.0754
33.5623 26.9019
33.609 26.7592
33.6555 26.624
33.7022 26.5419
33.7487 26.4121
33.7954 26.408
33.842 26.3169
33.8887 26.1879
33.9353 26.2176
33.982 26.1266
34.0286 26.0832
34.0753 26.0039
34.1219 25.942
34.1687 25.7484
34.2152 25.6771
34.262 25.5354
34.3086 25.4625
34.3554 25.4218
34.402 25.3999
34.4488 25.3031
34.4954 25.2573
34.5422 25.1949
34.5889 25.0373
34.6357 24.8792
34.6825 24.8102
34.7292 24.7685
34.776 24.5951
34.8227 24.6232
34.8695 24.5372
34.9162 24.4831
34.9631 24.4104
35.0098 24.4393
35.0566 24.3221
35.1033 24.2172
35.1502 24.1614
35.1969 24.218
35.2438 24.1236
35.2906 24.017
35.3375 23.9501
35.3842 23.8104
35.4311 23.8753
35.4779 23.791
35.5248 23.8106
35.5716 23.7302
35.6185 23.6421
35.6653 23.5972
35.7123 23.6014
35.759 23.5145
35.806 23.3453
35.8528 23.1784
35.8998 23.1819
35.9468 23.103
35.9936 23.0475
36.0406 23.033
36.0874 22.9852
36.1345 22.8469
36.1813 22.813
36.2283 22.6964
36.2752 22.6592
36.3222 22.671
36.3691 22.4605
36.4161 22.4258
36.463 22.3639
36.5101 22.4239
36.557 22.2868
36.6041 22.1296
36.651 22.0907
36.6981 22.1367
36.745 21.994
36.7921 21.9759
36.839 21.8872
36.8861 21.765
36.9331 21.7389
36.9802 21.6807
37.0272 21.5459
37.0743 21.4763
37.1213 21.3698
37.1684 21.412
37.2154 21.2599
37.2626 21.1819
37.3098 21.1994
37.3568 21.1525
37.404 21.1227
37.451 21.0325
37.4982 20.8948
37.5452 20.8052
37.5924 20.8098
37.6395 20.759
37.6867 20.664
37.7337 20.5711
37.781 20.5216
37.8281 20.4359
37.8753 20.3353
37.9224 20.2747
37.9697 20.2574
38.0168 20.182
38.064 20.1541
38.1111 19.9523
38.1584 19.9348
38.2056 19.915
38.2529 19.8651
38.3 19.7521
38.3473 19.8009
38.3945 19.6101
38.4418 19.6031
38.489 19.4998
38.5363 19.4775
38.5837 19.4358
38.6309 19.3957
38.6782 19.3042
38.7254 19.1594
38.7728 19.1329
38.82 19.1304
38.8674 19.076
38.9146 18.9993
38.9621 18.9145
39.0093 18.91
39.0567 18.8715
39.104 18.8214
39.1514 18.6701
39.1987 18.647
39.2461 18.5742
39.2934 18.5454
39.3409 18.3964
39.3882 18.3224
39.4356 18.3661
39.483 18.2707
39.5304 18.2018
39.5778 18.1756
39.6253 18.0875
39.6726 18.0912
39.7201 18.008
39.7675 17.9438
39.815 17.925
39.8624 17.7783
39.9099 17.7836
39.9575 17.6565
40.0049 17.6858
40.0525 17.6179
40.0999 17.6039
40.1474 17.5339
40.1949 17.4392
40.2425 17.3162
40.2899 17.3745
40.3375 17.3295
40.385 17.2042
40.4326 17.1645
40.48 17.0879
40.5277 17.0938
40.5752 16.9991
40.6228 16.9469
40.6703 16.9241
40.718 16.8492
40.7655 16.8358
40.8132 16.7205
40.8607 16.7066
40.9084 16.7009
40.9559 16.579
41.0036 16.5891
41.0512 16.4354
41.0989 16.392
41.1465 16.4036
41.1942 16.307
41.242 16.2695
41.2896 16.1942
41.3373 16.0763
41.3849 16.0746
41.4327 16.0878
41.4803 15.9761
41.5281 15.92
41.5758 15.8129
41.6236 15.7733
41.6712 15.785
41.7191 15.6691
41.7667 15.6046
41.8146 15.6343
41.8622 15.5812
41.9101 15.4805
41.9578 15.4561
42.0057 15.4192
42.0534 15.3204
42.1013 15.3292
42.149 15.2315
42.1969 15.2189
42.2446 15.1558
42.2925 15.1063
42.3403 14.973
42.3882 14.991
42.436 14.9314
42.4839 14.846
42.5319 14.8529
42.5797 14.7986
42.6277 14.7266
42.6755 14.6738
42.7235 14.6297
42.7713 14.5727
42.8193 14.5205
42.8671 14.5141
42.9152 14.4335
42.963 14.3422
43.0111 14.2992
43.0589 14.317
43.107 14.1916
43.1549 14.1982
43.2029 14.1221
43.2508 14.0974
43.2989 14.02
43.3468 13.9788
43.3949 13.907
43.4429 13.9178
43.491 13.8473
43.5389 13.8242
43.5871 13.7442
43.635 13.7226
43.6832 13.6241
43.7312 13.6113
43.7793 13.5671
43.8273 13.5781
43.8755 13.5134
43.9237 13.4341
43.9717 13.3744
44.0199 13.3328
44.068 13.2941
44.1162 13.2554
44.1642 13.2316
44.2125 13.2056
44.2606 13.1709
44.3088 13.0658
44.3569 13.0183
44.4052 12.9633
44.4533 12.8908
44.5016 12.8627
44.5497 12.8223
44.598 12.7909
44.6461 12.7462
44.6945 12.6465
44.7426 12.6566
44.791 12.5855
44.8391 12.5861
44.8875 12.4929
44.9357 12.4772
44.984 12.4443
45.0322 12.3526
45.0806 12.3512
45.1288 12.2893
45.1773 12.2396
45.2257 12.1707
45.2739 12.1736
45.3224 12.1078
45.3706 12.0876
45.4191 12.0245
45.4673 12.0086
45.5158 11.9757
45.5641 11.9208
45.6126 11.8476
45.6609 11.8307
45.7094 11.751
45.7577 11.7382
45.8063 11.6627
45.8546 11.6555
45.9031 11.6485
45.9515 11.5495
46.0001 11.4959
46.0484 11.4711
46.097 11.4511
46.1454 11.4297
46.194 11.3634
46.2424 11.3323
46.291 11.2817
46.3395 11.2516
46.3881 11.1886
46.4365 11.1619
46.4852 11.0984
46.5337 11.077
46.5823 11.0631
46.631 10.9473
46.6795 10.9542
46.7282 10.9716
46.7767 10.9219
46.8254 10.8213
46.8739 10.7872
46.9226 10.7181
46.9712 10.7485
47.0199 10.7216
47.0685 10.6563
47.1173 10.5928
47.1658 10.5435
47.2146 10.5163
47.2632 10.4762
47.312 10.4587
47.3606 10.4236
47.4095 10.3506
47.4581 10.3149
47.5069 10.2721
47.5556 10.2633
47.6044 10.2237
47.6531 10.1901
47.702 10.1616
47.7507 10.0958
47.7996 10.0462
47.8483 10.0287
47.8972 9.99601
47.9461 9.94669
47.9948 9.89803
48.0438 9.89857
48.0925 9.87586
48.1415 9.81631
48.1902 9.78034
48.2392 9.76672
48.288 9.71964
48.337 9.69662
48.3858 9.65087
48.4348 9.58723
48.4837 9.61609
48.5327 9.54842
48.5815 9.49882
48.6306 9.51047
48.6795 9.44146
48.7285 9.34752
48.7774 9.38757
48.8265 9.31433
48.8754 9.3281
48.9245 9.27653
48.9734 9.21214
49.0226 9.21982
49.0715 9.18605
49.1206 9.13142
49.1696 9.06899
49.2188 9.09129
49.2679 9.02655
49.3169 8.99439
49.3661 8.93246
49.4151 8.93111
49.4643 8.88537
49.5134 8.87272
49.5626 8.80094
49.6117 8.81481
49.6609 8.72975
49.71 8.69574
49.7592 8.70228
49.8083 8.63055
49.8576 8.63579
49.9067 8.56887
49.956 8.58862
50.0052 8.5304
50.0545 8.48549
50.1036 8.45287
50.153 8.45753
50.2022 8.3942
50.2515 8.36764
50.3007 8.33084
50.3501 8.30459
50.3993 8.22443
50.4487 8.23314
50.498 8.22589
50.5474 8.13612
50.5966 8.16387
50.6461 8.11622
50.6955 8.07642
50.7448 8.04872
50.7943 8.01654
50.8436 7.94936
50.8931 7.97932
50.9424 7.93877
50.9919 7.89971
51.0413 7.86378
51.0908 7.84348
51.1402 7.80587
51.1897 7.79345
51.2391 7.7569
51.2887 7.67449
51.3381 7.68295
51.3877 7.64661
51.4371 7.57982
51.4867 7.56426
51.5362 7.55811
51.5858 7.52628
51.6353 7.45605
51.6849 7.46286
51.7344 7.44188
51.7841 7.4054
51.8336 7.33345
51.8833 7.35481
51.9328 7.27648
51.9826 7.28341
52.0323 7.22334
52.0818 7.20376
52.1316 7.18447
52.1812 7.13445
52.231 7.10681
52.2806 7.06779
52.3304 7.06857
52.38 7.02554
52.4298 6.99172
52.4794 6.9676
52.5293 6.96049
52.5789 6.9152
52.6288 6.87846
52.6785 6.82524
52.7284 6.80889
52.7781 6.81832
52.828 6.78218
52.8777 6.73025
52.9276 6.69904
52.9774 6.67816
53.0273 6.70586
53.0771 6.62059
53.1271 6.61882
53.1769 6.58293
53.2269 6.52234
53.2767 6.52303
53.3267 6.50376
53.3765 6.45736
53.4266 6.41723
53.4766 6.37058
53.5265 6.34359
53.5765 6.34822
53.6264 6.34583
53.6765 6.29776
53.7264 6.2706
53.7765 6.2521
53.8265 6.19258
53.8766 6.15058
53.9266 6.15009
53.9767 6.1173
54.0267 6.11274
54.0769 6.06204
54.1269 6.08044
54.1771 5.97416
54.2271 5.98935
54.2773 5.92076
54.3274 5.8838
54.3776 5.83103
54.4277 5.81805
54.478 5.79213
54.528 5.74883
54.5783 5.65373
54.6285 5.61476
54.6788 5.5903
54.7289 5.52803
54.7792 5.50153
54.8296 5.46462
54.8798 5.41065
54.9301 5.38004
54.9803 5.37084
55.0307 5.32359
55.0809 5.27623
55.1314 5.23703
55.1816 5.17146
55.232 5.12822
55.2823 5.10336
55.3328 5.03373
55.383 4.91387
55.4335 4.9269
55.4838 4.85665
55.5344 4.79996
55.5847 4.79491
55.6352 4.8067
55.6856 4.76414
55.7361 4.70322