File: XRD/Ni3Fe_FD0265.xy
TT I
1.27165 7.65418
1.31627 7.2747
1.36089 7.25206
1.40551 6.99732
1.45013 6.8489
1.49476 6.15692
1.53938 6.07808
1.584 6.5235
1.62863 5.5636
1.67325 5.43408
1.71787 5.83915
1.7625 4.85838
1.80712 5.45804
1.85174 4.93519
1.89636 5.47641
1.94099 4.9163
1.98562 5.60394
2.03025 4.70165
2.07487 4.5831
2.11949 5.09948
2.16411 5.13609
2.20874 11.157
2.25338 17.8224
2.298 5.51555
2.34263 4.61523
2.38725 5.12998
2.43188 5.17207
2.4765 5.42049
2.52115 4.71274
2.56577 5.98793
2.6104 6.20925
2.65503 6.0463
2.69965 6.56585
2.7443 7.3755
2.78893 7.59615
2.83356 8.01587
2.87818 8.13918
2.92281 8.56239
2.96744 9.50376
3.01209 10.2358
3.05672 10.7018
3.10135 12.2245
3.14599 13.2553
3.19062 14.4992
3.23527 15.4074
3.2799 15.7482
3.32454 16.5432
3.36917 17.4741
3.4138 19.4717
3.45844 19.8308
3.50309 21.2556
3.54773 21.972
3.59237 23.7956
3.637 71.2793
3.68164 48.8504
3.7263 26.7605
3.77094 26.7688
3.81558 27.5726
3.86022 28.2672
3.90486 29.448
3.9495 30.2035
3.99416 31.5029
4.0388 33.0028
4.08344 34.4189
4.12809 35.5002
4.17273 37.6228
4.21738 43.3768
4.26204 184.125
4.30669 164.854
4.35133 48.6557
4.39598 45.6279
4.44063 52.7568
4.4853 61.3616
4.52995 53.5265
4.5746 54.1726
4.61925 55.4476
4.6639 57.5376
4.70855 60.6228
4.75322 63.6535
4.79788 67.2795
4.84253 70.4272
4.88719 75.0766
4.93184 79.5365
4.97652 85.7017
5.02118 93.2435
5.06583 102.32
5.11049 118.182
5.15515 184.954
5.19981 545.83
5.24449 3561.08
5.28916 10736.4
5.33382 4347.6
5.37848 269.891
5.42315 150.397
5.46783 127.73
5.5125 116.105
5.55716 109.597
5.60183 105.274
5.6465 103.083
5.69117 100.716
5.73586 98.9204
5.78053 99.0498
5.8252 99.5013
5.86988 101.095
5.91455 104.172
5.95924 117.945
6.00392 284.233
6.0486 1242.67
6.09328 3695.26
6.13795 3685.73
6.18263 370.288
6.22733 108.247
6.27201 89.8837
6.3167 98.8771
6.36138 82.4299
6.40606 72.4594
6.45075 70.7736
6.49545 68.2566
6.54014 67.0458
6.58483 65.5871
6.62952 65.201
6.67421 85.4341
6.71892 120.655
6.76361 68.1617
6.8083 60.8869
6.853 59.812
6.89769 59.0689
6.94239 58.4927
6.98711 58.0619
7.03181 57.4773
7.07651 57.1423
7.12121 57.4144
7.16591 57.6224
7.21063 57.5977
7.25533 67.4296
7.30004 143.072
7.34475 84.0112
7.38945 57.9909
7.43416 55.9896
7.47889 56.0511
7.5236 56.3697
7.56831 57.6738
7.61303 58.5346
7.65774 59.1016
7.70247 58.3022
7.74719 58.1485
7.79191 59.2962
7.83663 59.2488
7.88135 60.1116
7.92607 60.7143
7.97081 62.4655
8.01553 63.444
8.06026 64.8223
8.10498 66.5934
8.14971 74.0762
8.19446 73.7289
8.23919 72.4803
8.28392 75.2491
8.32865 77.8503
8.37339 82.5243
8.41812 89.3576
8.46288 114.955
8.50761 198.123
8.55235 500.623
8.59709 1097.29
8.64183 2005.15
8.68658 1254.31
8.73134 234.707
8.77609 110.493
8.82083 99.5994
8.86558 95.2397
8.91033 94.1835
8.9551 94.5198
8.99985 89.3463
9.04461 87.7342
9.08936 86.7548
9.13412 85.7607
9.17888 85.9474
9.22365 86.0944
9.26841 85.5821
9.31318 86.8936
9.35794 87.0407
9.4027 87.0094
9.44749 88.2484
9.49226 88.5996
9.53703 89.578
9.5818 92.0683
9.62657 95.5841
9.67134 100.134
9.71614 97.4941
9.76091 98.7279
9.80569 101.542
9.85047 105.457
9.89525 122.972
9.94005 137.788
9.98484 209.464
10.0296 445.507
10.0744 800.893
10.1192 1464.12
10.164 1699.64
10.2088 607.922
10.2536 154.237
10.2984 120.348
10.3432 118.68
10.388 110.849
10.4328 130.738
10.4776 190.124
10.5224 282.149
10.5672 451.879
10.612 534.657
10.6568 270.513
10.7017 109.272
10.7465 92.2922
10.7913 87.8421
10.8361 84.6925
10.8809 82.6191
10.9257 81.5399
10.9706 81.8386
11.0154 78.3244
11.0602 76.273
11.105 74.7304
11.1499 77.0897
11.1947 82.1201
11.2395 75.4572
11.2844 72.6173
11.3292 69.9059
11.374 68.7527
11.4189 68.4494
11.4637 67.716
11.5086 67.8
11.5534 69.4646
11.5983 67.8242
11.6431 66.225
11.688 65.6053
11.7328 65.5346
11.7777 65.3395
11.8225 65.2061
11.8674 65.302
11.9122 65.5703
11.9571 65.656
12.002 66.7194
12.0468 72.4063
12.0917 88.3983
12.1366 108.75
12.1814 143.788
12.2263 191.396
12.2712 187.79
12.3161 113.698
12.3609 74.3614
12.4058 67.6514
12.4507 67.1924
12.4956 67.2788
12.5405 67.5925
12.5853 67.9877
12.6302 73.7664
12.6751 77.8842
12.72 71.7906
12.7649 70.7132
12.8098 71.2053
12.8547 72.7223
12.8996 74.0927
12.9445 75.3889
12.9894 77.7549
13.0343 79.2951
13.0792 82.7732
13.1242 94.6252
13.1691 128.237
13.214 168.277
13.2589 230.115
13.3038 328.834
13.3487 420.764
13.3937 321.742
13.4386 152.518
13.4835 117.042
13.5285 139.827
13.5734 170.656
13.6183 230.834
13.6633 313.977
13.7082 359.198
13.7531 235.551
13.7981 115.487
13.843 87.3084
13.888 83.7124
13.9329 80.6566
13.9779 79.454
14.0228 77.8113
14.0678 76.2321
14.1127 75.654
14.1577 75.5463
14.2027 74.4714
14.2476 73.5535
14.2926 73.3177
14.3376 74.078
14.3825 73.0683
14.4275 71.9474
14.4725 71.6951
14.5175 72.0602
14.5624 71.8327
14.6074 73.6014
14.6524 74.2619
14.6974 73.6432
14.7424 75.8096
14.7874 85.2527
14.8324 100.19
14.8774 117.028
14.9224 146.657
14.9674 190.202
15.0124 217.596
15.0574 177.744
15.1024 107.389
15.1474 77.6226
15.1924 73.7118
15.2374 73.6578
15.2824 72.8558
15.3274 70.8413
15.3725 69.8951
15.4175 69.4308
15.4625 69.0714
15.5076 69.0594
15.5526 69.051
15.5976 68.8512
15.6426 70.1658
15.6877 77.7163
15.7327 89.1969
15.7778 101.898
15.8228 123.09
15.8679 155.744
15.9129 189.184
15.958 176.034
16.003 116.43
16.0481 74.9446
16.0931 67.3654
16.1382 65.0595
16.1833 63.2121
16.2283 61.7422
16.2734 60.8157
16.3185 60.7357
16.3636 61.0586
16.4086 59.8737
16.4537 58.7654
16.4988 57.852
16.5439 57.7742
16.589 57.484
16.6341 57.2971
16.6792 56.8856
16.7243 57.1972
16.7694 57.0589
16.8145 56.9565
16.8596 57.4712
16.9047 58.6617
16.9498 58.8215
16.9949 58.0454
17.04 58.2204
17.0851 59.9952
17.1302 62.4357
17.1754 64.9926
17.2205 68.7961
17.2656 74.2036
17.3108 82.0189
17.3559 85.6661
17.401 77.823
17.4462 67.1942
17.4913 62.2334
17.5365 61.5974
17.5815 61.7052
17.6268 62.1943
17.6718 62.9226
17.7171 63.5075
17.7622 64.0774
17.8074 64.9505
17.8525 67.7418
17.8977 73.3731
17.9428 80.443
17.9881 86.955
18.0331 98.7915
18.0784 115.336
18.1237 135.675
18.1688 141.664
18.214 120.132
18.2591 94.8503
18.3044 91.3324
18.3495 97.7358
18.3948 106.371
18.4399 103.028
18.4852 85.523
18.5303 70.8564
18.5756 65.5152
18.6207 64.2087
18.666 63.2497
18.7112 62.3476
18.7565 61.5837
18.8016 61.3478
18.8469 60.7501
18.892 60.1689
18.9374 59.7763
18.9825 59.5113
19.0278 59.4251
19.073 59.5788
19.1183 59.9995
19.1635 61.3992
19.2088 62.5877
19.254 64.2849
19.2993 67.355
19.3447 72.1695
19.3898 76.9003
19.4352 76.8041
19.4804 68.991
19.5257 60.9394
19.5709 56.9646
19.6163 56.3882
19.6615 56.0127
19.7068 55.6122
19.752 55.6998
19.7974 55.8981
19.8426 57.1435
19.888 58.1275
19.9332 59.2508
19.9786 60.9061
20.0238 63.1739
20.0692 67.731
20.1144 71.8339
20.1598 72.7217
20.205 68.5242
20.2504 64.7692
20.2957 64.7031
20.3411 66.5201
20.3863 67.1001
20.4318 62.6834
20.477 57.2819
20.5224 54.1581
20.5677 53.1321
20.6131 52.4417
20.6586 52.0645
20.7038 51.6984
20.7493 51.3848
20.7945 51.1859
20.84 51.0596
20.8853 50.8744
20.9307 50.7106
20.976 51.037
21.0215 51.0038
21.0668 51.3354
21.1122 51.6174
21.1575 52.027
21.203 52.44
21.2483 53.1438
21.2938 53.6319
21.3391 52.8099
21.3846 51.5028
21.4299 50.7342
21.4754 50.6383
21.5207 50.6762
21.5662 51.0975
21.6116 51.5854
21.6571 52.6925
21.7024 53.8773
21.7479 55.1449
21.7933 57.1305
21.8388 59.9871
21.8843 63.4034
21.9297 66.13
21.9752 66.8285
22.0206 63.7026
22.0661 59.6309
22.1115 58.0004
22.157 58.0109
22.2024 57.2699
22.248 54.8216
22.2933 52.6182
22.3389 51.3501
22.3843 51.2361
22.4299 51.0203
22.4753 51.0503
22.5208 50.6681
22.5662 50.6344
22.6118 50.9569
22.6572 51.2087
22.7028 51.8587
22.7483 52.3655
22.7939 52.817
22.8393 53.7958
22.8849 55.4842
22.9303 56.988
22.9759 59.0085
23.0214 59.7695
23.067 58.0829
23.1126 54.6174
23.1581 51.8769
23.2037 51.0003
23.2492 51.1484
23.2948 51.1895
23.3403 51.7365
23.3859 52.4566
23.4314 52.9352
23.477 54.0388
23.5225 55.583
23.5682 57.7254
23.6137 59.3411
23.6593 58.595
23.7048 55.4402
23.7505 51.4741
23.796 49.0595
23.8417 48.1057
23.8872 47.5357
23.9329 47.3117
23.9784 46.9226
24.0241 46.7856
24.0697 46.5371
24.1154 46.1082
24.1609 45.8258
24.2066 45.765
24.2522 45.6997
24.2979 45.3443
24.3434 45.3692
24.3892 45.1315
24.4349 44.9118
24.4805 44.8395
24.5262 45.0058
24.5718 44.7569
24.6175 44.7394
24.6631 44.6828
24.7089 44.4885
24.7545 44.1505
24.8002 44.0493
24.8458 44.1419
24.8916 43.904
24.9372 44.156
24.983 44.3932
25.0286 44.7037
25.0744 45.1444
25.12 45.4948
25.1658 46.0474
25.2114 46.3151
25.2572 46.5648
25.3029 46.4574
25.3487 46.5477
25.3943 46.4721
25.4402 45.8123
25.4858 44.8845
25.5316 43.5308
25.5773 42.7712
25.6231 42.6864
25.669 42.4058
25.7147 42.4172
25.7605 42.3208
25.8062 42.3336
25.8521 42.4264
25.8977 42.2355
25.9436 42.6568
25.9893 42.6408
26.0352 43.0512
26.0809 43.0329
26.1268 43.3485
26.1725 43.2711
26.2184 42.796
26.2641 42.3232
26.31 42.0324
26.3557 42.0234
26.4017 41.9707
26.4474 42.1083
26.4933 42.3975
26.5391 42.6865
26.585 43.0954
26.6308 43.4531
26.6767 43.7595
26.7225 44.0096
26.7684 43.3677
26.8142 42.8543
26.8601 42.1979
26.9059 41.9248
26.9519 41.3108
26.9979 41.1324
27.0437 40.6823
27.0896 40.4311
27.1354 40.5264
27.1814 40.2393
27.2272 40.2771
27.2732 40.282
27.3191 39.9657
27.3651 40.1838
27.4109 40.0053
27.4569 40.0773
27.5027 40.0749
27.5488 40.2022
27.5946 40.1058
27.6407 39.8737
27.6865 39.745
27.7326 39.6702
27.7784 39.5014
27.8245 39.4404
27.8703 39.5954
27.9164 39.8189
27.9623 39.8793
28.0084 40.1884
28.0543 40.4795
28.1003 40.4392
28.1462 40.5601
28.1923 40.2577
28.2384 39.768
28.2843 39.3173
28.3304 38.9899
28.3764 38.4475
28.4225 37.9898
28.4684 37.907
28.5145 37.4757
28.5605 37.4244
28.6066 37.3044
28.6526 37.1012
28.6987 37.1378
28.7447 37.0137
28.7908 36.9263
28.8368 36.9311
28.8829 36.9799
28.9289 36.8825
28.9751 36.6435
29.0211 36.5357
29.0673 36.3085
29.1133 36.1637
29.1595 35.9478
29.2055 35.8915
29.2517 35.7629
29.2977 35.6798
29.3439 35.7896
29.3899 35.6291
29.4361 35.6354
29.4824 35.4508
29.5284 35.3499
29.5746 34.9246
29.6207 34.6705
29.6669 34.4598
29.713 34.5437
29.7593 34.2826
29.8053 34.2568
29.8516 34.2293
29.8977 34.2879
29.9439 33.9949
29.99 34.0719
30.0363 33.8406
30.0824 33.933
30.1287 33.7812
30.1748 33.8281
30.2211 33.8295
30.2673 33.6424
30.3136 33.8228
30.3597 33.7468
30.406 33.6246
30.4522 33.5646
30.4985 33.5682
30.5447 33.6014
30.591 33.3588
30.6372 33.5153
30.6835 33.5024
30.7297 33.4605
30.7761 33.4355
30.8224 33.4163
30.8686 33.273
30.915 33.0457
30.9612 32.9404
31.0076 32.6845
31.0538 32.5311
31.1002 32.5886
31.1464 32.3714
31.1928 32.2371
31.2391 32.258
31.2855 32.211
31.3317 32.2503
31.3781 32.2443
31.4244 32.2572
31.4708 32.0761
31.5171 32.1306
31.5636 32.1765
31.6098 31.9034
31.6563 31.7775
31.7026 31.5771
31.7491 31.3824
31.7953 31.5195
31.8418 31.4139
31.8881 31.4083
31.9346 31.4353
31.9809 31.3853
32.0275 31.2802
32.074 31.1253
32.1203 30.9332
32.1668 30.8506
32.2132 30.6255
32.2597 30.6003
32.306 30.4482
32.3526 30.2415
32.399 30.152
32.4455 30.0709
32.4919 29.9698
32.5385 29.8635
32.5848 29.6753
32.6314 29.6305
32.6778 29.567
32.7244 29.5749
32.7708 29.3798
32.8174 29.4415
32.8638 29.2552
32.9104 29.3658
32.9569 29.2395
33.0035 29.0944
33.0499 29.0513
33.0966 28.9748
33.143 28.9026
33.1897 28.856
33.2361 28.8443
33.2828 28.7673
33.3293 28.5632
33.3759 28.6423
33.4226 28.5075
33.4691 28.3668
33.5158 28.2068
33.5623 28.1418
33.609 27.8201
33.6555 27.8765
33.7022 27.7545
33.7487 27.6427
33.7954 27.6397
33.842 27.5053
33.8887 27.4376
33.9353 27.4246
33.982 27.2865
34.0286 27.2191
34.0753 27.1104
34.1219 27.0528
34.1687 27.0237
34.2152 26.9434
34.262 26.7979
34.3086 26.6614
34.3554 26.6412
34.402 26.4446
34.4488 26.4455
34.4954 26.357
34.5422 26.2155
34.5889 26.1255
34.6357 26.061
34.6825 26.0343
34.7292 25.8667
34.776 25.8336
34.8227 25.7856
34.8695 25.7334
34.9162 25.6122
34.9631 25.5055
35.0098 25.5005
35.0566 25.3957
35.1033 25.3562
35.1502 25.3834
35.1969 25.2727
35.2438 25.0939
35.2906 25.0277
35.3375 25.0406
35.3842 24.9492
35.4311 24.9998
35.4779 24.8821
35.5248 24.8925
35.5716 24.8217
35.6185 24.8128
35.6653 24.6929
35.7123 24.5312
35.759 24.4684
35.806 24.3087
35.8528 24.2352
35.8998 24.237
35.9468 24.0912
35.9936 24.1278
36.0406 24.038
36.0874 23.9462
36.1345 23.8708
36.1813 23.7906
36.2283 23.6864
36.2752 23.6193
36.3222 23.6133
36.3691 23.5716
36.4161 23.3932
36.463 23.426
36.5101 23.368
36.557 23.3062
36.6041 23.0971
36.651 23.164
36.6981 23.0618
36.745 22.9887
36.7921 22.9794
36.839 22.8398
36.8861 22.8048
36.9331 22.6877
36.9802 22.5865
37.0272 22.4145
37.0743 22.4244
37.1213 22.3636
37.1684 22.3005
37.2154 22.3246
37.2626 22.2221
37.3098 22.1605
37.3568 22.0868
37.404 21.9603
37.451 21.9123
37.4982 21.8624
37.5452 21.7666
37.5924 21.6544
37.6395 21.7216
37.6867 21.6308
37.7337 21.5199
37.781 21.4327
37.8281 21.4041
37.8753 21.3002
37.9224 21.2116
37.9697 21.1825
38.0168 21.0947
38.064 20.9081
38.1111 21.0029
38.1584 20.9368
38.2056 20.7851
38.2529 20.8682
38.3 20.7278
38.3473 20.6961
38.3945 20.5327
38.4418 20.5497
38.489 20.4898
38.5363 20.3313
38.5837 20.2991
38.6309 20.2461
38.6782 20.186
38.7254 20.0777
38.7728 20.0615
38.82 19.9477
38.8674 19.8877
38.9146 19.8415
38.9621 19.9024
39.0093 19.7345
39.0567 19.6382
39.104 19.5876
39.1514 19.5527
39.1987 19.4751
39.2461 19.4131
39.2934 19.3949
39.3409 19.2682
39.3882 19.1912
39.4356 19.1559
39.483 19.0441
39.5304 19.0597
39.5778 19.0101
39.6253 18.9387
39.6726 18.8611
39.7201 18.8268
39.7675 18.8062
39.815 18.7037
39.8624 18.6088
39.9099 18.5593
39.9575 18.4757
40.0049 18.4727
40.0525 18.3981
40.0999 18.3569
40.1474 18.3264
40.1949 18.2285
40.2425 18.1451
40.2899 18.092
40.3375 18.0231
40.385 17.9732
40.4326 17.9388
40.48 17.8394
40.5277 17.831
40.5752 17.7727
40.6228 17.7386
40.6703 17.72
40.718 17.5905
40.7655 17.5185
40.8132 17.4806
40.8607 17.4155
40.9084 17.3436
40.9559 17.3345
41.0036 17.2643
41.0512 17.2249
41.0989 17.1442
41.1465 17.0983
41.1942 17.0811
41.242 16.967
41.2896 16.8918
41.3373 16.8269
41.3849 16.82
41.4327 16.7312
41.4803 16.6806
41.5281 16.6843
41.5758 16.5984
41.6236 16.5159
41.6712 16.4629
41.7191 16.3835
41.7667 16.3752
41.8146 16.3287
41.8622 16.2288
41.9101 16.2239
41.9578 16.074
42.0057 16.1339
42.0534 16.0293
42.1013 16.0149
42.149 15.9591
42.1969 15.8637
42.2446 15.8393
42.2925 15.785
42.3403 15.7174
42.3882 15.6728
42.436 15.648
42.4839 15.4691
42.5319 15.5096
42.5797 15.4197
42.6277 15.369
42.6755 15.36
42.7235 15.2752
42.7713 15.2589
42.8193 15.2306
42.8671 15.126
42.9152 15.0728
42.963 15.0352
43.0111 14.974
43.0589 14.9377
43.107 14.8581
43.1549 14.884
43.2029 14.7975
43.2508 14.725
43.2989 14.6784
43.3468 14.6438
43.3949 14.5608
43.4429 14.5612
43.491 14.5144
43.5389 14.4462
43.5871 14.3771
43.635 14.315
43.6832 14.2618
43.7312 14.1836
43.7793 14.18
43.8273 14.1156
43.8755 14.0813
43.9237 14.0173
43.9717 13.9852
44.0199 14.003
44.068 13.8709
44.1162 13.812
44.1642 13.7848
44.2125 13.8284
44.2606 13.741
44.3088 13.6223
44.3569 13.6238
44.4052 13.6038
44.4533 13.4838
44.5016 13.4399
44.5497 13.4686
44.598 13.3845
44.6461 13.2562
44.6945 13.334
44.7426 13.227
44.791 13.118
44.8391 13.134
44.8875 13.1006
44.9357 13.0392
44.984 12.9827
45.0322 12.9043
45.0806 12.9041
45.1288 12.8748
45.1773 12.8228
45.2257 12.7927
45.2739 12.6798
45.3224 12.6542
45.3706 12.6262
45.4191 12.5981
45.4673 12.5572
45.5158 12.4652
45.5641 12.4043
45.6126 12.3992
45.6609 12.3138
45.7094 12.2557
45.7577 12.2214
45.8063 12.1871
45.8546 12.1955
45.9031 12.0929
45.9515 12.0857
46.0001 12.0286
46.0484 12.0406
46.097 11.9961
46.1454 11.928
46.194 11.9637
46.2424 11.878
46.291 11.7836
46.3395 11.7383
46.3881 11.6864
46.4365 11.6722
46.4852 11.5853
46.5337 11.5955
46.5823 11.5733
46.631 11.4706
46.6795 11.4637
46.7282 11.4217
46.7767 11.3621
46.8254 11.3198
46.8739 11.2825
46.9226 11.2302
46.9712 11.2106
47.0199 11.1611
47.0685 11.1069
47.1173 11.1118
47.1658 11.0621
47.2146 10.9931
47.2632 10.9659
47.312 10.9253
47.3606 10.8593
47.4095 10.8362
47.4581 10.8207
47.5069 10.7489
47.5556 10.7124
47.6044 10.6322
47.6531 10.5994
47.702 10.616
47.7507 10.5537
47.7996 10.5416
47.8483 10.5245
47.8972 10.4548
47.9461 10.4278
47.9948 10.3801
48.0438 10.3515
48.0925 10.2815
48.1415 10.2817
48.1902 10.2075
48.2392 10.2128
48.288 10.159
48.337 10.1055
48.3858 10.0335
48.4348 10.0506
48.4837 10.0345
48.5327 9.97569
48.5815 9.8752
48.6306 9.88944
48.6795 9.89727
48.7285 9.81694
48.7774 9.77301
48.8265 9.75435
48.8754 9.69277
48.9245 9.70735
48.9734 9.61432
49.0226 9.63759
49.0715 9.53347
49.1206 9.54385
49.1696 9.4872
49.2188 9.43028
49.2679 9.38847
49.3169 9.37958
49.3661 9.36189
49.4151 9.3022
49.4643 9.26551
49.5134 9.24177
49.5626 9.19922
49.6117 9.18144
49.6609 9.16155
49.71 9.08261
49.7592 9.06542
49.8083 9.02263
49.8576 9.01621
49.9067 8.95374
49.956 8.89194
50.0052 8.85764
50.0545 8.87927
50.1036 8.80321
50.153 8.81452
50.2022 8.75962
50.2515 8.69237
50.3007 8.69663
50.3501 8.64904
50.3993 8.59734
50.4487 8.56752
50.498 8.56854
50.5474 8.54039
50.5966 8.50837
50.6461 8.48676
50.6955 8.41628
50.7448 8.3916
50.7943 8.34342
50.8436 8.33151
50.8931 8.27362
50.9424 8.30035
50.9919 8.21462
51.0413 8.17303
51.0908 8.13866
51.1402 8.14481
51.1897 8.0635
51.2391 8.05679
51.2887 7.9929
51.3381 7.97018
51.3877 7.97638
51.4371 7.94429
51.4867 7.92832
51.5362 7.86377
51.5858 7.83338
51.6353 7.80192
51.6849 7.80149
51.7344 7.75976
51.7841 7.75199
51.8336 7.65395
51.8833 7.66314
51.9328 7.57539
51.9826 7.55087
52.0323 7.5101
52.0818 7.48736
52.1316 7.44564
52.1812 7.48098
52.231 7.38481
52.2806 7.38426
52.3304 7.35184
52.38 7.33822
52.4298 7.3051
52.4794 7.24315
52.5293 7.20401
52.5789 7.21404
52.6288 7.16799
52.6785 7.17616
52.7284 7.11217
52.7781 7.09339
52.828 7.07364
52.8777 7.04311
52.9276 6.98813
52.9774 6.97851
53.0273 6.92438
53.0771 6.9252
53.1271 6.8741
53.1769 6.80331
53.2269 6.85206
53.2767 6.7863
53.3267 6.74641
53.3765 6.73594
53.4266 6.71805
53.4766 6.69652
53.5265 6.58833
53.5765 6.62973
53.6264 6.60909
53.6765 6.56609
53.7264 6.51864
53.7765 6.53912
53.8265 6.51602
53.8766 6.39884
53.9266 6.43376
53.9767 6.39848
54.0267 6.38642
54.0769 6.32862
54.1269 6.31539
54.1771 6.23264
54.2271 6.20947
54.2773 6.16775
54.3274 6.20089
54.3776 6.13647
54.4277 6.08478
54.478 6.0917
54.528 5.99869
54.5783 5.98232
54.6285 5.96295
54.6788 5.88499
54.7289 5.89138
54.7792 5.79612
54.8296 5.7418
54.8798 5.70364
54.9301 5.67395
54.9803 5.72585
55.0307 5.66227
55.0809 5.57201
55.1314 5.53127
55.1816 5.45046
55.232 5.4726
55.2823 5.39395
55.3328 5.32389
55.383 5.29594
55.4335 5.19013
55.4838 5.18123
55.5344 5.08755
55.5847 5.09788
55.6352 5.1454
55.6856 5.05813
55.7361 4.98203