File: XRD/Ni3Fe_FD0329.xy
TT I
1.27165 7.50598
1.31627 7.17762
1.36089 7.53069
1.40551 7.14023
1.45013 6.45809
1.49476 5.84013
1.53938 5.94739
1.584 5.71935
1.62863 5.5138
1.67325 5.06889
1.71787 5.58737
1.7625 5.15249
1.80712 5.29962
1.85174 4.62448
1.89636 5.46076
1.94099 4.57461
1.98562 4.76301
2.03025 4.64255
2.07487 4.69436
2.11949 4.97939
2.16411 5.03777
2.20874 13.0839
2.25338 18.5196
2.298 5.82791
2.34263 5.45649
2.38725 5.19281
2.43188 5.40443
2.4765 6.14234
2.52115 5.84395
2.56577 6.316
2.6104 6.85325
2.65503 6.69195
2.69965 7.60253
2.7443 7.30279
2.78893 7.74566
2.83356 7.72499
2.87818 8.84198
2.92281 8.41312
2.96744 9.56663
3.01209 10.478
3.05672 11.4068
3.10135 12.2716
3.14599 13.086
3.19062 14.4237
3.23527 15.4988
3.2799 15.5784
3.32454 17.1468
3.36917 17.8379
3.4138 18.9517
3.45844 19.9834
3.50309 21.5935
3.54773 21.9156
3.59237 23.8638
3.637 78.3188
3.68164 51.3093
3.7263 26.407
3.77094 26.4902
3.81558 27.407
3.86022 28.2543
3.90486 29.4779
3.9495 30.461
3.99416 31.3407
4.0388 32.6753
4.08344 34.1347
4.12809 35.1637
4.17273 37.0262
4.21738 42.8833
4.26204 206.446
4.30669 177.656
4.35133 48.1224
4.39598 45.2865
4.44063 53.2106
4.4853 62.5887
4.52995 52.8475
4.5746 53.0693
4.61925 54.8085
4.6639 56.6984
4.70855 59.9082
4.75322 63.0762
4.79788 66.1109
4.84253 69.6711
4.88719 74.1966
4.93184 78.0308
4.97652 84.3576
5.02118 91.1484
5.06583 100.831
5.11049 115.011
5.15515 185.13
5.19981 552.026
5.24449 3510.03
5.28916 11429.9
5.33382 3564.12
5.37848 229.062
5.42315 140.264
5.46783 120.892
5.5125 111.165
5.55716 106.218
5.60183 101.706
5.6465 100.51
5.69117 98.1922
5.73586 96.1015
5.78053 96.4915
5.8252 96.4361
5.86988 97.8802
5.91455 101.705
5.95924 114.656
6.00392 294.586
6.0486 1219.11
6.09328 4034.28
6.13795 3445.21
6.18263 297.228
6.22733 100.877
6.27201 86.3156
6.3167 99.4794
6.36138 80.942
6.40606 71.5423
6.45075 69.5469
6.49545 67.1621
6.54014 65.5898
6.58483 64.4996
6.62952 64.001
6.67421 87.7595
6.71892 127.461
6.76361 67.9508
6.8083 60.45
6.853 58.9428
6.89769 58.3131
6.94239 58.208
6.98711 56.9139
7.03181 56.5526
7.07651 56.3398
7.12121 56.6753
7.16591 56.3475
7.21063 56.6261
7.25533 68.304
7.30004 151.572
7.34475 84.7083
7.38945 57.3224
7.43416 55.6082
7.47889 55.9896
7.5236 55.9619
7.56831 56.6019
7.61303 58.0897
7.65774 58.6427
7.70247 57.8234
7.74719 57.8051
7.79191 58.0157
7.83663 58.4409
7.88135 59.2861
7.92607 60.5268
7.97081 61.1747
8.01553 62.8028
8.06026 63.9322
8.10498 65.6893
8.14971 73.8166
8.19446 73.6398
8.23919 71.5825
8.28392 74.4628
8.32865 76.7747
8.37339 81.4064
8.41812 88.9307
8.46288 117.42
8.50761 210.286
8.55235 478.235
8.59709 1154.91
8.64183 2111.85
8.68658 1104.21
8.73134 186.307
8.77609 105.204
8.82083 96.0191
8.86558 92.455
8.91033 92.3753
8.9551 93.2134
8.99985 87.8159
9.04461 85.9817
9.08936 85.8254
9.13412 84.6235
9.17888 84.2675
9.22365 85.0674
9.26841 84.2733
9.31318 85.7658
9.35794 85.6799
9.4027 85.6618
9.44749 86.6526
9.49226 87.4974
9.53703 88.516
9.5818 90.3818
9.62657 94.3217
9.67134 99.5409
9.71614 96.0551
9.76091 97.6431
9.80569 99.6855
9.85047 103.285
9.89525 124.344
9.94005 140.88
9.98484 219.15
10.0296 420.134
10.0744 842.856
10.1192 1616.21
10.164 1711.46
10.2088 493.993
10.2536 140.032
10.2984 117.283
10.3432 117.198
10.388 109.439
10.4328 132.012
10.4776 182.587
10.5224 290.269
10.5672 482.049
10.612 524.796
10.6568 220.62
10.7017 100.521
10.7465 89.7983
10.7913 85.8748
10.8361 83.4523
10.8809 81.0153
10.9257 80.3618
10.9706 80.5864
11.0154 76.9199
11.0602 74.9462
11.105 73.7549
11.1499 76.7609
11.1947 82.206
11.2395 75.139
11.2844 71.8996
11.3292 68.901
11.374 67.9497
11.4189 67.4693
11.4637 66.7581
11.5086 66.7137
11.5534 69.0459
11.5983 66.8572
11.6431 65.5673
11.688 64.5044
11.7328 64.7227
11.7777 64.5867
11.8225 64.1789
11.8674 63.9017
11.9122 64.7705
11.9571 64.8671
12.002 65.92
12.0468 72.5724
12.0917 86.0106
12.1366 108.531
12.1814 149.165
12.2263 199.707
12.2712 177.697
12.3161 101.244
12.3609 72.1536
12.4058 66.6652
12.4507 66.2035
12.4956 66.2577
12.5405 66.3725
12.5853 67.4597
12.6302 73.1955
12.6751 77.9303
12.72 71.0515
12.7649 69.9502
12.8098 70.3994
12.8547 71.6372
12.8996 73.2196
12.9445 74.6229
12.9894 76.4155
13.0343 78.4849
13.0792 82.2795
13.1242 96.2669
13.1691 125.201
13.214 164.533
13.2589 242.066
13.3038 348.424
13.3487 427.883
13.3937 286.745
13.4386 133.947
13.4835 116.172
13.5285 133.821
13.5734 169.951
13.6183 239.399
13.6633 328.349
13.7082 343.016
13.7531 205.434
13.7981 103.106
13.843 84.6632
13.888 82.2166
13.9329 79.3256
13.9779 78.1443
14.0228 76.6688
14.0678 75.2766
14.1127 74.8591
14.1577 74.5041
14.2027 73.7109
14.2476 72.2913
14.2926 72.4915
14.3376 73.2792
14.3825 72.0998
14.4275 71.039
14.4725 70.6742
14.5175 71.1418
14.5624 71.0924
14.6074 72.9201
14.6524 73.5594
14.6974 72.7206
14.7424 75.7694
14.7874 84.7789
14.8324 96.9876
14.8774 117.812
14.9224 152.339
14.9674 198.927
15.0124 219.244
15.0574 157.854
15.1024 94.9635
15.1474 74.754
15.1924 72.4987
15.2374 72.5561
15.2824 71.9454
15.3274 70.1084
15.3725 68.6566
15.4175 68.4552
15.4625 68.2658
15.5076 68.1247
15.5526 68.2444
15.5976 67.9779
15.6426 70.1934
15.6877 77.8384
15.7327 86.467
15.7778 101.397
15.8228 126.94
15.8679 162.435
15.9129 192.733
15.958 166.308
16.003 103.736
16.0481 70.5137
16.0931 66.2001
16.1382 64.0801
16.1833 62.3834
16.2283 60.7909
16.2734 59.9875
16.3185 60.2332
16.3636 60.5533
16.4086 59.1387
16.4537 57.8197
16.4988 57.1137
16.5439 57.0931
16.589 56.8293
16.6341 56.5226
16.6792 56.1065
16.7243 56.5036
16.7694 56.4192
16.8145 56.3591
16.8596 56.8345
16.9047 58.1151
16.9498 58.2822
16.9949 57.4565
17.04 57.716
17.0851 59.4592
17.1302 61.3195
17.1754 64.278
17.2205 68.9121
17.2656 74.7198
17.3108 82.6901
17.3559 84.1513
17.401 74.4362
17.4462 64.5933
17.4913 61.0098
17.5365 61.0783
17.5815 60.9572
17.6268 61.3139
17.6718 62.2056
17.7171 62.5909
17.7622 63.3949
17.8074 64.1772
17.8525 67.758
17.8977 72.5245
17.9428 78.4145
17.9881 87.0467
18.0331 101.079
18.0784 118.947
18.1237 139.69
18.1688 138.118
18.214 111.937
18.2591 91.0278
18.3044 91.5526
18.3495 98.8471
18.3948 106.948
18.4399 99.9063
18.4852 80.7225
18.5303 68.2267
18.5756 64.0868
18.6207 63.1792
18.666 62.2916
18.7112 61.4397
18.7565 60.804
18.8016 60.2034
18.8469 59.7183
18.892 59.4131
18.9374 59.072
18.9825 58.9464
19.0278 58.7644
19.073 58.9261
19.1183 59.6376
19.1635 60.3843
19.2088 61.9768
19.254 64.2395
19.2993 67.6028
19.3447 72.5935
19.3898 77.3617
19.4352 74.8399
19.4804 66.2596
19.5257 58.9325
19.5709 55.9234
19.6163 55.3936
19.6615 55.4826
19.7068 55.1323
19.752 55.1654
19.7974 55.5121
19.8426 56.3694
19.888 56.9326
19.9332 58.501
19.9786 60.6091
20.0238 63.7105
20.0692 68.1078
20.1144 71.3219
20.1598 71.2018
20.205 66.2151
20.2504 63.7592
20.2957 64.365
20.3411 66.4982
20.3863 66.1455
20.4318 60.7719
20.477 55.7201
20.5224 53.1413
20.5677 52.4511
20.6131 51.8699
20.6586 51.221
20.7038 51.3224
20.7493 50.5381
20.7945 50.403
20.84 50.2827
20.8853 50.2197
20.9307 50.1702
20.976 50.2799
21.0215 50.0638
21.0668 50.7207
21.1122 51.1469
21.1575 51.4365
21.203 52.148
21.2483 52.7636
21.2938 53.2108
21.3391 51.9188
21.3846 50.6008
21.4299 50.0726
21.4754 49.8344
21.5207 50.3256
21.5662 50.679
21.6116 50.9841
21.6571 51.9016
21.7024 52.7993
21.7479 54.5054
21.7933 56.9862
21.8388 60.1112
21.8843 63.5641
21.9297 66.4266
21.9752 65.8296
22.0206 62.0756
22.0661 58.165
22.1115 57.2361
22.157 57.5403
22.2024 56.1299
22.248 53.3253
22.2933 51.6006
22.3389 50.4878
22.3843 50.5162
22.4299 50.3516
22.4753 50.32
22.5208 50.1385
22.5662 50.1217
22.6118 50.3958
22.6572 50.5948
22.7028 51.0255
22.7483 51.4577
22.7939 52.2383
22.8393 53.6429
22.8849 55.3821
22.9303 57.0334
22.9759 58.9076
23.0214 59.221
23.067 56.6644
23.1126 52.9858
23.1581 50.902
23.2037 50.3709
23.2492 50.5209
23.2948 50.6755
23.3403 50.9619
23.3859 51.6347
23.4314 52.3276
23.477 53.913
23.5225 55.6294
23.5682 57.5312
23.6137 59.3569
23.6593 57.751
23.7048 53.7369
23.7505 50.0241
23.796 48.2413
23.8417 47.4408
23.8872 46.8926
23.9329 46.7005
23.9784 46.3873
24.0241 46.1359
24.0697 45.8575
24.1154 45.5774
24.1609 45.2244
24.2066 45.0548
24.2522 45.133
24.2979 44.744
24.3434 44.7349
24.3892 44.4844
24.4349 44.5039
24.4805 44.1725
24.5262 44.3517
24.5718 44.3101
24.6175 44.364
24.6631 44.0822
24.7089 43.8991
24.7545 43.6714
24.8002 43.6294
24.8458 43.5309
24.8916 43.492
24.9372 43.3668
24.983 43.7588
25.0286 44.2328
25.0744 44.4646
25.12 44.93
25.1658 45.7365
25.2114 46.1162
25.2572 45.8827
25.3029 45.9043
25.3487 46.0514
25.3943 46.0971
25.4402 45.1832
25.4858 43.926
25.5316 42.8116
25.5773 42.217
25.6231 42.1785
25.669 41.6426
25.7147 41.8571
25.7605 41.723
25.8062 41.7317
25.8521 41.9481
25.8977 41.8925
25.9436 42.1383
25.9893 42.214
26.0352 42.5583
26.0809 42.7066
26.1268 42.9604
26.1725 42.9176
26.2184 42.2164
26.2641 41.6149
26.31 41.4061
26.3557 41.4329
26.4017 41.4321
26.4474 41.651
26.4933 41.976
26.5391 42.4225
26.585 42.8962
26.6308 43.2165
26.6767 43.4457
26.7225 43.1515
26.7684 42.8129
26.8142 42.1105
26.8601 41.6027
26.9059 41.257
26.9519 40.6653
26.9979 40.4324
27.0437 40.1703
27.0896 39.8452
27.1354 39.9156
27.1814 39.8336
27.2272 39.8668
27.2732 39.5544
27.3191 39.4573
27.3651 39.7477
27.4109 39.5694
27.4569 39.6277
27.5027 39.6308
27.5488 39.8238
27.5946 39.5631
27.6407 39.3307
27.6865 39.3512
27.7326 39.0083
27.7784 39.0609
27.8245 39.1008
27.8703 39.0858
27.9164 39.4215
27.9623 39.4956
28.0084 39.8687
28.0543 40.1749
28.1003 40.2797
28.1462 40.0711
28.1923 39.6148
28.2384 39.0631
28.2843 38.7973
28.3304 38.3999
28.3764 37.8531
28.4225 37.5359
28.4684 37.3613
28.5145 37.1085
28.5605 37.0181
28.6066 36.7831
28.6526 36.7002
28.6987 36.7251
28.7447 36.6856
28.7908 36.3699
28.8368 36.5008
28.8829 36.4786
28.9289 36.3771
28.9751 36.3397
29.0211 36.1702
29.0673 35.7233
29.1133 35.6527
29.1595 35.5277
29.2055 35.3303
29.2517 35.3478
29.2977 35.2658
29.3439 35.3072
29.3899 35.29
29.4361 35.1318
29.4824 34.9557
29.5284 34.8047
29.5746 34.508
29.6207 34.1381
29.6669 34.0359
29.713 33.8936
29.7593 33.8778
29.8053 33.8824
29.8516 33.816
29.8977 33.7489
29.9439 33.6824
29.99 33.6294
30.0363 33.4761
30.0824 33.617
30.1287 33.3879
30.1748 33.4694
30.2211 33.3587
30.2673 33.2778
30.3136 33.3839
30.3597 33.3574
30.406 33.1474
30.4522 33.0995
30.4985 33.0456
30.5447 33.2397
30.591 33.0271
30.6372 33.2118
30.6835 33.1161
30.7297 33.2228
30.7761 33.2488
30.8224 33.0008
30.8686 32.8894
30.915 32.6159
30.9612 32.4957
31.0076 32.3185
31.0538 32.1431
31.1002 32.1265
31.1464 31.958
31.1928 31.8781
31.2391 31.8867
31.2855 31.7811
31.3317 31.8799
31.3781 31.824
31.4244 31.8507
31.4708 31.7736
31.5171 31.7652
31.5636 31.712
31.6098 31.5492
31.6563 31.2288
31.7026 31.2822
31.7491 31.0081
31.7953 31.1702
31.8418 31.0684
31.8881 31.0684
31.9346 30.9467
31.9809 30.9237
32.0275 30.8195
32.074 30.809
32.1203 30.5836
32.1668 30.5225
32.2132 30.2946
32.2597 30.1873
32.306 30.1417
32.3526 29.8078
32.399 29.8054
32.4455 29.7263
32.4919 29.5567
32.5385 29.5898
32.5848 29.4034
32.6314 29.3164
32.6778 29.4033
32.7244 29.0527
32.7708 29.0576
32.8174 28.9512
32.8638 28.8284
32.9104 28.9533
32.9569 28.8725
33.0035 28.731
33.0499 28.7099
33.0966 28.693
33.143 28.6413
33.1897 28.472
33.2361 28.4293
33.2828 28.3931
33.3293 28.3106
33.3759 28.1855
33.4226 28.0458
33.4691 27.9352
33.5158 27.9145
33.5623 27.7395
33.609 27.5673
33.6555 27.5673
33.7022 27.4058
33.7487 27.3314
33.7954 27.2434
33.842 27.211
33.8887 27.1581
33.9353 27.0304
33.982 26.9741
34.0286 26.935
34.0753 26.847
34.1219 26.7194
34.1687 26.6183
34.2152 26.6014
34.262 26.4413
34.3086 26.3771
34.3554 26.2976
34.402 26.1096
34.4488 26.0415
34.4954 26.038
34.5422 25.9702
34.5889 25.7763
34.6357 25.7664
34.6825 25.7016
34.7292 25.5639
34.776 25.4955
34.8227 25.4446
34.8695 25.4603
34.9162 25.3727
34.9631 25.203
35.0098 25.273
35.0566 25.1432
35.1033 25.0005
35.1502 24.9883
35.1969 24.9754
35.2438 24.8666
35.2906 24.8239
35.3375 24.7747
35.3842 24.7057
35.4311 24.669
35.4779 24.6752
35.5248 24.6355
35.5716 24.4514
35.6185 24.4169
35.6653 24.3404
35.7123 24.2785
35.759 24.1833
35.806 24.0393
35.8528 23.8737
35.8998 23.8972
35.9468 23.7936
35.9936 23.804
36.0406 23.7143
36.0874 23.6858
36.1345 23.6295
36.1813 23.4601
36.2283 23.3873
36.2752 23.3285
36.3222 23.3125
36.3691 23.2081
36.4161 23.1332
36.463 23.0958
36.5101 23.048
36.557 23.0749
36.6041 22.8579
36.651 22.8458
36.6981 22.827
36.745 22.6748
36.7921 22.6351
36.839 22.4919
36.8861 22.4251
36.9331 22.4411
36.9802 22.3624
37.0272 22.1705
37.0743 22.1414
37.1213 22.1355
37.1684 22.0368
37.2154 22.021
37.2626 21.9418
37.3098 21.836
37.3568 21.8024
37.404 21.719
37.451 21.5755
37.4982 21.578
37.5452 21.5031
37.5924 21.4385
37.6395 21.4744
37.6867 21.3117
37.7337 21.2258
37.781 21.1271
37.8281 21.092
37.8753 21.0057
37.9224 20.9444
37.9697 20.9409
38.0168 20.8608
38.064 20.7406
38.1111 20.6842
38.1584 20.6498
38.2056 20.4754
38.2529 20.5298
38.3 20.4779
38.3473 20.3898
38.3945 20.2844
38.4418 20.2693
38.489 20.2058
38.5363 20.0973
38.5837 20.0303
38.6309 19.9524
38.6782 19.9387
38.7254 19.7738
38.7728 19.7678
38.82 19.6928
38.8674 19.6441
38.9146 19.6024
38.9621 19.5655
39.0093 19.4613
39.0567 19.4531
39.104 19.3773
39.1514 19.2874
39.1987 19.2309
39.2461 19.1057
39.2934 19.1324
39.3409 19.0518
39.3882 18.9179
39.4356 18.8557
39.483 18.8598
39.5304 18.7903
39.5778 18.7327
39.6253 18.6706
39.6726 18.6104
39.7201 18.5929
39.7675 18.5841
39.815 18.4453
39.8624 18.3544
39.9099 18.3772
39.9575 18.2242
40.0049 18.2222
40.0525 18.1224
40.0999 18.091
40.1474 18.0975
40.1949 17.945
40.2425 17.9567
40.2899 17.9093
40.3375 17.8303
40.385 17.7095
40.4326 17.7267
40.48 17.5893
40.5277 17.5641
40.5752 17.5395
40.6228 17.4432
40.6703 17.3635
40.718 17.3255
40.7655 17.3539
40.8132 17.2338
40.8607 17.2839
40.9084 17.1423
40.9559 17.131
41.0036 17.0599
41.0512 16.9809
41.0989 16.9744
41.1465 16.8805
41.1942 16.8573
41.242 16.7012
41.2896 16.6611
41.3373 16.6175
41.3849 16.5712
41.4327 16.569
41.4803 16.4264
41.5281 16.4436
41.5758 16.3599
41.6236 16.262
41.6712 16.2421
41.7191 16.2511
41.7667 16.1831
41.8146 16.1023
41.8622 16.0682
41.9101 16.0074
41.9578 15.9328
42.0057 15.8818
42.0534 15.8436
42.1013 15.7905
42.149 15.7306
42.1969 15.6566
42.2446 15.6222
42.2925 15.5642
42.3403 15.5248
42.3882 15.4844
42.436 15.4017
42.4839 15.3201
42.5319 15.357
42.5797 15.2835
42.6277 15.2358
42.6755 15.1895
42.7235 15.1016
42.7713 15.0527
42.8193 14.974
42.8671 14.9252
42.9152 14.8919
42.963 14.8625
43.0111 14.7782
43.0589 14.75
43.107 14.724
43.1549 14.6686
43.2029 14.6012
43.2508 14.5278
43.2989 14.5073
43.3468 14.4017
43.3949 14.3832
43.4429 14.3418
43.491 14.3105
43.5389 14.2139
43.5871 14.2271
43.635 14.1297
43.6832 14.0351
43.7312 14.0494
43.7793 13.9579
43.8273 13.9734
43.8755 13.868
43.9237 13.8422
43.9717 13.8322
44.0199 13.7757
44.068 13.7636
44.1162 13.6754
44.1642 13.6636
44.2125 13.567
44.2606 13.5515
44.3088 13.4532
44.3569 13.4024
44.4052 13.3965
44.4533 13.3072
44.5016 13.3101
44.5497 13.2155
44.598 13.2149
44.6461 13.1508
44.6945 13.1098
44.7426 13.0365
44.791 13.0487
44.8391 13.0115
44.8875 12.9225
44.9357 12.9193
44.984 12.8284
45.0322 12.802
45.0806 12.7105
45.1288 12.7177
45.1773 12.6547
45.2257 12.6194
45.2739 12.5303
45.3224 12.531
45.3706 12.4827
45.4191 12.3727
45.4673 12.3775
45.5158 12.3375
45.5641 12.2334
45.6126 12.2692
45.6609 12.2211
45.7094 12.143
45.7577 12.1319
45.8063 12.0133
45.8546 12.0721
45.9031 11.9892
45.9515 11.9481
46.0001 11.8836
46.0484 11.8991
46.097 11.8009
46.1454 11.8156
46.194 11.7547
46.2424 11.6682
46.291 11.6243
46.3395 11.5957
46.3881 11.534
46.4365 11.5082
46.4852 11.4669
46.5337 11.4362
46.5823 11.4082
46.631 11.3194
46.6795 11.3466
46.7282 11.2432
46.7767 11.2217
46.8254 11.1732
46.8739 11.1295
46.9226 11.0987
46.9712 11.0746
47.0199 11.0299
47.0685 10.9866
47.1173 10.9485
47.1658 10.8842
47.2146 10.8629
47.2632 10.7927
47.312 10.787
47.3606 10.7609
47.4095 10.6815
47.4581 10.6573
47.5069 10.6056
47.5556 10.5768
47.6044 10.5051
47.6531 10.4971
47.702 10.4216
47.7507 10.3967
47.7996 10.3639
47.8483 10.3927
47.8972 10.3242
47.9461 10.2966
47.9948 10.1999
48.0438 10.2459
48.0925 10.197
48.1415 10.1256
48.1902 10.0922
48.2392 10.1001
48.288 10.0327
48.337 9.98757
48.3858 9.94787
48.4348 9.91425
48.4837 9.9266
48.5327 9.82692
48.5815 9.79437
48.6306 9.76606
48.6795 9.76349
48.7285 9.68539
48.7774 9.65366
48.8265 9.64717
48.8754 9.60444
48.9245 9.52182
48.9734 9.52875
49.0226 9.50387
49.0715 9.4506
49.1206 9.38664
49.1696 9.37747
49.2188 9.32827
49.2679 9.31194
49.3169 9.25546
49.3661 9.24215
49.4151 9.18759
49.4643 9.16858
49.5134 9.10556
49.5626 9.10407
49.6117 9.02716
49.6609 9.04107
49.71 9.00091
49.7592 8.94562
49.8083 8.90865
49.8576 8.87344
49.9067 8.83922
49.956 8.82022
50.0052 8.77328
50.0545 8.77064
50.1036 8.69076
50.153 8.68548
50.2022 8.65863
50.2515 8.62466
50.3007 8.56047
50.3501 8.54344
50.3993 8.53506
50.4487 8.47739
50.498 8.43691
50.5474 8.41462
50.5966 8.37111
50.6461 8.33675
50.6955 8.30449
50.7448 8.2938
50.7943 8.24551
50.8436 8.22053
50.8931 8.18851
50.9424 8.14397
50.9919 8.09399
51.0413 8.05468
51.0908 8.05144
51.1402 7.99983
51.1897 8.00846
51.2391 7.97594
51.2887 7.94147
51.3381 7.89228
51.3877 7.88425
51.4371 7.83461
51.4867 7.76487
51.5362 7.79287
51.5858 7.73096
51.6353 7.65642
51.6849 7.65943
51.7344 7.62603
51.7841 7.62784
51.8336 7.56069
51.8833 7.55424
51.9328 7.51092
51.9826 7.4781
52.0323 7.44851
52.0818 7.40473
52.1316 7.37874
52.1812 7.37466
52.231 7.32197
52.2806 7.29872
52.3304 7.27438
52.38 7.24849
52.4298 7.22271
52.4794 7.18823
52.5293 7.15704
52.5789 7.1218
52.6288 7.13294
52.6785 7.00995
52.7284 7.06792
52.7781 7.01114
52.828 6.98104
52.8777 6.93918
52.9276 6.90126
52.9774 6.88651
53.0273 6.84052
53.0771 6.86353
53.1271 6.80006
53.1769 6.77889
53.2269 6.76385
53.2767 6.72315
53.3267 6.65807
53.3765 6.68267
53.4266 6.63094
53.4766 6.60717
53.5265 6.55983
53.5765 6.52927
53.6264 6.52289
53.6765 6.47807
53.7264 6.44667
53.7765 6.43509
53.8265 6.38496
53.8766 6.37959
53.9266 6.33921
53.9767 6.2927
54.0267 6.28928
54.0769 6.23776
54.1269 6.21836
54.1771 6.17631
54.2271 6.1824
54.2773 6.10285
54.3274 6.11237
54.3776 6.05949
54.4277 6.06346
54.478 6.04491
54.528 5.9562
54.5783 5.92654
54.6285 5.85763
54.6788 5.83807
54.7289 5.79042
54.7792 5.77416
54.8296 5.69063
54.8798 5.68431
54.9301 5.61771
54.9803 5.60357
55.0307 5.53288
55.0809 5.58073
55.1314 5.49896
55.1816 5.422
55.232 5.33583
55.2823 5.36895
55.3328 5.29322
55.383 5.21866
55.4335 5.26435
55.4838 5.14365
55.5344 5.12295
55.5847 5.0417
55.6352 5.02004
55.6856 5.00229
55.7361 4.91762