File: XRD/Ni3Fe_FD0986.xy
TT I
1.27165 7.42272
1.31627 6.61799
1.36089 6.71299
1.40551 5.70911
1.45013 5.99063
1.49476 6.44563
1.53938 5.95404
1.584 5.17411
1.62863 5.40188
1.67325 5.24569
1.71787 4.70596
1.7625 4.98489
1.80712 5.14795
1.85174 4.60582
1.89636 4.60915
1.94099 5.44654
1.98562 4.88769
2.03025 5.70493
2.07487 4.45234
2.11949 5.03108
2.16411 5.56609
2.20874 15.5213
2.25338 25.3303
2.298 6.77612
2.34263 6.11457
2.38725 6.86951
2.43188 7.06048
2.4765 7.96443
2.52115 6.90776
2.56577 8.34897
2.6104 8.39221
2.65503 8.38179
2.69965 8.42252
2.7443 8.92563
2.78893 7.86842
2.83356 8.9041
2.87818 8.96463
2.92281 8.96254
2.96744 10.6833
3.01209 10.8685
3.05672 11.5207
3.10135 12.2353
3.14599 13.6304
3.19062 15.2024
3.23527 15.7229
3.2799 16.3458
3.32454 16.8402
3.36917 17.4752
3.4138 19.518
3.45844 19.7821
3.50309 21.1136
3.54773 21.5284
3.59237 23.8941
3.637 98.4161
3.68164 62.7877
3.7263 26.6014
3.77094 26.1215
3.81558 26.782
3.86022 27.2672
3.90486 28.6604
3.9495 29.7884
3.99416 30.6176
4.0388 32.3102
4.08344 33.1557
4.12809 34.6454
4.17273 37.0777
4.21738 42.9399
4.26204 268.075
4.30669 238.378
4.35133 48.9977
4.39598 44.4357
4.44063 54.0711
4.4853 67.1542
4.52995 49.4771
4.5746 50.1863
4.61925 52.3005
4.6639 53.9112
4.70855 57.1799
4.75322 59.6886
4.79788 62.6502
4.84253 65.6028
4.88719 69.386
4.93184 72.9679
4.97652 78.2342
5.02118 84.1699
5.06583 91.034
5.11049 100.788
5.15515 166.622
5.19981 270.431
5.24449 2249.85
5.28916 13445.1
5.33382 2779.87
5.37848 172.743
5.42315 123.28
5.46783 110.244
5.5125 103.108
5.55716 99.3197
5.60183 95.9847
5.6465 94.4944
5.69117 91.724
5.73586 89.4085
5.78053 89.0525
5.8252 88.3778
5.86988 88.8806
5.91455 90.5563
5.95924 95.3034
6.00392 164.157
6.0486 771.336
6.09328 4594.83
6.13795 3292.19
6.18263 214.909
6.22733 89.6186
6.27201 80.6353
6.3167 103.082
6.36138 80.6982
6.40606 67.6306
6.45075 66.099
6.49545 64.1651
6.54014 62.7502
6.58483 61.9875
6.62952 62.2286
6.67421 95.8311
6.71892 151.547
6.76361 69.5508
6.8083 57.5567
6.853 56.4964
6.89769 55.7803
6.94239 55.6501
6.98711 54.7418
7.03181 54.6771
7.07651 54.1444
7.12121 54.5071
7.16591 54.5633
7.21063 54.8769
7.25533 71.1483
7.30004 191.157
7.34475 95.6975
7.38945 56.1299
7.43416 54.0205
7.47889 53.8289
7.5236 54.0658
7.56831 54.7904
7.61303 56.2296
7.65774 56.3542
7.70247 55.146
7.74719 55.3741
7.79191 55.7862
7.83663 55.6617
7.88135 56.6896
7.92607 57.4121
7.97081 58.6577
8.01553 59.6919
8.06026 61.1954
8.10498 62.4588
8.14971 72.8469
8.19446 71.5692
8.23919 68.2862
8.28392 70.1958
8.32865 72.4112
8.37339 76.0046
8.41812 82.7746
8.46288 111.586
8.50761 139.983
8.55235 318.186
8.59709 1112.92
8.64183 2346.31
8.68658 935.757
8.73134 160.106
8.77609 96.6427
8.82083 90.7729
8.86558 87.4413
8.91033 88.1566
8.9551 90.3934
8.99985 84.1015
9.04461 81.8559
9.08936 81.184
9.13412 80.7281
9.17888 80.4169
9.22365 81.4675
9.26841 80.0608
9.31318 80.6835
9.35794 80.7913
9.4027 81.5488
9.44749 81.9655
9.49226 82.8468
9.53703 83.3196
9.5818 85.5455
9.62657 89.9203
9.67134 97.385
9.71614 91.7085
9.76091 91.304
9.80569 94.3485
9.85047 97.1795
9.89525 122.568
9.94005 133.881
9.98484 151.868
10.0296 289.105
10.0744 736.493
10.1192 1771.24
10.164 1571.84
10.2088 371.312
10.2536 123.136
10.2984 110.957
10.3432 112.994
10.388 102.323
10.4328 109.625
10.4776 143.706
10.5224 264.22
10.5672 535.103
10.612 510.29
10.6568 198.776
10.7017 94.4943
10.7465 84.7447
10.7913 81.3016
10.8361 79.478
10.8809 77.3874
10.9257 76.627
10.9706 77.4463
11.0154 73.222
11.0602 71.2822
11.105 70.4641
11.1499 75.4367
11.1947 83.4336
11.2395 73.789
11.2844 69.1542
11.3292 66.2516
11.374 64.8666
11.4189 64.3446
11.4637 63.6883
11.5086 64.0803
11.5534 67.2361
11.5983 64.4383
11.6431 62.3098
11.688 61.7214
11.7328 61.6701
11.7777 61.7736
11.8225 61.2616
11.8674 61.0079
11.9122 61.3032
11.9571 61.7617
12.002 61.9628
12.0468 64.8948
12.0917 74.2581
12.1366 96.5002
12.1814 149.537
12.2263 204.986
12.2712 162.488
12.3161 95.0165
12.3609 69.7069
12.4058 63.3159
12.4507 62.9663
12.4956 63.1125
12.5405 63.0615
12.5853 63.9545
12.6302 72.7302
12.6751 78.3668
12.72 69.0364
12.7649 66.4377
12.8098 66.8412
12.8547 67.9839
12.8996 69.1819
12.9445 70.2955
12.9894 72.462
13.0343 73.9433
13.0792 76.7657
13.1242 82.9438
13.1691 102.854
13.214 135.491
13.2589 226.515
13.3038 377.365
13.3487 430.395
13.3937 252.677
13.4386 120.605
13.4835 99.0742
13.5285 111.767
13.5734 146.791
13.6183 241.196
13.6633 357.391
13.7082 338.505
13.7531 179.132
13.7981 94.6243
13.843 79.9604
13.888 77.8246
13.9329 75.4487
13.9779 74.2325
14.0228 72.6077
14.0678 71.1513
14.1127 70.9421
14.1577 70.9349
14.2027 70.1424
14.2476 68.9187
14.2926 69.2209
14.3376 70.3247
14.3825 68.8487
14.4275 67.3663
14.4725 66.8769
14.5175 67.3968
14.5624 67.6005
14.6074 69.7431
14.6524 70.3398
14.6974 68.5544
14.7424 69.72
14.7874 74.4302
14.8324 83.1421
14.8774 103.789
14.9224 149.214
14.9674 213.115
15.0124 218.99
15.0574 148.484
15.1024 88.5009
15.1474 70.8542
15.1924 69.0444
15.2374 69.8904
15.2824 69.0188
15.3274 66.775
15.3725 65.3702
15.4175 64.894
15.4625 64.7517
15.5076 64.8849
15.5526 64.7431
15.5976 64.2081
15.6426 64.7865
15.6877 68.4289
15.7327 75.0238
15.7778 88.8928
15.8228 121.074
15.8679 172.161
15.9129 197.216
15.958 153.672
16.003 94.2935
16.0481 67.1206
16.0931 63.6133
16.1382 61.6623
16.1833 59.3598
16.2283 57.9528
16.2734 57.1996
16.3185 57.5359
16.3636 58.599
16.4086 56.7662
16.4537 55.0083
16.4988 54.3431
16.5439 54.1539
16.589 54.0561
16.6341 53.7529
16.6792 53.381
16.7243 53.8697
16.7694 53.9169
16.8145 53.6691
16.8596 54.2136
16.9047 55.8977
16.9498 56.0404
16.9949 54.512
17.04 54.3607
17.0851 55.495
17.1302 56.8546
17.1754 59.5389
17.2205 64.8136
17.2656 73.0533
17.3108 82.5695
17.3559 80.3343
17.401 68.7787
17.4462 60.5778
17.4913 57.7738
17.5365 58.0003
17.5815 57.8789
17.6268 58.0004
17.6718 59.192
17.7171 59.6429
17.7622 59.8815
17.8074 60.2108
17.8525 61.8711
17.8977 65.3183
17.9428 70.2934
17.9881 78.7475
18.0331 96.6596
18.0784 120.71
18.1237 138.176
18.1688 126.612
18.214 99.5749
18.2591 83.3182
18.3044 88.4347
18.3495 100.012
18.3948 106.76
18.4399 94.4983
18.4852 75.5806
18.5303 64.4377
18.5756 61.0416
18.6207 59.9006
18.666 59.3013
18.7112 58.4898
18.7565 57.8334
18.8016 57.112
18.8469 56.8585
18.892 56.4789
18.9374 56.075
18.9825 55.8096
19.0278 55.6753
19.073 55.6086
19.1183 55.7972
19.1635 56.6842
19.2088 57.9229
19.254 60.0542
19.2993 65.028
19.3447 71.5782
19.3898 75.4309
19.4352 70.5491
19.4804 61.4926
19.5257 55.2876
19.5709 53.311
19.6163 52.7197
19.6615 52.7209
19.7068 52.1433
19.752 52.2598
19.7974 52.304
19.8426 53.1036
19.888 53.5076
19.9332 54.6475
19.9786 57.184
20.0238 61.0998
20.0692 66.3804
20.1144 69.0269
20.1598 66.6084
20.205 61.5516
20.2504 60.816
20.2957 63.2339
20.3411 64.9848
20.3863 62.6775
20.4318 56.9706
20.477 52.3973
20.5224 50.7366
20.5677 49.8964
20.6131 49.221
20.6586 48.5232
20.7038 48.5708
20.7493 47.9473
20.7945 47.9006
20.84 47.6756
20.8853 47.766
20.9307 47.4658
20.976 47.8439
21.0215 47.6106
21.0668 47.9339
21.1122 48.319
21.1575 48.9881
21.203 49.9578
21.2483 50.6081
21.2938 50.2836
21.3391 48.9992
21.3846 47.8508
21.4299 47.3256
21.4754 47.2607
21.5207 47.4133
21.5662 47.6956
21.6116 47.9542
21.6571 48.5377
21.7024 49.3737
21.7479 51.0389
21.7933 53.7055
21.8388 57.9109
21.8843 61.9309
21.9297 63.5512
21.9752 61.6462
22.0206 58.0368
22.0661 55.6254
22.1115 55.2193
22.157 54.9635
22.2024 53.107
22.248 50.3277
22.2933 48.7356
22.3389 48.1909
22.3843 48.1009
22.4299 47.8463
22.4753 47.9504
22.5208 47.4227
22.5662 47.3999
22.6118 47.5723
22.6572 47.8904
22.7028 47.9656
22.7483 48.4982
22.7939 49.0193
22.8393 50.7266
22.8849 53.0706
22.9303 55.3719
22.9759 57.1766
23.0214 56.2919
23.067 53.3698
23.1126 49.9577
23.1581 48.1183
23.2037 47.9559
23.2492 47.6674
23.2948 47.6375
23.3403 47.8588
23.3859 48.428
23.4314 49.4675
23.477 51.4469
23.5225 53.8576
23.5682 56.4522
23.6137 57.1074
23.6593 54.4852
23.7048 50.4121
23.7505 47.3184
23.796 45.7487
23.8417 45.1516
23.8872 44.7279
23.9329 44.4247
23.9784 43.9733
24.0241 43.6893
24.0697 43.6103
24.1154 43.1014
24.1609 43.0265
24.2066 42.9198
24.2522 42.895
24.2979 42.4608
24.3434 42.3246
24.3892 42.2733
24.4349 42.2991
24.4805 42.053
24.5262 42.1703
24.5718 42.2516
24.6175 42.1303
24.6631 42.0312
24.7089 41.6203
24.7545 41.4586
24.8002 41.3638
24.8458 41.3236
24.8916 41.1701
24.9372 41.2363
24.983 41.4835
25.0286 41.8796
25.0744 42.4013
25.12 42.9373
25.1658 43.61
25.2114 43.7341
25.2572 43.8706
25.3029 44.0793
25.3487 44.2255
25.3943 43.8548
25.4402 42.6817
25.4858 41.719
25.5316 40.7638
25.5773 40.0662
25.6231 40.0934
25.669 39.7655
25.7147 39.6798
25.7605 39.6491
25.8062 39.706
25.8521 39.8124
25.8977 39.7044
25.9436 39.9527
25.9893 40.2343
26.0352 40.7227
26.0809 40.8653
26.1268 40.9274
26.1725 40.4497
26.2184 39.7825
26.2641 39.4016
26.31 39.1843
26.3557 39.2905
26.4017 39.19
26.4474 39.6582
26.4933 39.8395
26.5391 40.4175
26.585 40.9814
26.6308 41.3878
26.6767 41.2795
26.7225 41.2165
26.7684 40.6758
26.8142 40.0405
26.8601 39.7322
26.9059 39.1943
26.9519 38.7669
26.9979 38.372
27.0437 38.0258
27.0896 38.0176
27.1354 37.9316
27.1814 37.7054
27.2272 37.7723
27.2732 37.7673
27.3191 37.4769
27.3651 37.6696
27.4109 37.6794
27.4569 37.7935
27.5027 37.8029
27.5488 37.8537
27.5946 37.7248
27.6407 37.4051
27.6865 37.3809
27.7326 37.0978
27.7784 37.0216
27.8245 37.0264
27.8703 37.198
27.9164 37.4468
27.9623 37.6435
28.0084 38.0331
28.0543 38.5506
28.1003 38.2165
28.1462 38.1443
28.1923 37.7154
28.2384 37.2693
28.2843 36.8108
28.3304 36.4173
28.3764 36.0244
28.4225 35.622
28.4684 35.5317
28.5145 35.2292
28.5605 35.1124
28.6066 34.9964
28.6526 35.0509
28.6987 34.9215
28.7447 34.7357
28.7908 34.8488
28.8368 34.9478
28.8829 34.7445
28.9289 34.7274
28.9751 34.5733
29.0211 34.2453
29.0673 34.0011
29.1133 33.8671
29.1595 33.7002
29.2055 33.5954
29.2517 33.5954
29.2977 33.5897
29.3439 33.6426
29.3899 33.6528
29.4361 33.3824
29.4824 33.2508
29.5284 33.0271
29.5746 32.705
29.6207 32.4413
29.6669 32.4342
29.713 32.4407
29.7593 32.2282
29.8053 32.2554
29.8516 32.0826
29.8977 32.1245
29.9439 31.9125
29.99 31.886
30.0363 31.8958
30.0824 31.8445
30.1287 31.7875
30.1748 31.776
30.2211 31.8127
30.2673 31.6497
30.3136 31.7248
30.3597 31.477
30.406 31.5485
30.4522 31.3715
30.4985 31.4006
30.5447 31.5676
30.591 31.5213
30.6372 31.5493
30.6835 31.5768
30.7297 31.5599
30.7761 31.5004
30.8224 31.5018
30.8686 31.2092
30.915 30.9363
30.9612 30.8309
31.0076 30.6406
31.0538 30.6008
31.1002 30.5533
31.1464 30.3096
31.1928 30.3181
31.2391 30.3135
31.2855 30.2269
31.3317 30.2816
31.3781 30.2363
31.4244 30.3327
31.4708 30.2439
31.5171 30.2261
31.5636 30.1798
31.6098 29.9243
31.6563 29.8015
31.7026 29.5734
31.7491 29.4867
31.7953 29.5529
31.8418 29.6178
31.8881 29.5645
31.9346 29.4565
31.9809 29.4562
32.0275 29.2663
32.074 29.2402
32.1203 29.0229
32.1668 28.8744
32.2132 28.7312
32.2597 28.6392
32.306 28.7018
32.3526 28.3781
32.399 28.3405
32.4455 28.2841
32.4919 28.1822
32.5385 28.1148
32.5848 27.9167
32.6314 27.9238
32.6778 27.8326
32.7244 27.7672
32.7708 27.669
32.8174 27.6647
32.8638 27.4438
32.9104 27.5463
32.9569 27.4438
33.0035 27.2979
33.0499 27.3812
33.0966 27.2238
33.143 27.2514
33.1897 27.2003
33.2361 27.0527
33.2828 27.1305
33.3293 26.8277
33.3759 26.8209
33.4226 26.7502
33.4691 26.5518
33.5158 26.6005
33.5623 26.4757
33.609 26.2533
33.6555 26.2357
33.7022 26.0679
33.7487 25.9795
33.7954 25.9891
33.842 25.8407
33.8887 25.8351
33.9353 25.7923
33.982 25.6628
34.0286 25.5141
34.0753 25.4846
34.1219 25.384
34.1687 25.2209
34.2152 25.2772
34.262 25.1824
34.3086 25.0105
34.3554 24.9621
34.402 24.8909
34.4488 24.7806
34.4954 24.7518
34.5422 24.7041
34.5889 24.5737
34.6357 24.4801
34.6825 24.3952
34.7292 24.3031
34.776 24.2458
34.8227 24.2726
34.8695 24.1921
34.9162 24.036
34.9631 24.0683
35.0098 23.9842
35.0566 23.9019
35.1033 23.7577
35.1502 23.8241
35.1969 23.7165
35.2438 23.6417
35.2906 23.5791
35.3375 23.5978
35.3842 23.5658
35.4311 23.5315
35.4779 23.4643
35.5248 23.4508
35.5716 23.3729
35.6185 23.25
35.6653 23.0757
35.7123 23.0687
35.759 23.0397
35.806 22.9432
35.8528 22.8529
35.8998 22.7443
35.9468 22.6485
35.9936 22.678
36.0406 22.6184
36.0874 22.5686
36.1345 22.439
36.1813 22.3748
36.2283 22.3289
36.2752 22.2279
36.3222 22.2291
36.3691 22.0783
36.4161 22.0108
36.463 21.9557
36.5101 22.0302
36.557 21.9623
36.6041 21.7567
36.651 21.7413
36.6981 21.7224
36.745 21.634
36.7921 21.5557
36.839 21.4729
36.8861 21.3872
36.9331 21.351
36.9802 21.2499
37.0272 21.1735
37.0743 21.0688
37.1213 21.0819
37.1684 20.9683
37.2154 20.987
37.2626 20.8302
37.3098 20.7763
37.3568 20.7371
37.404 20.7002
37.451 20.6159
37.4982 20.4928
37.5452 20.4548
37.5924 20.368
37.6395 20.507
37.6867 20.3186
37.7337 20.2231
37.781 20.1404
37.8281 20.1436
37.8753 20.0372
37.9224 19.9709
37.9697 19.9433
38.0168 19.7937
38.064 19.7782
38.1111 19.7475
38.1584 19.6206
38.2056 19.6085
38.2529 19.5793
38.3 19.4381
38.3473 19.47
38.3945 19.391
38.4418 19.2882
38.489 19.1902
38.5363 19.1416
38.5837 19.0289
38.6309 19.0476
38.6782 18.9868
38.7254 18.8562
38.7728 18.8121
38.82 18.8002
38.8674 18.7621
38.9146 18.6946
38.9621 18.6186
39.0093 18.5611
39.0567 18.4734
39.104 18.4616
39.1514 18.3759
39.1987 18.3183
39.2461 18.2521
39.2934 18.2647
39.3409 18.152
39.3882 18.0715
39.4356 18.0484
39.483 17.9736
39.5304 17.8867
39.5778 17.8856
39.6253 17.8215
39.6726 17.7356
39.7201 17.7694
39.7675 17.6518
39.815 17.5917
39.8624 17.528
39.9099 17.5143
39.9575 17.3176
40.0049 17.3684
40.0525 17.2493
40.0999 17.2885
40.1474 17.2287
40.1949 17.215
40.2425 17.0841
40.2899 16.993
40.3375 16.9743
40.385 16.9605
40.4326 16.876
40.48 16.7808
40.5277 16.7883
40.5752 16.7103
40.6228 16.6204
40.6703 16.5966
40.718 16.5319
40.7655 16.4982
40.8132 16.4191
40.8607 16.3617
40.9084 16.3556
40.9559 16.2927
41.0036 16.281
41.0512 16.2572
41.0989 16.195
41.1465 16.0987
41.1942 16.0606
41.242 15.9719
41.2896 15.9543
41.3373 15.9005
41.3849 15.8112
41.4327 15.7887
41.4803 15.6766
41.5281 15.6532
41.5758 15.6151
41.6236 15.5185
41.6712 15.4709
41.7191 15.4486
41.7667 15.4178
41.8146 15.4525
41.8622 15.2597
41.9101 15.2706
41.9578 15.178
42.0057 15.1534
42.0534 15.1507
42.1013 15.0844
42.149 14.9443
42.1969 14.9859
42.2446 14.8485
42.2925 14.8318
42.3403 14.8182
42.3882 14.7562
42.436 14.7556
42.4839 14.6435
42.5319 14.6021
42.5797 14.5745
42.6277 14.5179
42.6755 14.4763
42.7235 14.4072
42.7713 14.3321
42.8193 14.317
42.8671 14.2732
42.9152 14.1755
42.963 14.1859
43.0111 14.0749
43.0589 14.0842
43.107 13.9643
43.1549 13.972
43.2029 13.9123
43.2508 13.9081
43.2989 13.8304
43.3468 13.7873
43.3949 13.7791
43.4429 13.7274
43.491 13.6148
43.5389 13.6083
43.5871 13.475
43.635 13.5036
43.6832 13.4201
43.7312 13.4271
43.7793 13.3797
43.8273 13.3374
43.8755 13.2745
43.9237 13.2151
43.9717 13.2148
44.0199 13.1555
44.068 13.1188
44.1162 13.0352
44.1642 13.0113
44.2125 12.8881
44.2606 12.9145
44.3088 12.8909
44.3569 12.8218
44.4052 12.8075
44.4533 12.7264
44.5016 12.6987
44.5497 12.6839
44.598 12.5982
44.6461 12.5239
44.6945 12.5268
44.7426 12.4617
44.791 12.4037
44.8391 12.3674
44.8875 12.3488
44.9357 12.3091
44.984 12.2265
45.0322 12.1773
45.0806 12.1338
45.1288 12.1099
45.1773 12.0483
45.2257 11.9956
45.2739 11.9625
45.3224 11.9132
45.3706 11.9314
45.4191 11.8436
45.4673 11.8344
45.5158 11.7784
45.5641 11.7384
45.6126 11.6703
45.6609 11.6301
45.7094 11.5695
45.7577 11.5605
45.8063 11.4988
45.8546 11.4585
45.9031 11.4395
45.9515 11.4286
46.0001 11.3433
46.0484 11.3471
46.097 11.2695
46.1454 11.2304
46.194 11.226
46.2424 11.1592
46.291 11.1201
46.3395 11.0923
46.3881 10.9982
46.4365 10.9935
46.4852 11.0113
46.5337 10.9403
46.5823 10.8956
46.631 10.839
46.6795 10.7908
46.7282 10.7925
46.7767 10.7407
46.8254 10.6805
46.8739 10.6831
46.9226 10.5733
46.9712 10.602
47.0199 10.5286
47.0685 10.46
47.1173 10.4432
47.1658 10.3996
47.2146 10.3812
47.2632 10.3034
47.312 10.3049
47.3606 10.2105
47.4095 10.207
47.4581 10.1442
47.5069 10.1514
47.5556 10.1252
47.6044 10.0272
47.6531 10.0247
47.702 9.95055
47.7507 9.95772
47.7996 9.90996
47.8483 9.89277
47.8972 9.85538
47.9461 9.82016
47.9948 9.77204
48.0438 9.73223
48.0925 9.65539
48.1415 9.68706
48.1902 9.61803
48.2392 9.62548
48.288 9.55554
48.337 9.53909
48.3858 9.51543
48.4348 9.48779
48.4837 9.45486
48.5327 9.42294
48.5815 9.37547
48.6306 9.36294
48.6795 9.26268
48.7285 9.27017
48.7774 9.21617
48.8265 9.19489
48.8754 9.15934
48.9245 9.13233
48.9734 9.09021
49.0226 9.08194
49.0715 9.01794
49.1206 8.97486
49.1696 8.93663
49.2188 8.91245
49.2679 8.90129
49.3169 8.81613
49.3661 8.78463
49.4151 8.76093
49.4643 8.74144
49.5134 8.73265
49.5626 8.63605
49.6117 8.63719
49.6609 8.57795
49.71 8.54349
49.7592 8.53965
49.8083 8.48888
49.8576 8.51062
49.9067 8.4677
49.956 8.41341
50.0052 8.39008
50.0545 8.35317
50.1036 8.30552
50.153 8.25004
50.2022 8.26407
50.2515 8.21495
50.3007 8.1494
50.3501 8.16633
50.3993 8.13483
50.4487 8.11471
50.498 8.07762
50.5474 8.01732
50.5966 8.02246
50.6461 7.98023
50.6955 7.93528
50.7448 7.90245
50.7943 7.85223
50.8436 7.82369
50.8931 7.76782
50.9424 7.78246
50.9919 7.76358
51.0413 7.736
51.0908 7.65355
51.1402 7.67876
51.1897 7.62107
51.2391 7.62803
51.2887 7.55009
51.3381 7.53904
51.3877 7.52167
51.4371 7.42412
51.4867 7.41679
51.5362 7.40899
51.5858 7.40301
51.6353 7.32953
51.6849 7.31237
51.7344 7.30442
51.7841 7.31632
51.8336 7.26478
51.8833 7.21262
51.9328 7.16493
51.9826 7.10415
52.0323 7.10751
52.0818 7.11433
52.1316 7.02811
52.1812 7.03592
52.231 7.01158
52.2806 6.99116
52.3304 6.91115
52.38 6.90891
52.4298 6.88199
52.4794 6.87789
52.5293 6.81338
52.5789 6.80937
52.6288 6.84325
52.6785 6.76066
52.7284 6.73338
52.7781 6.70868
52.828 6.62215
52.8777 6.64276
52.9276 6.60064
52.9774 6.60507
53.0273 6.59304
53.0771 6.53048
53.1271 6.51731
53.1769 6.47426
53.2269 6.45628
53.2767 6.43162
53.3267 6.40056
53.3765 6.39015
53.4266 6.33909
53.4766 6.33434
53.5265 6.28442
53.5765 6.2477
53.6264 6.21927
53.6765 6.21066
53.7264 6.19621
53.7765 6.19668
53.8265 6.12314
53.8766 6.11844
53.9266 6.05396
53.9767 6.03858
54.0267 6.01215
54.0769 5.9439
54.1269 5.96765
54.1771 5.90195
54.2271 5.90008
54.2773 5.86271
54.3274 5.84492
54.3776 5.78168
54.4277 5.7729
54.478 5.75859
54.528 5.71878
54.5783 5.69586
54.6285 5.58108
54.6788 5.61525
54.7289 5.54296
54.7792 5.45558
54.8296 5.48304
54.8798 5.42141
54.9301 5.3998
54.9803 5.39106
55.0307 5.33354
55.0809 5.3045
55.1314 5.23765
55.1816 5.23394
55.232 5.15398
55.2823 5.16991
55.3328 5.07993
55.383 5.00878
55.4335 4.9699
55.4838 4.93941
55.5344 4.87889
55.5847 4.87569
55.6352 4.79633
55.6856 4.80251
55.7361 4.81278