File: XRD/Ni3Fe_FD0511.xy
TT I
1.27165 7.42099
1.31627 6.91603
1.36089 6.28523
1.40551 5.90524
1.45013 6.13287
1.49476 5.62644
1.53938 5.31327
1.584 5.74227
1.62863 5.16799
1.67325 5.46015
1.71787 5.45967
1.7625 4.93593
1.80712 4.69458
1.85174 4.68597
1.89636 4.54151
1.94099 5.29646
1.98562 5.05934
2.03025 4.59027
2.07487 4.74899
2.11949 4.77894
2.16411 4.65688
2.20874 14.9899
2.25338 24.584
2.298 5.63299
2.34263 5.07902
2.38725 6.32248
2.43188 5.52601
2.4765 5.86766
2.52115 6.94725
2.56577 6.84737
2.6104 8.01894
2.65503 7.32302
2.69965 7.70037
2.7443 8.22428
2.78893 8.21325
2.83356 8.5206
2.87818 8.32809
2.92281 8.99348
2.96744 9.64531
3.01209 10.3395
3.05672 11.0859
3.10135 12.107
3.14599 13.1051
3.19062 14.6021
3.23527 14.8
3.2799 15.937
3.32454 17.2925
3.36917 17.8271
3.4138 18.7398
3.45844 19.9661
3.50309 21.185
3.54773 22.3806
3.59237 24.2595
3.637 98.6178
3.68164 61.3748
3.7263 26.2615
3.77094 26.539
3.81558 26.9007
3.86022 27.7785
3.90486 29.4235
3.9495 30.003
3.99416 31.3728
4.0388 32.6357
4.08344 33.959
4.12809 35.1934
4.17273 37.964
4.21738 43.9209
4.26204 266.712
4.30669 227.194
4.35133 49.7157
4.39598 45.205
4.44063 55.5492
4.4853 67.8576
4.52995 51.4299
4.5746 51.6729
4.61925 54.0589
4.6639 56.2184
4.70855 58.7666
4.75322 61.216
4.79788 64.8447
4.84253 67.9801
4.88719 72.726
4.93184 75.9848
4.97652 81.6364
5.02118 88.4507
5.06583 95.7707
5.11049 108.283
5.15515 182.894
5.19981 392.463
5.24449 2968.18
5.28916 12087.6
5.33382 3242.84
5.37848 204.275
5.42315 134.097
5.46783 116.648
5.5125 108.444
5.55716 103.574
5.60183 100.451
5.6465 98.2975
5.69117 95.9461
5.73586 93.8435
5.78053 92.8664
5.8252 92.42
5.86988 93.6774
5.91455 95.878
5.95924 105.002
6.00392 218.004
6.0486 1010.81
6.09328 4120.21
6.13795 3448.94
6.18263 294.27
6.22733 97.3299
6.27201 85.2413
6.3167 106.167
6.36138 82.3263
6.40606 70.1524
6.45075 68.3642
6.49545 66.1546
6.54014 64.5477
6.58483 64.1642
6.62952 64.0062
6.67421 98.109
6.71892 150.489
6.76361 69.8197
6.8083 59.1551
6.853 58.5085
6.89769 57.611
6.94239 57.355
6.98711 56.3708
7.03181 56.4062
7.07651 56.3856
7.12121 55.9874
7.16591 56.2047
7.21063 56.7106
7.25533 72.1868
7.30004 189.283
7.34475 94.1401
7.38945 57.802
7.43416 55.5818
7.47889 55.2292
7.5236 55.5642
7.56831 55.8026
7.61303 58.0143
7.65774 58.308
7.70247 57.2773
7.74719 57.2769
7.79191 57.861
7.83663 57.6378
7.88135 58.4153
7.92607 59.7023
7.97081 60.5724
8.01553 61.626
8.06026 62.9612
8.10498 64.5597
8.14971 74.7734
8.19446 73.4351
8.23919 70.495
8.28392 72.4981
8.32865 74.8099
8.37339 79.5104
8.41812 86.7985
8.46288 117.626
8.50761 168.726
8.55235 399.701
8.59709 1149.64
8.64183 2170.15
8.68658 1063.69
8.73134 181.545
8.77609 102.208
8.82083 93.9206
8.86558 91.0518
8.91033 91.3174
8.9551 93.2736
8.99985 86.4087
9.04461 84.4974
9.08936 83.6416
9.13412 83.2987
9.17888 83.2438
9.22365 84.0498
9.26841 82.809
9.31318 83.7117
9.35794 83.7851
9.4027 84.1285
9.44749 85.2672
9.49226 85.3843
9.53703 86.8129
9.5818 88.8379
9.62657 93.5032
9.67134 100.557
9.71614 94.7139
9.76091 95.1776
9.80569 97.893
9.85047 101.344
9.89525 127.396
9.94005 139.99
9.98484 181.262
10.0296 354.99
10.0744 800.145
10.1192 1645.0
10.164 1640.42
10.2088 446.759
10.2536 134.816
10.2984 116.258
10.3432 117.72
10.388 106.425
10.4328 119.856
10.4776 162.306
10.5224 280.638
10.5672 501.406
10.612 512.356
10.6568 224.867
10.7017 99.9188
10.7465 88.2837
10.7913 84.5678
10.8361 81.9845
10.8809 79.7844
10.9257 79.4785
10.9706 80.4705
11.0154 75.9858
11.0602 73.9226
11.105 72.7442
11.1499 77.5624
11.1947 85.166
11.2395 75.6176
11.2844 71.444
11.3292 68.0121
11.374 67.0095
11.4189 66.5277
11.4637 66.1525
11.5086 66.4966
11.5534 69.4727
11.5983 66.3986
11.6431 64.6877
11.688 63.6745
11.7328 64.0117
11.7777 63.5013
11.8225 63.3103
11.8674 63.4308
11.9122 63.5273
11.9571 63.8938
12.002 64.3091
12.0468 68.8516
12.0917 80.6871
12.1366 104.782
12.1814 153.658
12.2263 202.321
12.2712 172.621
12.3161 102.15
12.3609 72.3029
12.4058 65.8585
12.4507 65.1661
12.4956 65.1555
12.5405 65.5609
12.5853 66.4327
12.6302 74.9818
12.6751 80.5134
12.72 71.0183
12.7649 68.8643
12.8098 69.2966
12.8547 70.6191
12.8996 72.0003
12.9445 73.0984
12.9894 75.084
13.0343 76.5552
13.0792 79.8883
13.1242 89.1215
13.1691 114.232
13.214 151.224
13.2589 235.677
13.3038 358.951
13.3487 426.189
13.3937 280.221
13.4386 131.052
13.4835 107.596
13.5285 123.314
13.5734 159.833
13.6183 242.044
13.6633 333.142
13.7082 340.357
13.7531 200.754
13.7981 102.742
13.843 83.4041
13.888 80.822
13.9329 78.1651
13.9779 76.7215
14.0228 75.3644
14.0678 73.8282
14.1127 73.672
14.1577 73.6271
14.2027 72.5194
14.2476 71.1784
14.2926 71.4069
14.3376 72.4866
14.3825 71.3188
14.4275 69.6067
14.4725 69.5658
14.5175 69.6397
14.5624 69.8506
14.6074 72.3887
14.6524 72.8519
14.6974 71.5602
14.7424 72.9787
14.7874 79.657
14.8324 90.2622
14.8774 111.349
14.9224 151.449
14.9674 199.683
15.0124 216.069
15.0574 155.563
15.1024 94.8545
15.1474 73.6501
15.1924 71.5313
15.2374 72.3214
15.2824 71.4665
15.3274 69.1619
15.3725 67.8662
15.4175 67.5131
15.4625 66.8646
15.5076 67.1092
15.5526 67.1449
15.5976 66.6895
15.6426 67.4615
15.6877 72.9609
15.7327 81.2277
15.7778 95.7216
15.8228 125.135
15.8679 166.872
15.9129 191.257
15.958 159.928
16.003 102.471
16.0481 70.2752
16.0931 66.1289
16.1382 63.82
16.1833 61.5541
16.2283 59.7692
16.2734 59.0719
16.3185 59.6805
16.3636 60.5798
16.4086 58.6332
16.4537 57.042
16.4988 56.2375
16.5439 56.4698
16.589 55.951
16.6341 55.7033
16.6792 55.4104
16.7243 55.4919
16.7694 55.853
16.8145 55.7073
16.8596 56.0987
16.9047 57.6419
16.9498 57.9095
16.9949 56.4023
17.04 56.5354
17.0851 57.7481
17.1302 59.3314
17.1754 62.2714
17.2205 67.2183
17.2656 74.2216
17.3108 81.5852
17.3559 82.476
17.401 72.7088
17.4462 63.481
17.4913 59.9862
17.5365 59.8823
17.5815 59.949
17.6268 60.1285
17.6718 61.1803
17.7171 61.6465
17.7622 61.9176
17.8074 62.6526
17.8525 64.9955
17.8977 69.2401
17.9428 74.5032
17.9881 83.0786
18.0331 99.2481
18.0784 119.271
18.1237 137.577
18.1688 133.797
18.214 107.231
18.2591 88.7621
18.3044 91.0899
18.3495 99.3798
18.3948 105.845
18.4399 99.0181
18.4852 80.4809
18.5303 67.5986
18.5756 63.0057
18.6207 62.1331
18.666 61.2233
18.7112 60.5052
18.7565 59.7314
18.8016 59.4979
18.8469 58.8029
18.892 58.4447
18.9374 58.0917
18.9825 57.7227
19.0278 57.6775
19.073 57.5927
19.1183 58.3313
19.1635 59.1914
19.2088 60.4245
19.254 62.8937
19.2993 66.9737
19.3447 72.9551
19.3898 76.5842
19.4352 73.3525
19.4804 64.9588
19.5257 58.0155
19.5709 55.1587
19.6163 54.5587
19.6615 54.3504
19.7068 53.9898
19.752 54.0247
19.7974 54.2994
19.8426 55.1589
19.888 55.8227
19.9332 56.8358
19.9786 59.1167
20.0238 62.5858
20.0692 67.2903
20.1144 70.2304
20.1598 69.3302
20.205 64.8622
20.2504 62.8602
20.2957 64.1658
20.3411 65.9936
20.3863 65.191
20.4318 59.9233
20.477 54.8903
20.5224 52.5728
20.5677 51.7983
20.6131 50.9903
20.6586 50.3987
20.7038 50.2604
20.7493 49.88
20.7945 49.6477
20.84 49.5335
20.8853 49.4436
20.9307 49.1483
20.976 49.4459
21.0215 49.3306
21.0668 49.8406
21.1122 50.1173
21.1575 50.6419
21.203 51.378
21.2483 51.9308
21.2938 52.0116
21.3391 50.6894
21.3846 49.81
21.4299 48.8924
21.4754 49.0348
21.5207 49.3061
21.5662 49.431
21.6116 49.8733
21.6571 50.5012
21.7024 51.5913
21.7479 53.2938
21.7933 55.9108
21.8388 59.1729
21.8843 62.6237
21.9297 64.7997
21.9752 64.2726
22.0206 61.0172
22.0661 57.3813
22.1115 56.5295
22.157 56.7126
22.2024 55.1758
22.248 52.4807
22.2933 50.8283
22.3389 49.8556
22.3843 49.8379
22.4299 49.5604
22.4753 49.5178
22.5208 49.2869
22.5662 49.1687
22.6118 49.5057
22.6572 49.5352
22.7028 49.9593
22.7483 50.3307
22.7939 51.0715
22.8393 52.3997
22.8849 54.372
22.9303 56.3176
22.9759 58.1494
23.0214 57.9207
23.067 55.4421
23.1126 52.1119
23.1581 50.1661
23.2037 49.3633
23.2492 49.3835
23.2948 49.5336
23.3403 49.7094
23.3859 50.4004
23.4314 51.4437
23.477 53.1711
23.5225 55.1022
23.5682 56.9262
23.6137 58.0944
23.6593 56.4746
23.7048 52.7491
23.7505 49.1444
23.796 47.5253
23.8417 46.6195
23.8872 46.2898
23.9329 45.9205
23.9784 45.5676
24.0241 45.3135
24.0697 45.0849
24.1154 44.8036
24.1609 44.542
24.2066 44.3722
24.2522 44.2625
24.2979 44.0787
24.3434 43.922
24.3892 43.8536
24.4349 43.788
24.4805 43.4623
24.5262 43.6198
24.5718 43.3099
24.6175 43.4378
24.6631 43.3651
24.7089 43.1083
24.7545 43.0336
24.8002 42.873
24.8458 42.8548
24.8916 42.7579
24.9372 42.6595
24.983 42.9081
25.0286 43.2453
25.0744 43.6843
25.12 44.2255
25.1658 44.7976
25.2114 45.2393
25.2572 45.3654
25.3029 45.3558
25.3487 45.4663
25.3943 45.1964
25.4402 44.3207
25.4858 43.223
25.5316 42.1028
25.5773 41.464
25.6231 41.4865
25.669 41.1013
25.7147 41.0746
25.7605 41.0322
25.8062 41.1936
25.8521 41.0153
25.8977 41.1259
25.9436 41.3887
25.9893 41.5849
26.0352 41.9316
26.0809 42.0438
26.1268 42.0857
26.1725 41.8137
26.2184 41.4107
26.2641 41.0235
26.31 40.7326
26.3557 40.6837
26.4017 40.5983
26.4474 40.9663
26.4933 41.2317
26.5391 41.7611
26.585 42.1193
26.6308 42.3416
26.6767 42.6234
26.7225 42.532
26.7684 41.9695
26.8142 41.4277
26.8601 40.9664
26.9059 40.5793
26.9519 40.1099
26.9979 39.7713
27.0437 39.4469
27.0896 39.2004
27.1354 39.2699
27.1814 39.0871
27.2272 39.1143
27.2732 39.0984
27.3191 38.7928
27.3651 39.0107
27.4109 38.9438
27.4569 39.0072
27.5027 39.1
27.5488 39.1214
27.5946 38.8121
27.6407 38.8284
27.6865 38.5025
27.7326 38.3987
27.7784 38.3469
27.8245 38.3658
27.8703 38.5179
27.9164 38.7217
27.9623 38.7715
28.0084 39.1513
28.0543 39.6655
28.1003 39.4739
28.1462 39.2711
28.1923 38.9415
28.2384 38.4343
28.2843 38.1877
28.3304 37.6596
28.3764 37.2788
28.4225 36.8936
28.4684 36.7945
28.5145 36.3922
28.5605 36.4164
28.6066 36.3003
28.6526 36.1068
28.6987 36.0665
28.7447 35.9745
28.7908 35.8492
28.8368 35.8219
28.8829 35.9724
28.9289 35.6593
28.9751 35.6992
29.0211 35.4607
29.0673 35.1362
29.1133 35.0527
29.1595 34.9428
29.2055 34.7497
29.2517 34.7757
29.2977 34.671
29.3439 34.6727
29.3899 34.6598
29.4361 34.5456
29.4824 34.5745
29.5284 34.2383
29.5746 33.9228
29.6207 33.6634
29.6669 33.5527
29.713 33.4502
29.7593 33.2959
29.8053 33.2977
29.8516 33.3154
29.8977 33.2816
29.9439 33.1074
29.99 33.0184
30.0363 32.9037
30.0824 32.9854
30.1287 32.7503
30.1748 32.9369
30.2211 32.8718
30.2673 32.7065
30.3136 32.8114
30.3597 32.6361
30.406 32.6695
30.4522 32.5415
30.4985 32.4503
30.5447 32.5333
30.591 32.484
30.6372 32.4866
30.6835 32.6082
30.7297 32.6954
30.7761 32.5553
30.8224 32.3626
30.8686 32.2353
30.915 31.9766
30.9612 31.9051
31.0076 31.7086
31.0538 31.6124
31.1002 31.5798
31.1464 31.4532
31.1928 31.4276
31.2391 31.425
31.2855 31.2675
31.3317 31.1868
31.3781 31.2596
31.4244 31.335
31.4708 31.1626
31.5171 31.1535
31.5636 31.2447
31.6098 30.9794
31.6563 30.85
31.7026 30.6614
31.7491 30.5223
31.7953 30.5562
31.8418 30.4971
31.8881 30.6073
31.9346 30.4446
31.9809 30.4225
32.0275 30.2303
32.074 30.2756
32.1203 29.9869
32.1668 29.9425
32.2132 29.7852
32.2597 29.6564
32.306 29.5619
32.3526 29.3029
32.399 29.2588
32.4455 29.1549
32.4919 29.0891
32.5385 29.0453
32.5848 28.9477
32.6314 28.8769
32.6778 28.8601
32.7244 28.6645
32.7708 28.5777
32.8174 28.5491
32.8638 28.3827
32.9104 28.4238
32.9569 28.4349
33.0035 28.2697
33.0499 28.2203
33.0966 28.1863
33.143 28.1066
33.1897 28.1047
33.2361 27.8983
33.2828 27.9346
33.3293 27.757
33.3759 27.7418
33.4226 27.6438
33.4691 27.4258
33.5158 27.3961
33.5623 27.2689
33.609 27.1184
33.6555 27.1209
33.7022 26.9623
33.7487 26.8636
33.7954 26.8025
33.842 26.7815
33.8887 26.6712
33.9353 26.6439
33.982 26.4767
34.0286 26.4544
34.0753 26.3246
34.1219 26.1727
34.1687 26.1876
34.2152 26.0934
34.262 25.9839
34.3086 25.9182
34.3554 25.8224
34.402 25.7043
34.4488 25.65
34.4954 25.7044
34.5422 25.5439
34.5889 25.3844
34.6357 25.1718
34.6825 25.294
34.7292 25.1858
34.776 25.043
34.8227 24.991
34.8695 24.9603
34.9162 24.8782
34.9631 24.8455
35.0098 24.9248
35.0566 24.7296
35.1033 24.5948
35.1502 24.6026
35.1969 24.4536
35.2438 24.4457
35.2906 24.4511
35.3375 24.3154
35.3842 24.2962
35.4311 24.3534
35.4779 24.3107
35.5248 24.1994
35.5716 24.0947
35.6185 24.0693
35.6653 23.9359
35.7123 23.9045
35.759 23.7493
35.806 23.6062
35.8528 23.5698
35.8998 23.489
35.9468 23.4229
35.9936 23.3462
36.0406 23.3192
36.0874 23.257
36.1345 23.1584
36.1813 23.0914
36.2283 23.029
36.2752 22.9735
36.3222 22.9266
36.3691 22.8261
36.4161 22.7894
36.463 22.7152
36.5101 22.7458
36.557 22.5977
36.6041 22.4805
36.651 22.4504
36.6981 22.4827
36.745 22.2951
36.7921 22.2454
36.839 22.1682
36.8861 22.0482
36.9331 21.9911
36.9802 21.954
37.0272 21.8087
37.0743 21.7638
37.1213 21.7924
37.1684 21.7159
37.2154 21.68
37.2626 21.5573
37.3098 21.5025
37.3568 21.4488
37.404 21.4041
37.451 21.2195
37.4982 21.2057
37.5452 21.1488
37.5924 21.0835
37.6395 21.1415
37.6867 20.9359
37.7337 20.8773
37.781 20.7665
37.8281 20.7565
37.8753 20.6382
37.9224 20.5703
37.9697 20.5074
38.0168 20.4786
38.064 20.3557
38.1111 20.3464
38.1584 20.2464
38.2056 20.2253
38.2529 20.1711
38.3 20.064
38.3473 20.0774
38.3945 19.9558
38.4418 19.8787
38.489 19.8341
38.5363 19.8296
38.5837 19.7566
38.6309 19.666
38.6782 19.5868
38.7254 19.5069
38.7728 19.4947
38.82 19.3904
38.8674 19.3724
38.9146 19.2449
38.9621 19.1774
39.0093 19.1654
39.0567 19.1524
39.104 19.0559
39.1514 18.9641
39.1987 18.9059
39.2461 18.8864
39.2934 18.8336
39.3409 18.7262
39.3882 18.6461
39.4356 18.6071
39.483 18.577
39.5304 18.5329
39.5778 18.434
39.6253 18.352
39.6726 18.3532
39.7201 18.2352
39.7675 18.2202
39.815 18.1691
39.8624 18.0427
39.9099 18.0688
39.9575 18.0228
40.0049 17.9512
40.0525 17.8013
40.0999 17.8863
40.1474 17.7271
40.1949 17.7038
40.2425 17.6185
40.2899 17.6764
40.3375 17.4838
40.385 17.4675
40.4326 17.4482
40.48 17.34
40.5277 17.2961
40.5752 17.317
40.6228 17.1945
40.6703 17.14
40.718 17.1008
40.7655 17.0053
40.8132 16.9699
40.8607 17.0381
40.9084 16.8343
40.9559 16.8227
41.0036 16.8306
41.0512 16.7357
41.0989 16.716
41.1465 16.5859
41.1942 16.5548
41.242 16.4616
41.2896 16.4602
41.3373 16.3737
41.3849 16.3008
41.4327 16.2828
41.4803 16.2156
41.5281 16.1845
41.5758 16.0962
41.6236 16.0273
41.6712 15.9369
41.7191 15.9274
41.7667 15.8646
41.8146 15.7926
41.8622 15.8269
41.9101 15.767
41.9578 15.6404
42.0057 15.6397
42.0534 15.594
42.1013 15.5261
42.149 15.4903
42.1969 15.3949
42.2446 15.3507
42.2925 15.2916
42.3403 15.2819
42.3882 15.1936
42.436 15.2279
42.4839 15.0882
42.5319 15.085
42.5797 15.0108
42.6277 14.9511
42.6755 14.9299
42.7235 14.8648
42.7713 14.8276
42.8193 14.7751
42.8671 14.6979
42.9152 14.6617
42.963 14.6374
43.0111 14.56
43.0589 14.4668
43.107 14.4738
43.1549 14.4524
43.2029 14.3396
43.2508 14.3497
43.2989 14.2413
43.3468 14.2146
43.3949 14.206
43.4429 14.1324
43.491 14.0622
43.5389 14.016
43.5871 13.9796
43.635 13.9364
43.6832 13.8715
43.7312 13.8264
43.7793 13.7726
43.8273 13.7945
43.8755 13.6558
43.9237 13.6803
43.9717 13.5829
44.0199 13.5056
44.068 13.526
44.1162 13.4509
44.1642 13.3943
44.2125 13.3091
44.2606 13.3006
44.3088 13.2585
44.3569 13.2371
44.4052 13.1859
44.4533 13.0894
44.5016 13.031
44.5497 13.0774
44.598 12.9902
44.6461 12.9332
44.6945 12.9027
44.7426 12.8136
44.791 12.8182
44.8391 12.7822
44.8875 12.7435
44.9357 12.7412
44.984 12.6039
45.0322 12.5587
45.0806 12.5628
45.1288 12.4556
45.1773 12.4087
45.2257 12.4387
45.2739 12.3852
45.3224 12.342
45.3706 12.2549
45.4191 12.1575
45.4673 12.1976
45.5158 12.1539
45.5641 12.1015
45.6126 12.0461
45.6609 12.0006
45.7094 11.9364
45.7577 11.9724
45.8063 11.8556
45.8546 11.842
45.9031 11.7818
45.9515 11.7733
46.0001 11.7105
46.0484 11.6716
46.097 11.6681
46.1454 11.5812
46.194 11.5921
46.2424 11.4956
46.291 11.469
46.3395 11.4472
46.3881 11.3664
46.4365 11.4063
46.4852 11.2972
46.5337 11.275
46.5823 11.2102
46.631 11.2028
46.6795 11.1704
46.7282 11.1036
46.7767 11.0645
46.8254 10.9624
46.8739 10.9622
46.9226 10.9056
46.9712 10.8807
47.0199 10.8061
47.0685 10.8622
47.1173 10.745
47.1658 10.7462
47.2146 10.698
47.2632 10.6434
47.312 10.5962
47.3606 10.546
47.4095 10.5161
47.4581 10.5055
47.5069 10.4763
47.5556 10.3881
47.6044 10.4012
47.6531 10.3383
47.702 10.3437
47.7507 10.2437
47.7996 10.1945
47.8483 10.209
47.8972 10.164
47.9461 10.1525
47.9948 10.0946
48.0438 10.0187
48.0925 10.0216
48.1415 9.9596
48.1902 9.91266
48.2392 9.88123
48.288 9.86619
48.337 9.84889
48.3858 9.78936
48.4348 9.75987
48.4837 9.72875
48.5327 9.70861
48.5815 9.6604
48.6306 9.65681
48.6795 9.61945
48.7285 9.54037
48.7774 9.53501
48.8265 9.48771
48.8754 9.44678
48.9245 9.40368
48.9734 9.40065
49.0226 9.39084
49.0715 9.30782
49.1206 9.25769
49.1696 9.22546
49.2188 9.17595
49.2679 9.18994
49.3169 9.12082
49.3661 9.09328
49.4151 9.06385
49.4643 9.05232
49.5134 8.99775
49.5626 8.94554
49.6117 8.88977
49.6609 8.90705
49.71 8.82936
49.7592 8.81657
49.8083 8.76807
49.8576 8.78229
49.9067 8.70164
49.956 8.69404
50.0052 8.62785
50.0545 8.61992
50.1036 8.60489
50.153 8.5354
50.2022 8.51362
50.2515 8.49297
50.3007 8.44665
50.3501 8.39785
50.3993 8.4251
50.4487 8.35226
50.498 8.31537
50.5474 8.3049
50.5966 8.2614
50.6461 8.21586
50.6955 8.18336
50.7448 8.20159
50.7943 8.11489
50.8436 8.13152
50.8931 8.07908
50.9424 8.07158
50.9919 7.97408
51.0413 7.97489
51.0908 7.9283
51.1402 7.91427
51.1897 7.88435
51.2391 7.86056
51.2887 7.79924
51.3381 7.7438
51.3877 7.75496
51.4371 7.72026
51.4867 7.63792
51.5362 7.67123
51.5858 7.62781
51.6353 7.58489
51.6849 7.56751
51.7344 7.52967
51.7841 7.49075
51.8336 7.50074
51.8833 7.42221
51.9328 7.35647
51.9826 7.3785
52.0323 7.34431
52.0818 7.29983
52.1316 7.27617
52.1812 7.28232
52.231 7.23236
52.2806 7.19221
52.3304 7.17001
52.38 7.11052
52.4298 7.10754
52.4794 7.07593
52.5293 7.04095
52.5789 6.99682
52.6288 7.01851
52.6785 6.88536
52.7284 6.92808
52.7781 6.88133
52.828 6.85902
52.8777 6.83876
52.9276 6.8202
52.9774 6.82766
53.0273 6.79019
53.0771 6.70228
53.1271 6.76613
53.1769 6.69727
53.2269 6.63642
53.2767 6.62087
53.3267 6.60154
53.3765 6.58469
53.4266 6.52501
53.4766 6.50473
53.5265 6.44255
53.5765 6.45652
53.6264 6.40595
53.6765 6.37681
53.7264 6.36199
53.7765 6.32186
53.8265 6.28867
53.8766 6.25609
53.9266 6.29625
53.9767 6.17242
54.0267 6.17663
54.0769 6.20281
54.1269 6.13181
54.1771 6.06075
54.2271 6.05468
54.2773 6.06496
54.3274 6.06586
54.3776 6.00251
54.4277 5.93635
54.478 5.88653
54.528 5.87243
54.5783 5.86324
54.6285 5.78589
54.6788 5.75727
54.7289 5.70789
54.7792 5.72334
54.8296 5.61428
54.8798 5.58392
54.9301 5.53084
54.9803 5.51738
55.0307 5.51045
55.0809 5.42927
55.1314 5.47126
55.1816 5.34745
55.232 5.3301
55.2823 5.31611
55.3328 5.23783
55.383 5.1753
55.4335 5.08556
55.4838 5.11045
55.5344 5.06146
55.5847 5.01612
55.6352 4.97723
55.6856 4.93584
55.7361 4.83279