File: XRD/Ni3Fe_FD0347.xy
TT I
1.27165 7.41001
1.31627 6.39205
1.36089 7.03484
1.40551 6.76956
1.45013 6.60485
1.49476 5.34901
1.53938 5.95108
1.584 5.86755
1.62863 5.8954
1.67325 5.25234
1.71787 5.66978
1.7625 5.16289
1.80712 5.37476
1.85174 4.95454
1.89636 5.07949
1.94099 5.13589
1.98562 4.71931
2.03025 4.97218
2.07487 4.65375
2.11949 5.0243
2.16411 4.50648
2.20874 9.77079
2.25338 13.9121
2.298 5.55147
2.34263 4.61353
2.38725 5.32529
2.43188 4.78552
2.4765 5.82665
2.52115 5.55628
2.56577 6.66119
2.6104 7.05378
2.65503 6.43332
2.69965 7.31797
2.7443 7.50699
2.78893 7.44482
2.83356 7.35538
2.87818 8.41411
2.92281 8.45895
2.96744 9.73102
3.01209 10.621
3.05672 11.2982
3.10135 12.4044
3.14599 12.8176
3.19062 13.9826
3.23527 14.8214
3.2799 15.3546
3.32454 16.7616
3.36917 17.8639
3.4138 19.0261
3.45844 20.0547
3.50309 20.7886
3.54773 21.7609
3.59237 23.5471
3.637 61.9669
3.68164 42.8558
3.7263 25.9163
3.77094 25.9577
3.81558 27.2712
3.86022 27.8844
3.90486 29.3512
3.9495 29.938
3.99416 31.3821
4.0388 32.6266
4.08344 33.9761
4.12809 35.1053
4.17273 37.0372
4.21738 41.2906
4.26204 156.233
4.30669 135.938
4.35133 46.3484
4.39598 44.9665
4.44063 51.0176
4.4853 57.9036
4.52995 52.3918
4.5746 52.9198
4.61925 54.7667
4.6639 56.9366
4.70855 59.7808
4.75322 63.0664
4.79788 66.2037
4.84253 69.6458
4.88719 74.4056
4.93184 78.1541
4.97652 84.2759
5.02118 91.7191
5.06583 100.945
5.11049 115.645
5.15515 174.845
5.19981 597.242
5.24449 3668.3
5.28916 11453.6
5.33382 3472.89
5.37848 225.041
5.42315 139.584
5.46783 121.647
5.5125 111.131
5.55716 106.581
5.60183 102.584
5.6465 100.224
5.69117 98.3511
5.73586 96.1163
5.78053 97.514
5.8252 97.1934
5.86988 98.5804
5.91455 101.914
5.95924 115.938
6.00392 319.192
6.0486 1272.94
6.09328 4021.14
6.13795 3369.39
6.18263 280.044
6.22733 100.693
6.27201 85.4138
6.3167 92.2353
6.36138 78.7495
6.40606 71.2931
6.45075 69.4124
6.49545 67.3131
6.54014 65.4149
6.58483 64.4626
6.62952 63.5129
6.67421 79.6952
6.71892 106.55
6.76361 65.674
6.8083 60.0338
6.853 58.8193
6.89769 58.2656
6.94239 57.9481
6.98711 57.082
7.03181 56.6419
7.07651 56.1348
7.12121 56.1044
7.16591 56.6719
7.21063 56.7207
7.25533 64.0875
7.30004 123.464
7.34475 76.2073
7.38945 56.3813
7.43416 55.6278
7.47889 55.2041
7.5236 55.9351
7.56831 56.4754
7.61303 57.5397
7.65774 58.0793
7.70247 57.2742
7.74719 57.5283
7.79191 57.6342
7.83663 58.4515
7.88135 59.2016
7.92607 60.2624
7.97081 61.3827
8.01553 62.5581
8.06026 63.9962
8.10498 65.3564
8.14971 72.2747
8.19446 72.2336
8.23919 71.6888
8.28392 74.1366
8.32865 77.0432
8.37339 81.9485
8.41812 88.3238
8.46288 113.447
8.50761 223.138
8.55235 499.488
8.59709 1184.51
8.64183 2086.12
8.68658 1052.96
8.73134 184.792
8.77609 104.517
8.82083 96.1807
8.86558 92.8658
8.91033 91.7131
8.9551 91.3412
8.99985 87.5235
9.04461 86.3154
9.08936 85.5011
9.13412 84.5367
9.17888 84.4352
9.22365 84.7709
9.26841 84.4237
9.31318 85.7636
9.35794 85.6589
9.4027 85.8486
9.44749 86.5572
9.49226 87.6049
9.53703 88.3609
9.5818 90.7289
9.62657 93.4628
9.67134 98.1043
9.71614 96.1369
9.76091 97.506
9.80569 100.492
9.85047 103.905
9.89525 119.598
9.94005 138.022
9.98484 233.409
10.0296 438.931
10.0744 867.088
10.1192 1597.3
10.164 1651.91
10.2088 473.242
10.2536 135.587
10.2984 115.529
10.3432 114.108
10.388 109.898
10.4328 136.815
10.4776 187.568
10.5224 297.318
10.5672 484.308
10.612 524.327
10.6568 215.281
10.7017 100.415
10.7465 89.348
10.7913 85.7376
10.8361 83.3099
10.8809 81.0606
10.9257 79.5976
10.9706 79.8492
11.0154 76.1748
11.0602 74.5783
11.105 73.6547
11.1499 75.2007
11.1947 78.9743
11.2395 73.6004
11.2844 70.9438
11.3292 68.7165
11.374 67.8994
11.4189 67.171
11.4637 66.6452
11.5086 66.4505
11.5534 67.7332
11.5983 66.5524
11.6431 65.179
11.688 64.4275
11.7328 64.5528
11.7777 64.302
11.8225 64.2835
11.8674 64.0129
11.9122 64.5539
11.9571 64.6551
12.002 66.2092
12.0468 73.6951
12.0917 86.9691
12.1366 109.973
12.1814 150.489
12.2263 198.47
12.2712 172.156
12.3161 97.0449
12.3609 70.7591
12.4058 66.0385
12.4507 66.0923
12.4956 66.1252
12.5405 66.2749
12.5853 67.0653
12.6302 71.1305
12.6751 74.7461
12.72 70.3813
12.7649 69.7902
12.8098 70.4129
12.8547 71.623
12.8996 73.1519
12.9445 74.71
12.9894 76.5559
13.0343 78.3927
13.0792 82.9986
13.1242 98.9271
13.1691 127.462
13.214 168.057
13.2589 246.311
13.3038 352.02
13.3487 421.92
13.3937 279.329
13.4386 133.191
13.4835 118.128
13.5285 136.326
13.5734 174.196
13.6183 244.363
13.6633 333.63
13.7082 346.929
13.7531 201.039
13.7981 102.103
13.843 84.4052
13.888 81.9925
13.9329 79.1947
13.9779 78.0429
14.0228 76.3979
14.0678 75.0567
14.1127 74.5572
14.1577 74.0562
14.2027 73.4483
14.2476 72.3444
14.2926 72.4088
14.3376 72.796
14.3825 71.8017
14.4275 70.8669
14.4725 70.7381
14.5175 70.976
14.5624 71.3805
14.6074 72.5337
14.6524 72.9691
14.6974 72.8198
14.7424 76.9165
14.7874 86.3658
14.8324 98.4719
14.8774 119.773
14.9224 154.254
14.9674 199.798
15.0124 218.051
15.0574 154.478
15.1024 94.7435
15.1474 74.6047
15.1924 72.4782
15.2374 72.2319
15.2824 71.1241
15.3274 69.6986
15.3725 68.798
15.4175 68.4805
15.4625 67.9162
15.5076 68.0036
15.5526 68.2491
15.5976 68.0069
15.6426 71.2166
15.6877 78.6849
15.7327 87.3709
15.7778 102.875
15.8228 129.093
15.8679 163.185
15.9129 190.579
15.958 163.847
16.003 102.851
16.0481 70.0252
16.0931 65.5037
16.1382 63.6264
16.1833 62.3347
16.2283 60.6341
16.2734 60.0442
16.3185 59.6753
16.3636 59.7362
16.4086 58.8658
16.4537 57.7218
16.4988 57.1407
16.5439 57.1465
16.589 56.5057
16.6341 56.4443
16.6792 56.2262
16.7243 56.1968
16.7694 56.4613
16.8145 56.2951
16.8596 56.4544
16.9047 57.5734
16.9498 57.8526
16.9949 57.1565
17.04 57.9743
17.0851 59.5393
17.1302 61.3789
17.1754 64.6162
17.2205 69.0466
17.2656 75.0179
17.3108 83.0028
17.3559 84.3901
17.401 73.7599
17.4462 64.4658
17.4913 60.8899
17.5365 60.8836
17.5815 60.8635
17.6268 61.366
17.6718 61.9472
17.7171 62.5569
17.7622 63.2986
17.8074 64.4054
17.8525 68.3883
17.8977 72.9472
17.9428 79.083
17.9881 87.8127
18.0331 102.292
18.0784 119.982
18.1237 140.238
18.1688 137.472
18.214 110.507
18.2591 91.3625
18.3044 91.5409
18.3495 99.4272
18.3948 106.154
18.4399 98.6724
18.4852 80.1499
18.5303 67.986
18.5756 64.1012
18.6207 63.051
18.666 62.373
18.7112 61.4796
18.7565 60.619
18.8016 60.2543
18.8469 59.733
18.892 59.639
18.9374 58.922
18.9825 58.7269
19.0278 58.62
19.073 58.8358
19.1183 59.6323
19.1635 60.3512
19.2088 61.8139
19.254 64.2264
19.2993 67.8808
19.3447 72.4949
19.3898 76.9466
19.4352 74.3334
19.4804 65.8328
19.5257 58.5533
19.5709 55.7167
19.6163 55.5267
19.6615 55.4562
19.7068 54.7783
19.752 55.0016
19.7974 55.6539
19.8426 56.5169
19.888 57.2
19.9332 58.4107
19.9786 60.8378
20.0238 63.9453
20.0692 67.8934
20.1144 71.4894
20.1598 70.8346
20.205 66.1071
20.2504 63.632
20.2957 64.4542
20.3411 66.4835
20.3863 65.8194
20.4318 60.3226
20.477 55.0038
20.5224 52.9041
20.5677 52.2512
20.6131 51.737
20.6586 51.212
20.7038 51.1684
20.7493 50.5009
20.7945 50.2053
20.84 50.2547
20.8853 50.168
20.9307 50.1565
20.976 50.1506
21.0215 50.1646
21.0668 50.6478
21.1122 50.9962
21.1575 51.5621
21.203 51.8497
21.2483 52.7385
21.2938 53.1305
21.3391 51.5288
21.3846 50.4973
21.4299 49.8064
21.4754 49.8896
21.5207 50.2499
21.5662 50.6212
21.6116 51.331
21.6571 51.8092
21.7024 52.8966
21.7479 54.6396
21.7933 57.2383
21.8388 60.047
21.8843 63.6056
21.9297 66.4133
21.9752 65.48
22.0206 61.8207
22.0661 57.9769
22.1115 57.2413
22.157 57.4735
22.2024 55.9716
22.248 53.1372
22.2933 51.3899
22.3389 50.4889
22.3843 50.3763
22.4299 50.0759
22.4753 50.1183
22.5208 50.0996
22.5662 49.9496
22.6118 50.2571
22.6572 50.6091
22.7028 51.014
22.7483 51.5782
22.7939 52.2831
22.8393 53.8028
22.8849 55.3025
22.9303 57.1622
22.9759 58.8675
23.0214 58.9785
23.067 56.4129
23.1126 52.6229
23.1581 50.6258
23.2037 50.3243
23.2492 50.5636
23.2948 50.6805
23.3403 50.9772
23.3859 51.5632
23.4314 52.756
23.477 53.9687
23.5225 55.6439
23.5682 57.6384
23.6137 59.2421
23.6593 57.424
23.7048 53.3891
23.7505 49.7492
23.796 47.918
23.8417 47.3313
23.8872 46.9619
23.9329 46.4152
23.9784 46.2263
24.0241 45.8129
24.0697 45.6557
24.1154 45.2758
24.1609 45.2009
24.2066 45.0637
24.2522 45.0131
24.2979 44.7375
24.3434 44.676
24.3892 44.3103
24.4349 44.3982
24.4805 44.17
24.5262 44.3667
24.5718 44.1878
24.6175 44.2094
24.6631 44.0419
24.7089 43.7372
24.7545 43.7795
24.8002 43.4994
24.8458 43.4554
24.8916 43.3839
24.9372 43.447
24.983 43.9745
25.0286 44.2031
25.0744 44.545
25.12 44.8605
25.1658 45.7183
25.2114 45.8186
25.2572 45.8985
25.3029 45.9217
25.3487 46.1051
25.3943 45.9541
25.4402 44.8827
25.4858 43.8399
25.5316 42.5757
25.5773 42.1578
25.6231 42.0898
25.669 41.7818
25.7147 41.8955
25.7605 41.5806
25.8062 41.6591
25.8521 42.0311
25.8977 41.7033
25.9436 42.0249
25.9893 42.2295
26.0352 42.5692
26.0809 42.5861
26.1268 42.8162
26.1725 42.588
26.2184 42.0916
26.2641 41.517
26.31 41.3149
26.3557 41.333
26.4017 41.4365
26.4474 41.6098
26.4933 41.9831
26.5391 42.3292
26.585 42.8514
26.6308 43.1573
26.6767 43.4314
26.7225 43.0991
26.7684 42.6508
26.8142 41.9127
26.8601 41.6101
26.9059 41.2863
26.9519 40.6346
26.9979 40.4301
27.0437 40.0832
27.0896 39.8617
27.1354 39.9646
27.1814 39.7249
27.2272 39.7184
27.2732 39.7043
27.3191 39.4463
27.3651 39.5785
27.4109 39.5539
27.4569 39.6288
27.5027 39.6524
27.5488 39.7124
27.5946 39.5565
27.6407 39.2561
27.6865 39.1828
27.7326 38.9714
27.7784 39.0154
27.8245 38.9775
27.8703 39.23
27.9164 39.4227
27.9623 39.4546
28.0084 39.6528
28.0543 40.1265
28.1003 40.1741
28.1462 39.8894
28.1923 39.5134
28.2384 38.955
28.2843 38.7394
28.3304 38.1364
28.3764 37.927
28.4225 37.4722
28.4684 37.2422
28.5145 36.9589
28.5605 36.8541
28.6066 36.5904
28.6526 36.6297
28.6987 36.6041
28.7447 36.4834
28.7908 36.3074
28.8368 36.3988
28.8829 36.4064
28.9289 36.3667
28.9751 36.0934
29.0211 35.8781
29.0673 35.6895
29.1133 35.6154
29.1595 35.4521
29.2055 35.2934
29.2517 35.2881
29.2977 35.2155
29.3439 35.2676
29.3899 35.2023
29.4361 35.1721
29.4824 34.9791
29.5284 34.7599
29.5746 34.4274
29.6207 34.138
29.6669 34.0468
29.713 33.9425
29.7593 33.7524
29.8053 33.7516
29.8516 33.6774
29.8977 33.7758
29.9439 33.5499
29.99 33.6136
30.0363 33.375
30.0824 33.4753
30.1287 33.2728
30.1748 33.2761
30.2211 33.3546
30.2673 33.1897
30.3136 33.3583
30.3597 33.203
30.406 33.0307
30.4522 33.071
30.4985 32.9561
30.5447 33.1743
30.591 33.0528
30.6372 33.1746
30.6835 33.1276
30.7297 33.1677
30.7761 33.0242
30.8224 32.9341
30.8686 32.7484
30.915 32.5626
30.9612 32.4562
31.0076 32.1799
31.0538 32.1009
31.1002 32.0147
31.1464 31.8845
31.1928 31.9089
31.2391 31.8889
31.2855 31.803
31.3317 31.739
31.3781 31.7472
31.4244 31.6654
31.4708 31.7052
31.5171 31.7259
31.5636 31.5269
31.6098 31.3166
31.6563 31.243
31.7026 31.0307
31.7491 31.0627
31.7953 31.0531
31.8418 31.023
31.8881 31.0385
31.9346 30.8842
31.9809 30.8228
32.0275 30.8365
32.074 30.657
32.1203 30.4731
32.1668 30.4046
32.2132 30.2164
32.2597 30.09
32.306 29.9648
32.3526 29.8098
32.399 29.7328
32.4455 29.6004
32.4919 29.4878
32.5385 29.427
32.5848 29.3794
32.6314 29.3348
32.6778 29.3057
32.7244 29.0051
32.7708 28.945
32.8174 28.9166
32.8638 28.8131
32.9104 28.8565
32.9569 28.8186
33.0035 28.5651
33.0499 28.6495
33.0966 28.6376
33.143 28.5519
33.1897 28.4463
33.2361 28.4255
33.2828 28.4153
33.3293 28.1492
33.3759 28.1026
33.4226 27.9907
33.4691 27.9329
33.5158 27.7691
33.5623 27.7017
33.609 27.5501
33.6555 27.4591
33.7022 27.433
33.7487 27.2754
33.7954 27.1993
33.842 27.0386
33.8887 27.0967
33.9353 27.1009
33.982 26.8809
34.0286 26.7639
34.0753 26.7649
34.1219 26.5836
34.1687 26.611
34.2152 26.4506
34.262 26.3438
34.3086 26.2576
34.3554 26.1934
34.402 26.1182
34.4488 26.0259
34.4954 25.9623
34.5422 25.8845
34.5889 25.7815
34.6357 25.6691
34.6825 25.6194
34.7292 25.466
34.776 25.4529
34.8227 25.4122
34.8695 25.3873
34.9162 25.3087
34.9631 25.1417
35.0098 25.1608
35.0566 25.051
35.1033 24.9683
35.1502 24.943
35.1969 24.7829
35.2438 24.874
35.2906 24.7552
35.3375 24.7363
35.3842 24.6643
35.4311 24.6043
35.4779 24.6167
35.5248 24.5533
35.5716 24.4772
35.6185 24.3596
35.6653 24.2153
35.7123 24.1638
35.759 24.0981
35.806 24.0435
35.8528 23.888
35.8998 23.8182
35.9468 23.6971
35.9936 23.7304
36.0406 23.6982
36.0874 23.6498
36.1345 23.5039
36.1813 23.4572
36.2283 23.2733
36.2752 23.2297
36.3222 23.2856
36.3691 23.2404
36.4161 23.0551
36.463 23.028
36.5101 23.0478
36.557 22.9849
36.6041 22.8186
36.651 22.7509
36.6981 22.6925
36.745 22.6328
36.7921 22.5651
36.839 22.4677
36.8861 22.4463
36.9331 22.35
36.9802 22.2024
37.0272 22.247
37.0743 22.1188
37.1213 22.051
37.1684 21.9295
37.2154 21.9458
37.2626 21.7178
37.3098 21.724
37.3568 21.7237
37.404 21.6835
37.451 21.5595
37.4982 21.4619
37.5452 21.3775
37.5924 21.3666
37.6395 21.4266
37.6867 21.3054
37.7337 21.1215
37.781 21.0565
37.8281 21.0503
37.8753 20.925
37.9224 20.9544
37.9697 20.8501
38.0168 20.8208
38.064 20.6802
38.1111 20.6888
38.1584 20.5826
38.2056 20.5191
38.2529 20.4633
38.3 20.3771
38.3473 20.3761
38.3945 20.1514
38.4418 20.2691
38.489 20.1372
38.5363 20.0717
38.5837 20.0148
38.6309 19.9402
38.6782 19.8943
38.7254 19.7745
38.7728 19.6738
38.82 19.6473
38.8674 19.6206
38.9146 19.5668
38.9621 19.448
39.0093 19.45
39.0567 19.3596
39.104 19.3535
39.1514 19.2568
39.1987 19.2718
39.2461 19.1327
39.2934 19.144
39.3409 18.9716
39.3882 18.9379
39.4356 18.9041
39.483 18.8324
39.5304 18.739
39.5778 18.738
39.6253 18.5992
39.6726 18.5062
39.7201 18.57
39.7675 18.4013
39.815 18.4126
39.8624 18.3383
39.9099 18.2897
39.9575 18.2828
40.0049 18.1463
40.0525 18.0831
40.0999 18.0476
40.1474 18.0036
40.1949 17.9077
40.2425 17.8835
40.2899 17.7429
40.3375 17.8265
40.385 17.7318
40.4326 17.6646
40.48 17.5726
40.5277 17.5943
40.5752 17.5124
40.6228 17.424
40.6703 17.3859
40.718 17.3507
40.7655 17.3129
40.8132 17.2584
40.8607 17.1962
40.9084 17.1839
40.9559 17.0415
41.0036 17.0248
41.0512 16.9508
41.0989 16.9231
41.1465 16.8281
41.1942 16.8536
41.242 16.6821
41.2896 16.6646
41.3373 16.6098
41.3849 16.5922
41.4327 16.4993
41.4803 16.4038
41.5281 16.4375
41.5758 16.2983
41.6236 16.2687
41.6712 16.1803
41.7191 16.1394
41.7667 16.111
41.8146 16.1249
41.8622 16.0004
41.9101 15.9653
41.9578 15.9053
42.0057 15.8562
42.0534 15.7191
42.1013 15.7756
42.149 15.7414
42.1969 15.6204
42.2446 15.5555
42.2925 15.5145
42.3403 15.4719
42.3882 15.4803
42.436 15.4347
42.4839 15.3191
42.5319 15.2948
42.5797 15.237
42.6277 15.218
42.6755 15.1638
42.7235 15.0227
42.7713 15.0741
42.8193 14.952
42.8671 14.9225
42.9152 14.8659
42.963 14.7923
43.0111 14.794
43.0589 14.7268
43.107 14.67
43.1549 14.6539
43.2029 14.5876
43.2508 14.5661
43.2989 14.3701
43.3468 14.3641
43.3949 14.3649
43.4429 14.2974
43.491 14.2368
43.5389 14.2012
43.5871 14.1764
43.635 14.1004
43.6832 14.0854
43.7312 13.9943
43.7793 13.983
43.8273 13.8999
43.8755 13.8524
43.9237 13.8687
43.9717 13.7683
44.0199 13.7658
44.068 13.703
44.1162 13.6684
44.1642 13.6016
44.2125 13.5652
44.2606 13.5324
44.3088 13.4538
44.3569 13.4077
44.4052 13.3691
44.4533 13.3109
44.5016 13.2752
44.5497 13.2387
44.598 13.1898
44.6461 13.08
44.6945 13.0518
44.7426 13.0782
44.791 12.9703
44.8391 12.938
44.8875 12.8517
44.9357 12.8638
44.984 12.7915
45.0322 12.7829
45.0806 12.7254
45.1288 12.6722
45.1773 12.6178
45.2257 12.5949
45.2739 12.5113
45.3224 12.4897
45.3706 12.4308
45.4191 12.3662
45.4673 12.2903
45.5158 12.3065
45.5641 12.2756
45.6126 12.2127
45.6609 12.188
45.7094 12.0745
45.7577 12.0765
45.8063 11.9973
45.8546 11.9821
45.9031 11.9571
45.9515 11.917
46.0001 11.8609
46.0484 11.8118
46.097 11.8227
46.1454 11.7455
46.194 11.6945
46.2424 11.6633
46.291 11.6194
46.3395 11.5463
46.3881 11.487
46.4365 11.5059
46.4852 11.4075
46.5337 11.3892
46.5823 11.3767
46.631 11.3109
46.6795 11.286
46.7282 11.2884
46.7767 11.2082
46.8254 11.1448
46.8739 11.1243
46.9226 11.0462
46.9712 11.0556
47.0199 10.9932
47.0685 10.8979
47.1173 10.8922
47.1658 10.8784
47.2146 10.8353
47.2632 10.7827
47.312 10.7453
47.3606 10.6861
47.4095 10.6454
47.4581 10.6525
47.5069 10.5816
47.5556 10.5195
47.6044 10.4867
47.6531 10.4814
47.702 10.4
47.7507 10.3985
47.7996 10.3239
47.8483 10.3134
47.8972 10.2959
47.9461 10.2522
47.9948 10.2056
48.0438 10.19
48.0925 10.1483
48.1415 10.1239
48.1902 10.0927
48.2392 10.0275
48.288 10.0143
48.337 9.91319
48.3858 9.91552
48.4348 9.91298
48.4837 9.88599
48.5327 9.85344
48.5815 9.82815
48.6306 9.76656
48.6795 9.71777
48.7285 9.68281
48.7774 9.67401
48.8265 9.63749
48.8754 9.55133
48.9245 9.50287
48.9734 9.49522
49.0226 9.47093
49.0715 9.40412
49.1206 9.38324
49.1696 9.34317
49.2188 9.33278
49.2679 9.27168
49.3169 9.24345
49.3661 9.20365
49.4151 9.15688
49.4643 9.17238
49.5134 9.06529
49.5626 9.06408
49.6117 9.02556
49.6609 8.98689
49.71 8.92081
49.7592 8.93232
49.8083 8.86325
49.8576 8.8956
49.9067 8.82868
49.956 8.79228
50.0052 8.76177
50.0545 8.71416
50.1036 8.6683
50.153 8.65118
50.2022 8.63841
50.2515 8.58882
50.3007 8.56451
50.3501 8.52134
50.3993 8.47515
50.4487 8.41829
50.498 8.42515
50.5474 8.38931
50.5966 8.35806
50.6461 8.33445
50.6955 8.30305
50.7448 8.28958
50.7943 8.25944
50.8436 8.21138
50.8931 8.15565
50.9424 8.18218
50.9919 8.10372
51.0413 8.09519
51.0908 8.03587
51.1402 8.04336
51.1897 7.93496
51.2391 7.97355
51.2887 7.86777
51.3381 7.87224
51.3877 7.89075
51.4371 7.81048
51.4867 7.78972
51.5362 7.75979
51.5858 7.73148
51.6353 7.68189
51.6849 7.64543
51.7344 7.63036
51.7841 7.61467
51.8336 7.57859
51.8833 7.54741
51.9328 7.48076
51.9826 7.43179
52.0323 7.46265
52.0818 7.43166
52.1316 7.361
52.1812 7.33657
52.231 7.30535
52.2806 7.31051
52.3304 7.28292
52.38 7.20121
52.4298 7.19323
52.4794 7.18622
52.5293 7.16175
52.5789 7.08112
52.6288 7.07072
52.6785 7.05151
52.7284 7.01245
52.7781 7.01101
52.828 6.93846
52.8777 6.95933
52.9276 6.89343
52.9774 6.83159
53.0273 6.85065
53.0771 6.7974
53.1271 6.8047
53.1769 6.73038
53.2269 6.76307
53.2767 6.68316
53.3267 6.65868
53.3765 6.65822
53.4266 6.58862
53.4766 6.59179
53.5265 6.488
53.5765 6.53056
53.6264 6.48062
53.6765 6.48462
53.7264 6.42793
53.7765 6.4272
53.8265 6.37768
53.8766 6.31938
53.9266 6.31967
53.9767 6.2983
54.0267 6.27598
54.0769 6.23757
54.1269 6.25309
54.1771 6.21288
54.2271 6.14258
54.2773 6.10065
54.3274 6.10592
54.3776 6.07206
54.4277 6.01491
54.478 6.03932
54.528 5.9728
54.5783 5.94391
54.6285 5.85125
54.6788 5.81777
54.7289 5.79491
54.7792 5.77443
54.8296 5.69966
54.8798 5.63674
54.9301 5.58696
54.9803 5.59056
55.0307 5.57131
55.0809 5.5257
55.1314 5.51116
55.1816 5.3769
55.232 5.37152
55.2823 5.31239
55.3328 5.25722
55.383 5.20185
55.4335 5.20653
55.4838 5.11613
55.5344 5.11659
55.5847 5.03733
55.6352 4.9905
55.6856 4.97433
55.7361 5.01489