File: XRD/Ni3Fe_FD0408.xy
TT I
1.27165 7.87793
1.31627 7.26383
1.36089 6.95903
1.40551 5.97818
1.45013 5.93284
1.49476 6.30631
1.53938 5.66025
1.584 5.32585
1.62863 5.01297
1.67325 5.63833
1.71787 5.03943
1.7625 5.12235
1.80712 4.75609
1.85174 4.73055
1.89636 4.78597
1.94099 5.0565
1.98562 5.15572
2.03025 4.80289
2.07487 4.43203
2.11949 4.5176
2.16411 5.1545
2.20874 16.6864
2.25338 28.2629
2.298 6.75626
2.34263 5.25614
2.38725 5.36951
2.43188 5.23951
2.4765 6.09455
2.52115 6.60659
2.56577 7.26691
2.6104 6.76663
2.65503 7.4119
2.69965 7.02228
2.7443 7.74839
2.78893 7.72755
2.83356 8.34968
2.87818 8.85821
2.92281 8.26039
2.96744 9.27708
3.01209 10.0753
3.05672 10.7967
3.10135 12.5429
3.14599 12.9896
3.19062 14.2658
3.23527 15.3169
3.2799 15.9379
3.32454 16.5368
3.36917 18.4029
3.4138 19.3537
3.45844 20.1216
3.50309 21.4524
3.54773 21.941
3.59237 24.5287
3.637 111.337
3.68164 70.1579
3.7263 26.9945
3.77094 26.9122
3.81558 27.3014
3.86022 28.5286
3.90486 29.4134
3.9495 30.486
3.99416 31.5197
4.0388 33.4462
4.08344 34.2545
4.12809 35.2646
4.17273 38.0839
4.21738 45.8334
4.26204 305.871
4.30669 268.207
4.35133 51.1487
4.39598 45.7017
4.44063 57.149
4.4853 71.2634
4.52995 52.0702
4.5746 52.6154
4.61925 53.9506
4.6639 56.0159
4.70855 58.9195
4.75322 61.8509
4.79788 64.8622
4.84253 67.8037
4.88719 73.1195
4.93184 76.1883
4.97652 82.3071
5.02118 89.1238
5.06583 96.7487
5.11049 110.498
5.15515 199.45
5.19981 426.494
5.24449 2934.81
5.28916 11479.2
5.33382 3603.65
5.37848 224.67
5.42315 138.426
5.46783 118.947
5.5125 109.61
5.55716 104.954
5.60183 101.569
5.6465 99.6992
5.69117 96.99
5.73586 94.2893
5.78053 94.513
5.8252 94.1561
5.86988 94.6834
5.91455 97.1505
5.95924 107.501
6.00392 231.373
6.0486 1034.57
6.09328 3904.08
6.13795 3427.61
6.18263 303.134
6.22733 100.068
6.27201 87.2324
6.3167 112.652
6.36138 85.3855
6.40606 71.2805
6.45075 69.5875
6.49545 67.3397
6.54014 65.949
6.58483 64.7806
6.62952 64.5686
6.67421 104.061
6.71892 170.106
6.76361 73.157
6.8083 60.5569
6.853 59.0862
6.89769 58.4528
6.94239 58.1823
6.98711 57.1572
7.03181 57.5462
7.07651 57.0851
7.12121 56.4303
7.16591 56.9592
7.21063 57.6367
7.25533 75.5261
7.30004 216.432
7.34475 103.836
7.38945 58.6604
7.43416 56.3956
7.47889 55.926
7.5236 56.0
7.56831 56.7399
7.61303 58.8613
7.65774 59.4651
7.70247 57.5032
7.74719 57.4713
7.79191 57.8756
7.83663 58.3043
7.88135 58.9098
7.92607 60.0824
7.97081 60.9547
8.01553 62.0827
8.06026 63.5484
8.10498 65.4848
8.14971 77.1465
8.19446 75.7857
8.23919 71.08
8.28392 73.6739
8.32865 75.8741
8.37339 79.6157
8.41812 87.9328
8.46288 124.238
8.50761 177.798
8.55235 411.196
8.59709 1084.18
8.64183 2112.51
8.68658 1142.33
8.73134 197.819
8.77609 104.896
8.82083 95.6792
8.86558 91.9708
8.91033 92.3182
8.9551 95.1849
8.99985 87.3927
9.04461 85.15
9.08936 84.5018
9.13412 83.8438
9.17888 83.7745
9.22365 84.8128
9.26841 83.872
9.31318 84.7173
9.35794 84.922
9.4027 84.941
9.44749 85.283
9.49226 86.1565
9.53703 87.0808
9.5818 89.273
9.62657 94.7474
9.67134 102.781
9.71614 95.8487
9.76091 95.8859
9.80569 98.7895
9.85047 102.571
9.89525 131.771
9.94005 147.726
9.98484 186.885
10.0296 363.325
10.0744 766.686
10.1192 1594.83
10.164 1748.81
10.2088 509.385
10.2536 141.132
10.2984 118.947
10.3432 121.302
10.388 108.232
10.4328 122.379
10.4776 165.239
10.5224 266.599
10.5672 472.365
10.612 538.997
10.6568 232.829
10.7017 102.72
10.7465 89.0964
10.7913 85.3286
10.8361 82.9902
10.8809 80.9382
10.9257 80.6929
10.9706 82.0296
11.0154 76.7621
11.0602 74.7633
11.105 73.8011
11.1499 79.3741
11.1947 89.5803
11.2395 78.0135
11.2844 72.9084
11.3292 69.025
11.374 67.7082
11.4189 67.3776
11.4637 66.4162
11.5086 67.3417
11.5534 71.4681
11.5983 67.947
11.6431 65.0661
11.688 64.5816
11.7328 64.3294
11.7777 64.5245
11.8225 63.9379
11.8674 63.5119
11.9122 64.1649
11.9571 64.3361
12.002 64.8717
12.0468 69.595
12.0917 81.7651
12.1366 102.416
12.1814 144.071
12.2263 200.349
12.2712 183.846
12.3161 109.092
12.3609 74.4167
12.4058 66.5867
12.4507 65.9718
12.4956 65.7983
12.5405 66.1716
12.5853 67.1834
12.6302 77.0345
12.6751 83.8972
12.72 72.5037
12.7649 69.4411
12.8098 69.8089
12.8547 71.1435
12.8996 72.5511
12.9445 73.6241
12.9894 75.3132
13.0343 77.0116
13.0792 80.6225
13.1242 90.5446
13.1691 116.339
13.214 152.0
13.2589 225.118
13.3038 341.463
13.3487 430.378
13.3937 296.822
13.4386 138.398
13.4835 109.862
13.5285 125.209
13.5734 158.176
13.6183 229.52
13.6633 326.565
13.7082 357.099
13.7531 218.621
13.7981 106.311
13.843 84.4875
13.888 81.7216
13.9329 79.0119
13.9779 77.4723
14.0228 76.0607
14.0678 74.7381
14.1127 74.2547
14.1577 74.5135
14.2027 73.4699
14.2476 72.0529
14.2926 72.6242
14.3376 73.8096
14.3825 72.1052
14.4275 70.1562
14.4725 70.1676
14.5175 70.426
14.5624 70.4699
14.6074 73.4428
14.6524 73.9966
14.6974 72.006
14.7424 73.5872
14.7874 80.4156
14.8324 91.6186
14.8774 110.316
14.9224 145.353
14.9674 195.98
15.0124 222.78
15.0574 166.208
15.1024 100.609
15.1474 75.2268
15.1924 72.5582
15.2374 73.3255
15.2824 72.7662
15.3274 70.1531
15.3725 68.2995
15.4175 67.9329
15.4625 67.4921
15.5076 68.032
15.5526 67.9092
15.5976 67.3478
15.6426 68.395
15.6877 74.1729
15.7327 82.119
15.7778 95.6362
15.8228 120.732
15.8679 159.748
15.9129 192.911
15.958 171.498
16.003 107.326
16.0481 72.0311
16.0931 67.1941
16.1382 65.1764
16.1833 62.2601
16.2283 60.574
16.2734 59.7967
16.3185 60.5406
16.3636 61.4551
16.4086 59.8298
16.4537 57.622
16.4988 57.0261
16.5439 56.9664
16.589 56.5592
16.6341 56.3663
16.6792 55.9191
16.7243 56.1776
16.7694 56.4977
16.8145 56.2498
16.8596 56.6334
16.9047 58.5907
16.9498 59.0462
16.9949 57.3017
17.04 57.1882
17.0851 58.5829
17.1302 60.0849
17.1754 62.9964
17.2205 67.0238
17.2656 73.2319
17.3108 81.7617
17.3559 83.5628
17.401 74.5129
17.4462 64.5486
17.4913 60.8219
17.5365 60.4719
17.5815 60.8643
17.6268 60.8024
17.6718 61.7596
17.7171 62.4346
17.7622 62.6713
17.8074 63.2896
17.8525 65.5968
17.8977 69.8791
17.9428 75.6844
17.9881 83.1679
18.0331 97.411
18.0784 115.945
18.1237 137.027
18.1688 137.74
18.214 111.496
18.2591 89.8082
18.3044 89.3829
18.3495 98.2505
18.3948 107.083
18.4399 101.733
18.4852 82.7039
18.5303 68.8193
18.5756 64.0872
18.6207 62.9219
18.666 62.0957
18.7112 61.0568
18.7565 60.2506
18.8016 59.9726
18.8469 59.3902
18.892 58.9765
18.9374 58.5814
18.9825 58.3213
19.0278 58.3205
19.073 58.3384
19.1183 59.0613
19.1635 59.7013
19.2088 61.1243
19.254 62.8319
19.2993 66.6029
19.3447 72.2428
19.3898 77.7735
19.4352 75.422
19.4804 66.5324
19.5257 58.9855
19.5709 55.7886
19.6163 55.1555
19.6615 54.9958
19.7068 54.6438
19.752 54.5102
19.7974 54.819
19.8426 55.9323
19.888 56.4742
19.9332 57.4844
19.9786 59.2832
20.0238 62.5107
20.0692 67.1024
20.1144 70.8761
20.1598 70.6591
20.205 65.5462
20.2504 63.0106
20.2957 64.1742
20.3411 66.3037
20.3863 66.222
20.4318 60.9363
20.477 55.8902
20.5224 53.2619
20.5677 52.5201
20.6131 51.5876
20.6586 50.9072
20.7038 50.7545
20.7493 50.315
20.7945 50.2929
20.84 50.0719
20.8853 49.7395
20.9307 49.5615
20.976 49.7997
21.0215 49.697
21.0668 50.3104
21.1122 50.4247
21.1575 51.1412
21.203 51.8006
21.2483 52.5056
21.2938 52.9718
21.3391 51.5309
21.3846 50.3593
21.4299 49.5473
21.4754 49.5249
21.5207 49.5425
21.5662 49.9632
21.6116 50.5138
21.6571 50.9985
21.7024 51.8982
21.7479 53.5327
21.7933 55.9705
21.8388 59.023
21.8843 62.771
21.9297 65.6456
21.9752 65.6329
22.0206 61.8509
22.0661 58.1553
22.1115 56.9866
22.157 57.2934
22.2024 56.0476
22.248 53.2598
22.2933 51.4163
22.3389 50.4187
22.3843 50.3412
22.4299 50.2748
22.4753 50.2395
22.5208 49.9485
22.5662 49.6796
22.6118 49.9513
22.6572 50.0517
22.7028 50.5026
22.7483 50.8778
22.7939 51.5822
22.8393 52.7425
22.8849 54.5193
22.9303 56.2895
22.9759 58.4841
23.0214 58.9772
23.067 56.5279
23.1126 52.9604
23.1581 50.6625
23.2037 50.0388
23.2492 50.1625
23.2948 50.0231
23.3403 50.1867
23.3859 50.7285
23.4314 51.6529
23.477 53.1682
23.5225 55.0203
23.5682 57.2498
23.6137 59.038
23.6593 57.8614
23.7048 53.8429
23.7505 50.0384
23.796 47.916
23.8417 47.2218
23.8872 46.6908
23.9329 46.3395
23.9784 45.9381
24.0241 45.8878
24.0697 45.6692
24.1154 45.1218
24.1609 45.225
24.2066 45.0076
24.2522 44.749
24.2979 44.5539
24.3434 44.3593
24.3892 44.2637
24.4349 44.154
24.4805 43.8786
24.5262 44.0093
24.5718 43.8684
24.6175 43.9132
24.6631 43.929
24.7089 43.6835
24.7545 43.4773
24.8002 43.3574
24.8458 43.2327
24.8916 43.0908
24.9372 43.2248
24.983 43.5916
25.0286 43.804
25.0744 44.1148
25.12 44.6253
25.1658 45.1585
25.2114 45.6852
25.2572 45.7136
25.3029 45.7352
25.3487 45.8424
25.3943 45.7777
25.4402 44.7645
25.4858 43.8354
25.5316 42.5638
25.5773 41.8627
25.6231 41.8301
25.669 41.524
25.7147 41.5085
25.7605 41.5951
25.8062 41.4157
25.8521 41.5725
25.8977 41.6033
25.9436 41.7182
25.9893 41.8859
26.0352 42.318
26.0809 42.4176
26.1268 42.6782
26.1725 42.4927
26.2184 41.9041
26.2641 41.4731
26.31 41.1481
26.3557 41.143
26.4017 41.0583
26.4474 41.4711
26.4933 41.6934
26.5391 42.0439
26.585 42.4868
26.6308 42.8593
26.6767 43.0654
26.7225 43.1296
26.7684 42.4596
26.8142 41.9132
26.8601 41.4835
26.9059 41.132
26.9519 40.5601
26.9979 40.2041
27.0437 39.8383
27.0896 39.6312
27.1354 39.5664
27.1814 39.4836
27.2272 39.4335
27.2732 39.4451
27.3191 39.1951
27.3651 39.3191
27.4109 39.3073
27.4569 39.2973
27.5027 39.4219
27.5488 39.5693
27.5946 39.3717
27.6407 39.1475
27.6865 38.9891
27.7326 38.6703
27.7784 38.8292
27.8245 38.7525
27.8703 38.9617
27.9164 39.1759
27.9623 39.1859
28.0084 39.561
28.0543 39.914
28.1003 39.9895
28.1462 39.9164
28.1923 39.4333
28.2384 38.9224
28.2843 38.6111
28.3304 38.0988
28.3764 37.6869
28.4225 37.4022
28.4684 37.1991
28.5145 36.716
28.5605 36.7769
28.6066 36.4556
28.6526 36.5824
28.6987 36.3772
28.7447 36.2773
28.7908 36.3056
28.8368 36.3053
28.8829 36.0781
28.9289 36.2169
28.9751 36.0859
29.0211 35.8771
29.0673 35.454
29.1133 35.4641
29.1595 35.2344
29.2055 35.0807
29.2517 35.1137
29.2977 35.0711
29.3439 34.9726
29.3899 35.0328
29.4361 35.1015
29.4824 34.7717
29.5284 34.6073
29.5746 34.2784
29.6207 33.8551
29.6669 33.8407
29.713 33.7335
29.7593 33.6726
29.8053 33.5998
29.8516 33.5494
29.8977 33.5309
29.9439 33.3032
29.99 33.3299
30.0363 33.154
30.0824 33.3726
30.1287 33.1692
30.1748 33.1696
30.2211 33.1185
30.2673 33.0366
30.3136 33.1201
30.3597 33.1071
30.406 32.9348
30.4522 32.7664
30.4985 32.7244
30.5447 32.8999
30.591 32.7589
30.6372 32.8393
30.6835 32.8684
30.7297 32.9577
30.7761 32.9265
30.8224 32.7514
30.8686 32.6444
30.915 32.3247
30.9612 32.2315
31.0076 31.9758
31.0538 31.9194
31.1002 31.9467
31.1464 31.7238
31.1928 31.8027
31.2391 31.7048
31.2855 31.6305
31.3317 31.5085
31.3781 31.7004
31.4244 31.5878
31.4708 31.5637
31.5171 31.5149
31.5636 31.452
31.6098 31.2667
31.6563 31.0959
31.7026 30.8581
31.7491 30.8376
31.7953 30.8831
31.8418 30.8417
31.8881 30.7781
31.9346 30.874
31.9809 30.7451
32.0275 30.609
32.074 30.5524
32.1203 30.3936
32.1668 30.3342
32.2132 30.1784
32.2597 29.9433
32.306 29.94
32.3526 29.6061
32.399 29.6498
32.4455 29.4642
32.4919 29.3713
32.5385 29.371
32.5848 29.1236
32.6314 29.1645
32.6778 29.1265
32.7244 28.9581
32.7708 28.8811
32.8174 28.8046
32.8638 28.6577
32.9104 28.7821
32.9569 28.7462
33.0035 28.5458
33.0499 28.5359
33.0966 28.4786
33.143 28.4211
33.1897 28.2731
33.2361 28.2052
33.2828 28.2139
33.3293 28.1037
33.3759 28.0793
33.4226 27.8681
33.4691 27.7959
33.5158 27.6022
33.5623 27.4859
33.609 27.3812
33.6555 27.3802
33.7022 27.2275
33.7487 27.2157
33.7954 27.1599
33.842 27.0903
33.8887 26.8552
33.9353 26.9153
33.982 26.7616
34.0286 26.7446
34.0753 26.6183
34.1219 26.577
34.1687 26.4658
34.2152 26.4842
34.262 26.2632
34.3086 26.1968
34.3554 26.0473
34.402 26.0205
34.4488 25.9794
34.4954 25.815
34.5422 25.7758
34.5889 25.6765
34.6357 25.6604
34.6825 25.5939
34.7292 25.3863
34.776 25.3578
34.8227 25.3391
34.8695 25.2557
34.9162 25.1307
34.9631 25.0203
35.0098 25.1077
35.0566 24.925
35.1033 24.9148
35.1502 24.8464
35.1969 24.8263
35.2438 24.731
35.2906 24.7222
35.3375 24.5716
35.3842 24.5376
35.4311 24.5602
35.4779 24.5618
35.5248 24.4026
35.5716 24.3405
35.6185 24.2327
35.6653 24.1547
35.7123 24.1082
35.759 24.0737
35.806 23.9334
35.8528 23.773
35.8998 23.7939
35.9468 23.6996
35.9936 23.549
36.0406 23.5418
36.0874 23.6104
36.1345 23.3837
36.1813 23.4351
36.2283 23.2333
36.2752 23.1895
36.3222 23.2313
36.3691 23.0473
36.4161 23.0139
36.463 23.0372
36.5101 23.0024
36.557 22.8799
36.6041 22.7672
36.651 22.63
36.6981 22.6449
36.745 22.5929
36.7921 22.4794
36.839 22.3764
36.8861 22.3597
36.9331 22.1858
36.9802 22.0906
37.0272 22.0637
37.0743 21.9715
37.1213 21.9942
37.1684 21.8901
37.2154 21.8595
37.2626 21.8104
37.3098 21.7043
37.3568 21.6925
37.404 21.5624
37.451 21.4676
37.4982 21.4883
37.5452 21.3565
37.5924 21.3489
37.6395 21.3597
37.6867 21.2635
37.7337 21.0559
37.781 21.0123
37.8281 20.9448
37.8753 20.8982
37.9224 20.7669
37.9697 20.7689
38.0168 20.686
38.064 20.6637
38.1111 20.5857
38.1584 20.5418
38.2056 20.4144
38.2529 20.4439
38.3 20.2748
38.3473 20.248
38.3945 20.156
38.4418 20.1323
38.489 20.1519
38.5363 19.9057
38.5837 19.886
38.6309 19.8661
38.6782 19.766
38.7254 19.7209
38.7728 19.6379
38.82 19.6702
38.8674 19.5285
38.9146 19.4952
38.9621 19.3817
39.0093 19.3918
39.0567 19.3098
39.104 19.2955
39.1514 19.1591
39.1987 19.1537
39.2461 19.0767
39.2934 18.9743
39.3409 18.924
39.3882 18.9199
39.4356 18.8097
39.483 18.737
39.5304 18.7037
39.5778 18.6623
39.6253 18.5736
39.6726 18.4766
39.7201 18.5205
39.7675 18.4852
39.815 18.3753
39.8624 18.2551
39.9099 18.2277
39.9575 18.1281
40.0049 18.0943
40.0525 18.0051
40.0999 18.0242
40.1474 17.9711
40.1949 17.8676
40.2425 17.7396
40.2899 17.7515
40.3375 17.7434
40.385 17.6363
40.4326 17.6218
40.48 17.5253
40.5277 17.4961
40.5752 17.47
40.6228 17.3755
40.6703 17.3245
40.718 17.221
40.7655 17.2491
40.8132 17.1169
40.8607 17.1802
40.9084 17.0938
40.9559 16.9864
41.0036 16.994
41.0512 16.9203
41.0989 16.8405
41.1465 16.7996
41.1942 16.7577
41.242 16.654
41.2896 16.6079
41.3373 16.5452
41.3849 16.5072
41.4327 16.4325
41.4803 16.4825
41.5281 16.3121
41.5758 16.276
41.6236 16.2204
41.6712 16.166
41.7191 16.1311
41.7667 16.0381
41.8146 16.0594
41.8622 15.9505
41.9101 15.9015
41.9578 15.8079
42.0057 15.845
42.0534 15.8059
42.1013 15.7482
42.149 15.6352
42.1969 15.6132
42.2446 15.5478
42.2925 15.4808
42.3403 15.4555
42.3882 15.4323
42.436 15.4091
42.4839 15.2172
42.5319 15.2637
42.5797 15.1736
42.6277 15.1166
42.6755 15.059
42.7235 15.018
42.7713 14.9234
42.8193 14.8918
42.8671 14.8398
42.9152 14.8108
42.963 14.7559
43.0111 14.7056
43.0589 14.7063
43.107 14.61
43.1549 14.5893
43.2029 14.4735
43.2508 14.5066
43.2989 14.4235
43.3468 14.324
43.3949 14.312
43.4429 14.2575
43.491 14.2261
43.5389 14.1353
43.5871 14.162
43.635 14.02
43.6832 14.0283
43.7312 13.9189
43.7793 13.9342
43.8273 13.8908
43.8755 13.7598
43.9237 13.7693
43.9717 13.7389
44.0199 13.6706
44.068 13.6322
44.1162 13.5513
44.1642 13.57
44.2125 13.4895
44.2606 13.4733
44.3088 13.4086
44.3569 13.3431
44.4052 13.2955
44.4533 13.2495
44.5016 13.213
44.5497 13.1985
44.598 13.141
44.6461 13.0644
44.6945 13.04
44.7426 12.9796
44.791 12.921
44.8391 12.8599
44.8875 12.8334
44.9357 12.8536
44.984 12.7613
45.0322 12.722
45.0806 12.6774
45.1288 12.6221
45.1773 12.5823
45.2257 12.5361
45.2739 12.5023
45.3224 12.4336
45.3706 12.4257
45.4191 12.3269
45.4673 12.3303
45.5158 12.3143
45.5641 12.2199
45.6126 12.2199
45.6609 12.1699
45.7094 12.0665
45.7577 12.0544
45.8063 11.9702
45.8546 11.9418
45.9031 11.9292
45.9515 11.8725
46.0001 11.8031
46.0484 11.781
46.097 11.7843
46.1454 11.7569
46.194 11.6551
46.2424 11.5947
46.291 11.5713
46.3395 11.5191
46.3881 11.4651
46.4365 11.5015
46.4852 11.411
46.5337 11.4178
46.5823 11.363
46.631 11.2731
46.6795 11.2373
46.7282 11.2185
46.7767 11.1691
46.8254 11.0781
46.8739 11.0668
46.9226 11.0427
46.9712 10.9747
47.0199 10.9647
47.0685 10.9658
47.1173 10.8658
47.1658 10.8318
47.2146 10.8209
47.2632 10.752
47.312 10.7011
47.3606 10.6619
47.4095 10.6258
47.4581 10.6133
47.5069 10.5394
47.5556 10.5327
47.6044 10.4584
47.6531 10.449
47.702 10.3567
47.7507 10.3793
47.7996 10.3608
47.8483 10.2999
47.8972 10.2499
47.9461 10.2099
47.9948 10.1677
48.0438 10.154
48.0925 10.1259
48.1415 10.0776
48.1902 10.0552
48.2392 10.03
48.288 9.97215
48.337 9.93591
48.3858 9.88595
48.4348 9.89488
48.4837 9.79941
48.5327 9.76132
48.5815 9.75663
48.6306 9.74459
48.6795 9.66052
48.7285 9.62327
48.7774 9.60906
48.8265 9.58943
48.8754 9.52523
48.9245 9.55122
48.9734 9.47136
49.0226 9.48879
49.0715 9.39266
49.1206 9.3396
49.1696 9.29375
49.2188 9.28518
49.2679 9.27549
49.3169 9.19777
49.3661 9.17832
49.4151 9.12997
49.4643 9.12803
49.5134 9.0943
49.5626 9.01089
49.6117 9.0378
49.6609 9.00105
49.71 8.91669
49.7592 8.92351
49.8083 8.88654
49.8576 8.83538
49.9067 8.78398
49.956 8.78202
50.0052 8.75559
50.0545 8.70185
50.1036 8.66201
50.153 8.6461
50.2022 8.5828
50.2515 8.56194
50.3007 8.52849
50.3501 8.47956
50.3993 8.50016
50.4487 8.44314
50.498 8.40287
50.5474 8.40455
50.5966 8.33602
50.6461 8.34036
50.6955 8.30745
50.7448 8.25194
50.7943 8.22395
50.8436 8.18579
50.8931 8.14309
50.9424 8.1042
50.9919 8.09702
51.0413 8.07532
51.0908 8.02846
51.1402 8.03797
51.1897 7.95843
51.2391 7.91465
51.2887 7.86697
51.3381 7.81524
51.3877 7.85486
51.4371 7.81173
51.4867 7.74222
51.5362 7.71965
51.5858 7.7061
51.6353 7.64353
51.6849 7.64781
51.7344 7.61398
51.7841 7.59679
51.8336 7.56159
51.8833 7.51822
51.9328 7.47853
51.9826 7.43537
52.0323 7.44108
52.0818 7.40109
52.1316 7.3467
52.1812 7.3317
52.231 7.28296
52.2806 7.25005
52.3304 7.24078
52.38 7.18754
52.4298 7.18345
52.4794 7.16443
52.5293 7.09081
52.5789 7.09766
52.6288 7.05196
52.6785 6.98007
52.7284 6.96197
52.7781 6.96191
52.828 6.94498
52.8777 6.86753
52.9276 6.8875
52.9774 6.84514
53.0273 6.84228
53.0771 6.76056
53.1271 6.7811
53.1769 6.74311
53.2269 6.70565
53.2767 6.6624
53.3267 6.61696
53.3765 6.61682
53.4266 6.62445
53.4766 6.58159
53.5265 6.52349
53.5765 6.48738
53.6264 6.48514
53.6765 6.44047
53.7264 6.41878
53.7765 6.41095
53.8265 6.36098
53.8766 6.29411
53.9266 6.29029
53.9767 6.32408
54.0267 6.20236
54.0769 6.253
54.1269 6.17484
54.1771 6.16678
54.2271 6.10898
54.2773 6.05883
54.3274 6.09126
54.3776 6.04407
54.4277 6.02638
54.478 5.96159
54.528 5.8922
54.5783 5.88396
54.6285 5.83615
54.6788 5.79653
54.7289 5.79917
54.7792 5.74525
54.8296 5.67757
54.8798 5.67121
54.9301 5.58744
54.9803 5.56803
55.0307 5.57068
55.0809 5.47573
55.1314 5.48971
55.1816 5.41325
55.232 5.36908
55.2823 5.30252
55.3328 5.20742
55.383 5.19535
55.4335 5.22774
55.4838 5.10635
55.5344 5.13753
55.5847 4.9815
55.6352 5.0747
55.6856 4.9423
55.7361 4.94324