File: XRD/Ni3Fe_FD0517.xy
TT I
1.27165 7.47784
1.31627 7.01772
1.36089 6.51279
1.40551 6.07743
1.45013 6.35157
1.49476 6.35841
1.53938 6.16099
1.584 4.97654
1.62863 5.70717
1.67325 5.29682
1.71787 5.53487
1.7625 4.73201
1.80712 4.84967
1.85174 5.37076
1.89636 5.02854
1.94099 4.7634
1.98562 4.64628
2.03025 4.95231
2.07487 4.70783
2.11949 4.75707
2.16411 5.00259
2.20874 15.1225
2.25338 25.4342
2.298 5.83929
2.34263 5.43003
2.38725 5.25815
2.43188 5.81239
2.4765 5.90377
2.52115 5.90281
2.56577 7.2443
2.6104 7.70854
2.65503 7.25183
2.69965 7.17545
2.7443 8.07513
2.78893 7.72916
2.83356 8.0589
2.87818 8.69272
2.92281 8.6455
2.96744 9.3847
3.01209 10.7071
3.05672 11.8515
3.10135 12.409
3.14599 13.4348
3.19062 13.9674
3.23527 14.7455
3.2799 15.7539
3.32454 16.9914
3.36917 18.0666
3.4138 19.0887
3.45844 20.1135
3.50309 20.7863
3.54773 22.1686
3.59237 24.1846
3.637 102.895
3.68164 64.1887
3.7263 26.8985
3.77094 26.4107
3.81558 27.1231
3.86022 28.0656
3.90486 29.4214
3.9495 30.2443
3.99416 30.9552
4.0388 32.7012
4.08344 34.305
4.12809 35.6116
4.17273 37.7907
4.21738 44.5247
4.26204 277.126
4.30669 241.719
4.35133 49.9033
4.39598 45.416
4.44063 55.5076
4.4853 68.3339
4.52995 51.1555
4.5746 51.7336
4.61925 53.889
4.6639 56.0222
4.70855 58.4623
4.75322 61.0025
4.79788 64.287
4.84253 67.7741
4.88719 71.7911
4.93184 75.7756
4.97652 80.791
5.02118 87.9046
5.06583 95.7351
5.11049 107.694
5.15515 183.983
5.19981 384.138
5.24449 2877.62
5.28916 11870.6
5.33382 3241.93
5.37848 205.213
5.42315 133.68
5.46783 116.749
5.5125 107.464
5.55716 103.848
5.60183 99.9603
5.6465 98.264
5.69117 95.1354
5.73586 93.1167
5.78053 92.5842
5.8252 92.348
5.86988 93.1098
5.91455 95.7869
5.95924 103.793
6.00392 212.447
6.0486 994.68
6.09328 4089.48
6.13795 3416.97
6.18263 293.121
6.22733 97.0693
6.27201 85.0847
6.3167 107.649
6.36138 83.0926
6.40606 70.5429
6.45075 68.5372
6.49545 66.7192
6.54014 64.7418
6.58483 63.4736
6.62952 63.5516
6.67421 98.872
6.71892 156.288
6.76361 70.8075
6.8083 59.4902
6.853 58.2336
6.89769 57.582
6.94239 57.3998
6.98711 56.3883
7.03181 56.2825
7.07651 55.8538
7.12121 55.8688
7.16591 56.412
7.21063 56.5285
7.25533 73.2566
7.30004 198.68
7.34475 97.6074
7.38945 57.7463
7.43416 55.241
7.47889 55.2424
7.5236 55.4878
7.56831 56.0471
7.61303 57.9623
7.65774 58.1812
7.70247 56.9077
7.74719 56.6787
7.79191 57.6201
7.83663 57.5879
7.88135 58.4618
7.92607 59.3926
7.97081 60.7519
8.01553 61.5516
8.06026 62.8644
8.10498 64.618
8.14971 75.2051
8.19446 73.704
8.23919 70.3408
8.28392 72.999
8.32865 75.1043
8.37339 79.2131
8.41812 86.568
8.46288 118.293
8.50761 166.684
8.55235 390.248
8.59709 1129.29
8.64183 2111.21
8.68658 1065.61
8.73134 187.756
8.77609 102.467
8.82083 94.2008
8.86558 91.0062
8.91033 91.4492
8.9551 93.4613
8.99985 86.3284
9.04461 84.0629
9.08936 83.3444
9.13412 82.4408
9.17888 83.1277
9.22365 83.5584
9.26841 82.7801
9.31318 83.3232
9.35794 83.2259
9.4027 83.8297
9.44749 84.3815
9.49226 85.2584
9.53703 86.2486
9.5818 88.6775
9.62657 93.423
9.67134 101.105
9.71614 94.9247
9.76091 94.9849
9.80569 97.5332
9.85047 100.827
9.89525 127.98
9.94005 141.575
9.98484 178.787
10.0296 345.267
10.0744 777.969
10.1192 1639.16
10.164 1654.82
10.2088 449.219
10.2536 135.137
10.2984 116.07
10.3432 118.146
10.388 106.525
10.4328 119.446
10.4776 160.68
10.5224 277.701
10.5672 492.424
10.612 527.671
10.6568 226.641
10.7017 100.413
10.7465 87.9207
10.7913 84.3013
10.8361 82.0398
10.8809 79.9926
10.9257 79.6591
10.9706 80.4821
11.0154 76.0043
11.0602 73.8391
11.105 72.8144
11.1499 77.8114
11.1947 86.2707
11.2395 76.0803
11.2844 71.5664
11.3292 68.3433
11.374 67.1301
11.4189 66.4046
11.4637 65.7303
11.5086 66.4072
11.5534 69.7913
11.5983 66.8534
11.6431 64.1479
11.688 63.5221
11.7328 63.6485
11.7777 63.662
11.8225 63.4363
11.8674 63.1754
11.9122 63.4462
11.9571 63.6931
12.002 64.2336
12.0468 68.2354
12.0917 80.3417
12.1366 103.329
12.1814 150.242
12.2263 202.344
12.2712 174.996
12.3161 103.119
12.3609 72.6126
12.4058 65.9933
12.4507 65.2531
12.4956 65.2472
12.5405 65.2105
12.5853 66.4889
12.6302 75.1873
12.6751 81.8037
12.72 71.455
12.7649 68.6828
12.8098 69.0832
12.8547 70.4046
12.8996 71.9342
12.9445 72.9181
12.9894 74.5195
13.0343 76.4621
13.0792 79.5267
13.1242 88.8034
13.1691 113.498
13.214 149.904
13.2589 231.653
13.3038 354.483
13.3487 430.782
13.3937 286.097
13.4386 132.145
13.4835 106.991
13.5285 121.574
13.5734 158.018
13.6183 239.449
13.6633 335.896
13.7082 344.076
13.7531 201.29
13.7981 102.824
13.843 83.0694
13.888 80.6084
13.9329 77.8682
13.9779 76.5146
14.0228 74.9892
14.0678 73.9114
14.1127 73.6599
14.1577 73.4916
14.2027 72.3875
14.2476 71.1429
14.2926 71.5257
14.3376 72.4917
14.3825 71.1188
14.4275 69.5437
14.4725 69.6351
14.5175 69.6966
14.5624 69.9023
14.6074 71.8834
14.6524 72.4904
14.6974 71.1761
14.7424 72.6763
14.7874 79.1558
14.8324 89.5393
14.8774 110.081
14.9224 149.949
14.9674 199.921
15.0124 216.561
15.0574 156.403
15.1024 94.9999
15.1474 73.712
15.1924 71.6533
15.2374 72.2427
15.2824 71.5641
15.3274 69.2604
15.3725 67.6448
15.4175 67.3223
15.4625 66.7513
15.5076 67.2393
15.5526 66.9956
15.5976 66.4724
15.6426 67.2578
15.6877 72.7547
15.7327 80.6192
15.7778 95.2056
15.8228 124.14
15.8679 165.835
15.9129 192.427
15.958 161.805
16.003 103.22
16.0481 70.4963
16.0931 66.2095
16.1382 64.0363
16.1833 61.5142
16.2283 59.8428
16.2734 59.1648
16.3185 59.8067
16.3636 60.5476
16.4086 58.8873
16.4537 57.074
16.4988 56.2032
16.5439 56.2642
16.589 55.7836
16.6341 55.6059
16.6792 55.3213
16.7243 55.552
16.7694 55.8754
16.8145 55.626
16.8596 56.0821
16.9047 57.7635
16.9498 58.127
16.9949 56.6492
17.04 56.4133
17.0851 57.7141
17.1302 59.5117
17.1754 62.2612
17.2205 67.2538
17.2656 74.1125
17.3108 81.9409
17.3559 82.1326
17.401 72.7491
17.4462 63.5641
17.4913 59.8903
17.5365 59.7418
17.5815 60.071
17.6268 60.2975
17.6718 61.1081
17.7171 61.6383
17.7622 61.8263
17.8074 62.5434
17.8525 64.7198
17.8977 68.8886
17.9428 74.4399
17.9881 82.4695
18.0331 98.4368
18.0784 118.973
18.1237 137.878
18.1688 134.62
18.214 108.044
18.2591 88.5548
18.3044 90.3325
18.3495 99.3857
18.3948 106.279
18.4399 99.5204
18.4852 80.6083
18.5303 67.5992
18.5756 63.191
18.6207 61.9255
18.666 61.2661
18.7112 60.4254
18.7565 59.7686
18.8016 59.2617
18.8469 58.7629
18.892 58.6065
18.9374 57.912
18.9825 57.7732
19.0278 57.6043
19.073 57.5977
19.1183 58.3087
19.1635 59.0041
19.2088 60.2812
19.254 62.4227
19.2993 66.7692
19.3447 72.6771
19.3898 76.9567
19.4352 73.8413
19.4804 64.858
19.5257 57.9254
19.5709 54.9942
19.6163 54.6418
19.6615 54.3552
19.7068 53.9003
19.752 54.0062
19.7974 54.2724
19.8426 55.1329
19.888 55.9454
19.9332 56.8935
19.9786 59.2219
20.0238 62.3657
20.0692 67.091
20.1144 70.3342
20.1598 69.331
20.205 64.6167
20.2504 62.8804
20.2957 64.0388
20.3411 66.018
20.3863 64.8972
20.4318 59.8021
20.477 54.7961
20.5224 52.4619
20.5677 51.7325
20.6131 51.1156
20.6586 50.2235
20.7038 50.0631
20.7493 49.8593
20.7945 49.678
20.84 49.4271
20.8853 49.3964
20.9307 48.9755
20.976 49.2805
21.0215 49.2288
21.0668 49.6584
21.1122 49.994
21.1575 50.5717
21.203 51.1805
21.2483 51.8967
21.2938 52.064
21.3391 50.7206
21.3846 49.821
21.4299 48.9465
21.4754 48.9862
21.5207 49.116
21.5662 49.2777
21.6116 49.8245
21.6571 50.569
21.7024 51.5557
21.7479 53.234
21.7933 55.7668
21.8388 59.084
21.8843 62.7118
21.9297 64.9047
21.9752 64.3461
22.0206 60.9132
22.0661 57.3624
22.1115 56.3692
22.157 56.4351
22.2024 55.2615
22.248 52.374
22.2933 50.651
22.3389 49.8818
22.3843 49.7133
22.4299 49.6299
22.4753 49.4084
22.5208 49.2875
22.5662 49.0485
22.6118 49.0789
22.6572 49.4562
22.7028 49.7697
22.7483 50.2828
22.7939 50.9369
22.8393 52.2788
22.8849 54.1402
22.9303 56.3591
22.9759 57.9393
23.0214 58.2164
23.067 55.6104
23.1126 52.17
23.1581 49.9931
23.2037 49.3752
23.2492 49.4544
23.2948 49.3697
23.3403 49.6047
23.3859 50.3084
23.4314 51.3976
23.477 52.8931
23.5225 54.8146
23.5682 57.004
23.6137 58.3601
23.6593 56.7301
23.7048 52.7546
23.7505 49.2803
23.796 47.3331
23.8417 46.5895
23.8872 46.0927
23.9329 45.6635
23.9784 45.4774
24.0241 45.1467
24.0697 44.9978
24.1154 44.6153
24.1609 44.5057
24.2066 44.5276
24.2522 44.1809
24.2979 44.1404
24.3434 43.8259
24.3892 43.62
24.4349 43.669
24.4805 43.4493
24.5262 43.7898
24.5718 43.4265
24.6175 43.4881
24.6631 43.4395
24.7089 43.1658
24.7545 43.0305
24.8002 42.7524
24.8458 42.8727
24.8916 42.6721
24.9372 42.6767
24.983 43.1028
25.0286 43.4528
25.0744 43.6707
25.12 44.1614
25.1658 44.7922
25.2114 45.0357
25.2572 45.2001
25.3029 45.2733
25.3487 45.4426
25.3943 45.2391
25.4402 44.2165
25.4858 43.0516
25.5316 42.1869
25.5773 41.5099
25.6231 41.3579
25.669 41.0483
25.7147 40.9914
25.7605 40.8824
25.8062 41.1423
25.8521 41.1206
25.8977 41.1128
25.9436 41.3943
25.9893 41.4402
26.0352 41.7971
26.0809 42.0074
26.1268 42.1943
26.1725 41.8537
26.2184 41.3631
26.2641 40.9365
26.31 40.6661
26.3557 40.6861
26.4017 40.6225
26.4474 40.8392
26.4933 41.1911
26.5391 41.7408
26.585 41.9722
26.6308 42.5059
26.6767 42.753
26.7225 42.5898
26.7684 41.974
26.8142 41.539
26.8601 41.004
26.9059 40.6747
26.9519 40.0374
26.9979 39.7746
27.0437 39.3293
27.0896 39.2896
27.1354 39.197
27.1814 39.0623
27.2272 39.0412
27.2732 39.0805
27.3191 38.8081
27.3651 38.9426
27.4109 38.9596
27.4569 39.0035
27.5027 39.0785
27.5488 38.9978
27.5946 38.8624
27.6407 38.5906
27.6865 38.6319
27.7326 38.3454
27.7784 38.3657
27.8245 38.3278
27.8703 38.3867
27.9164 38.6919
27.9623 38.809
28.0084 39.1049
28.0543 39.5069
28.1003 39.4972
28.1462 39.3663
28.1923 38.9478
28.2384 38.3956
28.2843 38.2232
28.3304 37.7726
28.3764 37.2883
28.4225 36.9119
28.4684 36.7283
28.5145 36.3894
28.5605 36.4032
28.6066 36.1693
28.6526 36.1315
28.6987 36.0473
28.7447 36.0233
28.7908 35.7709
28.8368 35.8083
28.8829 35.9379
28.9289 35.8218
28.9751 35.6225
29.0211 35.3672
29.0673 35.0681
29.1133 35.0096
29.1595 34.8248
29.2055 34.8409
29.2517 34.6612
29.2977 34.5688
29.3439 34.5916
29.3899 34.7145
29.4361 34.617
29.4824 34.3726
29.5284 34.1153
29.5746 33.8513
29.6207 33.5175
29.6669 33.4866
29.713 33.3944
29.7593 33.3206
29.8053 33.3213
29.8516 33.2581
29.8977 33.1276
29.9439 33.1619
29.99 32.992
30.0363 32.8724
30.0824 32.9286
30.1287 32.9049
30.1748 32.9043
30.2211 32.762
30.2673 32.7262
30.3136 32.8767
30.3597 32.6222
30.406 32.6072
30.4522 32.4487
30.4985 32.4732
30.5447 32.5702
30.591 32.4134
30.6372 32.655
30.6835 32.5936
30.7297 32.5635
30.7761 32.5996
30.8224 32.4407
30.8686 32.1598
30.915 31.9836
30.9612 31.9102
31.0076 31.8112
31.0538 31.5712
31.1002 31.5503
31.1464 31.3676
31.1928 31.2405
31.2391 31.2439
31.2855 31.3029
31.3317 31.2722
31.3781 31.31
31.4244 31.2241
31.4708 31.1813
31.5171 31.2439
31.5636 31.018
31.6098 30.8806
31.6563 30.795
31.7026 30.6629
31.7491 30.4082
31.7953 30.592
31.8418 30.4085
31.8881 30.5036
31.9346 30.4233
31.9809 30.4185
32.0275 30.3445
32.074 30.1652
32.1203 30.1256
32.1668 29.8977
32.2132 29.7941
32.2597 29.6716
32.306 29.5204
32.3526 29.2944
32.399 29.2723
32.4455 29.1423
32.4919 29.1031
32.5385 29.0025
32.5848 28.9809
32.6314 28.8121
32.6778 28.7857
32.7244 28.6957
32.7708 28.5976
32.8174 28.5142
32.8638 28.4039
32.9104 28.3774
32.9569 28.3632
33.0035 28.1732
33.0499 28.1925
33.0966 28.164
33.143 28.1422
33.1897 28.0655
33.2361 28.0002
33.2828 28.0107
33.3293 27.7637
33.3759 27.7471
33.4226 27.5657
33.4691 27.5234
33.5158 27.38
33.5623 27.2647
33.609 27.1188
33.6555 27.0172
33.7022 26.9424
33.7487 26.8481
33.7954 26.8503
33.842 26.7587
33.8887 26.6309
33.9353 26.5549
33.982 26.4821
34.0286 26.4136
34.0753 26.3001
34.1219 26.2082
34.1687 26.135
34.2152 26.1751
34.262 25.9236
34.3086 25.8761
34.3554 25.9422
34.402 25.672
34.4488 25.6909
34.4954 25.6341
34.5422 25.5319
34.5889 25.3775
34.6357 25.3141
34.6825 25.2153
34.7292 25.1786
34.776 25.1067
34.8227 25.014
34.8695 24.9371
34.9162 24.9297
34.9631 24.8044
35.0098 24.7752
35.0566 24.7185
35.1033 24.64
35.1502 24.5731
35.1969 24.4622
35.2438 24.5457
35.2906 24.3932
35.3375 24.4354
35.3842 24.3253
35.4311 24.335
35.4779 24.2541
35.5248 24.1229
35.5716 24.1211
35.6185 24.04
35.6653 23.9045
35.7123 23.8598
35.759 23.7509
35.806 23.6982
35.8528 23.58
35.8998 23.5339
35.9468 23.4119
35.9936 23.4254
36.0406 23.2398
36.0874 23.3154
36.1345 23.1916
36.1813 23.0929
36.2283 23.0521
36.2752 22.8719
36.3222 23.0107
36.3691 22.8723
36.4161 22.7123
36.463 22.7004
36.5101 22.6699
36.557 22.596
36.6041 22.4298
36.651 22.4275
36.6981 22.4123
36.745 22.327
36.7921 22.2575
36.839 22.1048
36.8861 22.0309
36.9331 21.9918
36.9802 21.903
37.0272 21.8318
37.0743 21.742
37.1213 21.714
37.1684 21.6263
37.2154 21.6455
37.2626 21.6094
37.3098 21.4645
37.3568 21.3991
37.404 21.3428
37.451 21.2782
37.4982 21.2649
37.5452 21.1159
37.5924 21.1161
37.6395 21.0647
37.6867 21.0316
37.7337 20.8968
37.781 20.7487
37.8281 20.8172
37.8753 20.5948
37.9224 20.5656
37.9697 20.6113
38.0168 20.4483
38.064 20.3729
38.1111 20.3913
38.1584 20.2648
38.2056 20.2199
38.2529 20.1941
38.3 20.0128
38.3473 20.1274
38.3945 20.023
38.4418 19.9577
38.489 19.8768
38.5363 19.7855
38.5837 19.6268
38.6309 19.6717
38.6782 19.5796
38.7254 19.5206
38.7728 19.4625
38.82 19.3757
38.8674 19.4141
38.9146 19.2871
38.9621 19.1461
39.0093 19.1911
39.0567 19.1621
39.104 19.0682
39.1514 18.9231
39.1987 18.9301
39.2461 18.876
39.2934 18.7876
39.3409 18.6905
39.3882 18.6186
39.4356 18.5852
39.483 18.5475
39.5304 18.5124
39.5778 18.4067
39.6253 18.3711
39.6726 18.3171
39.7201 18.2466
39.7675 18.1965
39.815 18.1398
39.8624 18.0929
39.9099 18.0605
39.9575 17.9762
40.0049 17.8894
40.0525 17.8609
40.0999 17.7632
40.1474 17.7765
40.1949 17.6415
40.2425 17.6046
40.2899 17.6647
40.3375 17.5151
40.385 17.4718
40.4326 17.381
40.48 17.3374
40.5277 17.4172
40.5752 17.2324
40.6228 17.1767
40.6703 17.1346
40.718 17.0693
40.7655 16.9932
40.8132 16.9165
40.8607 17.0141
40.9084 16.9128
40.9559 16.8294
41.0036 16.8241
41.0512 16.7128
41.0989 16.6931
41.1465 16.5687
41.1942 16.5767
41.242 16.4117
41.2896 16.4694
41.3373 16.3758
41.3849 16.3388
41.4327 16.2663
41.4803 16.1776
41.5281 16.1949
41.5758 16.0632
41.6236 16.0505
41.6712 16.0102
41.7191 15.9173
41.7667 15.8986
41.8146 15.8723
41.8622 15.8048
41.9101 15.7121
41.9578 15.6617
42.0057 15.6458
42.0534 15.5992
42.1013 15.5454
42.149 15.5346
42.1969 15.4042
42.2446 15.3614
42.2925 15.3491
42.3403 15.2813
42.3882 15.2238
42.436 15.1711
42.4839 15.1207
42.5319 15.0767
42.5797 15.0183
42.6277 14.9512
42.6755 14.9099
42.7235 14.8162
42.7713 14.7996
42.8193 14.7706
42.8671 14.6788
42.9152 14.6992
42.963 14.6354
43.0111 14.5288
43.0589 14.4888
43.107 14.4314
43.1549 14.4114
43.2029 14.3541
43.2508 14.375
43.2989 14.2081
43.3468 14.193
43.3949 14.139
43.4429 14.1768
43.491 14.0493
43.5389 14.0528
43.5871 13.9733
43.635 13.8917
43.6832 13.8512
43.7312 13.7898
43.7793 13.7762
43.8273 13.7315
43.8755 13.6468
43.9237 13.6562
43.9717 13.5787
44.0199 13.4883
44.068 13.4538
44.1162 13.4578
44.1642 13.4388
44.2125 13.3532
44.2606 13.2698
44.3088 13.2394
44.3569 13.2327
44.4052 13.1881
44.4533 13.1152
44.5016 13.052
44.5497 13.0291
44.598 13.0424
44.6461 12.9277
44.6945 12.8589
44.7426 12.8926
44.791 12.7429
44.8391 12.734
44.8875 12.7148
44.9357 12.6646
44.984 12.5968
45.0322 12.6073
45.0806 12.5126
45.1288 12.4907
45.1773 12.4553
45.2257 12.3943
45.2739 12.3682
45.3224 12.3671
45.3706 12.2693
45.4191 12.2397
45.4673 12.226
45.5158 12.1156
45.5641 12.056
45.6126 12.0382
45.6609 12.0427
45.7094 11.9872
45.7577 11.9224
45.8063 11.8565
45.8546 11.8352
45.9031 11.7506
45.9515 11.7711
46.0001 11.6812
46.0484 11.6775
46.097 11.6438
46.1454 11.5479
46.194 11.5481
46.2424 11.4663
46.291 11.4631
46.3395 11.4497
46.3881 11.3574
46.4365 11.3395
46.4852 11.2764
46.5337 11.2435
46.5823 11.2657
46.631 11.1328
46.6795 11.1203
46.7282 11.09
46.7767 11.0672
46.8254 10.9623
46.8739 10.9915
46.9226 10.8884
46.9712 10.8995
47.0199 10.831
47.0685 10.7965
47.1173 10.7544
47.1658 10.7132
47.2146 10.6832
47.2632 10.6214
47.312 10.6288
47.3606 10.599
47.4095 10.5461
47.4581 10.5642
47.5069 10.4474
47.5556 10.3949
47.6044 10.3597
47.6531 10.3251
47.702 10.274
47.7507 10.2498
47.7996 10.226
47.8483 10.1983
47.8972 10.1802
47.9461 10.1353
47.9948 10.0764
48.0438 10.0374
48.0925 10.0475
48.1415 9.98638
48.1902 9.91939
48.2392 9.89972
48.288 9.88333
48.337 9.84531
48.3858 9.78732
48.4348 9.72658
48.4837 9.74789
48.5327 9.7277
48.5815 9.65943
48.6306 9.6296
48.6795 9.58554
48.7285 9.56216
48.7774 9.53498
48.8265 9.49254
48.8754 9.44102
48.9245 9.44337
48.9734 9.32844
49.0226 9.38527
49.0715 9.27146
49.1206 9.26122
49.1696 9.21446
49.2188 9.16156
49.2679 9.17847
49.3169 9.12696
49.3661 9.06449
49.4151 9.03593
49.4643 9.00303
49.5134 9.00572
49.5626 8.93358
49.6117 8.93432
49.6609 8.90752
49.71 8.8058
49.7592 8.80387
49.8083 8.76701
49.8576 8.7546
49.9067 8.69416
49.956 8.69448
50.0052 8.65367
50.0545 8.60604
50.1036 8.58522
50.153 8.52387
50.2022 8.55046
50.2515 8.48586
50.3007 8.39343
50.3501 8.42089
50.3993 8.40448
50.4487 8.38234
50.498 8.33871
50.5474 8.30505
50.5966 8.25899
50.6461 8.21864
50.6955 8.19129
50.7448 8.15464
50.7943 8.13081
50.8436 8.10497
50.8931 8.06698
50.9424 8.03202
50.9919 8.01617
51.0413 7.97638
51.0908 7.93958
51.1402 7.89008
51.1897 7.86722
51.2391 7.83908
51.2887 7.79529
51.3381 7.77145
51.3877 7.75876
51.4371 7.68691
51.4867 7.68279
51.5362 7.68057
51.5858 7.63448
51.6353 7.57233
51.6849 7.57053
51.7344 7.52805
51.7841 7.53039
51.8336 7.46084
51.8833 7.44058
51.9328 7.41239
51.9826 7.3562
52.0323 7.35732
52.0818 7.32248
52.1316 7.28231
52.1812 7.25609
52.231 7.22328
52.2806 7.21404
52.3304 7.13388
52.38 7.10789
52.4298 7.0953
52.4794 7.07861
52.5293 7.03106
52.5789 7.03225
52.6288 7.00298
52.6785 6.94509
52.7284 6.937
52.7781 6.94197
52.828 6.9082
52.8777 6.81866
52.9276 6.83314
52.9774 6.78945
53.0273 6.72526
53.0771 6.7088
53.1271 6.68463
53.1769 6.63477
53.2269 6.64337
53.2767 6.6369
53.3267 6.59034
53.3765 6.57404
53.4266 6.53636
53.4766 6.51266
53.5265 6.47309
53.5765 6.43069
53.6264 6.41072
53.6765 6.40524
53.7264 6.36801
53.7765 6.36048
53.8265 6.3127
53.8766 6.29666
53.9266 6.25754
53.9767 6.21633
54.0267 6.22394
54.0769 6.15937
54.1269 6.15464
54.1771 6.09179
54.2271 6.12707
54.2773 6.06359
54.3274 6.04801
54.3776 5.99539
54.4277 5.97157
54.478 5.91371
54.528 5.86355
54.5783 5.84728
54.6285 5.80602
54.6788 5.70517
54.7289 5.71914
54.7792 5.68806
54.8296 5.65015
54.8798 5.58032
54.9301 5.54489
54.9803 5.53421
55.0307 5.51935
55.0809 5.43918
55.1314 5.4375
55.1816 5.36406
55.232 5.3266
55.2823 5.34275
55.3328 5.22636
55.383 5.21413
55.4335 5.11037
55.4838 5.0981
55.5344 5.08045
55.5847 5.04353
55.6352 4.99104
55.6856 4.92655
55.7361 4.87985