File: XRD/Ni3Fe_FD0731.xy
TT I
1.27165 7.54659
1.31627 6.65058
1.36089 6.37727
1.40551 6.6662
1.45013 6.25132
1.49476 5.82105
1.53938 6.12454
1.584 5.46046
1.62863 5.67822
1.67325 5.40502
1.71787 4.77961
1.7625 5.1011
1.80712 4.92987
1.85174 4.44944
1.89636 4.81642
1.94099 4.62333
1.98562 4.36745
2.03025 5.1097
2.07487 5.20319
2.11949 4.9056
2.16411 5.7196
2.20874 13.2275
2.25338 20.7109
2.298 5.61884
2.34263 5.52575
2.38725 6.07365
2.43188 6.59296
2.4765 7.05317
2.52115 7.12482
2.56577 7.56374
2.6104 8.32331
2.65503 7.89144
2.69965 8.67602
2.7443 8.40512
2.78893 8.15288
2.83356 8.06384
2.87818 9.17411
2.92281 8.88946
2.96744 9.98049
3.01209 10.2701
3.05672 11.1646
3.10135 12.3458
3.14599 13.5755
3.19062 14.2556
3.23527 14.8964
3.2799 16.0547
3.32454 16.8882
3.36917 17.3436
3.4138 18.6505
3.45844 19.7729
3.50309 20.6199
3.54773 21.9316
3.59237 23.5516
3.637 85.5924
3.68164 54.4984
3.7263 26.176
3.77094 26.0791
3.81558 26.7018
3.86022 27.5501
3.90486 29.0398
3.9495 29.7634
3.99416 30.8308
4.0388 32.4011
4.08344 33.7784
4.12809 34.4586
4.17273 36.5572
4.21738 42.5695
4.26204 226.77
4.30669 199.276
4.35133 48.088
4.39598 44.4857
4.44063 52.8077
4.4853 64.0211
4.52995 49.9691
4.5746 51.1273
4.61925 53.1943
4.6639 55.2172
4.70855 57.6688
4.75322 60.6146
4.79788 63.6134
4.84253 66.972
4.88719 71.2146
4.93184 74.4835
4.97652 80.2967
5.02118 86.1161
5.06583 94.0537
5.11049 104.521
5.15515 165.952
5.19981 325.423
5.24449 2803.3
5.28916 12596.8
5.33382 2881.52
5.37848 184.585
5.42315 127.632
5.46783 113.169
5.5125 105.711
5.55716 101.897
5.60183 98.1002
5.6465 95.9044
5.69117 94.192
5.73586 92.0115
5.78053 91.0984
5.8252 90.4665
5.86988 91.0133
5.91455 93.1185
5.95924 100.471
6.00392 195.112
6.0486 921.772
6.09328 4534.9
6.13795 3211.47
6.18263 237.74
6.22733 92.2175
6.27201 82.4668
6.3167 98.8566
6.36138 79.085
6.40606 68.8249
6.45075 67.0387
6.49545 65.0033
6.54014 63.9486
6.58483 62.899
6.62952 62.4854
6.67421 91.2151
6.71892 134.697
6.76361 67.8535
6.8083 57.9269
6.853 57.3687
6.89769 56.6085
6.94239 55.9735
6.98711 55.6167
7.03181 55.4834
7.07651 55.0625
7.12121 54.6628
7.16591 54.7445
7.21063 55.3142
7.25533 69.0004
7.30004 166.474
7.34475 86.9373
7.38945 56.2736
7.43416 54.1856
7.47889 54.5572
7.5236 54.2373
7.56831 54.9393
7.61303 56.7351
7.65774 56.8095
7.70247 56.1451
7.74719 55.6803
7.79191 56.4852
7.83663 56.5666
7.88135 57.9629
7.92607 58.3835
7.97081 59.8597
8.01553 60.5689
8.06026 62.0499
8.10498 63.4201
8.14971 72.1001
8.19446 71.6131
8.23919 69.2444
8.28392 71.418
8.32865 73.6694
8.37339 78.1595
8.41812 84.3677
8.46288 110.253
8.50761 155.585
8.55235 369.131
8.59709 1176.0
8.64183 2165.79
8.68658 973.403
8.73134 165.212
8.77609 99.0781
8.82083 92.2492
8.86558 89.239
8.91033 89.441
8.9551 90.7572
8.99985 85.0029
9.04461 83.2162
9.08936 82.425
9.13412 81.4273
9.17888 81.7915
9.22365 82.665
9.26841 81.5367
9.31318 81.7959
9.35794 82.2732
9.4027 82.7131
9.44749 83.6182
9.49226 84.4039
9.53703 85.0232
9.5818 86.9207
9.62657 91.6108
9.67134 97.1577
9.71614 93.2784
9.76091 93.7611
9.80569 96.3238
9.85047 99.5825
9.89525 121.439
9.94005 131.916
9.98484 168.875
10.0296 331.969
10.0744 814.71
10.1192 1762.82
10.164 1598.22
10.2088 410.631
10.2536 126.391
10.2984 112.209
10.3432 113.314
10.388 103.874
10.4328 115.463
10.4776 157.014
10.5224 283.755
10.5672 516.774
10.612 512.484
10.6568 207.111
10.7017 96.5199
10.7465 86.1592
10.7913 82.8815
10.8361 80.6761
10.8809 78.5212
10.9257 78.1957
10.9706 78.4562
11.0154 74.5948
11.0602 72.3671
11.105 71.5568
11.1499 75.0278
11.1947 81.6257
11.2395 73.5348
11.2844 69.7621
11.3292 66.691
11.374 65.8568
11.4189 65.6532
11.4637 64.8196
11.5086 65.075
11.5534 67.5191
11.5983 65.1942
11.6431 63.5158
11.688 62.5399
11.7328 62.6672
11.7777 62.5938
11.8225 62.2047
11.8674 62.247
11.9122 62.5064
11.9571 62.6236
12.002 63.339
12.0468 67.0612
12.0917 77.3566
12.1366 102.053
12.1814 154.483
12.2263 201.191
12.2712 163.618
12.3161 97.4027
12.3609 70.2386
12.4058 64.4263
12.4507 64.065
12.4956 64.1575
12.5405 64.1523
12.5853 65.2963
12.6302 72.2427
12.6751 76.9643
12.72 69.4322
12.7649 67.3524
12.8098 68.0253
12.8547 69.5527
12.8996 70.8796
12.9445 71.9004
12.9894 73.7088
13.0343 75.7429
13.0792 78.4961
13.1242 86.6993
13.1691 109.017
13.214 146.447
13.2589 240.298
13.3038 370.427
13.3487 414.899
13.3937 264.775
13.4386 127.14
13.4835 103.934
13.5285 117.945
13.5734 157.149
13.6183 249.285
13.6633 348.407
13.7082 333.187
13.7531 186.053
13.7981 97.5001
13.843 81.5366
13.888 79.1237
13.9329 76.9161
13.9779 75.5214
14.0228 74.2481
14.0678 72.56
14.1127 72.4598
14.1577 72.0951
14.2027 71.2324
14.2476 70.0429
14.2926 70.1902
14.3376 71.0491
14.3825 69.9292
14.4275 68.7984
14.4725 68.451
14.5175 68.7155
14.5624 68.657
14.6074 70.7171
14.6524 71.1052
14.6974 70.2845
14.7424 71.3617
14.7874 77.7499
14.8324 87.7893
14.8774 110.155
14.9224 154.673
14.9674 208.251
15.0124 213.671
15.0574 148.484
15.1024 91.0424
15.1474 72.3584
15.1924 70.1274
15.2374 70.4795
15.2824 69.7491
15.3274 67.8454
15.3725 66.5619
15.4175 66.2103
15.4625 66.1544
15.5076 66.0224
15.5526 65.872
15.5976 65.3634
15.6426 66.36
15.6877 70.958
15.7327 78.6766
15.7778 94.3324
15.8228 128.099
15.8679 172.66
15.9129 192.715
15.958 154.281
16.003 97.8355
16.0481 68.2446
16.0931 64.3278
16.1382 62.2518
16.1833 60.2787
16.2283 58.8528
16.2734 58.0261
16.3185 58.3441
16.3636 58.9111
16.4086 57.5075
16.4537 56.0466
16.4988 55.297
16.5439 55.2626
16.589 54.9824
16.6341 54.6606
16.6792 54.2253
16.7243 54.6637
16.7694 54.7378
16.8145 54.5393
16.8596 55.1577
16.9047 56.3727
16.9498 56.4738
16.9949 55.3696
17.04 55.7425
17.0851 56.6061
17.1302 58.0878
17.1754 61.4022
17.2205 66.7046
17.2656 74.5996
17.3108 82.8723
17.3559 81.8099
17.401 70.8221
17.4462 62.0184
17.4913 59.0606
17.5365 59.03
17.5815 58.9368
17.6268 59.3411
17.6718 60.0862
17.7171 60.5812
17.7622 61.2069
17.8074 61.4047
17.8525 63.6114
17.8977 67.6133
17.9428 73.0366
17.9881 82.1382
18.0331 100.459
18.0784 122.598
18.1237 139.176
18.1688 130.376
18.214 103.259
18.2591 86.9856
18.3044 90.7825
18.3495 99.9343
18.3948 104.666
18.4399 95.193
18.4852 77.0666
18.5303 65.9146
18.5756 62.1086
18.6207 61.0592
18.666 60.1984
18.7112 59.6541
18.7565 58.8329
18.8016 58.3565
18.8469 58.0089
18.892 57.5393
18.9374 57.029
18.9825 56.912
19.0278 56.7045
19.073 56.5361
19.1183 57.0903
19.1635 57.8933
19.2088 59.2358
19.254 61.9532
19.2993 66.8758
19.3447 72.5687
19.3898 75.6033
19.4352 71.4137
19.4804 63.1103
19.5257 56.6978
19.5709 53.8616
19.6163 53.824
19.6615 53.6482
19.7068 53.1465
19.752 53.0918
19.7974 53.4797
19.8426 54.2599
19.888 54.9394
19.9332 56.023
19.9786 58.5949
20.0238 62.6443
20.0692 67.3851
20.1144 69.8262
20.1598 67.7911
20.205 63.4309
20.2504 62.3662
20.2957 64.07
20.3411 65.4296
20.3863 63.3553
20.4318 58.3037
20.477 53.7412
20.5224 51.4931
20.5677 50.7983
20.6131 50.0528
20.6586 49.6047
20.7038 49.4827
20.7493 49.164
20.7945 48.7763
20.84 48.8759
20.8853 48.5974
20.9307 48.3944
20.976 48.5886
21.0215 48.4727
21.0668 48.8276
21.1122 49.4301
21.1575 50.0323
21.203 50.7119
21.2483 51.382
21.2938 51.2201
21.3391 49.7628
21.3846 48.7465
21.4299 48.186
21.4754 48.1349
21.5207 48.2677
21.5662 48.711
21.6116 49.0128
21.6571 49.5952
21.7024 50.5464
21.7479 52.4816
21.7933 55.1701
21.8388 58.9777
21.8843 62.6824
21.9297 64.471
21.9752 63.0967
22.0206 59.5525
22.0661 56.7366
22.1115 56.0323
22.157 55.5803
22.2024 54.2006
22.248 51.5052
22.2933 49.8403
22.3389 48.9095
22.3843 48.8529
22.4299 48.6589
22.4753 48.7831
22.5208 48.4877
22.5662 48.4289
22.6118 48.5154
22.6572 48.8265
22.7028 49.1794
22.7483 49.4127
22.7939 50.2765
22.8393 51.8081
22.8849 54.166
22.9303 56.1745
22.9759 57.6171
23.0214 57.0913
23.067 54.2484
23.1126 51.0826
23.1581 49.1638
23.2037 48.6242
23.2492 48.565
23.2948 48.6663
23.3403 48.9311
23.3859 49.6202
23.4314 50.6474
23.477 52.6872
23.5225 54.8007
23.5682 56.9021
23.6137 57.5855
23.6593 55.2097
23.7048 51.4249
23.7505 48.2865
23.796 46.4512
23.8417 45.7946
23.8872 45.3447
23.9329 45.2366
23.9784 44.7978
24.0241 44.5172
24.0697 44.3852
24.1154 44.0986
24.1609 43.8846
24.2066 43.7385
24.2522 43.5797
24.2979 43.3585
24.3434 43.3075
24.3892 43.099
24.4349 42.9703
24.4805 42.8933
24.5262 42.9248
24.5718 42.818
24.6175 42.6975
24.6631 42.7428
24.7089 42.4015
24.7545 42.2655
24.8002 42.1052
24.8458 42.0935
24.8916 41.861
24.9372 42.0163
24.983 42.3178
25.0286 42.6438
25.0744 43.2159
25.12 43.5493
25.1658 44.2047
25.2114 44.5795
25.2572 44.6932
25.3029 44.6158
25.3487 44.721
25.3943 44.4737
25.4402 43.4533
25.4858 42.34
25.5316 41.3387
25.5773 40.8586
25.6231 40.7191
25.669 40.4252
25.7147 40.3798
25.7605 40.3047
25.8062 40.4448
25.8521 40.5948
25.8977 40.5178
25.9436 40.658
25.9893 40.7583
26.0352 41.392
26.0809 41.6143
26.1268 41.4577
26.1725 41.1818
26.2184 40.6817
26.2641 40.2349
26.31 39.9637
26.3557 40.0431
26.4017 39.9319
26.4474 40.1854
26.4933 40.6219
26.5391 41.1399
26.585 41.5968
26.6308 41.8515
26.6767 42.0202
26.7225 41.7913
26.7684 41.365
26.8142 40.7802
26.8601 40.365
26.9059 39.9002
26.9519 39.3473
26.9979 39.0337
27.0437 38.7751
27.0896 38.5837
27.1354 38.6223
27.1814 38.522
27.2272 38.4528
27.2732 38.5056
27.3191 38.2745
27.3651 38.4348
27.4109 38.3168
27.4569 38.3741
27.5027 38.4668
27.5488 38.4349
27.5946 38.2435
27.6407 38.0127
27.6865 37.9165
27.7326 37.8533
27.7784 37.7524
27.8245 37.8303
27.8703 37.9003
27.9164 38.2786
27.9623 38.3814
28.0084 38.6488
28.0543 39.0616
28.1003 38.9072
28.1462 38.6721
28.1923 38.4004
28.2384 37.8802
28.2843 37.6263
28.3304 37.0636
28.3764 36.5704
28.4225 36.4813
28.4684 36.132
28.5145 35.8523
28.5605 35.8158
28.6066 35.5516
28.6526 35.5494
28.6987 35.6063
28.7447 35.4081
28.7908 35.2484
28.8368 35.4728
28.8829 35.3757
28.9289 35.1362
28.9751 34.9444
29.0211 34.8542
29.0673 34.5519
29.1133 34.5232
29.1595 34.2574
29.2055 34.3607
29.2517 34.3006
29.2977 34.2424
29.3439 34.1928
29.3899 34.1042
29.4361 34.0876
29.4824 33.8847
29.5284 33.6501
29.5746 33.269
29.6207 33.0642
29.6669 33.0161
29.713 33.022
29.7593 32.7171
29.8053 32.7839
29.8516 32.7547
29.8977 32.6575
29.9439 32.5696
29.99 32.4141
30.0363 32.4436
30.0824 32.4212
30.1287 32.2263
30.1748 32.4162
30.2211 32.2452
30.2673 32.1905
30.3136 32.1825
30.3597 32.2954
30.406 32.1776
30.4522 32.0277
30.4985 31.917
30.5447 32.0421
30.591 32.0717
30.6372 32.2043
30.6835 32.1229
30.7297 32.1409
30.7761 32.0156
30.8224 31.8967
30.8686 31.7857
30.915 31.5548
30.9612 31.3337
31.0076 31.1764
31.0538 31.0278
31.1002 31.084
31.1464 30.9527
31.1928 30.9359
31.2391 30.8686
31.2855 30.8148
31.3317 30.7732
31.3781 30.899
31.4244 30.8003
31.4708 30.6916
31.5171 30.6974
31.5636 30.7656
31.6098 30.4213
31.6563 30.3013
31.7026 30.1957
31.7491 30.0529
31.7953 30.0984
31.8418 30.0361
31.8881 30.1506
31.9346 30.06
31.9809 29.9026
32.0275 29.8198
32.074 29.7975
32.1203 29.5041
32.1668 29.4884
32.2132 29.2627
32.2597 29.21
32.306 29.1453
32.3526 28.9078
32.399 28.8327
32.4455 28.6887
32.4919 28.622
32.5385 28.5915
32.5848 28.3791
32.6314 28.3855
32.6778 28.457
32.7244 28.1534
32.7708 28.2252
32.8174 28.0258
32.8638 27.9604
32.9104 28.0548
32.9569 27.9423
33.0035 27.7795
33.0499 27.8291
33.0966 27.7003
33.143 27.6696
33.1897 27.7074
33.2361 27.6442
33.2828 27.4992
33.3293 27.2816
33.3759 27.3307
33.4226 27.1741
33.4691 26.9711
33.5158 26.9095
33.5623 26.8433
33.609 26.6545
33.6555 26.6207
33.7022 26.5464
33.7487 26.3221
33.7954 26.3886
33.842 26.2764
33.8887 26.2305
33.9353 26.1876
33.982 26.0366
34.0286 26.0452
34.0753 25.9099
34.1219 25.7785
34.1687 25.7358
34.2152 25.711
34.262 25.5747
34.3086 25.5324
34.3554 25.4823
34.402 25.35
34.4488 25.2802
34.4954 25.2519
34.5422 25.112
34.5889 25.0144
34.6357 24.9175
34.6825 24.915
34.7292 24.778
34.776 24.6496
34.8227 24.5984
34.8695 24.5661
34.9162 24.5409
34.9631 24.4727
35.0098 24.3531
35.0566 24.3253
35.1033 24.2676
35.1502 24.1562
35.1969 24.1811
35.2438 24.1186
35.2906 24.053
35.3375 24.0308
35.3842 23.9557
35.4311 23.9075
35.4779 23.7807
35.5248 23.8396
35.5716 23.7043
35.6185 23.7123
35.6653 23.5882
35.7123 23.4061
35.759 23.4359
35.806 23.2806
35.8528 23.2449
35.8998 23.1471
35.9468 23.0879
35.9936 23.1289
36.0406 22.9492
36.0874 22.9078
36.1345 22.8559
36.1813 22.7659
36.2283 22.5853
36.2752 22.5772
36.3222 22.5893
36.3691 22.4964
36.4161 22.4042
36.463 22.3968
36.5101 22.3495
36.557 22.3293
36.6041 22.156
36.651 22.1202
36.6981 22.0418
36.745 21.9572
36.7921 21.9824
36.839 21.8018
36.8861 21.7575
36.9331 21.6706
36.9802 21.6689
37.0272 21.5147
37.0743 21.4506
37.1213 21.4589
37.1684 21.379
37.2154 21.2786
37.2626 21.2107
37.3098 21.0961
37.3568 21.129
37.404 21.0315
37.451 20.9823
37.4982 20.894
37.5452 20.8455
37.5924 20.7587
37.6395 20.7437
37.6867 20.6716
37.7337 20.5706
37.781 20.4834
37.8281 20.4679
37.8753 20.3958
37.9224 20.243
37.9697 20.2412
38.0168 20.1895
38.064 20.037
38.1111 20.025
38.1584 19.9804
38.2056 19.9113
38.2529 19.7807
38.3 19.7805
38.3473 19.7963
38.3945 19.6472
38.4418 19.5988
38.489 19.5729
38.5363 19.4887
38.5837 19.407
38.6309 19.3372
38.6782 19.3008
38.7254 19.2049
38.7728 19.1867
38.82 19.1197
38.8674 19.0593
38.9146 18.9637
38.9621 18.9528
39.0093 18.9182
39.0567 18.8192
39.104 18.8035
39.1514 18.7054
39.1987 18.6309
39.2461 18.5594
39.2934 18.5259
39.3409 18.3869
39.3882 18.3321
39.4356 18.3196
39.483 18.2834
39.5304 18.2214
39.5778 18.1692
39.6253 18.1485
39.6726 18.0514
39.7201 18.0638
39.7675 17.9562
39.815 17.8982
39.8624 17.8043
39.9099 17.8138
39.9575 17.689
40.0049 17.648
40.0525 17.5956
40.0999 17.5599
40.1474 17.491
40.1949 17.4441
40.2425 17.3451
40.2899 17.3616
40.3375 17.2803
40.385 17.2072
40.4326 17.1278
40.48 17.0707
40.5277 17.0929
40.5752 16.9872
40.6228 16.8348
40.6703 16.9089
40.718 16.7956
40.7655 16.7493
40.8132 16.756
40.8607 16.6815
40.9084 16.6025
40.9559 16.5274
41.0036 16.5325
41.0512 16.4626
41.0989 16.3823
41.1465 16.3111
41.1942 16.3333
41.242 16.2278
41.2896 16.1443
41.3373 16.1725
41.3849 16.1184
41.4327 15.9925
41.4803 15.94
41.5281 15.9031
41.5758 15.8421
41.6236 15.8298
41.6712 15.7271
41.7191 15.6937
41.7667 15.6578
41.8146 15.621
41.8622 15.5337
41.9101 15.5338
41.9578 15.4117
42.0057 15.4311
42.0534 15.3647
42.1013 15.2686
42.149 15.2575
42.1969 15.1718
42.2446 15.1297
42.2925 15.0845
42.3403 14.9918
42.3882 15.0359
42.436 14.9565
42.4839 14.8306
42.5319 14.8415
42.5797 14.7926
42.6277 14.7645
42.6755 14.7189
42.7235 14.6167
42.7713 14.5931
42.8193 14.5473
42.8671 14.4517
42.9152 14.468
42.963 14.3862
43.0111 14.3783
43.0589 14.2696
43.107 14.211
43.1549 14.2137
43.2029 14.2001
43.2508 14.0181
43.2989 14.0815
43.3468 13.9877
43.3949 13.9551
43.4429 13.9017
43.491 13.856
43.5389 13.8099
43.5871 13.7888
43.635 13.7146
43.6832 13.7095
43.7312 13.5757
43.7793 13.6031
43.8273 13.5107
43.8755 13.5077
43.9237 13.4293
43.9717 13.4425
44.0199 13.3448
44.068 13.2842
44.1162 13.1809
44.1642 13.2116
44.2125 13.1213
44.2606 13.1537
44.3088 13.0125
44.3569 13.0302
44.4052 12.9946
44.4533 12.8744
44.5016 12.8981
44.5497 12.8953
44.598 12.7822
44.6461 12.6893
44.6945 12.6944
44.7426 12.6835
44.791 12.5996
44.8391 12.5707
44.8875 12.5319
44.9357 12.5234
44.984 12.4446
45.0322 12.3948
45.0806 12.326
45.1288 12.2991
45.1773 12.2636
45.2257 12.231
45.2739 12.1946
45.3224 12.1154
45.3706 12.1204
45.4191 12.0016
45.4673 12.0449
45.5158 11.9673
45.5641 11.9251
45.6126 11.8446
45.6609 11.7948
45.7094 11.8249
45.7577 11.7196
45.8063 11.6424
45.8546 11.7042
45.9031 11.5935
45.9515 11.5729
46.0001 11.5189
46.0484 11.5282
46.097 11.4943
46.1454 11.4428
46.194 11.405
46.2424 11.321
46.291 11.3132
46.3395 11.2698
46.3881 11.2214
46.4365 11.2191
46.4852 11.1714
46.5337 11.1372
46.5823 11.0587
46.631 11.0057
46.6795 10.9775
46.7282 10.9476
46.7767 10.898
46.8254 10.8479
46.8739 10.8114
46.9226 10.7611
46.9712 10.7613
47.0199 10.7062
47.0685 10.6509
47.1173 10.582
47.1658 10.5646
47.2146 10.5606
47.2632 10.4798
47.312 10.4616
47.3606 10.4318
47.4095 10.3879
47.4581 10.3415
47.5069 10.3046
47.5556 10.2598
47.6044 10.2272
47.6531 10.2076
47.702 10.1222
47.7507 10.0946
47.7996 10.0637
47.8483 10.0318
47.8972 10.0396
47.9461 9.93884
47.9948 9.91149
48.0438 9.90883
48.0925 9.87642
48.1415 9.78724
48.1902 9.79012
48.2392 9.76373
48.288 9.71001
48.337 9.69844
48.3858 9.63399
48.4348 9.64556
48.4837 9.61321
48.5327 9.56904
48.5815 9.482
48.6306 9.52251
48.6795 9.43248
48.7285 9.40599
48.7774 9.35318
48.8265 9.34167
48.8754 9.28927
48.9245 9.28848
48.9734 9.2089
49.0226 9.22184
49.0715 9.15956
49.1206 9.12667
49.1696 9.04124
49.2188 9.06752
49.2679 8.99847
49.3169 8.98305
49.3661 8.9614
49.4151 8.88578
49.4643 8.91833
49.5134 8.8222
49.5626 8.80563
49.6117 8.74745
49.6609 8.74953
49.71 8.71392
49.7592 8.70835
49.8083 8.6385
49.8576 8.63548
49.9067 8.56854
49.956 8.55943
50.0052 8.5177
50.0545 8.48347
50.1036 8.46668
50.153 8.40535
50.2022 8.39744
50.2515 8.34757
50.3007 8.30142
50.3501 8.3072
50.3993 8.29073
50.4487 8.22471
50.498 8.18486
50.5474 8.15793
50.5966 8.13082
50.6461 8.11024
50.6955 8.11926
50.7448 8.06265
50.7943 8.01775
50.8436 7.95667
50.8931 7.92439
50.9424 7.90169
50.9919 7.85649
51.0413 7.88075
51.0908 7.83826
51.1402 7.78344
51.1897 7.76479
51.2391 7.695
51.2887 7.67879
51.3381 7.63676
51.3877 7.67259
51.4371 7.59112
51.4867 7.55204
51.5362 7.5473
51.5858 7.51967
51.6353 7.48444
51.6849 7.4258
51.7344 7.39559
51.7841 7.40442
51.8336 7.33823
51.8833 7.33438
51.9328 7.27736
51.9826 7.2583
52.0323 7.23042
52.0818 7.16267
52.1316 7.12331
52.1812 7.16209
52.231 7.09686
52.2806 7.08169
52.3304 7.04746
52.38 7.02933
52.4298 7.00576
52.4794 6.95122
52.5293 6.9205
52.5789 6.89717
52.6288 6.91529
52.6785 6.8503
52.7284 6.82091
52.7781 6.81564
52.828 6.75612
52.8777 6.69164
52.9276 6.71829
52.9774 6.6915
53.0273 6.67542
53.0771 6.62446
53.1271 6.59656
53.1769 6.56042
53.2269 6.56106
53.2767 6.53285
53.3267 6.46718
53.3765 6.44956
53.4266 6.44464
53.4766 6.39257
53.5265 6.35822
53.5765 6.37851
53.6264 6.35227
53.6765 6.3175
53.7264 6.2334
53.7765 6.27378
53.8265 6.18936
53.8766 6.16142
53.9266 6.16305
53.9767 6.11275
54.0267 6.10463
54.0769 6.10492
54.1269 6.0176
54.1771 5.97903
54.2271 5.99971
54.2773 5.95536
54.3274 5.91814
54.3776 5.8731
54.4277 5.88749
54.478 5.81862
54.528 5.81606
54.5783 5.74832
54.6285 5.68287
54.6788 5.7243
54.7289 5.61502
54.7792 5.55055
54.8296 5.51662
54.8798 5.47754
54.9301 5.44501
54.9803 5.43918
55.0307 5.44799
55.0809 5.34082
55.1314 5.32867
55.1816 5.31303
55.232 5.26694
55.2823 5.17762
55.3328 5.12098
55.383 5.05236
55.4335 5.01731
55.4838 4.98547
55.5344 4.92785
55.5847 4.93462
55.6352 4.94733
55.6856 4.81316
55.7361 4.85367