File: XRD/Ni3Fe_FD0848.xy
TT I
1.27165 7.11605
1.31627 6.84379
1.36089 6.57222
1.40551 6.95041
1.45013 6.25019
1.49476 6.61755
1.53938 5.42623
1.584 5.63128
1.62863 5.4338
1.67325 4.83754
1.71787 5.33947
1.7625 5.689
1.80712 4.92515
1.85174 4.31159
1.89636 4.77758
1.94099 5.12151
1.98562 4.69297
2.03025 4.54984
2.07487 4.60023
2.11949 4.97632
2.16411 5.214
2.20874 13.5016
2.25338 20.7883
2.298 6.31561
2.34263 5.38374
2.38725 5.90272
2.43188 6.59377
2.4765 6.82452
2.52115 7.48777
2.56577 7.80427
2.6104 8.34153
2.65503 7.71248
2.69965 8.36753
2.7443 8.43461
2.78893 8.0496
2.83356 8.59391
2.87818 9.01178
2.92281 8.81712
2.96744 9.44064
3.01209 10.2775
3.05672 11.0826
3.10135 12.6243
3.14599 13.0106
3.19062 14.337
3.23527 15.3883
3.2799 15.4915
3.32454 16.8396
3.36917 17.4738
3.4138 18.5908
3.45844 19.239
3.50309 20.6553
3.54773 21.6786
3.59237 23.9208
3.637 84.2065
3.68164 54.7437
3.7263 26.2261
3.77094 26.0483
3.81558 26.9251
3.86022 27.3108
3.90486 28.632
3.9495 29.5612
3.99416 30.6815
4.0388 32.1622
4.08344 33.4116
4.12809 34.3604
4.17273 36.656
4.21738 41.9715
4.26204 223.144
4.30669 196.336
4.35133 47.5196
4.39598 44.0308
4.44063 52.3998
4.4853 62.7432
4.52995 49.6993
4.5746 50.5175
4.61925 53.1156
4.6639 54.7385
4.70855 57.5087
4.75322 60.1969
4.79788 62.7259
4.84253 66.8739
4.88719 70.5904
4.93184 74.4403
4.97652 79.8089
5.02118 85.122
5.06583 92.7034
5.11049 103.163
5.15515 161.739
5.19981 301.598
5.24449 2541.53
5.28916 12276.9
5.33382 2663.99
5.37848 176.772
5.42315 125.068
5.46783 111.446
5.5125 104.371
5.55716 100.538
5.60183 97.1716
5.6465 95.3289
5.69117 93.3698
5.73586 91.0465
5.78053 90.1328
5.8252 89.7031
5.86988 90.0407
5.91455 91.4784
5.95924 98.3343
6.00392 181.258
6.0486 873.03
6.09328 4402.21
6.13795 3155.03
6.18263 229.479
6.22733 90.3262
6.27201 80.9613
6.3167 98.4585
6.36138 78.7262
6.40606 68.2265
6.45075 66.2868
6.49545 65.1029
6.54014 63.2058
6.58483 62.3177
6.62952 62.2449
6.67421 89.5657
6.71892 131.617
6.76361 66.8592
6.8083 57.9816
6.853 56.8316
6.89769 56.1186
6.94239 55.7299
6.98711 55.1162
7.03181 54.8765
7.07651 54.8345
7.12121 54.6959
7.16591 54.2901
7.21063 54.8606
7.25533 68.5753
7.30004 160.96
7.34475 86.443
7.38945 55.6277
7.43416 54.0269
7.47889 54.2551
7.5236 53.9617
7.56831 54.7567
7.61303 56.2573
7.65774 56.3995
7.70247 55.5481
7.74719 55.3111
7.79191 55.9407
7.83663 56.1401
7.88135 57.2333
7.92607 57.9475
7.97081 59.0935
8.01553 59.9199
8.06026 61.3888
8.10498 63.139
8.14971 71.8625
8.19446 70.6126
8.23919 68.6323
8.28392 70.8435
8.32865 72.9457
8.37339 77.126
8.41812 83.4253
8.46288 108.822
8.50761 149.031
8.55235 349.24
8.59709 1159.01
8.64183 2263.58
8.68658 927.091
8.73134 168.77
8.77609 97.1818
8.82083 91.0321
8.86558 88.4234
8.91033 88.3359
8.9551 89.9451
8.99985 84.3586
9.04461 82.294
9.08936 81.7725
9.13412 80.7938
9.17888 81.431
9.22365 82.1162
9.26841 80.926
9.31318 81.1745
9.35794 81.7809
9.4027 82.2601
9.44749 83.0023
9.49226 83.2774
9.53703 84.6878
9.5818 86.1791
9.62657 90.8768
9.67134 96.5233
9.71614 92.5046
9.76091 92.6423
9.80569 95.4226
9.85047 98.4938
9.89525 119.762
9.94005 130.511
9.98484 161.233
10.0296 316.807
10.0744 793.874
10.1192 1755.83
10.164 1562.01
10.2088 396.007
10.2536 124.282
10.2984 110.413
10.3432 112.079
10.388 102.492
10.4328 113.482
10.4776 152.84
10.5224 281.879
10.5672 532.672
10.612 509.314
10.6568 202.034
10.7017 96.0336
10.7465 85.3716
10.7913 82.0962
10.8361 79.9414
10.8809 77.8635
10.9257 77.3084
10.9706 77.6936
11.0154 74.0518
11.0602 71.7294
11.105 70.9655
11.1499 74.518
11.1947 80.9706
11.2395 72.7816
11.2844 69.4782
11.3292 66.455
11.374 65.2517
11.4189 64.662
11.4637 63.9443
11.5086 64.6198
11.5534 66.9103
11.5983 64.4247
11.6431 63.1193
11.688 62.1045
11.7328 61.9155
11.7777 61.8866
11.8225 61.6361
11.8674 61.6102
11.9122 61.8577
11.9571 62.0984
12.002 62.7161
12.0468 65.8579
12.0917 76.2818
12.1366 100.057
12.1814 154.398
12.2263 212.13
12.2712 168.846
12.3161 94.3432
12.3609 69.1345
12.4058 63.6312
12.4507 63.2462
12.4956 63.5323
12.5405 63.8403
12.5853 64.8041
12.6302 71.6747
12.6751 76.2988
12.72 68.736
12.7649 67.2069
12.8098 67.4322
12.8547 68.6085
12.8996 69.7864
12.9445 71.0909
12.9894 72.9815
13.0343 74.735
13.0792 77.5671
13.1242 85.225
13.1691 106.342
13.214 142.354
13.2589 237.299
13.3038 378.571
13.3487 416.969
13.3937 256.372
13.4386 121.499
13.4835 101.973
13.5285 114.955
13.5734 154.763
13.6183 251.608
13.6633 361.983
13.7082 334.611
13.7531 181.915
13.7981 96.079
13.843 80.621
13.888 78.4736
13.9329 76.1613
13.9779 74.7374
14.0228 73.3871
14.0678 72.2073
14.1127 71.6132
14.1577 71.6904
14.2027 70.7227
14.2476 69.1717
14.2926 69.5767
14.3376 70.3333
14.3825 69.1016
14.4275 67.8743
14.4725 67.7376
14.5175 67.8946
14.5624 68.0602
14.6074 69.9687
14.6524 70.3083
14.6974 69.2825
14.7424 70.5398
14.7874 76.3535
14.8324 85.7182
14.8774 107.545
14.9224 154.403
14.9674 214.66
15.0124 219.898
15.0574 147.695
15.1024 89.7602
15.1474 71.4576
15.1924 69.568
15.2374 69.8506
15.2824 69.0421
15.3274 67.0753
15.3725 65.8177
15.4175 65.4871
15.4625 65.1926
15.5076 65.3883
15.5526 65.2221
15.5976 64.7008
15.6426 65.38
15.6877 69.6809
15.7327 77.1272
15.7778 92.7506
15.8228 126.314
15.8679 172.482
15.9129 191.816
15.958 151.025
16.003 93.3604
16.0481 67.0275
16.0931 63.5755
16.1382 61.5179
16.1833 59.6486
16.2283 58.248
16.2734 57.5916
16.3185 57.6213
16.3636 58.1993
16.4086 56.923
16.4537 55.4628
16.4988 54.7852
16.5439 54.726
16.589 54.3089
16.6341 54.0604
16.6792 53.9612
16.7243 54.2289
16.7694 54.2854
16.8145 53.98
16.8596 54.3609
16.9047 55.7638
16.9498 55.9452
16.9949 55.0513
17.04 54.9826
17.0851 55.9895
17.1302 57.6187
17.1754 60.5506
17.2205 65.8338
17.2656 74.1189
17.3108 82.3698
17.3559 80.9273
17.401 70.0448
17.4462 61.2059
17.4913 58.1489
17.5365 58.3192
17.5815 58.3108
17.6268 58.8494
17.6718 59.5457
17.7171 60.0019
17.7622 60.1998
17.8074 60.8551
17.8525 62.7656
17.8977 66.4989
17.9428 71.7611
17.9881 80.8837
18.0331 99.1616
18.0784 121.958
18.1237 137.368
18.1688 127.194
18.214 101.054
18.2591 85.2479
18.3044 90.3786
18.3495 100.169
18.3948 103.764
18.4399 93.2821
18.4852 75.9671
18.5303 64.8535
18.5756 61.3335
18.6207 60.4853
18.666 59.5315
18.7112 58.7051
18.7565 58.1855
18.8016 57.8101
18.8469 57.3673
18.892 56.7579
18.9374 56.5699
18.9825 56.1902
19.0278 56.1059
19.073 55.9988
19.1183 56.5043
19.1635 57.1677
19.2088 58.3699
19.254 61.2571
19.2993 66.1028
19.3447 72.3319
19.3898 75.8368
19.4352 70.921
19.4804 62.2613
19.5257 56.0255
19.5709 53.5579
19.6163 53.068
19.6615 53.0933
19.7068 52.6381
19.752 52.4871
19.7974 52.852
19.8426 53.5904
19.888 54.2651
19.9332 55.2861
19.9786 57.9634
20.0238 61.9572
20.0692 67.1766
20.1144 68.9224
20.1598 67.2197
20.205 62.6128
20.2504 61.7392
20.2957 63.7797
20.3411 64.9917
20.3863 63.1565
20.4318 57.4782
20.477 52.9172
20.5224 50.9017
20.5677 50.3388
20.6131 49.5442
20.6586 49.0332
20.7038 48.9506
20.7493 48.3963
20.7945 48.411
20.84 48.2289
20.8853 48.0109
20.9307 47.9894
20.976 48.0734
21.0215 47.9028
21.0668 48.343
21.1122 48.8433
21.1575 49.5638
21.203 50.3346
21.2483 50.8532
21.2938 50.7165
21.3391 49.4837
21.3846 48.4708
21.4299 47.6644
21.4754 47.766
21.5207 47.8571
21.5662 48.1637
21.6116 48.466
21.6571 49.172
21.7024 49.882
21.7479 51.6907
21.7933 54.6269
21.8388 58.5652
21.8843 62.2327
21.9297 63.4076
21.9752 61.9569
22.0206 58.5381
22.0661 55.9108
22.1115 55.7013
22.157 55.0419
22.2024 53.2789
22.248 50.7544
22.2933 49.349
22.3389 48.4768
22.3843 48.4297
22.4299 48.2457
22.4753 48.3161
22.5208 47.9088
22.5662 47.791
22.6118 48.1161
22.6572 48.0904
22.7028 48.5559
22.7483 48.8593
22.7939 49.6441
22.8393 51.1932
22.8849 53.5823
22.9303 55.7721
22.9759 57.1418
23.0214 56.3736
23.067 53.6262
23.1126 50.4795
23.1581 48.6166
23.2037 48.0843
23.2492 48.2115
23.2948 47.9995
23.3403 48.4626
23.3859 48.781
23.4314 50.3101
23.477 52.0843
23.5225 54.5203
23.5682 56.4338
23.6137 57.2922
23.6593 54.653
23.7048 50.8723
23.7505 47.7674
23.796 45.9755
23.8417 45.4228
23.8872 45.1017
23.9329 44.5889
23.9784 44.3516
24.0241 44.1271
24.0697 43.9841
24.1154 43.7373
24.1609 43.4212
24.2066 43.333
24.2522 43.2444
24.2979 42.7412
24.3434 42.7521
24.3892 42.6688
24.4349 42.5218
24.4805 42.3397
24.5262 42.5766
24.5718 42.4186
24.6175 42.3513
24.6631 42.2906
24.7089 41.9859
24.7545 41.907
24.8002 41.7498
24.8458 41.7062
24.8916 41.5236
24.9372 41.7692
24.983 41.9062
25.0286 42.327
25.0744 42.86
25.12 43.202
25.1658 43.661
25.2114 44.0599
25.2572 44.2949
25.3029 44.3508
25.3487 44.4244
25.3943 44.1065
25.4402 42.9807
25.4858 42.0403
25.5316 40.8723
25.5773 40.4071
25.6231 40.4865
25.669 40.0852
25.7147 40.0592
25.7605 40.0922
25.8062 39.9425
25.8521 40.0681
25.8977 40.107
25.9436 40.3519
25.9893 40.397
26.0352 41.0188
26.0809 41.0357
26.1268 41.1379
26.1725 40.7906
26.2184 40.2494
26.2641 39.7707
26.31 39.5993
26.3557 39.5809
26.4017 39.626
26.4474 39.9067
26.4933 40.2721
26.5391 40.8493
26.585 41.2831
26.6308 41.5651
26.6767 41.5805
26.7225 41.4192
26.7684 40.9994
26.8142 40.2975
26.8601 39.8685
26.9059 39.5845
26.9519 39.1196
26.9979 38.8232
27.0437 38.4826
27.0896 38.2768
27.1354 38.2495
27.1814 38.2448
27.2272 38.0757
27.2732 37.9802
27.3191 37.8681
27.3651 37.9284
27.4109 37.9295
27.4569 38.0626
27.5027 38.008
27.5488 38.0611
27.5946 37.949
27.6407 37.6042
27.6865 37.5165
27.7326 37.3461
27.7784 37.4207
27.8245 37.3015
27.8703 37.5154
27.9164 37.7227
27.9623 37.9127
28.0084 38.2175
28.0543 38.6598
28.1003 38.5745
28.1462 38.3337
28.1923 38.1134
28.2384 37.5176
28.2843 37.2014
28.3304 36.6966
28.3764 36.2684
28.4225 35.9503
28.4684 35.7652
28.5145 35.5049
28.5605 35.4864
28.6066 35.2966
28.6526 35.194
28.6987 35.1362
28.7447 35.1087
28.7908 34.9657
28.8368 35.1309
28.8829 35.0046
28.9289 34.8931
28.9751 34.7001
29.0211 34.5677
29.0673 34.1551
29.1133 34.1075
29.1595 34.0841
29.2055 33.9677
29.2517 33.8916
29.2977 33.9581
29.3439 33.8765
29.3899 33.8725
29.4361 33.6804
29.4824 33.5298
29.5284 33.2659
29.5746 33.0738
29.6207 32.7296
29.6669 32.6685
29.713 32.5971
29.7593 32.4566
29.8053 32.4566
29.8516 32.4232
29.8977 32.3353
29.9439 32.1451
29.99 32.2729
30.0363 32.0204
30.0824 32.1559
30.1287 31.9478
30.1748 32.0241
30.2211 32.047
30.2673 31.886
30.3136 32.023
30.3597 31.9283
30.406 31.7993
30.4522 31.718
30.4985 31.7061
30.5447 31.8446
30.591 31.8172
30.6372 31.7864
30.6835 31.8742
30.7297 31.8035
30.7761 31.8191
30.8224 31.6246
30.8686 31.3994
30.915 31.2158
30.9612 31.0596
31.0076 30.9129
31.0538 30.7634
31.1002 30.7915
31.1464 30.5976
31.1928 30.5444
31.2391 30.5953
31.2855 30.5067
31.3317 30.4999
31.3781 30.6068
31.4244 30.5543
31.4708 30.4223
31.5171 30.386
31.5636 30.3361
31.6098 30.1274
31.6563 30.066
31.7026 29.9408
31.7491 29.7491
31.7953 29.8265
31.8418 29.7843
31.8881 29.8178
31.9346 29.7529
31.9809 29.6985
32.0275 29.6305
32.074 29.5121
32.1203 29.2866
32.1668 29.144
32.2132 29.0447
32.2597 28.9923
32.306 28.7787
32.3526 28.5641
32.399 28.5533
32.4455 28.4447
32.4919 28.3497
32.5385 28.3036
32.5848 28.1532
32.6314 28.1649
32.6778 28.0513
32.7244 27.9635
32.7708 27.8347
32.8174 27.9025
32.8638 27.7015
32.9104 27.8181
32.9569 27.6753
33.0035 27.4717
33.0499 27.4912
33.0966 27.4968
33.143 27.3339
33.1897 27.3333
33.2361 27.2694
33.2828 27.2653
33.3293 27.0756
33.3759 26.9422
33.4226 26.8841
33.4691 26.7104
33.5158 26.6695
33.5623 26.616
33.609 26.4489
33.6555 26.3194
33.7022 26.1778
33.7487 26.1832
33.7954 26.1607
33.842 26.1936
33.8887 26.0647
33.9353 26.0041
33.982 25.8658
34.0286 25.7472
34.0753 25.5822
34.1219 25.6959
34.1687 25.553
34.2152 25.4657
34.262 25.3008
34.3086 25.2743
34.3554 25.2036
34.402 25.0826
34.4488 25.0751
34.4954 24.9517
34.5422 24.8794
34.5889 24.8335
34.6357 24.6372
34.6825 24.5429
34.7292 24.4642
34.776 24.4506
34.8227 24.3653
34.8695 24.3546
34.9162 24.2455
34.9631 24.1351
35.0098 24.1491
35.0566 24.0406
35.1033 24.0129
35.1502 23.987
35.1969 23.8937
35.2438 23.841
35.2906 23.8251
35.3375 23.7933
35.3842 23.6563
35.4311 23.7054
35.4779 23.6774
35.5248 23.6471
35.5716 23.5036
35.6185 23.4655
35.6653 23.3114
35.7123 23.3144
35.759 23.2096
35.806 23.0911
35.8528 22.9644
35.8998 22.9217
35.9468 22.8161
35.9936 22.8468
36.0406 22.7244
36.0874 22.7493
36.1345 22.6222
36.1813 22.5454
36.2283 22.4301
36.2752 22.4145
36.3222 22.4249
36.3691 22.3276
36.4161 22.1996
36.463 22.1488
36.5101 22.1328
36.557 22.1215
36.6041 22.029
36.651 21.9042
36.6981 21.8691
36.745 21.7371
36.7921 21.7755
36.839 21.6436
36.8861 21.5692
36.9331 21.4655
36.9802 21.4652
37.0272 21.3194
37.0743 21.2397
37.1213 21.2296
37.1684 21.1584
37.2154 21.0774
37.2626 21.0221
37.3098 20.9913
37.3568 20.9287
37.404 20.833
37.451 20.791
37.4982 20.7242
37.5452 20.5659
37.5924 20.5258
37.6395 20.5521
37.6867 20.4734
37.7337 20.3793
37.781 20.2963
37.8281 20.2987
37.8753 20.1169
37.9224 20.112
37.9697 20.0381
38.0168 19.9267
38.064 19.8953
38.1111 19.9211
38.1584 19.8136
38.2056 19.7008
38.2529 19.632
38.3 19.5408
38.3473 19.5821
38.3945 19.4404
38.4418 19.4545
38.489 19.4029
38.5363 19.278
38.5837 19.2333
38.6309 19.1919
38.6782 19.1154
38.7254 19.0119
38.7728 19.0555
38.82 18.9081
38.8674 18.8825
38.9146 18.8105
38.9621 18.7342
39.0093 18.6856
39.0567 18.6113
39.104 18.6077
39.1514 18.5302
39.1987 18.4902
39.2461 18.3752
39.2934 18.3356
39.3409 18.2465
39.3882 18.2551
39.4356 18.1306
39.483 18.1251
39.5304 18.069
39.5778 18.0209
39.6253 17.9459
39.6726 17.8616
39.7201 17.85
39.7675 17.7975
39.815 17.7468
39.8624 17.6489
39.9099 17.6328
39.9575 17.5477
40.0049 17.4512
40.0525 17.3774
40.0999 17.3338
40.1474 17.3471
40.1949 17.192
40.2425 17.1989
40.2899 17.1688
40.3375 17.0989
40.385 17.0666
40.4326 16.9632
40.48 16.9029
40.5277 16.9277
40.5752 16.8403
40.6228 16.7315
40.6703 16.7108
40.718 16.6862
40.7655 16.6137
40.8132 16.4958
40.8607 16.4962
40.9084 16.4633
40.9559 16.406
41.0036 16.4172
41.0512 16.2899
41.0989 16.2648
41.1465 16.1838
41.1942 16.1133
41.242 16.0909
41.2896 16.0706
41.3373 15.9242
41.3849 15.9562
41.4327 15.8776
41.4803 15.7502
41.5281 15.7813
41.5758 15.7047
41.6236 15.6885
41.6712 15.587
41.7191 15.5976
41.7667 15.4818
41.8146 15.4892
41.8622 15.3505
41.9101 15.3852
41.9578 15.287
42.0057 15.1656
42.0534 15.1741
42.1013 15.1351
42.149 15.0998
42.1969 15.0603
42.2446 15.0373
42.2925 14.9615
42.3403 14.8957
42.3882 14.8667
42.436 14.8296
42.4839 14.7684
42.5319 14.7414
42.5797 14.6822
42.6277 14.5994
42.6755 14.5176
42.7235 14.5008
42.7713 14.4136
42.8193 14.4066
42.8671 14.3181
42.9152 14.2817
42.963 14.2677
43.0111 14.1854
43.0589 14.1265
43.107 14.0293
43.1549 14.0938
43.2029 13.9484
43.2508 14.0142
43.2989 13.918
43.3468 13.8119
43.3949 13.8198
43.4429 13.776
43.491 13.7077
43.5389 13.6834
43.5871 13.6248
43.635 13.5428
43.6832 13.5447
43.7312 13.4809
43.7793 13.4532
43.8273 13.4052
43.8755 13.3117
43.9237 13.3149
43.9717 13.3134
44.0199 13.1831
44.068 13.2149
44.1162 13.1344
44.1642 13.0744
44.2125 13.0284
44.2606 12.9655
44.3088 12.9606
44.3569 12.8711
44.4052 12.8523
44.4533 12.7662
44.5016 12.7409
44.5497 12.7638
44.598 12.7341
44.6461 12.6489
44.6945 12.572
44.7426 12.5392
44.791 12.4784
44.8391 12.4719
44.8875 12.3417
44.9357 12.3812
44.984 12.3118
45.0322 12.3214
45.0806 12.2549
45.1288 12.2002
45.1773 12.1103
45.2257 12.1259
45.2739 12.075
45.3224 12.0552
45.3706 11.9481
45.4191 11.9071
45.4673 11.8897
45.5158 11.8838
45.5641 11.783
45.6126 11.7778
45.6609 11.7142
45.7094 11.7025
45.7577 11.6461
45.8063 11.5989
45.8546 11.5794
45.9031 11.5284
45.9515 11.4664
46.0001 11.4358
46.0484 11.3929
46.097 11.379
46.1454 11.3195
46.194 11.287
46.2424 11.2556
46.291 11.19
46.3395 11.1549
46.3881 11.0951
46.4365 11.096
46.4852 11.0354
46.5337 11.0216
46.5823 10.9947
46.631 10.9374
46.6795 10.8757
46.7282 10.8979
46.7767 10.8342
46.8254 10.7261
46.8739 10.7157
46.9226 10.6532
46.9712 10.6733
47.0199 10.6054
47.0685 10.5606
47.1173 10.4711
47.1658 10.4687
47.2146 10.4619
47.2632 10.3801
47.312 10.3122
47.3606 10.3414
47.4095 10.2869
47.4581 10.2857
47.5069 10.1967
47.5556 10.1692
47.6044 10.1788
47.6531 10.0773
47.702 10.0255
47.7507 10.0265
47.7996 9.99506
47.8483 9.95161
47.8972 9.96295
47.9461 9.85428
47.9948 9.86549
48.0438 9.81835
48.0925 9.76286
48.1415 9.77152
48.1902 9.69793
48.2392 9.67171
48.288 9.6755
48.337 9.60413
48.3858 9.57037
48.4348 9.52437
48.4837 9.51469
48.5327 9.47323
48.5815 9.44412
48.6306 9.39217
48.6795 9.3525
48.7285 9.30577
48.7774 9.30435
48.8265 9.25935
48.8754 9.24854
48.9245 9.21385
48.9734 9.11236
49.0226 9.12832
49.0715 9.09183
49.1206 9.04253
49.1696 8.98555
49.2188 8.96317
49.2679 8.95845
49.3169 8.84844
49.3661 8.85807
49.4151 8.80461
49.4643 8.7906
49.5134 8.75116
49.5626 8.71376
49.6117 8.67178
49.6609 8.66462
49.71 8.58622
49.7592 8.58094
49.8083 8.58208
49.8576 8.55998
49.9067 8.48783
49.956 8.46222
50.0052 8.4548
50.0545 8.39896
50.1036 8.37537
50.153 8.35528
50.2022 8.29855
50.2515 8.23381
50.3007 8.22889
50.3501 8.20662
50.3993 8.20114
50.4487 8.15749
50.498 8.08825
50.5474 8.05717
50.5966 8.05595
50.6461 8.01906
50.6955 7.9865
50.7448 7.95899
50.7943 7.93063
50.8436 7.88396
50.8931 7.87643
50.9424 7.82176
50.9919 7.81361
51.0413 7.7831
51.0908 7.77946
51.1402 7.72613
51.1897 7.71264
51.2391 7.68081
51.2887 7.63204
51.3381 7.58201
51.3877 7.58303
51.4371 7.5109
51.4867 7.51445
51.5362 7.46653
51.5858 7.4473
51.6353 7.39212
51.6849 7.36712
51.7344 7.37015
51.7841 7.32837
51.8336 7.26258
51.8833 7.27757
51.9328 7.2251
51.9826 7.19444
52.0323 7.12887
52.0818 7.11851
52.1316 7.04613
52.1812 7.05146
52.231 7.06134
52.2806 7.00243
52.3304 6.98993
52.38 6.97446
52.4298 6.91772
52.4794 6.88349
52.5293 6.87632
52.5789 6.82949
52.6288 6.87503
52.6785 6.77119
52.7284 6.73798
52.7781 6.76384
52.828 6.71181
52.8777 6.70103
52.9276 6.66026
52.9774 6.62085
53.0273 6.57973
53.0771 6.56592
53.1271 6.52065
53.1769 6.52217
53.2269 6.49385
53.2767 6.46161
53.3267 6.40668
53.3765 6.38472
53.4266 6.34334
53.4766 6.34739
53.5265 6.28203
53.5765 6.25644
53.6264 6.25389
53.6765 6.21911
53.7264 6.21265
53.7765 6.20381
53.8265 6.17607
53.8766 6.11272
53.9266 6.0919
53.9767 6.07876
54.0267 6.08837
54.0769 6.03883
54.1269 5.98273
54.1771 5.98644
54.2271 5.98221
54.2773 5.85721
54.3274 5.89884
54.3776 5.81916
54.4277 5.79698
54.478 5.80469
54.528 5.76563
54.5783 5.65276
54.6285 5.657
54.6788 5.62725
54.7289 5.57257
54.7792 5.55997
54.8296 5.45854
54.8798 5.42083
54.9301 5.41935
54.9803 5.41952
55.0307 5.36245
55.0809 5.29521
55.1314 5.29056
55.1816 5.2101
55.232 5.21478
55.2823 5.16579
55.3328 5.10796
55.383 5.03806
55.4335 4.98829
55.4838 4.94561
55.5344 4.91338
55.5847 4.88488
55.6352 4.82159
55.6856 4.80396
55.7361 4.78946