File: XRD/Ni3Fe_FD0520.xy
TT I
1.27165 8.04252
1.31627 6.77721
1.36089 6.79813
1.40551 6.56897
1.45013 6.84868
1.49476 6.01795
1.53938 6.04063
1.584 5.49996
1.62863 4.89388
1.67325 5.47438
1.71787 5.20315
1.7625 5.47725
1.80712 5.33553
1.85174 4.86477
1.89636 5.08506
1.94099 5.32515
1.98562 5.00418
2.03025 4.47672
2.07487 5.12319
2.11949 4.87224
2.16411 5.07202
2.20874 15.5579
2.25338 27.0155
2.298 6.48271
2.34263 5.60655
2.38725 5.48091
2.43188 5.60823
2.4765 6.85727
2.52115 6.80903
2.56577 7.84103
2.6104 7.84226
2.65503 7.18136
2.69965 7.68997
2.7443 7.67807
2.78893 7.99337
2.83356 8.55129
2.87818 8.98793
2.92281 9.15453
2.96744 9.17598
3.01209 10.4208
3.05672 11.0806
3.10135 12.3448
3.14599 12.571
3.19062 14.4399
3.23527 15.3965
3.2799 15.8871
3.32454 16.9226
3.36917 17.741
3.4138 19.0443
3.45844 20.1884
3.50309 21.3356
3.54773 22.5039
3.59237 24.4793
3.637 105.091
3.68164 65.825
3.7263 27.2695
3.77094 26.5109
3.81558 27.5836
3.86022 28.0192
3.90486 29.2308
3.9495 30.2093
3.99416 31.3304
4.0388 32.6311
4.08344 34.1256
4.12809 35.4934
4.17273 37.9373
4.21738 44.8109
4.26204 282.398
4.30669 250.334
4.35133 50.4984
4.39598 45.3955
4.44063 55.6249
4.4853 69.2788
4.52995 51.223
4.5746 51.7608
4.61925 53.8446
4.6639 55.8019
4.70855 58.941
4.75322 61.2271
4.79788 64.3568
4.84253 67.7027
4.88719 71.8071
4.93184 75.9955
4.97652 81.3628
5.02118 88.2667
5.06583 95.5337
5.11049 107.387
5.15515 185.567
5.19981 381.709
5.24449 2843.26
5.28916 11821.1
5.33382 3301.63
5.37848 206.411
5.42315 133.432
5.46783 115.922
5.5125 107.452
5.55716 103.208
5.60183 99.6365
5.6465 98.4397
5.69117 95.4401
5.73586 92.7696
5.78053 92.7868
5.8252 91.8331
5.86988 93.0726
5.91455 95.6701
5.95924 104.175
6.00392 211.141
6.0486 977.433
6.09328 4119.01
6.13795 3479.64
6.18263 296.128
6.22733 97.0852
6.27201 85.4123
6.3167 108.549
6.36138 83.1566
6.40606 70.4599
6.45075 68.3025
6.49545 66.3901
6.54014 64.7919
6.58483 63.9485
6.62952 64.0768
6.67421 100.335
6.71892 160.209
6.76361 71.383
6.8083 59.4245
6.853 58.1678
6.89769 57.7957
6.94239 57.1349
6.98711 56.8718
7.03181 56.1504
7.07651 55.8183
7.12121 55.9152
7.16591 56.6474
7.21063 56.7098
7.25533 73.3999
7.30004 203.277
7.34475 99.6483
7.38945 57.7917
7.43416 55.7801
7.47889 55.3511
7.5236 55.7335
7.56831 56.1891
7.61303 58.1384
7.65774 58.4896
7.70247 56.9045
7.74719 56.677
7.79191 57.4382
7.83663 57.6169
7.88135 58.2986
7.92607 59.2893
7.97081 60.7024
8.01553 61.6405
8.06026 63.2727
8.10498 64.6281
8.14971 75.7058
8.19446 74.2357
8.23919 69.9161
8.28392 72.628
8.32865 74.8968
8.37339 79.1997
8.41812 86.5391
8.46288 119.499
8.50761 166.107
8.55235 387.902
8.59709 1131.75
8.64183 2116.05
8.68658 1062.69
8.73134 190.013
8.77609 102.339
8.82083 94.2833
8.86558 90.6277
8.91033 91.2421
8.9551 93.7142
8.99985 86.3498
9.04461 84.1082
9.08936 83.6279
9.13412 82.6271
9.17888 82.9643
9.22365 83.9078
9.26841 83.0199
9.31318 83.6802
9.35794 83.1603
9.4027 83.8501
9.44749 84.5542
9.49226 85.1056
9.53703 86.0922
9.5818 88.1291
9.62657 93.3851
9.67134 101.334
9.71614 95.0651
9.76091 94.5112
9.80569 97.5528
9.85047 100.615
9.89525 128.113
9.94005 142.68
9.98484 178.19
10.0296 342.325
10.0744 771.971
10.1192 1630.14
10.164 1654.38
10.2088 454.105
10.2536 135.183
10.2984 116.627
10.3432 118.734
10.388 106.486
10.4328 118.908
10.4776 160.126
10.5224 275.591
10.5672 494.151
10.612 536.662
10.6568 225.313
10.7017 100.358
10.7465 87.8485
10.7913 84.4412
10.8361 82.2361
10.8809 79.8905
10.9257 79.7791
10.9706 80.8959
11.0154 75.8656
11.0602 73.6558
11.105 72.9873
11.1499 78.3637
11.1947 86.9478
11.2395 76.5332
11.2844 71.4529
11.3292 68.2311
11.374 66.9184
11.4189 66.1318
11.4637 65.5405
11.5086 66.3543
11.5534 69.9722
11.5983 66.6158
11.6431 64.2371
11.688 63.747
11.7328 63.6507
11.7777 63.9326
11.8225 63.1291
11.8674 63.0051
11.9122 63.3295
11.9571 63.5082
12.002 64.4173
12.0468 68.1173
12.0917 80.2316
12.1366 103.724
12.1814 150.182
12.2263 203.526
12.2712 175.718
12.3161 103.277
12.3609 72.6046
12.4058 65.6987
12.4507 65.376
12.4956 65.2964
12.5405 65.0715
12.5853 66.4696
12.6302 75.5934
12.6751 82.1407
12.72 71.5051
12.7649 68.776
12.8098 69.0743
12.8547 70.4255
12.8996 72.024
12.9445 73.0079
12.9894 74.6497
13.0343 76.2025
13.0792 79.6794
13.1242 88.5161
13.1691 112.806
13.214 148.991
13.2589 230.477
13.3038 353.785
13.3487 432.995
13.3937 287.598
13.4386 132.198
13.4835 106.965
13.5285 121.284
13.5734 157.0
13.6183 238.184
13.6633 334.887
13.7082 345.504
13.7531 202.668
13.7981 103.347
13.843 83.1329
13.888 80.5131
13.9329 78.0257
13.9779 76.7182
14.0228 75.1315
14.0678 73.9203
14.1127 73.4817
14.1577 73.2311
14.2027 72.5141
14.2476 71.2597
14.2926 71.3679
14.3376 73.0591
14.3825 71.3672
14.4275 69.2912
14.4725 69.5158
14.5175 69.7973
14.5624 69.6908
14.6074 72.2422
14.6524 72.5736
14.6974 71.5452
14.7424 72.6301
14.7874 79.0706
14.8324 89.5369
14.8774 109.765
14.9224 148.561
14.9674 199.429
15.0124 216.869
15.0574 156.639
15.1024 95.0032
15.1474 73.4903
15.1924 71.4739
15.2374 72.4541
15.2824 71.42
15.3274 69.0509
15.3725 67.5167
15.4175 67.1395
15.4625 67.0144
15.5076 67.3602
15.5526 67.2854
15.5976 66.4454
15.6426 67.5154
15.6877 72.693
15.7327 80.446
15.7778 94.4538
15.8228 123.115
15.8679 165.212
15.9129 193.37
15.958 163.231
16.003 103.91
16.0481 70.7139
16.0931 66.2051
16.1382 64.0087
16.1833 61.3549
16.2283 59.5675
16.2734 59.0555
16.3185 59.7777
16.3636 60.6124
16.4086 58.9178
16.4537 57.0875
16.4988 56.2402
16.5439 56.2887
16.589 55.7244
16.6341 55.506
16.6792 55.2293
16.7243 55.5529
16.7694 55.6348
16.8145 55.5038
16.8596 56.2334
16.9047 57.811
16.9498 58.2205
16.9949 56.7014
17.04 56.3761
17.0851 57.6245
17.1302 59.3198
17.1754 62.1961
17.2205 67.0717
17.2656 73.924
17.3108 81.7468
17.3559 82.6496
17.401 72.599
17.4462 63.8772
17.4913 59.9953
17.5365 59.9271
17.5815 59.9163
17.6268 60.1666
17.6718 61.134
17.7171 61.4913
17.7622 61.8264
17.8074 62.4175
17.8525 64.5212
17.8977 68.8201
17.9428 74.3233
17.9881 82.7303
18.0331 98.0236
18.0784 118.398
18.1237 137.857
18.1688 135.171
18.214 108.149
18.2591 88.4158
18.3044 90.0287
18.3495 99.304
18.3948 106.71
18.4399 99.4364
18.4852 80.9012
18.5303 67.7299
18.5756 63.0426
18.6207 61.9746
18.666 61.2052
18.7112 60.3658
18.7565 59.8298
18.8016 59.3788
18.8469 58.6241
18.892 58.5101
18.9374 57.9356
18.9825 57.849
19.0278 57.6398
19.073 57.6679
19.1183 58.1532
19.1635 58.9994
19.2088 60.118
19.254 62.4306
19.2993 66.6733
19.3447 72.7913
19.3898 77.3825
19.4352 73.9464
19.4804 64.928
19.5257 58.0603
19.5709 54.9908
19.6163 54.5696
19.6615 54.4185
19.7068 54.0785
19.752 53.8258
19.7974 54.2256
19.8426 54.8594
19.888 55.8133
19.9332 56.8812
19.9786 59.2609
20.0238 62.4441
20.0692 66.9395
20.1144 70.3103
20.1598 69.8254
20.205 64.9408
20.2504 62.7888
20.2957 64.3893
20.3411 66.1291
20.3863 65.1167
20.4318 59.8338
20.477 54.9001
20.5224 52.3612
20.5677 51.7093
20.6131 51.0215
20.6586 50.433
20.7038 50.2307
20.7493 49.6653
20.7945 49.6333
20.84 49.3948
20.8853 49.2101
20.9307 49.1968
20.976 49.4163
21.0215 49.242
21.0668 49.5414
21.1122 49.9949
21.1575 50.5011
21.203 51.1118
21.2483 51.8576
21.2938 52.1081
21.3391 50.9729
21.3846 49.678
21.4299 49.0851
21.4754 49.0741
21.5207 49.2006
21.5662 49.3692
21.6116 49.6919
21.6571 50.57
21.7024 51.5174
21.7479 53.0965
21.7933 55.6065
21.8388 59.0661
21.8843 62.6581
21.9297 64.7718
21.9752 64.346
22.0206 60.8668
22.0661 57.3991
22.1115 56.3533
22.157 56.5866
22.2024 55.287
22.248 52.5591
22.2933 50.5905
22.3389 49.8827
22.3843 49.5885
22.4299 49.6121
22.4753 49.4622
22.5208 49.2813
22.5662 49.0426
22.6118 49.2322
22.6572 49.3435
22.7028 49.9701
22.7483 50.4845
22.7939 51.0236
22.8393 52.4058
22.8849 54.2736
22.9303 56.2525
22.9759 58.0355
23.0214 58.3335
23.067 55.7304
23.1126 52.1994
23.1581 49.9531
23.2037 49.4046
23.2492 49.4765
23.2948 49.5171
23.3403 49.5763
23.3859 50.4385
23.4314 51.2326
23.477 53.0398
23.5225 54.9499
23.5682 57.007
23.6137 58.5544
23.6593 56.7001
23.7048 52.8524
23.7505 49.1845
23.796 47.392
23.8417 46.5572
23.8872 46.0752
23.9329 45.9386
23.9784 45.5352
24.0241 45.3079
24.0697 44.9277
24.1154 44.8376
24.1609 44.5617
24.2066 44.532
24.2522 44.3705
24.2979 43.9665
24.3434 43.8879
24.3892 43.6845
24.4349 43.6522
24.4805 43.39
24.5262 43.631
24.5718 43.5374
24.6175 43.5424
24.6631 43.2968
24.7089 43.0229
24.7545 42.9051
24.8002 42.7954
24.8458 42.8013
24.8916 42.5211
24.9372 42.6528
24.983 42.988
25.0286 43.3114
25.0744 43.7498
25.12 44.2134
25.1658 44.8018
25.2114 45.2451
25.2572 45.2546
25.3029 45.3199
25.3487 45.613
25.3943 45.309
25.4402 44.2857
25.4858 43.2258
25.5316 42.1476
25.5773 41.5646
25.6231 41.4732
25.669 41.127
25.7147 41.0479
25.7605 40.9393
25.8062 40.9866
25.8521 41.1983
25.8977 41.1301
25.9436 41.3949
25.9893 41.4493
26.0352 41.9474
26.0809 41.9452
26.1268 42.1982
26.1725 41.959
26.2184 41.425
26.2641 40.7955
26.31 40.5637
26.3557 40.7138
26.4017 40.6716
26.4474 40.8668
26.4933 41.2147
26.5391 41.7441
26.585 42.0909
26.6308 42.4405
26.6767 42.6307
26.7225 42.4142
26.7684 41.9906
26.8142 41.4335
26.8601 41.1834
26.9059 40.6358
26.9519 40.0247
26.9979 39.7921
27.0437 39.4999
27.0896 39.1944
27.1354 39.4628
27.1814 39.0407
27.2272 39.1004
27.2732 38.9999
27.3191 38.8025
27.3651 38.8819
27.4109 38.7854
27.4569 39.0064
27.5027 38.9689
27.5488 39.0494
27.5946 38.834
27.6407 38.7028
27.6865 38.6042
27.7326 38.2934
27.7784 38.3587
27.8245 38.2544
27.8703 38.3605
27.9164 38.727
27.9623 38.6881
28.0084 39.206
28.0543 39.5247
28.1003 39.4534
28.1462 39.3748
28.1923 39.054
28.2384 38.4975
28.2843 38.1413
28.3304 37.6296
28.3764 37.2126
28.4225 37.0559
28.4684 36.7982
28.5145 36.5155
28.5605 36.402
28.6066 35.9857
28.6526 36.1034
28.6987 36.0174
28.7447 35.9676
28.7908 35.8168
28.8368 35.8431
28.8829 35.8467
28.9289 35.7239
28.9751 35.672
29.0211 35.4379
29.0673 35.1804
29.1133 35.055
29.1595 34.7983
29.2055 34.7749
29.2517 34.7724
29.2977 34.7715
29.3439 34.7487
29.3899 34.7069
29.4361 34.5623
29.4824 34.5122
29.5284 34.1886
29.5746 33.9036
29.6207 33.5533
29.6669 33.5113
29.713 33.4995
29.7593 33.3428
29.8053 33.3161
29.8516 33.2868
29.8977 33.0766
29.9439 32.9536
29.99 33.0154
30.0363 32.805
30.0824 32.9671
30.1287 32.7766
30.1748 32.8423
30.2211 32.907
30.2673 32.671
30.3136 32.837
30.3597 32.6476
30.406 32.61
30.4522 32.5128
30.4985 32.4783
30.5447 32.6887
30.591 32.4753
30.6372 32.5925
30.6835 32.5507
30.7297 32.5983
30.7761 32.5908
30.8224 32.403
30.8686 32.2662
30.915 31.9605
30.9612 31.8528
31.0076 31.6776
31.0538 31.6343
31.1002 31.6264
31.1464 31.3634
31.1928 31.3639
31.2391 31.3492
31.2855 31.2111
31.3317 31.1478
31.3781 31.3475
31.4244 31.2179
31.4708 31.1955
31.5171 31.1459
31.5636 31.178
31.6098 31.0292
31.6563 30.7205
31.7026 30.6651
31.7491 30.5383
31.7953 30.6155
31.8418 30.5225
31.8881 30.5939
31.9346 30.2994
31.9809 30.3987
32.0275 30.272
32.074 30.1585
32.1203 29.9592
32.1668 29.9507
32.2132 29.8159
32.2597 29.6579
32.306 29.5305
32.3526 29.3797
32.399 29.3611
32.4455 29.0735
32.4919 29.1244
32.5385 28.9433
32.5848 28.9024
32.6314 28.8486
32.6778 28.7834
32.7244 28.7221
32.7708 28.5156
32.8174 28.5586
32.8638 28.3507
32.9104 28.4717
32.9569 28.356
33.0035 28.216
33.0499 28.2437
33.0966 28.1123
33.143 28.1169
33.1897 27.9434
33.2361 28.0184
33.2828 27.9163
33.3293 27.7197
33.3759 27.7847
33.4226 27.5923
33.4691 27.4608
33.5158 27.3872
33.5623 27.292
33.609 27.0975
33.6555 27.0677
33.7022 26.9243
33.7487 26.7995
33.7954 26.9127
33.842 26.6899
33.8887 26.6975
33.9353 26.62
33.982 26.5124
34.0286 26.4375
34.0753 26.3341
34.1219 26.1969
34.1687 26.1735
34.2152 26.1111
34.262 25.9195
34.3086 25.8877
34.3554 25.8963
34.402 25.7456
34.4488 25.6337
34.4954 25.529
34.5422 25.5408
34.5889 25.4404
34.6357 25.2354
34.6825 25.2603
34.7292 25.1236
34.776 25.013
34.8227 25.0532
34.8695 24.9535
34.9162 24.8818
34.9631 24.7958
35.0098 24.7856
35.0566 24.6346
35.1033 24.6006
35.1502 24.5221
35.1969 24.4316
35.2438 24.4968
35.2906 24.4123
35.3375 24.3106
35.3842 24.2554
35.4311 24.3303
35.4779 24.1667
35.5248 24.1631
35.5716 24.0776
35.6185 24.0282
35.6653 23.8645
35.7123 23.8551
35.759 23.7825
35.806 23.6817
35.8528 23.5514
35.8998 23.5494
35.9468 23.3952
35.9936 23.2841
36.0406 23.2503
36.0874 23.2882
36.1345 23.2334
36.1813 23.0467
36.2283 23.0693
36.2752 22.9241
36.3222 22.9664
36.3691 22.8487
36.4161 22.7573
36.463 22.6927
36.5101 22.7169
36.557 22.6622
36.6041 22.4051
36.651 22.4937
36.6981 22.4181
36.745 22.3011
36.7921 22.2747
36.839 22.117
36.8861 22.1036
36.9331 22.0355
36.9802 21.9249
37.0272 21.8691
37.0743 21.7963
37.1213 21.7127
37.1684 21.6492
37.2154 21.5339
37.2626 21.5493
37.3098 21.4646
37.3568 21.437
37.404 21.4251
37.451 21.3004
37.4982 21.2253
37.5452 21.1387
37.5924 21.0988
37.6395 21.0245
37.6867 21.0092
37.7337 20.8904
37.781 20.8424
37.8281 20.7986
37.8753 20.6806
37.9224 20.6109
37.9697 20.5891
38.0168 20.5024
38.064 20.3977
38.1111 20.3984
38.1584 20.2897
38.2056 20.2372
38.2529 20.1402
38.3 20.1001
38.3473 20.1108
38.3945 19.9298
38.4418 19.8927
38.489 19.8635
38.5363 19.7448
38.5837 19.7305
38.6309 19.7619
38.6782 19.5882
38.7254 19.5206
38.7728 19.419
38.82 19.3807
38.8674 19.3986
38.9146 19.3035
38.9621 19.2248
39.0093 19.2634
39.0567 19.1349
39.104 19.1273
39.1514 18.9489
39.1987 18.9533
39.2461 18.862
39.2934 18.8149
39.3409 18.6978
39.3882 18.6745
39.4356 18.5903
39.483 18.5752
39.5304 18.5409
39.5778 18.5077
39.6253 18.355
39.6726 18.3076
39.7201 18.2807
39.7675 18.2891
39.815 18.2075
39.8624 18.0645
39.9099 18.1239
39.9575 17.9889
40.0049 17.8723
40.0525 17.8287
40.0999 17.8271
40.1474 17.7639
40.1949 17.6822
40.2425 17.6248
40.2899 17.5626
40.3375 17.4996
40.385 17.45
40.4326 17.4408
40.48 17.3601
40.5277 17.3157
40.5752 17.3448
40.6228 17.1406
40.6703 17.1833
40.718 17.0659
40.7655 17.0401
40.8132 17.0132
40.8607 17.0272
40.9084 16.9669
40.9559 16.8273
41.0036 16.7632
41.0512 16.8076
41.0989 16.6858
41.1465 16.5867
41.1942 16.5759
41.242 16.4669
41.2896 16.4834
41.3373 16.3973
41.3849 16.3491
41.4327 16.276
41.4803 16.2017
41.5281 16.1568
41.5758 16.1413
41.6236 16.0556
41.6712 16.033
41.7191 15.9423
41.7667 15.8316
41.8146 15.8749
41.8622 15.794
41.9101 15.7399
41.9578 15.6914
42.0057 15.6298
42.0534 15.556
42.1013 15.517
42.149 15.4707
42.1969 15.4809
42.2446 15.4134
42.2925 15.347
42.3403 15.2702
42.3882 15.2047
42.436 15.153
42.4839 15.0721
42.5319 15.0817
42.5797 15.024
42.6277 14.9526
42.6755 14.929
42.7235 14.8174
42.7713 14.764
42.8193 14.7864
42.8671 14.7133
42.9152 14.6264
42.963 14.5795
43.0111 14.504
43.0589 14.49
43.107 14.4445
43.1549 14.3994
43.2029 14.3477
43.2508 14.3116
43.2989 14.2508
43.3468 14.1528
43.3949 14.1532
43.4429 14.115
43.491 14.0669
43.5389 14.0235
43.5871 13.9829
43.635 13.8718
43.6832 13.906
43.7312 13.822
43.7793 13.7825
43.8273 13.6995
43.8755 13.6828
43.9237 13.6615
43.9717 13.6082
44.0199 13.528
44.068 13.4804
44.1162 13.384
44.1642 13.4321
44.2125 13.3619
44.2606 13.3174
44.3088 13.204
44.3569 13.2014
44.4052 13.1953
44.4533 13.1029
44.5016 13.0625
44.5497 13.0824
44.598 13.0016
44.6461 12.9617
44.6945 12.8738
44.7426 12.8447
44.791 12.7852
44.8391 12.7715
44.8875 12.7155
44.9357 12.6806
44.984 12.6281
45.0322 12.5881
45.0806 12.5213
45.1288 12.5123
45.1773 12.4336
45.2257 12.4158
45.2739 12.365
45.3224 12.317
45.3706 12.3111
45.4191 12.2555
45.4673 12.2293
45.5158 12.1429
45.5641 12.1416
45.6126 12.0891
45.6609 12.0174
45.7094 11.9865
45.7577 11.9143
45.8063 11.9087
45.8546 11.8039
45.9031 11.8051
45.9515 11.7544
46.0001 11.7114
46.0484 11.6922
46.097 11.6783
46.1454 11.6058
46.194 11.5657
46.2424 11.5049
46.291 11.4827
46.3395 11.4128
46.3881 11.3476
46.4365 11.3664
46.4852 11.2675
46.5337 11.2655
46.5823 11.2681
46.631 11.1511
46.6795 11.1275
46.7282 11.0881
46.7767 11.0663
46.8254 11.0286
46.8739 10.9616
46.9226 10.9051
46.9712 10.8698
47.0199 10.8666
47.0685 10.8318
47.1173 10.7658
47.1658 10.7071
47.2146 10.7121
47.2632 10.6041
47.312 10.5987
47.3606 10.5563
47.4095 10.5329
47.4581 10.5135
47.5069 10.4742
47.5556 10.4158
47.6044 10.3835
47.6531 10.3483
47.702 10.2832
47.7507 10.2901
47.7996 10.2055
47.8483 10.2189
47.8972 10.19
47.9461 10.1446
47.9948 10.075
48.0438 10.0434
48.0925 9.99216
48.1415 9.94566
48.1902 9.91186
48.2392 9.9053
48.288 9.89625
48.337 9.83768
48.3858 9.77632
48.4348 9.8091
48.4837 9.74792
48.5327 9.70326
48.5815 9.69035
48.6306 9.62039
48.6795 9.58597
48.7285 9.52685
48.7774 9.53802
48.8265 9.4634
48.8754 9.47592
48.9245 9.41334
48.9734 9.3707
49.0226 9.31868
49.0715 9.29629
49.1206 9.24836
49.1696 9.24658
49.2188 9.21599
49.2679 9.18611
49.3169 9.16682
49.3661 9.08082
49.4151 9.07121
49.4643 9.05767
49.5134 8.97037
49.5626 8.95452
49.6117 8.90643
49.6609 8.88232
49.71 8.82513
49.7592 8.80563
49.8083 8.75257
49.8576 8.74959
49.9067 8.71247
49.956 8.7044
50.0052 8.63835
50.0545 8.62193
50.1036 8.58533
50.153 8.52985
50.2022 8.51784
50.2515 8.49423
50.3007 8.45503
50.3501 8.40876
50.3993 8.38759
50.4487 8.3523
50.498 8.34736
50.5474 8.29836
50.5966 8.26451
50.6461 8.249
50.6955 8.22193
50.7448 8.18256
50.7943 8.14361
50.8436 8.07354
50.8931 8.07168
50.9424 8.05216
50.9919 8.0207
51.0413 7.97121
51.0908 7.95366
51.1402 7.90304
51.1897 7.84533
51.2391 7.85392
51.2887 7.79116
51.3381 7.77675
51.3877 7.72707
51.4371 7.74449
51.4867 7.68625
51.5362 7.67819
51.5858 7.63589
51.6353 7.54343
51.6849 7.57178
51.7344 7.53441
51.7841 7.47617
51.8336 7.4391
51.8833 7.40431
51.9328 7.39766
51.9826 7.36206
52.0323 7.30953
52.0818 7.32075
52.1316 7.26463
52.1812 7.27177
52.231 7.22409
52.2806 7.18102
52.3304 7.202
52.38 7.11733
52.4298 7.0819
52.4794 7.04537
52.5293 7.04289
52.5789 6.99129
52.6288 7.00051
52.6785 6.96448
52.7284 6.94461
52.7781 6.91043
52.828 6.84402
52.8777 6.80284
52.9276 6.82043
52.9774 6.77134
53.0273 6.78045
53.0771 6.72134
53.1271 6.72054
53.1769 6.65597
53.2269 6.6422
53.2767 6.58995
53.3267 6.60009
53.3765 6.56831
53.4266 6.52377
53.4766 6.5259
53.5265 6.48116
53.5765 6.43509
53.6264 6.43183
53.6765 6.40117
53.7264 6.3572
53.7765 6.33366
53.8265 6.3038
53.8766 6.24922
53.9266 6.24911
53.9767 6.22729
54.0267 6.2211
54.0769 6.14996
54.1269 6.11326
54.1771 6.08529
54.2271 6.09223
54.2773 6.00703
54.3274 6.00818
54.3776 6.01781
54.4277 5.9159
54.478 5.89113
54.528 5.89941
54.5783 5.82767
54.6285 5.78677
54.6788 5.73301
54.7289 5.69648
54.7792 5.6553
54.8296 5.65231
54.8798 5.55989
54.9301 5.57363
54.9803 5.51446
55.0307 5.52709
55.0809 5.45389
55.1314 5.42566
55.1816 5.33202
55.232 5.2908
55.2823 5.29865
55.3328 5.21595
55.383 5.14194
55.4335 5.1596
55.4838 5.0405
55.5344 5.01708
55.5847 4.98642
55.6352 4.99484
55.6856 4.92739
55.7361 4.89005