File: XRD/Ni3Fe_FD0017.xy
TT I
1.27165 35.4303
1.31627 35.211
1.36089 33.8409
1.40551 32.5884
1.45013 31.1528
1.49476 30.3218
1.53938 28.8497
1.584 28.4378
1.62863 27.3337
1.67325 26.5627
1.71787 26.9606
1.7625 25.2278
1.80712 25.1436
1.85174 24.3774
1.89636 25.1096
1.94099 24.9741
1.98562 24.7936
2.03025 24.9797
2.07487 24.8534
2.11949 26.2241
2.16411 25.6399
2.20874 26.1905
2.25338 26.4066
2.298 26.8227
2.34263 26.0843
2.38725 25.9174
2.43188 25.6765
2.4765 26.3166
2.52115 26.2659
2.56577 26.5669
2.6104 26.829
2.65503 28.2241
2.69965 29.9436
2.7443 30.4694
2.78893 33.5389
2.83356 35.6454
2.87818 39.1054
2.92281 43.2299
2.96744 49.5927
3.01209 57.2609
3.05672 65.9074
3.10135 76.5025
3.14599 82.7807
3.19062 84.4972
3.23527 78.6684
3.2799 68.0224
3.32454 57.3771
3.36917 49.2545
3.4138 43.2488
3.45844 40.2964
3.50309 39.0146
3.54773 38.2127
3.59237 38.8439
3.637 40.206
3.68164 40.4175
3.7263 41.2348
3.77094 40.9759
3.81558 40.5357
3.86022 39.8933
3.90486 40.8255
3.9495 41.5452
3.99416 43.1743
4.0388 45.9207
4.08344 48.4944
4.12809 52.8555
4.17273 59.5117
4.21738 66.1594
4.26204 74.3666
4.30669 80.1454
4.35133 79.9734
4.39598 74.4108
4.44063 69.2591
4.4853 64.6668
4.52995 60.0741
4.5746 55.9996
4.61925 53.0452
4.6639 51.2273
4.70855 50.8985
4.75322 51.9609
4.79788 53.3757
4.84253 56.3815
4.88719 60.627
4.93184 65.8358
4.97652 74.6784
5.02118 88.8701
5.06583 111.953
5.11049 134.151
5.15515 173.599
5.19981 259.687
5.24449 518.588
5.28916 1078.03
5.33382 2903.41
5.37848 3953.2
5.42315 1324.42
5.46783 394.896
5.5125 221.885
5.55716 159.692
5.60183 127.487
5.6465 112.931
5.69117 106.399
5.73586 100.297
5.78053 95.9054
5.8252 95.6528
5.86988 100.05
5.91455 109.178
5.95924 126.226
6.00392 165.104
6.0486 254.846
6.09328 430.267
6.13795 752.854
6.18263 1287.6
6.22733 833.609
6.27201 337.168
6.3167 174.648
6.36138 112.439
6.40606 85.6592
6.45075 72.7125
6.49545 65.0885
6.54014 59.9548
6.58483 56.5693
6.62952 55.2557
6.67421 53.9916
6.71892 54.1607
6.76361 54.055
6.8083 52.4459
6.853 50.9838
6.89769 49.8094
6.94239 48.0422
6.98711 46.8805
7.03181 46.6826
7.07651 46.8006
7.12121 48.2077
7.16591 49.7792
7.21063 52.0455
7.25533 55.3834
7.30004 62.5006
7.34475 68.976
7.38945 69.9067
7.43416 64.8391
7.47889 60.104
7.5236 61.6315
7.56831 95.5135
7.61303 162.246
7.65774 88.246
7.70247 49.2668
7.74719 42.6332
7.79191 40.4643
7.83663 39.1254
7.88135 38.9337
7.92607 38.6279
7.97081 38.8648
8.01553 39.3658
8.06026 39.9106
8.10498 40.3729
8.14971 41.4775
8.19446 42.7709
8.23919 44.2497
8.28392 46.1099
8.32865 47.66
8.37339 51.6228
8.41812 55.6023
8.46288 62.9463
8.50761 73.7017
8.55235 97.062
8.59709 149.579
8.64183 205.838
8.68658 342.226
8.73134 696.178
8.77609 711.96
8.82083 320.959
8.86558 148.816
8.91033 98.9207
8.9551 79.0929
8.99985 70.007
9.04461 64.4233
9.08936 61.0378
9.13412 58.7733
9.17888 59.6687
9.22365 66.167
9.26841 114.112
9.31318 250.102
9.35794 175.57
9.4027 73.6905
9.44749 56.3272
9.49226 52.5791
9.53703 50.6765
9.5818 50.3782
9.62657 50.7359
9.67134 51.4686
9.71614 52.7206
9.76091 53.6915
9.80569 55.3712
9.85047 57.701
9.89525 61.5319
9.94005 66.717
9.98484 75.5104
10.0296 92.7481
10.0744 129.615
10.1192 174.54
10.164 225.361
10.2088 429.967
10.2536 794.254
10.2984 644.155
10.3432 287.515
10.388 141.463
10.4328 98.2769
10.4776 83.4668
10.5224 83.5674
10.5672 90.084
10.612 96.7085
10.6568 138.287
10.7017 254.418
10.7465 287.372
10.7913 167.403
10.8361 81.1108
10.8809 56.4346
10.9257 49.0544
10.9706 46.0232
11.0154 43.9366
11.0602 42.8348
11.105 42.1431
11.1499 41.2929
11.1947 41.0084
11.2395 40.6366
11.2844 40.3804
11.3292 40.0146
11.374 39.6593
11.4189 39.0818
11.4637 38.4494
11.5086 37.5656
11.5534 37.1473
11.5983 37.2629
11.6431 37.4698
11.688 37.1526
11.7328 37.1689
11.7777 36.8961
11.8225 36.9011
11.8674 37.7579
11.9122 39.1663
11.9571 44.8555
12.002 69.6113
12.0468 94.5267
12.0917 67.6383
12.1366 47.3814
12.1814 46.373
12.2263 48.2206
12.2712 53.5908
12.3161 66.8402
12.3609 91.0782
12.4058 95.1419
12.4507 70.6838
12.4956 53.1249
12.5405 45.393
12.5853 42.1959
12.6302 40.0674
12.6751 39.7154
12.72 39.8962
12.7649 40.0359
12.8098 39.9431
12.8547 39.9077
12.8996 39.4046
12.9445 39.5949
12.9894 39.9497
13.0343 40.2893
13.0792 41.9341
13.1242 44.9857
13.1691 55.0701
13.214 62.2811
13.2589 62.3732
13.3038 66.7116
13.3487 72.1583
13.3937 88.3623
13.4386 133.557
13.4835 211.971
13.5285 215.654
13.5734 140.591
13.6183 96.5123
13.6633 82.8378
13.7082 79.8523
13.7531 93.3553
13.7981 143.054
13.843 212.863
13.888 182.896
13.9329 102.391
13.9779 65.4758
14.0228 52.1529
14.0678 46.5934
14.1127 44.8268
14.1577 46.5606
14.2027 61.776
14.2476 86.8591
14.2926 75.7301
14.3376 49.6098
14.3825 40.7487
14.4275 38.5369
14.4725 37.918
14.5175 37.42
14.5624 36.7153
14.6074 36.8104
14.6524 36.7385
14.6974 37.1358
14.7424 37.4284
14.7874 38.0079
14.8324 39.2049
14.8774 41.7082
14.9224 45.6114
14.9674 48.6884
15.0124 50.6421
15.0574 57.2541
15.1024 75.0305
15.1474 111.966
15.1924 132.532
15.2374 102.591
15.2824 68.2335
15.3274 50.9093
15.3725 44.0681
15.4175 41.1869
15.4625 39.5042
15.5076 38.5435
15.5526 37.9609
15.5976 37.672
15.6426 37.5462
15.6877 37.6796
15.7327 38.6367
15.7778 40.2849
15.8228 43.2455
15.8679 46.45
15.9129 47.5774
15.958 52.1727
16.003 62.8503
16.0481 89.4604
16.0931 124.926
16.1382 127.158
16.1833 95.6096
16.2283 63.7299
16.2734 46.8319
16.3185 40.0742
16.3636 36.9707
16.4086 35.0011
16.4537 33.9665
16.4988 33.2032
16.5439 32.7846
16.589 32.2883
16.6341 31.9141
16.6792 31.3618
16.7243 31.4848
16.7694 31.2497
16.8145 30.9934
16.8596 31.2976
16.9047 31.5888
16.9498 32.2789
16.9949 35.0587
17.04 39.1204
17.0851 39.1573
17.1302 34.6041
17.1754 32.8651
17.2205 32.7999
17.2656 33.3373
17.3108 34.0063
17.3559 34.0266
17.401 35.4074
17.4462 38.4022
17.4913 44.8633
17.5365 51.9199
17.5815 49.947
17.6268 41.8925
17.6718 37.0523
17.7171 34.9399
17.7622 34.6798
17.8074 35.683
17.8525 38.9843
17.8977 42.1441
17.9428 40.4321
17.9881 38.4341
18.0331 39.8825
18.0784 41.5623
18.1237 42.5454
18.1688 43.904
18.214 49.1942
18.2591 60.4549
18.3044 84.3585
18.3495 105.396
18.3948 95.8779
18.4399 70.8021
18.4852 57.751
18.5303 58.1284
18.5756 68.0239
18.6207 77.4747
18.666 70.2511
18.7112 55.507
18.7565 44.1866
18.8016 38.7393
18.8469 36.0855
18.892 34.7354
18.9374 34.0489
18.9825 33.4472
19.0278 33.063
19.073 32.8145
19.1183 32.5592
19.1635 32.6115
19.2088 32.7801
19.254 33.4156
19.2993 34.3878
19.3447 35.3757
19.3898 38.6194
19.4352 44.6686
19.4804 48.2641
19.5257 45.9887
19.5709 46.0536
19.6163 49.7526
19.6615 48.6798
19.7068 41.9524
19.752 36.4567
19.7974 33.9085
19.8426 32.5331
19.888 31.6378
19.9332 31.4312
19.9786 31.5521
20.0238 31.6333
20.0692 32.0346
20.1144 32.0337
20.1598 32.659
20.205 33.7394
20.2504 36.4378
20.2957 40.922
20.3411 46.4239
20.3863 47.7424
20.4318 42.907
20.477 39.3119
20.5224 39.8245
20.5677 44.0045
20.6131 45.3827
20.6586 40.7224
20.7038 35.2758
20.7493 32.0887
20.7945 31.1112
20.84 31.3801
20.8853 32.7999
20.9307 33.725
20.976 32.3012
21.0215 29.6842
21.0668 28.7941
21.1122 28.3601
21.1575 28.4175
21.203 28.28
21.2483 28.1637
21.2938 28.331
21.3391 28.2479
21.3846 28.5326
21.4299 29.2951
21.4754 30.7055
21.5207 32.358
21.5662 32.4037
21.6116 31.1491
21.6571 30.0998
21.7024 29.3733
21.7479 29.2416
21.7933 29.4941
21.8388 30.1358
21.8843 30.5192
21.9297 30.6255
21.9752 31.502
22.0206 32.89
22.0661 35.2156
22.1115 39.2177
22.157 45.6494
22.2024 50.2499
22.248 48.7229
22.2933 44.5173
22.3389 41.2856
22.3843 40.4349
22.4299 39.4899
22.4753 36.872
22.5208 33.5324
22.5662 31.4687
22.6118 30.4143
22.6572 29.7177
22.7028 29.504
22.7483 29.488
22.7939 29.4043
22.8393 29.9135
22.8849 30.9616
22.9303 31.9219
22.9759 31.8752
23.0214 31.121
23.067 31.1257
23.1126 31.9256
23.1581 33.6742
23.2037 37.6856
23.2492 42.5263
23.2948 43.2921
23.3403 39.3651
23.3859 34.8686
23.4314 32.7484
23.477 32.3325
23.5225 33.252
23.5682 34.3509
23.6137 34.2168
23.6593 32.8066
23.7048 32.4562
23.7505 33.5284
23.796 36.0968
23.8417 41.023
23.8872 45.231
23.9329 44.1895
23.9784 38.5765
24.0241 33.354
24.0697 30.6002
24.1154 29.298
24.1609 28.8178
24.2066 28.4626
24.2522 28.0532
24.2979 27.2613
24.3434 26.8556
24.3892 26.4278
24.4349 26.3453
24.4805 26.0649
24.5262 26.1077
24.5718 25.9923
24.6175 26.0323
24.6631 26.0997
24.7089 26.2296
24.7545 27.0846
24.8002 27.6122
24.8458 27.9528
24.8916 27.0964
24.9372 26.4741
24.983 26.1778
25.0286 25.957
25.0744 25.8893
25.12 25.7259
25.1658 25.7197
25.2114 25.8952
25.2572 26.32
25.3029 26.598
25.3487 27.386
25.3943 28.2924
25.4402 29.3589
25.4858 30.3789
25.5316 30.3938
25.5773 30.2808
25.6231 31.3471
25.669 32.5766
25.7147 32.0972
25.7605 29.7554
25.8062 27.9285
25.8521 26.6498
25.8977 26.4503
25.9436 26.5805
25.9893 26.6292
26.0352 26.3975
26.0809 25.7435
26.1268 25.3326
26.1725 25.2843
26.2184 25.4435
26.2641 25.7598
26.31 26.1132
26.3557 27.1751
26.4017 28.3698
26.4474 28.9863
26.4933 28.3721
26.5391 27.291
26.585 26.4254
26.6308 25.935
26.6767 25.5308
26.7225 25.6176
26.7684 25.8872
26.8142 26.285
26.8601 26.8624
26.9059 28.1719
26.9519 29.9339
26.9979 31.3353
27.0437 31.2105
27.0896 30.5377
27.1354 29.7758
27.1814 28.6344
27.2272 27.4712
27.2732 26.248
27.3191 25.2841
27.3651 24.9447
27.4109 24.5816
27.4569 24.4631
27.5027 24.2979
27.5488 24.3174
27.5946 24.3051
27.6407 24.5209
27.6865 24.5878
27.7326 24.4532
27.7784 24.6733
27.8245 24.9993
27.8703 25.587
27.9164 25.7894
27.9623 25.2666
28.0084 25.0521
28.0543 24.8358
28.1003 25.0328
28.1462 25.4963
28.1923 25.9178
28.2384 25.9678
28.2843 26.0095
28.3304 26.6659
28.3764 28.0752
28.4225 28.99
28.4684 28.8465
28.5145 27.8583
28.5605 27.2466
28.6066 26.8954
28.6526 26.2422
28.6987 25.3783
28.7447 24.4702
28.7908 23.812
28.8368 23.3017
28.8829 22.9434
28.9289 22.8995
28.9751 22.5684
29.0211 22.4973
29.0673 22.4443
29.1133 22.5231
29.1595 22.6155
29.2055 22.8995
29.2517 23.2705
29.2977 23.3469
29.3439 22.9772
29.3899 22.4306
29.4361 22.0962
29.4824 21.9876
29.5284 21.7937
29.5746 21.7786
29.6207 21.8868
29.6669 22.0299
29.713 22.4128
29.7593 22.7766
29.8053 22.8299
29.8516 22.4595
29.8977 22.0087
29.9439 21.4888
29.99 21.2327
30.0363 21.1268
30.0824 21.1173
30.1287 21.1192
30.1748 21.1783
30.2211 21.4753
30.2673 21.3402
30.3136 21.2552
30.3597 21.0069
30.406 20.9727
30.4522 20.8745
30.4985 20.9916
30.5447 21.2344
30.591 21.3624
30.6372 21.534
30.6835 21.3369
30.7297 21.0881
30.7761 20.9339
30.8224 20.9411
30.8686 21.0116
30.915 21.1049
30.9612 21.3927
31.0076 21.7949
31.0538 22.5069
31.1002 23.0177
31.1464 22.9938
31.1928 22.7866
31.2391 22.5165
31.2855 21.9791
31.3317 21.5423
31.3781 21.0645
31.4244 20.6744
31.4708 20.5241
31.5171 20.3717
31.5636 20.4908
31.6098 20.3763
31.6563 20.4739
31.7026 20.6924
31.7491 20.7809
31.7953 21.1453
31.8418 21.2996
31.8881 21.6522
31.9346 21.561
31.9809 20.9716
32.0275 20.6231
32.074 20.4503
32.1203 20.2886
32.1668 20.4211
32.2132 20.4317
32.2597 20.6214
32.306 20.9021
32.3526 21.0999
32.399 21.0936
32.4455 20.8051
32.4919 20.4472
32.5385 20.1286
32.5848 19.8467
32.6314 19.637
32.6778 19.2945
32.7244 19.0665
32.7708 18.8919
32.8174 18.8191
32.8638 18.7241
32.9104 18.8147
32.9569 18.6886
33.0035 18.647
33.0499 18.7244
33.0966 18.8616
33.143 18.8414
33.1897 18.6351
33.2361 18.4951
33.2828 18.4531
33.3293 18.3837
33.3759 18.3899
33.4226 18.4683
33.4691 18.5886
33.5158 18.7765
33.5623 18.8761
33.609 18.9661
33.6555 19.1797
33.7022 19.0562
33.7487 19.0171
33.7954 18.8206
33.842 18.3867
33.8887 18.0978
33.9353 17.9805
33.982 17.8076
34.0286 17.712
34.0753 17.6427
34.1219 17.6419
34.1687 17.6498
34.2152 17.5611
34.262 17.5947
34.3086 17.6408
34.3554 17.6254
34.402 17.5033
34.4488 17.312
34.4954 17.2068
34.5422 17.0479
34.5889 16.9892
34.6357 17.0354
34.6825 17.0251
34.7292 17.0966
34.776 17.0303
34.8227 17.0176
34.8695 16.8951
34.9162 16.7702
34.9631 16.5226
35.0098 16.5328
35.0566 16.2535
35.1033 16.3317
35.1502 16.3734
35.1969 16.2681
35.2438 16.2856
35.2906 16.253
35.3375 16.3669
35.3842 16.3097
35.4311 16.2955
35.4779 16.3136
35.5248 16.2611
35.5716 16.1974
35.6185 16.2423
35.6653 16.2304
35.7123 16.3859
35.759 16.4858
35.806 16.6233
35.8528 16.7001
35.8998 16.8995
35.9468 16.8724
35.9936 16.7968
36.0406 16.4951
36.0874 16.3344
36.1345 16.1448
36.1813 16.0026
36.2283 15.8572
36.2752 15.6831
36.3222 15.706
36.3691 15.6421
36.4161 15.5147
36.463 15.5469
36.5101 15.6836
36.557 15.6669
36.6041 15.6273
36.651 15.6857
36.6981 15.5923
36.745 15.4045
36.7921 15.2748
36.839 15.255
36.8861 15.2176
36.9331 15.274
36.9802 15.2704
37.0272 15.2789
37.0743 15.3605
37.1213 15.2735
37.1684 15.1508
37.2154 15.0448
37.2626 14.8836
37.3098 14.7861
37.3568 14.7441
37.404 14.5606
37.451 14.5896
37.4982 14.5384
37.5452 14.458
37.5924 14.4179
37.6395 14.4883
37.6867 14.3703
37.7337 14.3332
37.781 14.2461
37.8281 14.1805
37.8753 14.1126
37.9224 14.1244
37.9697 14.0748
38.0168 14.0952
38.064 14.0288
38.1111 14.0713
38.1584 14.0065
38.2056 14.0152
38.2529 13.9343
38.3 13.806
38.3473 13.7698
38.3945 13.6651
38.4418 13.5874
38.489 13.6227
38.5363 13.4985
38.5837 13.5258
38.6309 13.4603
38.6782 13.4419
38.7254 13.451
38.7728 13.4868
38.82 13.4085
38.8674 13.4339
38.9146 13.3068
38.9621 13.2658
39.0093 13.2755
39.0567 13.2234
39.104 13.2332
39.1514 13.196
39.1987 13.2568
39.2461 13.1484
39.2934 13.0826
39.3409 12.8822
39.3882 12.8724
39.4356 12.8072
39.483 12.7509
39.5304 12.745
39.5778 12.7025
39.6253 12.6025
39.6726 12.5862
39.7201 12.6155
39.7675 12.5502
39.815 12.501
39.8624 12.4518
39.9099 12.4791
39.9575 12.3598
40.0049 12.3877
40.0525 12.3007
40.0999 12.3013
40.1474 12.3216
40.1949 12.2814
40.2425 12.2672
40.2899 12.3081
40.3375 12.3284
40.385 12.2219
40.4326 12.1788
40.48 12.0831
40.5277 12.0807
40.5752 12.044
40.6228 11.9
40.6703 11.9483
40.718 11.9468
40.7655 11.9004
40.8132 11.8183
40.8607 11.9024
40.9084 11.865
40.9559 11.75
41.0036 11.7795
41.0512 11.6896
41.0989 11.7235
41.1465 11.6741
41.1942 11.673
41.242 11.603
41.2896 11.6322
41.3373 11.5455
41.3849 11.5067
41.4327 11.4249
41.4803 11.3306
41.5281 11.3396
41.5758 11.2324
41.6236 11.1941
41.6712 11.2102
41.7191 11.1545
41.7667 11.1163
41.8146 11.0885
41.8622 11.0671
41.9101 11.0429
41.9578 10.9519
42.0057 10.9754
42.0534 10.9507
42.1013 10.9628
42.149 10.8679
42.1969 10.8978
42.2446 10.8752
42.2925 10.858
42.3403 10.8223
42.3882 10.7834
42.436 10.7157
42.4839 10.6048
42.5319 10.5885
42.5797 10.5087
42.6277 10.5133
42.6755 10.4361
42.7235 10.4045
42.7713 10.353
42.8193 10.3928
42.8671 10.3173
42.9152 10.2888
42.963 10.2636
43.0111 10.1715
43.0589 10.1693
43.107 10.1396
43.1549 10.1
43.2029 10.0725
43.2508 10.0369
43.2989 10.048
43.3468 9.91858
43.3949 9.90959
43.4429 9.8556
43.491 9.83388
43.5389 9.77625
43.5871 9.73563
43.635 9.76436
43.6832 9.72172
43.7312 9.66114
43.7793 9.62662
43.8273 9.60281
43.8755 9.59237
43.9237 9.52387
43.9717 9.54137
44.0199 9.52239
44.068 9.49391
44.1162 9.44788
44.1642 9.4718
44.2125 9.49408
44.2606 9.40898
44.3088 9.31388
44.3569 9.34892
44.4052 9.27602
44.4533 9.27515
44.5016 9.25467
44.5497 9.22955
44.598 9.16939
44.6461 9.10931
44.6945 9.11733
44.7426 9.04373
44.791 9.07839
44.8391 9.05547
44.8875 8.98326
44.9357 8.95459
44.984 8.92885
45.0322 8.88963
45.0806 8.86883
45.1288 8.88217
45.1773 8.85584
45.2257 8.85274
45.2739 8.77552
45.3224 8.7234
45.3706 8.69293
45.4191 8.6384
45.4673 8.64338
45.5158 8.60411
45.5641 8.56027
45.6126 8.5494
45.6609 8.48584
45.7094 8.47411
45.7577 8.4461
45.8063 8.43607
45.8546 8.41036
45.9031 8.36572
45.9515 8.39403
46.0001 8.35535
46.0484 8.3427
46.097 8.33192
46.1454 8.29945
46.194 8.28203
46.2424 8.21776
46.291 8.14908
46.3395 8.14934
46.3881 8.11379
46.4365 8.07147
46.4852 8.0645
46.5337 8.01876
46.5823 7.998
46.631 7.99162
46.6795 7.93025
46.7282 7.93431
46.7767 7.86573
46.8254 7.81995
46.8739 7.8167
46.9226 7.80463
46.9712 7.7679
47.0199 7.74021
47.0685 7.70357
47.1173 7.69656
47.1658 7.64772
47.2146 7.63541
47.2632 7.56823
47.312 7.56374
47.3606 7.48993
47.4095 7.49459
47.4581 7.49112
47.5069 7.47954
47.5556 7.4299
47.6044 7.39238
47.6531 7.41626
47.702 7.35015
47.7507 7.35777
47.7996 7.27829
47.8483 7.27347
47.8972 7.27068
47.9461 7.1971
47.9948 7.17432
48.0438 7.16636
48.0925 7.13311
48.1415 7.12535
48.1902 7.11189
48.2392 7.07035
48.288 7.07948
48.337 7.01819
48.3858 6.98831
48.4348 7.00167
48.4837 7.00085
48.5327 6.94921
48.5815 6.88985
48.6306 6.89627
48.6795 6.86794
48.7285 6.83279
48.7774 6.81294
48.8265 6.79973
48.8754 6.73565
48.9245 6.68804
48.9734 6.68766
49.0226 6.7112
49.0715 6.63757
49.1206 6.59517
49.1696 6.58936
49.2188 6.58742
49.2679 6.58701
49.3169 6.53991
49.3661 6.47745
49.4151 6.49338
49.4643 6.44008
49.5134 6.41501
49.5626 6.46451
49.6117 6.44194
49.6609 6.38528
49.71 6.36677
49.7592 6.36797
49.8083 6.29257
49.8576 6.32312
49.9067 6.29156
49.956 6.27924
50.0052 6.247
50.0545 6.18709
50.1036 6.19803
50.153 6.14737
50.2022 6.13626
50.2515 6.1456
50.3007 6.09347
50.3501 6.05248
50.3993 6.04497
50.4487 6.03096
50.498 6.02911
50.5474 6.00019
50.5966 5.95755
50.6461 5.96521
50.6955 5.90986
50.7448 5.90566
50.7943 5.88107
50.8436 5.84947
50.8931 5.8209
50.9424 5.82569
50.9919 5.7967
51.0413 5.74845
51.0908 5.76143
51.1402 5.70371
51.1897 5.71189
51.2391 5.67073
51.2887 5.65955
51.3381 5.62901
51.3877 5.6425
51.4371 5.58219
51.4867 5.56949
51.5362 5.52972
51.5858 5.52937
51.6353 5.47107
51.6849 5.49557
51.7344 5.45304
51.7841 5.46087
51.8336 5.41772
51.8833 5.38762
51.9328 5.40993
51.9826 5.35989
52.0323 5.35449
52.0818 5.30734
52.1316 5.25411
52.1812 5.31102
52.231 5.27901
52.2806 5.23305
52.3304 5.19734
52.38 5.18583
52.4298 5.19552
52.4794 5.13654
52.5293 5.12063
52.5789 5.11524
52.6288 5.10607
52.6785 5.01298
52.7284 5.04401
52.7781 5.03508
52.828 5.0132
52.8777 4.9568
52.9276 4.94954
52.9774 4.96068
53.0273 4.92824
53.0771 4.89403
53.1271 4.86026
53.1769 4.86058
53.2269 4.8585
53.2767 4.80313
53.3267 4.80174
53.3765 4.8484
53.4266 4.75795
53.4766 4.70876
53.5265 4.7075
53.5765 4.74222
53.6264 4.70055
53.6765 4.68007
53.7264 4.64555
53.7765 4.64639
53.8265 4.56567
53.8766 4.57589
53.9266 4.57284
53.9767 4.55018
54.0267 4.48753
54.0769 4.51863
54.1269 4.46617
54.1771 4.41569
54.2271 4.43989
54.2773 4.39545
54.3274 4.38055
54.3776 4.33675
54.4277 4.34167
54.478 4.29579
54.528 4.25296
54.5783 4.202
54.6285 4.13673
54.6788 4.18593
54.7289 4.14732
54.7792 4.06619
54.8296 4.04351
54.8798 3.99927
54.9301 4.02541
54.9803 3.95476
55.0307 3.94292
55.0809 3.90352
55.1314 3.88901
55.1816 3.83194
55.232 3.82783
55.2823 3.76776
55.3328 3.71127
55.383 3.65446
55.4335 3.6401
55.4838 3.59753
55.5344 3.59905
55.5847 3.54338
55.6352 3.54003
55.6856 3.51205
55.7361 3.52806