File: XRD/Ni3Fe_FD0768.xy
TT I
1.27165 7.2482
1.31627 6.67408
1.36089 6.47674
1.40551 6.39195
1.45013 6.54887
1.49476 5.98574
1.53938 6.00821
1.584 5.05095
1.62863 5.06893
1.67325 5.12907
1.71787 5.08714
1.7625 4.54841
1.80712 4.65864
1.85174 4.72145
1.89636 4.41269
1.94099 5.30476
1.98562 4.41158
2.03025 4.24462
2.07487 4.55962
2.11949 4.92524
2.16411 4.73658
2.20874 17.2253
2.25338 29.0689
2.298 6.33286
2.34263 5.28299
2.38725 5.86478
2.43188 5.48962
2.4765 7.03854
2.52115 7.2518
2.56577 7.85308
2.6104 8.77228
2.65503 7.43834
2.69965 8.28579
2.7443 8.11062
2.78893 8.05909
2.83356 8.93699
2.87818 9.06323
2.92281 8.83561
2.96744 9.61319
3.01209 10.3619
3.05672 11.2127
3.10135 12.0743
3.14599 12.8555
3.19062 14.584
3.23527 14.9993
3.2799 15.4896
3.32454 16.5977
3.36917 17.7122
3.4138 18.6924
3.45844 19.5926
3.50309 20.772
3.54773 21.6612
3.59237 24.5781
3.637 113.197
3.68164 70.9457
3.7263 26.7011
3.77094 26.1665
3.81558 26.5058
3.86022 27.4016
3.90486 28.9537
3.9495 29.6299
3.99416 31.1908
4.0388 31.911
4.08344 33.9972
4.12809 34.7856
4.17273 37.293
4.21738 44.128
4.26204 305.723
4.30669 275.663
4.35133 50.6869
4.39598 44.6492
4.44063 56.6588
4.4853 71.173
4.52995 50.1282
4.5746 50.6701
4.61925 52.7909
4.6639 54.8118
4.70855 57.6573
4.75322 60.2364
4.79788 62.3631
4.84253 66.522
4.88719 70.3958
4.93184 74.3417
4.97652 79.3088
5.02118 84.9504
5.06583 92.0821
5.11049 103.134
5.15515 182.115
5.19981 302.74
5.24449 2391.91
5.28916 12976.5
5.33382 3084.84
5.37848 187.951
5.42315 128.238
5.46783 111.914
5.5125 103.944
5.55716 100.803
5.60183 97.6607
5.6465 95.6204
5.69117 93.0655
5.73586 90.7804
5.78053 89.9274
5.8252 89.6891
5.86988 89.8903
5.91455 91.779
5.95924 97.6889
6.00392 178.408
6.0486 825.114
6.09328 4220.04
6.13795 3327.32
6.18263 247.668
6.22733 92.1776
6.27201 82.5375
6.3167 109.519
6.36138 83.4144
6.40606 68.885
6.45075 66.9743
6.49545 65.0384
6.54014 63.5322
6.58483 62.8023
6.62952 62.792
6.67421 101.679
6.71892 170.438
6.76361 72.3857
6.8083 58.4857
6.853 57.3034
6.89769 56.9683
6.94239 56.5319
6.98711 56.1085
7.03181 55.6477
7.07651 55.6451
7.12121 55.0025
7.16591 55.4043
7.21063 55.8675
7.25533 74.0532
7.30004 218.247
7.34475 103.499
7.38945 57.0824
7.43416 55.026
7.47889 54.8328
7.5236 54.9063
7.56831 55.2338
7.61303 57.5769
7.65774 57.841
7.70247 56.0071
7.74719 55.9847
7.79191 56.493
7.83663 56.7427
7.88135 57.4195
7.92607 58.2448
7.97081 59.3594
8.01553 60.2675
8.06026 61.9855
8.10498 63.6149
8.14971 75.1667
8.19446 73.8034
8.23919 68.9799
8.28392 70.8815
8.32865 72.9686
8.37339 77.0603
8.41812 84.8539
8.46288 118.736
8.50761 149.307
8.55235 339.317
8.59709 1088.7
8.64183 2193.66
8.68658 1049.38
8.73134 171.074
8.77609 98.6639
8.82083 91.707
8.86558 88.6833
8.91033 89.2905
8.9551 92.9639
8.99985 85.1085
9.04461 83.032
9.08936 81.7632
9.13412 80.979
9.17888 81.3882
9.22365 82.2932
9.26841 81.2693
9.31318 81.296
9.35794 81.9429
9.4027 82.1062
9.44749 82.8721
9.49226 83.6949
9.53703 84.4583
9.5818 86.1015
9.62657 91.9391
9.67134 100.272
9.71614 93.0692
9.76091 92.7951
9.80569 95.3541
9.85047 98.8138
9.89525 127.784
9.94005 141.898
9.98484 158.317
10.0296 298.584
10.0744 739.71
10.1192 1713.85
10.164 1643.5
10.2088 405.872
10.2536 126.923
10.2984 114.437
10.3432 117.239
10.388 103.766
10.4328 111.959
10.4776 148.814
10.5224 262.904
10.5672 513.694
10.612 521.752
10.6568 210.041
10.7017 96.8301
10.7465 86.184
10.7913 82.6282
10.8361 80.295
10.8809 78.4593
10.9257 78.2186
10.9706 79.6478
11.0154 74.711
11.0602 72.2886
11.105 71.3003
11.1499 77.5455
11.1947 87.5355
11.2395 76.0939
11.2844 71.3015
11.3292 67.0134
11.374 65.6956
11.4189 65.4204
11.4637 64.2837
11.5086 65.1501
11.5534 69.2278
11.5983 65.8364
11.6431 63.0953
11.688 62.2604
11.7328 62.3117
11.7777 62.7467
11.8225 62.2501
11.8674 61.9653
11.9122 62.5475
11.9571 62.3817
12.002 62.9381
12.0468 65.8549
12.0917 75.7878
12.1366 97.4729
12.1814 145.602
12.2263 208.926
12.2712 174.97
12.3161 101.501
12.3609 72.0555
12.4058 64.5877
12.4507 63.8852
12.4956 64.0036
12.5405 63.9517
12.5853 65.2553
12.6302 74.9028
12.6751 82.2974
12.72 70.9487
12.7649 67.3777
12.8098 67.9846
12.8547 69.1193
12.8996 70.5551
12.9445 71.353
12.9894 72.8414
13.0343 74.886
13.0792 77.5782
13.1242 84.4564
13.1691 105.989
13.214 138.866
13.2589 223.484
13.3038 361.103
13.3487 434.428
13.3937 279.768
13.4386 127.135
13.4835 102.19
13.5285 113.753
13.5734 148.176
13.6183 234.297
13.6633 345.094
13.7082 347.967
13.7531 191.218
13.7981 98.397
13.843 81.3602
13.888 78.5459
13.9329 76.4599
13.9779 75.2499
14.0228 73.8066
14.0678 72.3401
14.1127 71.8619
14.1577 72.1068
14.2027 71.0352
14.2476 69.7987
14.2926 70.1872
14.3376 71.6284
14.3825 70.1724
14.4275 68.196
14.4725 68.1201
14.5175 67.9969
14.5624 68.4421
14.6074 70.9413
14.6524 71.7146
14.6974 69.8266
14.7424 70.737
14.7874 76.1332
14.8324 84.9829
14.8774 105.038
14.9224 145.807
14.9674 202.907
15.0124 221.684
15.0574 152.28
15.1024 92.4076
15.1474 72.1499
15.1924 70.3677
15.2374 71.3121
15.2824 70.5847
15.3274 68.0563
15.3725 66.3148
15.4175 65.7397
15.4625 65.2866
15.5076 66.1882
15.5526 65.9606
15.5976 65.2209
15.6426 65.6207
15.6877 69.8362
15.7327 76.4114
15.7778 90.3959
15.8228 120.365
15.8679 164.73
15.9129 193.513
15.958 159.124
16.003 98.4521
16.0481 68.6371
16.0931 64.8647
16.1382 62.9518
16.1833 60.4445
16.2283 58.7053
16.2734 58.0413
16.3185 58.7273
16.3636 59.7453
16.4086 58.0314
16.4537 56.1833
16.4988 55.1241
16.5439 55.0785
16.589 54.9014
16.6341 54.4936
16.6792 54.1205
16.7243 54.6403
16.7694 54.9513
16.8145 54.3883
16.8596 54.9724
16.9047 56.9361
16.9498 57.1268
16.9949 55.6676
17.04 55.2887
17.0851 56.1787
17.1302 57.92
17.1754 60.7657
17.2205 65.5012
17.2656 73.472
17.3108 82.8215
17.3559 83.0743
17.401 71.0948
17.4462 61.6457
17.4913 58.6615
17.5365 58.5314
17.5815 58.6553
17.6268 59.0961
17.6718 59.9985
17.7171 60.3162
17.7622 60.4964
17.8074 61.2334
17.8525 62.8063
17.8977 66.5236
17.9428 71.5005
17.9881 79.6171
18.0331 96.1028
18.0784 118.802
18.1237 138.622
18.1688 132.112
18.214 103.987
18.2591 85.7264
18.3044 88.921
18.3495 98.8288
18.3948 106.342
18.4399 97.1749
18.4852 78.6245
18.5303 65.9346
18.5756 61.947
18.6207 60.8665
18.666 59.9147
18.7112 59.2684
18.7565 58.5486
18.8016 58.3006
18.8469 57.7202
18.892 57.3349
18.9374 56.8782
18.9825 56.8079
19.0278 56.5139
19.073 56.4811
19.1183 56.7418
19.1635 57.6409
19.2088 58.7815
19.254 60.9656
19.2993 65.1524
19.3447 72.0056
19.3898 76.9562
19.4352 72.6229
19.4804 63.1998
19.5257 56.7119
19.5709 53.9715
19.6163 53.4585
19.6615 53.2718
19.7068 52.9233
19.752 52.8764
19.7974 53.0733
19.8426 53.7539
19.888 54.3913
19.9332 55.5333
19.9786 57.714
20.0238 61.2512
20.0692 66.5005
20.1144 69.5356
20.1598 68.0553
20.205 62.9394
20.2504 61.5374
20.2957 62.9768
20.3411 65.4981
20.3863 64.5394
20.4318 58.5399
20.477 53.6846
20.5224 51.6409
20.5677 50.99
20.6131 49.9844
20.6586 49.4268
20.7038 49.2423
20.7493 48.8991
20.7945 48.7808
20.84 48.4077
20.8853 48.4648
20.9307 48.191
20.976 48.2644
21.0215 48.2595
21.0668 48.6607
21.1122 48.9235
21.1575 49.5626
21.203 50.3404
21.2483 50.8704
21.2938 50.9637
21.3391 49.7712
21.3846 48.764
21.4299 48.125
21.4754 47.913
21.5207 48.0734
21.5662 48.431
21.6116 48.6627
21.6571 49.2078
21.7024 50.2069
21.7479 51.767
21.7933 54.4904
21.8388 58.0136
21.8843 62.1219
21.9297 64.3341
21.9752 63.2384
22.0206 59.473
22.0661 56.4362
22.1115 55.4612
22.157 55.6825
22.2024 54.1883
22.248 51.2374
22.2933 49.7669
22.3389 48.7762
22.3843 48.7658
22.4299 48.7087
22.4753 48.7442
22.5208 48.3131
22.5662 48.1042
22.6118 48.2165
22.6572 48.4185
22.7028 48.7551
22.7483 49.1662
22.7939 49.7425
22.8393 51.1816
22.8849 53.3984
22.9303 55.6247
22.9759 57.611
23.0214 57.3264
23.067 54.5842
23.1126 51.129
23.1581 48.9969
23.2037 48.4133
23.2492 48.3386
23.2948 48.3193
23.3403 48.6878
23.3859 49.0722
23.4314 50.0588
23.477 51.7109
23.5225 54.0734
23.5682 56.5578
23.6137 57.75
23.6593 55.6924
23.7048 51.6506
23.7505 48.3103
23.796 46.402
23.8417 45.8809
23.8872 45.3273
23.9329 44.9263
23.9784 44.4567
24.0241 44.2428
24.0697 44.1654
24.1154 43.7246
24.1609 43.8686
24.2066 43.613
24.2522 43.447
24.2979 43.0893
24.3434 43.0404
24.3892 42.7986
24.4349 42.8231
24.4805 42.4693
24.5262 42.8745
24.5718 42.7187
24.6175 42.6745
24.6631 42.5724
24.7089 42.3026
24.7545 42.2598
24.8002 41.918
24.8458 41.8852
24.8916 41.6594
24.9372 41.8219
24.983 42.0791
25.0286 42.5237
25.0744 42.9329
25.12 43.2524
25.1658 43.8903
25.2114 44.3781
25.2572 44.3985
25.3029 44.6697
25.3487 44.6788
25.3943 44.4756
25.4402 43.4321
25.4858 42.2426
25.5316 41.2241
25.5773 40.6755
25.6231 40.6645
25.669 40.2262
25.7147 40.3519
25.7605 40.0983
25.8062 40.2662
25.8521 40.4024
25.8977 40.2991
25.9436 40.4891
25.9893 40.5947
26.0352 41.0038
26.0809 41.1756
26.1268 41.5124
26.1725 41.0137
26.2184 40.5548
26.2641 40.1018
26.31 39.882
26.3557 39.851
26.4017 39.8893
26.4474 40.134
26.4933 40.2412
26.5391 40.7652
26.585 41.3853
26.6308 41.6818
26.6767 42.0234
26.7225 41.7819
26.7684 41.3308
26.8142 40.7023
26.8601 40.3116
26.9059 39.8069
26.9519 39.2925
26.9979 38.9146
27.0437 38.6725
27.0896 38.5132
27.1354 38.5406
27.1814 38.2819
27.2272 38.2871
27.2732 38.3321
27.3191 38.0885
27.3651 38.1622
27.4109 38.1206
27.4569 38.1625
27.5027 38.2428
27.5488 38.4051
27.5946 38.1038
27.6407 37.8674
27.6865 37.7448
27.7326 37.5275
27.7784 37.6088
27.8245 37.5469
27.8703 37.8271
27.9164 37.9523
27.9623 38.0122
28.0084 38.5061
28.0543 38.7889
28.1003 38.6698
28.1462 38.5267
28.1923 38.3881
28.2384 37.7529
28.2843 37.4275
28.3304 37.0229
28.3764 36.4374
28.4225 36.2632
28.4684 36.0738
28.5145 35.7333
28.5605 35.6545
28.6066 35.4718
28.6526 35.423
28.6987 35.3678
28.7447 35.3211
28.7908 35.2559
28.8368 35.2702
28.8829 35.3367
28.9289 35.1391
28.9751 34.9292
29.0211 34.6379
29.0673 34.445
29.1133 34.2724
29.1595 34.2102
29.2055 34.0836
29.2517 34.1266
29.2977 34.0608
29.3439 33.9676
29.3899 34.1186
29.4361 33.9097
29.4824 33.7675
29.5284 33.5722
29.5746 33.2299
29.6207 33.0114
29.6669 32.9361
29.713 32.7974
29.7593 32.6714
29.8053 32.6916
29.8516 32.5736
29.8977 32.5804
29.9439 32.3991
29.99 32.2884
30.0363 32.3532
30.0824 32.4079
30.1287 32.1436
30.1748 32.3587
30.2211 32.2453
30.2673 32.0996
30.3136 32.1414
30.3597 32.0117
30.406 31.9343
30.4522 31.8744
30.4985 31.8404
30.5447 31.8252
30.591 31.8902
30.6372 32.1108
30.6835 31.9587
30.7297 32.0588
30.7761 31.9366
30.8224 31.8208
30.8686 31.7076
30.915 31.4633
30.9612 31.3449
31.0076 31.079
31.0538 30.984
31.1002 30.9094
31.1464 30.8244
31.1928 30.8124
31.2391 30.7477
31.2855 30.6229
31.3317 30.678
31.3781 30.7584
31.4244 30.6991
31.4708 30.685
31.5171 30.4931
31.5636 30.5743
31.6098 30.3652
31.6563 30.1961
31.7026 30.0747
31.7491 29.9043
31.7953 30.028
31.8418 29.8597
31.8881 29.8451
31.9346 29.9316
31.9809 29.9426
32.0275 29.7678
32.074 29.5516
32.1203 29.4302
32.1668 29.3555
32.2132 29.2715
32.2597 29.047
32.306 29.0521
32.3526 28.8161
32.399 28.7313
32.4455 28.5949
32.4919 28.512
32.5385 28.4804
32.5848 28.312
32.6314 28.3404
32.6778 28.3175
32.7244 28.1012
32.7708 27.9441
32.8174 28.0008
32.8638 27.8753
32.9104 27.9018
32.9569 27.8108
33.0035 27.623
33.0499 27.6024
33.0966 27.6083
33.143 27.6055
33.1897 27.4852
33.2361 27.4256
33.2828 27.3917
33.3293 27.2705
33.3759 27.2236
33.4226 27.1388
33.4691 26.9423
33.5158 26.8835
33.5623 26.777
33.609 26.6224
33.6555 26.5417
33.7022 26.4256
33.7487 26.2472
33.7954 26.3609
33.842 26.2959
33.8887 26.2119
33.9353 26.1405
33.982 26.0188
34.0286 25.895
34.0753 25.832
34.1219 25.7865
34.1687 25.6882
34.2152 25.6071
34.262 25.5278
34.3086 25.3581
34.3554 25.4693
34.402 25.2698
34.4488 25.1672
34.4954 25.0774
34.5422 25.0977
34.5889 24.9606
34.6357 24.7916
34.6825 24.7663
34.7292 24.6581
34.776 24.623
34.8227 24.6056
34.8695 24.4908
34.9162 24.3937
34.9631 24.3418
35.0098 24.3882
35.0566 24.2741
35.1033 24.1182
35.1502 24.155
35.1969 24.12
35.2438 24.0166
35.2906 23.959
35.3375 23.9479
35.3842 23.8424
35.4311 23.9492
35.4779 23.7511
35.5248 23.8192
35.5716 23.6805
35.6185 23.5369
35.6653 23.4867
35.7123 23.3582
35.759 23.3707
35.806 23.2265
35.8528 23.0682
35.8998 23.1195
35.9468 23.0287
35.9936 22.9522
36.0406 22.8742
36.0874 22.8433
36.1345 22.8122
36.1813 22.6792
36.2283 22.5873
36.2752 22.4783
36.3222 22.5137
36.3691 22.4699
36.4161 22.3511
36.463 22.2561
36.5101 22.3406
36.557 22.2032
36.6041 22.0969
36.651 22.0068
36.6981 22.0426
36.745 21.9322
36.7921 21.8242
36.839 21.741
36.8861 21.658
36.9331 21.6239
36.9802 21.5302
37.0272 21.5195
37.0743 21.3933
37.1213 21.4148
37.1684 21.3008
37.2154 21.168
37.2626 21.1512
37.3098 21.0559
37.3568 20.9879
37.404 20.9821
37.451 20.8716
37.4982 20.8888
37.5452 20.7536
37.5924 20.7159
37.6395 20.7516
37.6867 20.6322
37.7337 20.463
37.781 20.4471
37.8281 20.3845
37.8753 20.3231
37.9224 20.2161
37.9697 20.1124
38.0168 20.0823
38.064 20.0288
38.1111 19.9531
38.1584 19.8766
38.2056 19.8705
38.2529 19.82
38.3 19.7617
38.3473 19.7261
38.3945 19.6187
38.4418 19.5314
38.489 19.4797
38.5363 19.4359
38.5837 19.3565
38.6309 19.326
38.6782 19.24
38.7254 19.2028
38.7728 19.1064
38.82 19.0363
38.8674 19.0432
38.9146 18.9001
38.9621 18.9162
39.0093 18.8322
39.0567 18.7606
39.104 18.7008
39.1514 18.6166
39.1987 18.6473
39.2461 18.5755
39.2934 18.471
39.3409 18.3868
39.3882 18.3071
39.4356 18.3081
39.483 18.1813
39.5304 18.1668
39.5778 18.1106
39.6253 18.1214
39.6726 18.0001
39.7201 17.9787
39.7675 17.9048
39.815 17.8732
39.8624 17.7779
39.9099 17.7261
39.9575 17.6441
40.0049 17.5712
40.0525 17.5205
40.0999 17.4738
40.1474 17.4566
40.1949 17.4051
40.2425 17.2908
40.2899 17.2767
40.3375 17.2066
40.385 17.1217
40.4326 17.0749
40.48 17.0063
40.5277 17.0155
40.5752 16.9654
40.6228 16.8222
40.6703 16.8966
40.718 16.7994
40.7655 16.7074
40.8132 16.6607
40.8607 16.6029
40.9084 16.5817
40.9559 16.5551
41.0036 16.5074
41.0512 16.4498
41.0989 16.3837
41.1465 16.2967
41.1942 16.2565
41.242 16.1736
41.2896 16.1869
41.3373 16.0869
41.3849 16.0169
41.4327 16.0304
41.4803 15.9202
41.5281 15.8902
41.5758 15.8752
41.6236 15.7543
41.6712 15.7348
41.7191 15.7076
41.7667 15.5823
41.8146 15.582
41.8622 15.5519
41.9101 15.4879
41.9578 15.3965
42.0057 15.3539
42.0534 15.2614
42.1013 15.2432
42.149 15.2402
42.1969 15.1073
42.2446 15.0939
42.2925 15.0403
42.3403 15.037
42.3882 14.967
42.436 14.9337
42.4839 14.8529
42.5319 14.8217
42.5797 14.7631
42.6277 14.6687
42.6755 14.639
42.7235 14.568
42.7713 14.5467
42.8193 14.4955
42.8671 14.3904
42.9152 14.4332
42.963 14.3297
43.0111 14.3077
43.0589 14.2839
43.107 14.2038
43.1549 14.1572
43.2029 14.0944
43.2508 14.0991
43.2989 14.0003
43.3468 13.9788
43.3949 13.8851
43.4429 13.8529
43.491 13.8381
43.5389 13.7523
43.5871 13.7354
43.635 13.6498
43.6832 13.6589
43.7312 13.606
43.7793 13.5191
43.8273 13.5502
43.8755 13.4398
43.9237 13.4722
43.9717 13.3826
44.0199 13.3283
44.068 13.3201
44.1162 13.2104
44.1642 13.1935
44.2125 13.1643
44.2606 13.0974
44.3088 13.0251
44.3569 12.9637
44.4052 12.9512
44.4533 12.8707
44.5016 12.8686
44.5497 12.8421
44.598 12.7662
44.6461 12.7148
44.6945 12.6948
44.7426 12.6273
44.791 12.5872
44.8391 12.52
44.8875 12.5136
44.9357 12.4621
44.984 12.4105
45.0322 12.4104
45.0806 12.2759
45.1288 12.2756
45.1773 12.2073
45.2257 12.2112
45.2739 12.1407
45.3224 12.124
45.3706 12.0358
45.4191 12.0125
45.4673 11.9697
45.5158 11.9606
45.5641 11.8436
45.6126 11.868
45.6609 11.7783
45.7094 11.8008
45.7577 11.754
45.8063 11.6419
45.8546 11.658
45.9031 11.6249
45.9515 11.5236
46.0001 11.5161
46.0484 11.4649
46.097 11.457
46.1454 11.371
46.194 11.349
46.2424 11.3263
46.291 11.2928
46.3395 11.2477
46.3881 11.1727
46.4365 11.1818
46.4852 11.1238
46.5337 11.0729
46.5823 11.0316
46.631 10.9549
46.6795 10.9627
46.7282 10.9369
46.7767 10.8696
46.8254 10.7975
46.8739 10.7599
46.9226 10.7473
46.9712 10.6937
47.0199 10.6609
47.0685 10.6194
47.1173 10.6119
47.1658 10.5526
47.2146 10.5207
47.2632 10.4451
47.312 10.447
47.3606 10.3657
47.4095 10.3192
47.4581 10.3178
47.5069 10.3116
47.5556 10.2323
47.6044 10.1965
47.6531 10.1397
47.702 10.1552
47.7507 10.0366
47.7996 10.0521
47.8483 10.0102
47.8972 9.99151
47.9461 9.95021
47.9948 9.8786
48.0438 9.86051
48.0925 9.83306
48.1415 9.81083
48.1902 9.78461
48.2392 9.7784
48.288 9.70737
48.337 9.67006
48.3858 9.64005
48.4348 9.55478
48.4837 9.55705
48.5327 9.54089
48.5815 9.48285
48.6306 9.45153
48.6795 9.4073
48.7285 9.37876
48.7774 9.33408
48.8265 9.31428
48.8754 9.2725
48.9245 9.26749
48.9734 9.21734
49.0226 9.18839
49.0715 9.15311
49.1206 9.12483
49.1696 9.07061
49.2188 9.04435
49.2679 8.98952
49.3169 8.93729
49.3661 8.90687
49.4151 8.89774
49.4643 8.84578
49.5134 8.84167
49.5626 8.79273
49.6117 8.7779
49.6609 8.74653
49.71 8.67898
49.7592 8.63695
49.8083 8.62984
49.8576 8.62024
49.9067 8.57161
49.956 8.50715
50.0052 8.51077
50.0545 8.51891
50.1036 8.41607
50.153 8.37717
50.2022 8.37446
50.2515 8.36993
50.3007 8.29897
50.3501 8.3053
50.3993 8.23544
50.4487 8.21686
50.498 8.19665
50.5474 8.12334
50.5966 8.12644
50.6461 8.07888
50.6955 8.03317
50.7448 8.05139
50.7943 8.01294
50.8436 7.97412
50.8931 7.95179
50.9424 7.9045
50.9919 7.81701
51.0413 7.84399
51.0908 7.79787
51.1402 7.75986
51.1897 7.75106
51.2391 7.74927
51.2887 7.70082
51.3381 7.62623
51.3877 7.62759
51.4371 7.5804
51.4867 7.52394
51.5362 7.53306
51.5858 7.48859
51.6353 7.43549
51.6849 7.43732
51.7344 7.41763
51.7841 7.40428
51.8336 7.34362
51.8833 7.31683
51.9328 7.28928
51.9826 7.2112
52.0323 7.20637
52.0818 7.17079
52.1316 7.13939
52.1812 7.1301
52.231 7.08654
52.2806 7.06918
52.3304 7.04082
52.38 7.06734
52.4298 6.9636
52.4794 6.9681
52.5293 6.91434
52.5789 6.91073
52.6288 6.87484
52.6785 6.81042
52.7284 6.81555
52.7781 6.79471
52.828 6.76952
52.8777 6.7164
52.9276 6.69612
52.9774 6.67563
53.0273 6.67616
53.0771 6.61264
53.1271 6.57019
53.1769 6.55741
53.2269 6.51391
53.2767 6.4792
53.3267 6.45871
53.3765 6.45952
53.4266 6.42811
53.4766 6.40357
53.5265 6.32402
53.5765 6.35023
53.6264 6.32108
53.6765 6.28455
53.7264 6.26195
53.7765 6.25827
53.8265 6.22096
53.8766 6.14631
53.9266 6.1499
53.9767 6.11206
54.0267 6.08941
54.0769 6.09038
54.1269 6.06011
54.1771 5.99549
54.2271 5.99978
54.2773 5.90161
54.3274 5.90804
54.3776 5.86513
54.4277 5.83691
54.478 5.79076
54.528 5.7773
54.5783 5.71567
54.6285 5.68872
54.6788 5.69976
54.7289 5.65186
54.7792 5.5614
54.8296 5.55542
54.8798 5.48993
54.9301 5.44678
54.9803 5.4786
55.0307 5.40028
55.0809 5.37745
55.1314 5.33131
55.1816 5.23366
55.232 5.21879
55.2823 5.17346
55.3328 5.12976
55.383 5.08844
55.4335 5.0082
55.4838 4.98063
55.5344 4.93146
55.5847 4.89496
55.6352 4.87903
55.6856 4.84357
55.7361 4.79385