File: XRD/Ni3Fe_FD0435.xy
TT I
1.27165 7.31583
1.31627 6.20813
1.36089 6.38832
1.40551 5.29414
1.45013 5.82263
1.49476 6.03624
1.53938 5.82996
1.584 5.61393
1.62863 5.81973
1.67325 4.69898
1.71787 4.93912
1.7625 4.43768
1.80712 4.28059
1.85174 4.40361
1.89636 4.86543
1.94099 4.83098
1.98562 4.61325
2.03025 4.58024
2.07487 4.54656
2.11949 4.84699
2.16411 4.50711
2.20874 12.9649
2.25338 21.0789
2.298 5.45995
2.34263 4.89407
2.38725 5.52111
2.43188 5.41573
2.4765 6.54982
2.52115 5.87222
2.56577 6.99621
2.6104 7.85654
2.65503 7.66236
2.69965 7.58402
2.7443 7.7759
2.78893 7.58796
2.83356 7.97456
2.87818 8.69196
2.92281 8.83419
2.96744 9.0916
3.01209 10.4233
3.05672 11.2027
3.10135 12.4721
3.14599 12.7407
3.19062 14.01
3.23527 14.5143
3.2799 16.0861
3.32454 16.6525
3.36917 17.989
3.4138 19.5037
3.45844 19.748
3.50309 21.1726
3.54773 21.8897
3.59237 23.7205
3.637 85.0504
3.68164 55.2417
3.7263 26.1813
3.77094 26.6346
3.81558 27.1649
3.86022 27.9754
3.90486 29.5654
3.9495 29.91
3.99416 31.1236
4.0388 32.259
4.08344 33.8189
4.12809 35.0112
4.17273 37.6758
4.21738 43.0409
4.26204 225.047
4.30669 194.345
4.35133 48.4831
4.39598 44.9698
4.44063 53.639
4.4853 63.8512
4.52995 50.9898
4.5746 52.2861
4.61925 53.9711
4.6639 56.3035
4.70855 58.6665
4.75322 62.2876
4.79788 64.802
4.84253 68.808
4.88719 72.4821
4.93184 76.5347
4.97652 82.4043
5.02118 89.7924
5.06583 97.2988
5.11049 110.745
5.15515 180.67
5.19981 445.124
5.24449 3227.53
5.28916 11752.0
5.33382 3186.37
5.37848 207.759
5.42315 134.061
5.46783 117.361
5.5125 108.444
5.55716 104.287
5.60183 100.829
5.6465 98.177
5.69117 95.9905
5.73586 94.1716
5.78053 94.0799
5.8252 93.9786
5.86988 94.8988
5.91455 98.1514
5.95924 108.808
6.00392 248.512
6.0486 1108.4
6.09328 4178.84
6.13795 3439.92
6.18263 277.714
6.22733 97.3098
6.27201 85.3309
6.3167 100.079
6.36138 80.9014
6.40606 70.0668
6.45075 68.2437
6.49545 66.5785
6.54014 64.7281
6.58483 63.7412
6.62952 63.7706
6.67421 90.762
6.71892 135.473
6.76361 68.3108
6.8083 59.1121
6.853 57.9471
6.89769 57.6153
6.94239 57.4796
6.98711 56.5999
7.03181 56.4334
7.07651 55.792
7.12121 55.9629
7.16591 56.4144
7.21063 55.8855
7.25533 69.0815
7.30004 163.718
7.34475 88.2251
7.38945 57.2487
7.43416 55.0511
7.47889 55.2387
7.5236 55.3293
7.56831 56.2437
7.61303 57.813
7.65774 57.4812
7.70247 56.8606
7.74719 56.8903
7.79191 57.6947
7.83663 57.6405
7.88135 58.7394
7.92607 59.4679
7.97081 61.0727
8.01553 61.7366
8.06026 63.3269
8.10498 64.7308
8.14971 73.6521
8.19446 73.1524
8.23919 70.3927
8.28392 73.104
8.32865 75.7279
8.37339 80.0918
8.41812 87.4229
8.46288 115.32
8.50761 185.48
8.55235 437.168
8.59709 1204.55
8.64183 2139.67
8.68658 1023.44
8.73134 177.028
8.77609 101.979
8.82083 94.3275
8.86558 91.1582
8.91033 90.9295
8.9551 92.4302
8.99985 86.4532
9.04461 84.4628
9.08936 84.1779
9.13412 83.308
9.17888 83.4495
9.22365 83.5468
9.26841 82.9802
9.31318 84.2168
9.35794 84.3212
9.4027 84.5174
9.44749 85.2675
9.49226 85.9226
9.53703 87.0744
9.5818 88.9914
9.62657 93.097
9.67134 99.3292
9.71614 95.1238
9.76091 95.4967
9.80569 98.3129
9.85047 101.905
9.89525 124.06
9.94005 138.006
9.98484 197.346
10.0296 384.676
10.0744 842.015
10.1192 1705.63
10.164 1648.72
10.2088 434.268
10.2536 132.98
10.2984 115.209
10.3432 115.771
10.388 106.906
10.4328 124.789
10.4776 171.755
10.5224 288.187
10.5672 504.726
10.612 504.141
10.6568 209.748
10.7017 98.4226
10.7465 88.082
10.7913 84.4229
10.8361 81.8973
10.8809 79.773
10.9257 79.6671
10.9706 79.5355
11.0154 75.7239
11.0602 73.8827
11.105 72.8303
11.1499 76.314
11.1947 83.0869
11.2395 74.8611
11.2844 70.9035
11.3292 67.8122
11.374 67.0831
11.4189 66.7083
11.4637 65.7442
11.5086 66.1236
11.5534 68.7356
11.5983 66.2281
11.6431 64.4526
11.688 63.8107
11.7328 63.9719
11.7777 63.5156
11.8225 63.235
11.8674 63.4601
11.9122 63.7476
11.9571 63.9872
12.002 64.8173
12.0468 70.187
12.0917 82.655
12.1366 106.703
12.1814 152.42
12.2263 203.624
12.2712 169.455
12.3161 97.4983
12.3609 71.1638
12.4058 65.422
12.4507 65.3887
12.4956 65.4078
12.5405 65.486
12.5853 66.5951
12.6302 73.2901
12.6751 78.6244
12.72 70.8073
12.7649 68.9363
12.8098 69.3563
12.8547 70.7494
12.8996 72.2904
12.9445 73.4206
12.9894 75.2398
13.0343 77.3878
13.0792 80.6212
13.1242 91.8236
13.1691 118.983
13.214 157.879
13.2589 241.387
13.3038 361.344
13.3487 423.715
13.3937 273.274
13.4386 128.402
13.4835 110.382
13.5285 127.33
13.5734 165.371
13.6183 247.012
13.6633 342.089
13.7082 348.255
13.7531 196.929
13.7981 99.3499
13.843 83.4901
13.888 81.1667
13.9329 78.3853
13.9779 76.9697
14.0228 75.5452
14.0678 74.2809
14.1127 73.7101
14.1577 73.521
14.2027 72.5853
14.2476 71.5876
14.2926 71.6094
14.3376 72.5031
14.3825 71.1808
14.4275 69.966
14.4725 69.6106
14.5175 70.085
14.5624 70.0686
14.6074 72.1284
14.6524 72.753
14.6974 71.5597
14.7424 73.6473
14.7874 82.0349
14.8324 93.0811
14.8774 114.868
14.9224 154.466
14.9674 202.465
15.0124 218.68
15.0574 154.412
15.1024 92.8809
15.1474 73.3996
15.1924 71.5751
15.2374 71.9314
15.2824 71.1479
15.3274 69.1839
15.3725 67.7644
15.4175 67.2713
15.4625 67.1801
15.5076 67.3869
15.5526 67.3964
15.5976 66.9491
15.6426 68.4899
15.6877 75.0347
15.7327 83.336
15.7778 98.9256
15.8228 127.444
15.8679 166.643
15.9129 191.945
15.958 160.071
16.003 97.6675
16.0481 69.245
16.0931 65.5415
16.1382 63.5949
16.1833 61.4987
16.2283 59.7917
16.2734 59.2283
16.3185 59.519
16.3636 60.0594
16.4086 58.5886
16.4537 56.8923
16.4988 56.3242
16.5439 56.3311
16.589 56.2237
16.6341 55.9771
16.6792 55.5994
16.7243 55.5959
16.7694 55.873
16.8145 55.8454
16.8596 56.0276
16.9047 57.5251
16.9498 57.8839
16.9949 56.6391
17.04 56.8318
17.0851 58.41
17.1302 59.9679
17.1754 63.3359
17.2205 68.1655
17.2656 74.7124
17.3108 82.2187
17.3559 82.9148
17.401 72.5392
17.4462 62.9899
17.4913 60.1963
17.5365 60.0326
17.5815 60.4762
17.6268 60.6524
17.6718 61.4246
17.7171 61.7222
17.7622 62.3239
17.8074 63.1826
17.8525 65.8291
17.8977 70.5767
17.9428 76.3508
17.9881 85.207
18.0331 101.251
18.0784 120.552
18.1237 139.518
18.1688 133.251
18.214 107.002
18.2591 88.5802
18.3044 91.2368
18.3495 100.319
18.3948 107.119
18.4399 98.4116
18.4852 78.9479
18.5303 66.862
18.5756 63.2101
18.6207 62.4118
18.666 61.4096
18.7112 60.5702
18.7565 59.9084
18.8016 59.6547
18.8469 59.192
18.892 58.6271
18.9374 58.1708
18.9825 57.8839
19.0278 57.777
19.073 58.0449
19.1183 58.715
19.1635 59.6808
19.2088 60.7454
19.254 63.3359
19.2993 67.425
19.3447 73.0935
19.3898 77.5784
19.4352 73.827
19.4804 64.7178
19.5257 57.5487
19.5709 55.1056
19.6163 54.9393
19.6615 54.7721
19.7068 54.3211
19.752 54.157
19.7974 54.6974
19.8426 55.5626
19.888 56.1699
19.9332 57.4621
19.9786 60.0034
20.0238 63.2131
20.0692 67.9373
20.1144 70.7021
20.1598 69.738
20.205 64.7113
20.2504 62.8183
20.2957 64.3609
20.3411 66.5214
20.3863 65.2205
20.4318 59.7789
20.477 54.5277
20.5224 52.4055
20.5677 51.8091
20.6131 51.182
20.6586 50.5678
20.7038 50.3622
20.7493 50.0158
20.7945 49.7801
20.84 49.6343
20.8853 49.4908
20.9307 49.5113
20.976 49.5361
21.0215 49.4817
21.0668 49.995
21.1122 50.3349
21.1575 50.985
21.203 51.5627
21.2483 52.2052
21.2938 52.401
21.3391 51.1433
21.3846 49.994
21.4299 49.4542
21.4754 49.2452
21.5207 49.3219
21.5662 49.6836
21.6116 50.2846
21.6571 50.8722
21.7024 51.9553
21.7479 53.8
21.7933 56.2997
21.8388 59.8489
21.8843 63.5723
21.9297 65.5281
21.9752 64.5557
22.0206 60.6895
22.0661 57.4196
22.1115 56.8002
22.157 56.9872
22.2024 55.519
22.248 52.5384
22.2933 50.8654
22.3389 50.0073
22.3843 49.8959
22.4299 49.7225
22.4753 49.8185
22.5208 49.5298
22.5662 49.2014
22.6118 49.549
22.6572 49.7854
22.7028 50.3848
22.7483 50.6803
22.7939 51.4926
22.8393 52.9446
22.8849 54.6772
22.9303 56.8429
22.9759 58.5525
23.0214 58.2967
23.067 55.5729
23.1126 52.1505
23.1581 50.0315
23.2037 49.6589
23.2492 49.7138
23.2948 49.8477
23.3403 50.2979
23.3859 50.7489
23.4314 51.832
23.477 53.5135
23.5225 55.3684
23.5682 57.5075
23.6137 58.7486
23.6593 56.8869
23.7048 52.7943
23.7505 49.2551
23.796 47.4344
23.8417 46.7861
23.8872 46.2642
23.9329 45.989
23.9784 45.7346
24.0241 45.3929
24.0697 45.1773
24.1154 45.0264
24.1609 44.6776
24.2066 44.6165
24.2522 44.4789
24.2979 44.19
24.3434 43.9995
24.3892 43.9047
24.4349 43.8876
24.4805 43.5912
24.5262 43.9258
24.5718 43.5745
24.6175 43.5175
24.6631 43.7413
24.7089 43.2185
24.7545 43.1511
24.8002 42.9996
24.8458 43.095
24.8916 42.9416
24.9372 43.0174
24.983 43.3461
25.0286 43.7394
25.0744 44.1636
25.12 44.5809
25.1658 45.0924
25.2114 45.5835
25.2572 45.5589
25.3029 45.6371
25.3487 45.6763
25.3943 45.4355
25.4402 44.3969
25.4858 43.1646
25.5316 42.2245
25.5773 41.6532
25.6231 41.6544
25.669 41.218
25.7147 41.2938
25.7605 41.2378
25.8062 41.2019
25.8521 41.5415
25.8977 41.3509
25.9436 41.6194
25.9893 41.6152
26.0352 42.1889
26.0809 42.3629
26.1268 42.4232
26.1725 42.0889
26.2184 41.6197
26.2641 40.9909
26.31 40.8691
26.3557 40.7797
26.4017 40.8834
26.4474 41.1043
26.4933 41.4074
26.5391 42.1271
26.585 42.3787
26.6308 42.6051
26.6767 42.8735
26.7225 42.8257
26.7684 42.1459
26.8142 41.5375
26.8601 41.1675
26.9059 40.8108
26.9519 40.394
26.9979 39.8939
27.0437 39.5642
27.0896 39.3544
27.1354 39.4145
27.1814 39.3181
27.2272 39.2835
27.2732 39.1323
27.3191 39.0656
27.3651 39.1535
27.4109 39.0962
27.4569 39.165
27.5027 39.3432
27.5488 39.1999
27.5946 38.9502
27.6407 38.8135
27.6865 38.7021
27.7326 38.5178
27.7784 38.5658
27.8245 38.5696
27.8703 38.6131
27.9164 39.0411
27.9623 39.099
28.0084 39.3487
28.0543 39.8106
28.1003 39.7948
28.1462 39.3387
28.1923 39.1137
28.2384 38.6014
28.2843 38.1962
28.3304 37.7946
28.3764 37.3536
28.4225 37.0859
28.4684 36.971
28.5145 36.6034
28.5605 36.4419
28.6066 36.3063
28.6526 36.2695
28.6987 36.1981
28.7447 36.0951
28.7908 35.9673
28.8368 36.0582
28.8829 36.0509
28.9289 35.9845
28.9751 35.7093
29.0211 35.6442
29.0673 35.2841
29.1133 35.0903
29.1595 34.9969
29.2055 34.9559
29.2517 34.9413
29.2977 34.8572
29.3439 34.8939
29.3899 34.8295
29.4361 34.7408
29.4824 34.6279
29.5284 34.2521
29.5746 34.0679
29.6207 33.7244
29.6669 33.7397
29.713 33.5302
29.7593 33.4651
29.8053 33.5103
29.8516 33.3676
29.8977 33.3652
29.9439 33.1862
29.99 33.236
30.0363 32.987
30.0824 33.0756
30.1287 33.067
30.1748 32.991
30.2211 33.0437
30.2673 32.8152
30.3136 32.8326
30.3597 32.7495
30.406 32.8034
30.4522 32.7134
30.4985 32.5413
30.5447 32.7098
30.591 32.6655
30.6372 32.7396
30.6835 32.7503
30.7297 32.7925
30.7761 32.6748
30.8224 32.572
30.8686 32.3771
30.915 32.1644
30.9612 32.129
31.0076 31.8549
31.0538 31.7612
31.1002 31.5967
31.1464 31.4931
31.1928 31.4041
31.2391 31.4314
31.2855 31.4632
31.3317 31.3395
31.3781 31.4956
31.4244 31.3407
31.4708 31.3495
31.5171 31.332
31.5636 31.4292
31.6098 31.0565
31.6563 30.9201
31.7026 30.7814
31.7491 30.6199
31.7953 30.7515
31.8418 30.6035
31.8881 30.6565
31.9346 30.59
31.9809 30.6047
32.0275 30.3826
32.074 30.2752
32.1203 30.1377
32.1668 30.0169
32.2132 29.9104
32.2597 29.7415
32.306 29.7155
32.3526 29.4441
32.399 29.4065
32.4455 29.3159
32.4919 29.2785
32.5385 29.1547
32.5848 28.9673
32.6314 28.9699
32.6778 28.9215
32.7244 28.857
32.7708 28.5973
32.8174 28.5853
32.8638 28.4325
32.9104 28.554
32.9569 28.4883
33.0035 28.3285
33.0499 28.3245
33.0966 28.2413
33.143 28.3511
33.1897 28.2261
33.2361 28.1478
33.2828 28.0114
33.3293 27.9423
33.3759 27.887
33.4226 27.749
33.4691 27.5886
33.5158 27.5683
33.5623 27.311
33.609 27.164
33.6555 27.0801
33.7022 27.0243
33.7487 27.0139
33.7954 26.9939
33.842 26.8862
33.8887 26.8179
33.9353 26.7654
33.982 26.6798
34.0286 26.5374
34.0753 26.3776
34.1219 26.2953
34.1687 26.292
34.2152 26.268
34.262 26.129
34.3086 25.9746
34.3554 25.9609
34.402 25.8486
34.4488 25.7021
34.4954 25.6511
34.5422 25.6258
34.5889 25.5582
34.6357 25.377
34.6825 25.3207
34.7292 25.3307
34.776 25.1695
34.8227 25.0914
34.8695 25.0036
34.9162 24.9986
34.9631 24.9022
35.0098 24.8828
35.0566 24.7798
35.1033 24.7539
35.1502 24.6432
35.1969 24.7363
35.2438 24.5877
35.2906 24.5426
35.3375 24.5266
35.3842 24.3792
35.4311 24.4266
35.4779 24.3529
35.5248 24.3599
35.5716 24.2352
35.6185 24.0777
35.6653 24.0219
35.7123 23.9198
35.759 23.8177
35.806 23.7249
35.8528 23.6375
35.8998 23.6147
35.9468 23.5009
35.9936 23.4644
36.0406 23.4557
36.0874 23.38
36.1345 23.277
36.1813 23.2331
36.2283 23.2056
36.2752 23.0171
36.3222 23.0838
36.3691 22.9287
36.4161 22.8958
36.463 22.886
36.5101 22.8226
36.557 22.6694
36.6041 22.6253
36.651 22.5761
36.6981 22.5048
36.745 22.4292
36.7921 22.3425
36.839 22.2489
36.8861 22.0957
36.9331 22.0959
36.9802 22.0195
37.0272 21.9308
37.0743 21.8782
37.1213 21.8298
37.1684 21.7772
37.2154 21.7203
37.2626 21.5181
37.3098 21.5474
37.3568 21.4469
37.404 21.4724
37.451 21.2921
37.4982 21.3523
37.5452 21.2337
37.5924 21.1844
37.6395 21.2892
37.6867 21.0172
37.7337 20.8972
37.781 20.9238
37.8281 20.8466
37.8753 20.7428
37.9224 20.688
37.9697 20.6213
38.0168 20.5684
38.064 20.4809
38.1111 20.4683
38.1584 20.3195
38.2056 20.3424
38.2529 20.2886
38.3 20.1132
38.3473 20.1323
38.3945 19.9812
38.4418 19.9912
38.489 19.9957
38.5363 19.8033
38.5837 19.7946
38.6309 19.6915
38.6782 19.5734
38.7254 19.5249
38.7728 19.5179
38.82 19.5006
38.8674 19.417
38.9146 19.3795
38.9621 19.2803
39.0093 19.2275
39.0567 19.1907
39.104 19.1131
39.1514 19.0572
39.1987 18.9765
39.2461 19.0052
39.2934 18.8865
39.3409 18.8739
39.3882 18.7556
39.4356 18.719
39.483 18.5944
39.5304 18.5541
39.5778 18.5176
39.6253 18.4959
39.6726 18.4431
39.7201 18.3215
39.7675 18.3481
39.815 18.2541
39.8624 18.1444
39.9099 18.166
39.9575 18.0654
40.0049 18.0179
40.0525 17.888
40.0999 17.8778
40.1474 17.8424
40.1949 17.7201
40.2425 17.7015
40.2899 17.6878
40.3375 17.5836
40.385 17.5129
40.4326 17.4848
40.48 17.4435
40.5277 17.4074
40.5752 17.2886
40.6228 17.2749
40.6703 17.238
40.718 17.1409
40.7655 17.1646
40.8132 17.0363
40.8607 17.0213
40.9084 16.9789
40.9559 16.8419
41.0036 16.8418
41.0512 16.866
41.0989 16.7494
41.1465 16.6913
41.1942 16.6186
41.242 16.5458
41.2896 16.4824
41.3373 16.4602
41.3849 16.4061
41.4327 16.3214
41.4803 16.2189
41.5281 16.2414
41.5758 16.1623
41.6236 16.1008
41.6712 16.0836
41.7191 15.9828
41.7667 15.9549
41.8146 15.9299
41.8622 15.838
41.9101 15.781
41.9578 15.7499
42.0057 15.676
42.0534 15.5848
42.1013 15.5843
42.149 15.4942
42.1969 15.4466
42.2446 15.4459
42.2925 15.3785
42.3403 15.3221
42.3882 15.3108
42.436 15.2184
42.4839 15.1325
42.5319 15.0972
42.5797 15.1013
42.6277 15.0503
42.6755 14.9605
42.7235 14.8677
42.7713 14.8494
42.8193 14.811
42.8671 14.7461
42.9152 14.7205
42.963 14.6749
43.0111 14.6563
43.0589 14.5532
43.107 14.483
43.1549 14.4901
43.2029 14.3957
43.2508 14.3901
43.2989 14.2985
43.3468 14.2213
43.3949 14.1762
43.4429 14.1523
43.491 14.0611
43.5389 14.0977
43.5871 14.0321
43.635 13.9778
43.6832 13.9262
43.7312 13.8538
43.7793 13.8244
43.8273 13.8028
43.8755 13.7661
43.9237 13.7034
43.9717 13.6526
44.0199 13.5788
44.068 13.609
44.1162 13.4716
44.1642 13.4688
44.2125 13.3763
44.2606 13.3192
44.3088 13.2899
44.3569 13.2261
44.4052 13.2401
44.4533 13.1557
44.5016 13.1237
44.5497 13.0325
44.598 13.0659
44.6461 12.9324
44.6945 12.9221
44.7426 12.9211
44.791 12.8279
44.8391 12.8115
44.8875 12.7443
44.9357 12.7236
44.984 12.6616
45.0322 12.617
45.0806 12.5832
45.1288 12.5237
45.1773 12.4924
45.2257 12.4609
45.2739 12.4242
45.3224 12.3507
45.3706 12.3455
45.4191 12.2735
45.4673 12.2358
45.5158 12.2145
45.5641 12.101
45.6126 12.1286
45.6609 12.0537
45.7094 12.032
45.7577 11.9385
45.8063 11.91
45.8546 11.9082
45.9031 11.8111
45.9515 11.7896
46.0001 11.7407
46.0484 11.7337
46.097 11.7038
46.1454 11.661
46.194 11.6059
46.2424 11.5208
46.291 11.5327
46.3395 11.4638
46.3881 11.4166
46.4365 11.4132
46.4852 11.3482
46.5337 11.3022
46.5823 11.2566
46.631 11.2549
46.6795 11.172
46.7282 11.1488
46.7767 11.1009
46.8254 11.0238
46.8739 10.9906
46.9226 10.9716
46.9712 10.9526
47.0199 10.8723
47.0685 10.8379
47.1173 10.7698
47.1658 10.7653
47.2146 10.7298
47.2632 10.6919
47.312 10.6632
47.3606 10.6205
47.4095 10.6062
47.4581 10.5365
47.5069 10.4919
47.5556 10.4755
47.6044 10.4255
47.6531 10.3709
47.702 10.324
47.7507 10.2892
47.7996 10.2183
47.8483 10.244
47.8972 10.193
47.9461 10.1497
47.9948 10.0963
48.0438 10.0478
48.0925 10.0612
48.1415 9.98105
48.1902 9.94725
48.2392 9.93813
48.288 9.91838
48.337 9.90684
48.3858 9.82973
48.4348 9.80106
48.4837 9.76653
48.5327 9.68177
48.5815 9.6619
48.6306 9.63826
48.6795 9.59043
48.7285 9.5973
48.7774 9.52311
48.8265 9.5383
48.8754 9.51692
48.9245 9.4519
48.9734 9.45597
49.0226 9.37124
49.0715 9.31669
49.1206 9.27688
49.1696 9.28754
49.2188 9.25074
49.2679 9.1919
49.3169 9.13761
49.3661 9.12595
49.4151 9.07824
49.4643 9.03628
49.5134 9.01361
49.5626 8.96847
49.6117 8.96728
49.6609 8.94819
49.71 8.88959
49.7592 8.83283
49.8083 8.80203
49.8576 8.78099
49.9067 8.71783
49.956 8.69527
50.0052 8.65439
50.0545 8.69632
50.1036 8.62763
50.153 8.56565
50.2022 8.53751
50.2515 8.50804
50.3007 8.46797
50.3501 8.42888
50.3993 8.44165
50.4487 8.36233
50.498 8.35315
50.5474 8.32153
50.5966 8.2821
50.6461 8.2297
50.6955 8.2146
50.7448 8.2093
50.7943 8.17363
50.8436 8.1474
50.8931 8.10851
50.9424 8.06293
50.9919 8.02712
51.0413 7.97994
51.0908 7.94066
51.1402 7.96666
51.1897 7.91528
51.2391 7.89135
51.2887 7.83319
51.3381 7.82525
51.3877 7.80914
51.4371 7.74952
51.4867 7.70158
51.5362 7.68669
51.5858 7.67553
51.6353 7.58522
51.6849 7.59678
51.7344 7.5432
51.7841 7.511
51.8336 7.46686
51.8833 7.45956
51.9328 7.40612
51.9826 7.36626
52.0323 7.34039
52.0818 7.34134
52.1316 7.30047
52.1812 7.26958
52.231 7.21085
52.2806 7.2114
52.3304 7.23396
52.38 7.17038
52.4298 7.15309
52.4794 7.08316
52.5293 7.06454
52.5789 7.04968
52.6288 7.01067
52.6785 6.9675
52.7284 6.97054
52.7781 6.92962
52.828 6.90263
52.8777 6.85293
52.9276 6.84567
52.9774 6.83379
53.0273 6.76389
53.0771 6.75889
53.1271 6.70448
53.1769 6.67139
53.2269 6.6977
53.2767 6.63152
53.3267 6.61792
53.3765 6.61844
53.4266 6.53478
53.4766 6.49532
53.5265 6.54791
53.5765 6.49329
53.6264 6.42583
53.6765 6.44576
53.7264 6.39758
53.7765 6.33587
53.8265 6.30626
53.8766 6.27104
53.9266 6.23278
53.9767 6.25797
54.0267 6.23565
54.0769 6.19708
54.1269 6.16364
54.1771 6.14257
54.2271 6.10432
54.2773 6.02134
54.3274 6.01056
54.3776 6.01888
54.4277 5.98663
54.478 5.94472
54.528 5.92429
54.5783 5.81499
54.6285 5.83028
54.6788 5.78938
54.7289 5.69651
54.7792 5.67661
54.8296 5.65021
54.8798 5.65464
54.9301 5.57929
54.9803 5.58603
55.0307 5.54684
55.0809 5.46907
55.1314 5.42757
55.1816 5.35665
55.232 5.34464
55.2823 5.29881
55.3328 5.24541
55.383 5.16177
55.4335 5.12143
55.4838 5.10576
55.5344 5.1112
55.5847 4.97252
55.6352 4.96676
55.6856 4.95121
55.7361 4.91765