File: XRD/Ni3Fe_FD1027.xy
TT I
1.27165 6.86377
1.31627 6.20934
1.36089 5.91102
1.40551 6.6693
1.45013 5.2397
1.49476 5.87689
1.53938 5.4852
1.584 4.86463
1.62863 4.94399
1.67325 4.84147
1.71787 4.73803
1.7625 4.33688
1.80712 4.88872
1.85174 4.65722
1.89636 4.34571
1.94099 4.20642
1.98562 4.34563
2.03025 3.71774
2.07487 3.79066
2.11949 4.44477
2.16411 4.10935
2.20874 5.85004
2.25338 6.41169
2.298 5.52436
2.34263 5.56306
2.38725 5.92277
2.43188 5.69406
2.4765 6.81652
2.52115 8.13291
2.56577 8.301
2.6104 9.03683
2.65503 7.93556
2.69965 8.86302
2.7443 8.85875
2.78893 8.33329
2.83356 8.35084
2.87818 9.27297
2.92281 8.79007
2.96744 9.52282
3.01209 10.0535
3.05672 10.8483
3.10135 12.3282
3.14599 12.8138
3.19062 14.3228
3.23527 14.9344
3.2799 15.4469
3.32454 15.8432
3.36917 17.2366
3.4138 17.7509
3.45844 18.7863
3.50309 19.982
3.54773 20.7157
3.59237 21.1143
3.637 27.8005
3.68164 26.851
3.7263 23.836
3.77094 24.4383
3.81558 25.3743
3.86022 25.8021
3.90486 27.3864
3.9495 28.1012
3.99416 29.0855
4.0388 30.2845
4.08344 31.5743
4.12809 32.3735
4.17273 33.5122
4.21738 35.3357
4.26204 52.6142
4.30669 58.0639
4.35133 40.7039
4.39598 40.6609
4.44063 42.9071
4.4853 46.1876
4.52995 46.594
4.5746 48.3442
4.61925 50.0434
4.6639 52.0597
4.70855 55.3101
4.75322 57.9313
4.79788 60.7599
4.84253 63.6899
4.88719 67.5383
4.93184 71.1826
4.97652 76.6481
5.02118 82.9324
5.06583 88.6234
5.11049 97.2086
5.15515 117.512
5.19981 227.704
5.24449 2397.82
5.28916 13295.8
5.33382 3377.42
5.37848 225.948
5.42315 124.753
5.46783 108.131
5.5125 100.509
5.55716 96.8997
5.60183 92.8482
5.6465 91.3088
5.69117 89.3863
5.73586 87.5741
5.78053 86.8437
5.8252 85.8793
5.86988 86.5829
5.91455 88.2158
5.95924 94.6828
6.00392 159.351
6.0486 850.395
6.09328 4423.01
6.13795 3522.65
6.18263 250.256
6.22733 87.2247
6.27201 75.1612
6.3167 72.5514
6.36138 68.3044
6.40606 64.405
6.45075 63.0503
6.49545 61.3928
6.54014 59.7305
6.58483 58.7855
6.62952 57.443
6.67421 58.6886
6.71892 64.2828
6.76361 56.5227
6.8083 54.1002
6.853 53.6584
6.89769 53.0186
6.94239 52.8538
6.98711 52.3614
7.03181 51.7334
7.07651 52.1283
7.12121 51.6181
7.16591 51.5931
7.21063 50.8005
7.25533 51.5705
7.30004 61.9766
7.34475 56.0428
7.38945 51.4545
7.43416 51.1697
7.47889 51.2768
7.5236 61.0438
7.56831 79.6593
7.61303 57.929
7.65774 52.8542
7.70247 52.8019
7.74719 52.9758
7.79191 53.1194
7.83663 53.684
7.88135 54.5389
7.92607 55.4169
7.97081 56.5565
8.01553 57.3762
8.06026 58.8674
8.10498 59.9652
8.14971 61.8988
8.19446 63.7689
8.23919 65.2531
8.28392 67.816
8.32865 69.8771
8.37339 73.4198
8.41812 77.248
8.46288 85.6972
8.50761 126.085
8.55235 355.729
8.59709 1061.18
8.64183 2257.22
8.68658 1094.83
8.73134 178.954
8.77609 94.4935
8.82083 88.1
8.86558 85.0456
8.91033 83.3009
8.9551 82.1134
8.99985 80.9411
9.04461 79.7294
9.08936 79.3486
9.13412 79.0013
9.17888 79.1552
9.22365 94.4553
9.26841 122.517
9.31318 92.0783
9.35794 80.1359
9.4027 79.584
9.44749 80.0398
9.49226 80.6021
9.53703 81.5143
9.5818 82.9243
9.62657 83.7478
9.67134 85.9336
9.71614 87.3303
9.76091 88.8359
9.80569 91.1975
9.85047 93.0902
9.89525 98.3973
9.94005 105.415
9.98484 144.737
10.0296 333.063
10.0744 746.489
10.1192 1742.72
10.164 1676.39
10.2088 452.706
10.2536 125.629
10.2984 102.588
10.3432 100.459
10.388 97.1299
10.4328 106.511
10.4776 156.21
10.5224 261.77
10.5672 499.803
10.612 532.704
10.6568 223.316
10.7017 106.061
10.7465 86.8788
10.7913 79.4849
10.8361 77.2236
10.8809 75.0163
10.9257 72.9967
10.9706 72.1033
11.0154 70.3105
11.0602 68.944
11.105 67.9003
11.1499 66.6167
11.1947 67.1531
11.2395 65.1587
11.2844 64.4294
11.3292 63.472
11.374 62.6063
11.4189 62.2001
11.4637 61.5008
11.5086 60.8108
11.5534 60.9113
11.5983 60.4901
11.6431 60.2697
11.688 59.7533
11.7328 59.5646
11.7777 59.4791
11.8225 59.316
11.8674 59.6651
11.9122 62.1306
11.9571 70.0607
12.002 67.9665
12.0468 64.2024
12.0917 75.5999
12.1366 96.6928
12.1814 145.434
12.2263 203.871
12.2712 173.398
12.3161 94.7999
12.3609 64.1644
12.4058 60.7591
12.4507 60.9748
12.4956 60.6241
12.5405 60.967
12.5853 61.6401
12.6302 62.1524
12.6751 63.6651
12.72 63.4439
12.7649 63.9186
12.8098 64.8001
12.8547 65.8638
12.8996 67.3836
12.9445 68.4318
12.9894 70.25
13.0343 71.9498
13.0792 76.2418
13.1242 82.1616
13.1691 105.82
13.214 142.963
13.2589 222.214
13.3038 361.479
13.3487 441.496
13.3937 281.91
13.4386 127.339
13.4835 98.2976
13.5285 117.109
13.5734 152.469
13.6183 232.241
13.6633 352.423
13.7082 363.602
13.7531 207.389
13.7981 100.208
13.843 79.2064
13.888 76.4771
13.9329 74.2062
13.9779 73.1607
14.0228 71.3962
14.0678 70.4342
14.1127 71.981
14.1577 76.6295
14.2027 74.7191
14.2476 69.0997
14.2926 67.2323
14.3376 66.5318
14.3825 66.3241
14.4275 65.9042
14.4725 65.7901
14.5175 65.9784
14.5624 65.9063
14.6074 65.9538
14.6524 66.8194
14.6974 67.0136
14.7424 68.0789
14.7874 73.7296
14.8324 86.9758
14.8774 107.003
14.9224 145.236
14.9674 207.04
15.0124 228.06
15.0574 159.919
15.1024 93.7679
15.1474 70.9941
15.1924 67.5326
15.2374 65.9982
15.2824 65.2969
15.3274 64.3885
15.3725 63.8731
15.4175 63.7752
15.4625 63.2532
15.5076 63.0475
15.5526 62.9668
15.5976 63.179
15.6426 63.4918
15.6877 67.6615
15.7327 77.9496
15.7778 92.1704
15.8228 120.21
15.8679 167.076
15.9129 200.226
15.958 167.78
16.003 103.513
16.0481 69.7094
16.0931 63.3781
16.1382 59.6649
16.1833 57.9244
16.2283 56.6319
16.2734 55.7864
16.3185 55.2103
16.3636 54.8255
16.4086 54.0785
16.4537 53.609
16.4988 53.1762
16.5439 53.1064
16.589 52.9036
16.6341 52.6419
16.6792 52.1215
16.7243 52.3418
16.7694 52.2159
16.8145 52.4601
16.8596 52.4752
16.9047 53.4644
16.9498 54.1477
16.9949 53.8694
17.04 53.524
17.0851 54.3681
17.1302 56.4859
17.1754 59.5596
17.2205 64.1089
17.2656 71.9268
17.3108 81.3517
17.3559 82.2982
17.401 71.3817
17.4462 61.045
17.4913 57.109
17.5365 56.9374
17.5815 56.9604
17.6268 57.271
17.6718 57.8014
17.7171 58.2724
17.7622 59.8091
17.8074 60.5095
17.8525 61.3467
17.8977 65.5861
17.9428 72.0233
17.9881 80.1606
18.0331 96.3075
18.0784 119.85
18.1237 141.268
18.1688 137.101
18.214 108.905
18.2591 87.3575
18.3044 88.0429
18.3495 98.5163
18.3948 106.52
18.4399 97.5332
18.4852 78.8802
18.5303 65.5166
18.5756 61.2093
18.6207 59.9472
18.666 58.6327
18.7112 57.6003
18.7565 57.0244
18.8016 56.6527
18.8469 55.9711
18.892 55.8016
18.9374 55.2654
18.9825 54.8779
19.0278 54.6601
19.073 54.5938
19.1183 54.902
19.1635 55.7442
19.2088 57.501
19.254 60.0795
19.2993 65.2013
19.3447 71.9942
19.3898 75.9187
19.4352 72.2065
19.4804 63.2587
19.5257 56.0365
19.5709 52.7039
19.6163 52.0194
19.6615 51.9137
19.7068 51.4555
19.752 51.4622
19.7974 51.5774
19.8426 52.2506
19.888 53.0847
19.9332 54.6026
19.9786 56.7714
20.0238 60.4299
20.0692 65.9961
20.1144 69.9332
20.1598 68.5715
20.205 63.4867
20.2504 61.3098
20.2957 62.8771
20.3411 65.2809
20.3863 64.1426
20.4318 57.9933
20.477 52.699
20.5224 49.8334
20.5677 48.8738
20.6131 48.6829
20.6586 48.1066
20.7038 48.171
20.7493 47.7395
20.7945 47.9581
20.84 47.8117
20.8853 47.3058
20.9307 46.9394
20.976 47.0451
21.0215 46.971
21.0668 47.357
21.1122 47.7709
21.1575 48.3222
21.203 49.2552
21.2483 50.0668
21.2938 50.2326
21.3391 48.9359
21.3846 47.5527
21.4299 46.9897
21.4754 47.0417
21.5207 46.9436
21.5662 47.2367
21.6116 47.3845
21.6571 48.3901
21.7024 49.5142
21.7479 51.081
21.7933 53.6889
21.8388 57.4143
21.8843 62.3566
21.9297 65.0165
21.9752 63.9011
22.0206 59.5747
22.0661 56.2122
22.1115 55.6616
22.157 55.6368
22.2024 54.1397
22.248 50.7891
22.2933 48.7076
22.3389 47.7886
22.3843 47.3538
22.4299 47.114
22.4753 47.1832
22.5208 46.967
22.5662 47.1491
22.6118 47.2635
22.6572 47.3005
22.7028 47.967
22.7483 48.5354
22.7939 49.2571
22.8393 50.7166
22.8849 52.9718
22.9303 55.3626
22.9759 57.3664
23.0214 57.342
23.067 54.4077
23.1126 50.7894
23.1581 48.2841
23.2037 47.4654
23.2492 47.3459
23.2948 47.6173
23.3403 48.1774
23.3859 48.9047
23.4314 49.9695
23.477 51.72
23.5225 54.1929
23.5682 56.8767
23.6137 58.2957
23.6593 56.183
23.7048 51.8414
23.7505 47.7893
23.796 45.7086
23.8417 44.8241
23.8872 44.3777
23.9329 44.0692
23.9784 43.6695
24.0241 43.3865
24.0697 43.2218
24.1154 42.7717
24.1609 42.6756
24.2066 42.4605
24.2522 42.4208
24.2979 42.2682
24.3434 41.9802
24.3892 41.8002
24.4349 41.8331
24.4805 41.725
24.5262 41.8968
24.5718 41.8606
24.6175 41.8431
24.6631 41.7415
24.7089 41.4498
24.7545 41.3013
24.8002 40.9175
24.8458 41.021
24.8916 40.7876
24.9372 40.8997
24.983 41.2695
25.0286 41.7164
25.0744 42.2135
25.12 42.9092
25.1658 43.5775
25.2114 43.9637
25.2572 44.0922
25.3029 44.1158
25.3487 44.2266
25.3943 44.126
25.4402 42.9494
25.4858 41.811
25.5316 40.6467
25.5773 39.9696
25.6231 39.7757
25.669 39.4809
25.7147 39.3296
25.7605 39.4316
25.8062 39.6626
25.8521 39.6284
25.8977 39.5014
25.9436 39.8019
25.9893 39.9518
26.0352 40.5748
26.0809 40.7241
26.1268 41.0911
26.1725 40.6279
26.2184 39.9939
26.2641 39.3889
26.31 39.0462
26.3557 39.1832
26.4017 39.1046
26.4474 39.4758
26.4933 39.7479
26.5391 40.2742
26.585 40.8886
26.6308 41.5134
26.6767 41.6847
26.7225 41.5887
26.7684 41.0272
26.8142 40.231
26.8601 39.9067
26.9059 39.4383
26.9519 38.8956
26.9979 38.466
27.0437 38.1017
27.0896 37.948
27.1354 37.7969
27.1814 37.7563
27.2272 37.5801
27.2732 37.6125
27.3191 37.4755
27.3651 37.5301
27.4109 37.4605
27.4569 37.6454
27.5027 37.7683
27.5488 37.9182
27.5946 37.6028
27.6407 37.4748
27.6865 37.252
27.7326 37.0555
27.7784 37.1068
27.8245 36.9778
27.8703 37.1396
27.9164 37.5323
27.9623 37.644
28.0084 38.2246
28.0543 38.592
28.1003 38.6984
28.1462 38.4776
28.1923 38.0472
28.2384 37.634
28.2843 37.0821
28.3304 36.5764
28.3764 36.011
28.4225 35.6866
28.4684 35.3693
28.5145 35.1731
28.5605 34.9509
28.6066 34.8489
28.6526 34.8573
28.6987 34.7993
28.7447 34.6779
28.7908 34.5139
28.8368 34.6442
28.8829 34.5278
28.9289 34.5936
28.9751 34.4116
29.0211 34.0755
29.0673 33.8146
29.1133 33.7586
29.1595 33.5675
29.2055 33.5667
29.2517 33.3696
29.2977 33.3821
29.3439 33.492
29.3899 33.4756
29.4361 33.3805
29.4824 33.2541
29.5284 32.9831
29.5746 32.6217
29.6207 32.2881
29.6669 32.3469
29.713 32.2382
29.7593 32.0675
29.8053 32.0832
29.8516 31.9126
29.8977 31.9576
29.9439 31.7987
29.99 31.8251
30.0363 31.6454
30.0824 31.7432
30.1287 31.6623
30.1748 31.8161
30.2211 31.6979
30.2673 31.5262
30.3136 31.6072
30.3597 31.581
30.406 31.4678
30.4522 31.3948
30.4985 31.3298
30.5447 31.4564
30.591 31.4315
30.6372 31.5732
30.6835 31.4294
30.7297 31.5638
30.7761 31.5175
30.8224 31.4604
30.8686 31.1955
30.915 31.0431
30.9612 30.9546
31.0076 30.6627
31.0538 30.4969
31.1002 30.5073
31.1464 30.3156
31.1928 30.1805
31.2391 30.3554
31.2855 30.2297
31.3317 30.143
31.3781 30.3587
31.4244 30.2774
31.4708 30.2649
31.5171 30.3154
31.5636 30.2259
31.6098 29.9208
31.6563 29.6974
31.7026 29.6325
31.7491 29.5561
31.7953 29.5839
31.8418 29.5319
31.8881 29.5535
31.9346 29.5775
31.9809 29.4056
32.0275 29.3091
32.074 29.276
32.1203 29.001
32.1668 29.0081
32.2132 28.7628
32.2597 28.7062
32.306 28.5051
32.3526 28.3342
32.399 28.2086
32.4455 28.0846
32.4919 28.0016
32.5385 28.043
32.5848 27.8388
32.6314 27.8908
32.6778 27.8164
32.7244 27.6439
32.7708 27.5244
32.8174 27.6138
32.8638 27.3339
32.9104 27.5369
32.9569 27.3676
33.0035 27.3092
33.0499 27.2999
33.0966 27.1063
33.143 27.2387
33.1897 27.1602
33.2361 27.0538
33.2828 26.9856
33.3293 26.7393
33.3759 26.8189
33.4226 26.6197
33.4691 26.4791
33.5158 26.416
33.5623 26.3414
33.609 26.158
33.6555 26.0974
33.7022 25.9953
33.7487 25.8909
33.7954 25.8929
33.842 25.8444
33.8887 25.7316
33.9353 25.7374
33.982 25.6611
34.0286 25.5208
34.0753 25.3748
34.1219 25.3285
34.1687 25.2754
34.2152 25.2643
34.262 25.1315
34.3086 24.9943
34.3554 24.923
34.402 24.8685
34.4488 24.7597
34.4954 24.7265
34.5422 24.6279
34.5889 24.497
34.6357 24.322
34.6825 24.4287
34.7292 24.2503
34.776 24.2696
34.8227 24.1876
34.8695 24.1172
34.9162 24.0126
34.9631 23.9333
35.0098 23.9203
35.0566 23.8307
35.1033 23.7433
35.1502 23.6767
35.1969 23.6115
35.2438 23.581
35.2906 23.6147
35.3375 23.5059
35.3842 23.5272
35.4311 23.5346
35.4779 23.537
35.5248 23.3941
35.5716 23.331
35.6185 23.3137
35.6653 23.1697
35.7123 23.0944
35.759 22.961
35.806 22.9445
35.8528 22.7702
35.8998 22.6996
35.9468 22.6283
35.9936 22.5806
36.0406 22.4991
36.0874 22.5497
36.1345 22.3942
36.1813 22.3203
36.2283 22.2055
36.2752 22.1302
36.3222 22.2621
36.3691 22.0816
36.4161 21.9305
36.463 21.99
36.5101 21.9158
36.557 21.8928
36.6041 21.809
36.651 21.7045
36.6981 21.6589
36.745 21.6296
36.7921 21.4798
36.839 21.4916
36.8861 21.2412
36.9331 21.2118
36.9802 21.2244
37.0272 21.0985
37.0743 21.069
37.1213 20.9375
37.1684 20.9225
37.2154 20.9524
37.2626 20.7923
37.3098 20.7767
37.3568 20.6631
37.404 20.6105
37.451 20.5403
37.4982 20.4459
37.5452 20.363
37.5924 20.3247
37.6395 20.4577
37.6867 20.3119
37.7337 20.2346
37.781 20.0946
37.8281 20.0178
37.8753 19.935
37.9224 19.884
37.9697 19.7894
38.0168 19.8445
38.064 19.7025
38.1111 19.6617
38.1584 19.5532
38.2056 19.5058
38.2529 19.4818
38.3 19.3754
38.3473 19.4155
38.3945 19.3321
38.4418 19.2273
38.489 19.1594
38.5363 19.1065
38.5837 19.0295
38.6309 19.0182
38.6782 18.8978
38.7254 18.8497
38.7728 18.8045
38.82 18.7597
38.8674 18.7278
38.9146 18.6244
38.9621 18.5935
39.0093 18.4916
39.0567 18.4363
39.104 18.4732
39.1514 18.3671
39.1987 18.3155
39.2461 18.2223
39.2934 18.147
39.3409 18.1021
39.3882 18.0153
39.4356 17.9439
39.483 17.9271
39.5304 17.8038
39.5778 17.8043
39.6253 17.7722
39.6726 17.6733
39.7201 17.7344
39.7675 17.5291
39.815 17.5795
39.8624 17.4919
39.9099 17.4717
39.9575 17.4105
40.0049 17.2994
40.0525 17.2484
40.0999 17.245
40.1474 17.1546
40.1949 17.0784
40.2425 17.0316
40.2899 16.9386
40.3375 16.9971
40.385 16.88
40.4326 16.8167
40.48 16.7344
40.5277 16.7388
40.5752 16.6768
40.6228 16.6432
40.6703 16.5852
40.718 16.5525
40.7655 16.504
40.8132 16.387
40.8607 16.4282
40.9084 16.3311
40.9559 16.2395
41.0036 16.2631
41.0512 16.1332
41.0989 16.1399
41.1465 16.0561
41.1942 16.0098
41.242 15.9182
41.2896 15.9237
41.3373 15.7755
41.3849 15.816
41.4327 15.7237
41.4803 15.6513
41.5281 15.5769
41.5758 15.5063
41.6236 15.4958
41.6712 15.4435
41.7191 15.3924
41.7667 15.3577
41.8146 15.299
41.8622 15.2843
41.9101 15.2113
41.9578 15.0949
42.0057 15.0818
42.0534 15.077
42.1013 14.9861
42.149 14.9653
42.1969 14.8976
42.2446 14.8891
42.2925 14.8537
42.3403 14.7321
42.3882 14.7801
42.436 14.6782
42.4839 14.5823
42.5319 14.5451
42.5797 14.4567
42.6277 14.4615
42.6755 14.4449
42.7235 14.4053
42.7713 14.3082
42.8193 14.2481
42.8671 14.2069
42.9152 14.161
42.963 14.1219
43.0111 14.0466
43.0589 14.0015
43.107 13.9382
43.1549 13.9193
43.2029 13.8628
43.2508 13.8714
43.2989 13.7477
43.3468 13.6978
43.3949 13.6637
43.4429 13.6564
43.491 13.5996
43.5389 13.486
43.5871 13.4951
43.635 13.4014
43.6832 13.4383
43.7312 13.3656
43.7793 13.2822
43.8273 13.2869
43.8755 13.2382
43.9237 13.1964
43.9717 13.1718
44.0199 13.0934
44.068 13.0359
44.1162 13.0154
44.1642 12.9726
44.2125 12.9346
44.2606 12.8587
44.3088 12.7955
44.3569 12.7978
44.4052 12.747
44.4533 12.6497
44.5016 12.6231
44.5497 12.6107
44.598 12.557
44.6461 12.526
44.6945 12.4613
44.7426 12.4034
44.791 12.3705
44.8391 12.3382
44.8875 12.3312
44.9357 12.2509
44.984 12.2189
45.0322 12.1661
45.0806 12.1152
45.1288 12.0858
45.1773 12.0428
45.2257 11.9845
45.2739 11.9174
45.3224 11.8877
45.3706 11.8778
45.4191 11.7871
45.4673 11.8023
45.5158 11.744
45.5641 11.6872
45.6126 11.6567
45.6609 11.6007
45.7094 11.5659
45.7577 11.5013
45.8063 11.4604
45.8546 11.4705
45.9031 11.3858
45.9515 11.3576
46.0001 11.331
46.0484 11.3133
46.097 11.2403
46.1454 11.2115
46.194 11.1694
46.2424 11.1389
46.291 11.1061
46.3395 11.0543
46.3881 10.9962
46.4365 10.9935
46.4852 10.9187
46.5337 10.8824
46.5823 10.8291
46.631 10.8092
46.6795 10.7608
46.7282 10.7809
46.7767 10.7093
46.8254 10.6304
46.8739 10.5802
46.9226 10.57
46.9712 10.5124
47.0199 10.4852
47.0685 10.4692
47.1173 10.3977
47.1658 10.3637
47.2146 10.3397
47.2632 10.2735
47.312 10.2842
47.3606 10.2372
47.4095 10.1496
47.4581 10.1513
47.5069 10.1185
47.5556 10.0536
47.6044 10.0319
47.6531 9.9832
47.702 9.93268
47.7507 9.89688
47.7996 9.88011
47.8483 9.85855
47.8972 9.81479
47.9461 9.7861
47.9948 9.74121
48.0438 9.68035
48.0925 9.62417
48.1415 9.62466
48.1902 9.59471
48.2392 9.60221
48.288 9.55539
48.337 9.52353
48.3858 9.45501
48.4348 9.41871
48.4837 9.41679
48.5327 9.36073
48.5815 9.30878
48.6306 9.27963
48.6795 9.27362
48.7285 9.24459
48.7774 9.19826
48.8265 9.17188
48.8754 9.11844
48.9245 9.07198
48.9734 9.04362
49.0226 9.05799
49.0715 8.97333
49.1206 8.92098
49.1696 8.87561
49.2188 8.89147
49.2679 8.8508
49.3169 8.79439
49.3661 8.78264
49.4151 8.75715
49.4643 8.68969
49.5134 8.68281
49.5626 8.63664
49.6117 8.60266
49.6609 8.60525
49.71 8.55032
49.7592 8.51599
49.8083 8.4746
49.8576 8.44248
49.9067 8.45143
49.956 8.37525
50.0052 8.36352
50.0545 8.30423
50.1036 8.30023
50.153 8.26868
50.2022 8.23807
50.2515 8.20341
50.3007 8.13761
50.3501 8.10792
50.3993 8.13195
50.4487 8.05574
50.498 8.0056
50.5474 8.00439
50.5966 7.97177
50.6461 7.94421
50.6955 7.89218
50.7448 7.91593
50.7943 7.84183
50.8436 7.81087
50.8931 7.79652
50.9424 7.77855
50.9919 7.72047
51.0413 7.68943
51.0908 7.68247
51.1402 7.62809
51.1897 7.61965
51.2391 7.57091
51.2887 7.54481
51.3381 7.53178
51.3877 7.50873
51.4371 7.44267
51.4867 7.41821
51.5362 7.44048
51.5858 7.36859
51.6353 7.32307
51.6849 7.30631
51.7344 7.27206
51.7841 7.2405
51.8336 7.19967
51.8833 7.19072
51.9328 7.12235
51.9826 7.09058
52.0323 7.08707
52.0818 7.06137
52.1316 7.01348
52.1812 6.97884
52.231 6.97559
52.2806 6.92669
52.3304 6.92712
52.38 6.88083
52.4298 6.88481
52.4794 6.81009
52.5293 6.77404
52.5789 6.82131
52.6288 6.77399
52.6785 6.7054
52.7284 6.72978
52.7781 6.66466
52.828 6.64162
52.8777 6.57836
52.9276 6.58288
52.9774 6.5606
53.0273 6.49541
53.0771 6.48898
53.1271 6.4999
53.1769 6.4531
53.2269 6.4018
53.2767 6.37024
53.3267 6.37261
53.3765 6.34679
53.4266 6.29054
53.4766 6.29552
53.5265 6.23215
53.5765 6.24244
53.6264 6.23807
53.6765 6.17528
53.7264 6.13182
53.7765 6.13944
53.8265 6.10069
53.8766 6.02919
53.9266 6.03503
53.9767 6.00694
54.0267 6.01292
54.0769 5.95982
54.1269 5.93
54.1771 5.87485
54.2271 5.83758
54.2773 5.82464
54.3274 5.82106
54.3776 5.7941
54.4277 5.76629
54.478 5.70525
54.528 5.68729
54.5783 5.6878
54.6285 5.62367
54.6788 5.58313
54.7289 5.52373
54.7792 5.49463
54.8296 5.42487
54.8798 5.35662
54.9301 5.34434
54.9803 5.30011
55.0307 5.32756
55.0809 5.28578
55.1314 5.21091
55.1816 5.18717
55.232 5.1017
55.2823 5.14406
55.3328 5.07279
55.383 4.97047
55.4335 4.95446
55.4838 4.87689
55.5344 4.8631
55.5847 4.8445
55.6352 4.82212
55.6856 4.7337
55.7361 4.69781