File: XRD/Ni3Fe_FD0293.xy
TT I
1.27165 7.63029
1.31627 7.34295
1.36089 7.44999
1.40551 7.19543
1.45013 6.91984
1.49476 5.99655
1.53938 6.27743
1.584 5.30996
1.62863 5.6065
1.67325 5.49642
1.71787 4.93968
1.7625 5.08408
1.80712 4.96082
1.85174 4.8532
1.89636 5.35079
1.94099 4.72225
1.98562 5.00087
2.03025 4.91702
2.07487 4.70909
2.11949 4.8993
2.16411 5.63228
2.20874 17.0745
2.25338 29.3558
2.298 5.76764
2.34263 4.82279
2.38725 4.93816
2.43188 5.49294
2.4765 5.24122
2.52115 5.459
2.56577 6.32944
2.6104 7.01135
2.65503 6.60069
2.69965 7.63115
2.7443 7.4103
2.78893 7.53913
2.83356 7.38619
2.87818 8.5725
2.92281 8.84469
2.96744 9.6181
3.01209 10.7701
3.05672 11.3722
3.10135 12.528
3.14599 13.4377
3.19062 14.5008
3.23527 15.0352
3.2799 15.6743
3.32454 17.276
3.36917 18.4123
3.4138 19.0733
3.45844 19.8307
3.50309 21.769
3.54773 21.9065
3.59237 25.3107
3.637 114.992
3.68164 73.2426
3.7263 27.2415
3.77094 26.8223
3.81558 26.7578
3.86022 28.0634
3.90486 29.9533
3.9495 30.8229
3.99416 31.6574
4.0388 33.0929
4.08344 34.7402
4.12809 36.6027
4.17273 39.2825
4.21738 46.2039
4.26204 312.378
4.30669 285.788
4.35133 52.4015
4.39598 46.5032
4.44063 57.4117
4.4853 73.3696
4.52995 53.5657
4.5746 53.1323
4.61925 54.7703
4.6639 57.2406
4.70855 60.2655
4.75322 62.9071
4.79788 65.9781
4.84253 69.172
4.88719 73.9261
4.93184 77.8486
4.97652 83.7632
5.02118 90.9483
5.06583 99.7913
5.11049 115.283
5.15515 210.34
5.19981 500.593
5.24449 3090.43
5.28916 10994.7
5.33382 4283.62
5.37848 258.104
5.42315 146.664
5.46783 124.828
5.5125 113.189
5.55716 106.951
5.60183 103.361
5.6465 101.407
5.69117 98.4447
5.73586 96.4923
5.78053 96.4769
5.8252 96.4187
5.86988 97.5125
5.91455 100.737
5.95924 111.954
6.00392 256.138
6.0486 1069.29
6.09328 3732.37
6.13795 3817.21
6.18263 372.479
6.22733 107.13
6.27201 90.2975
6.3167 115.904
6.36138 87.6182
6.40606 72.7209
6.45075 70.224
6.49545 68.1479
6.54014 66.3625
6.58483 65.5896
6.62952 65.7405
6.67421 104.171
6.71892 177.502
6.76361 75.1281
6.8083 61.2435
6.853 59.8765
6.89769 58.784
6.94239 58.8527
6.98711 57.9828
7.03181 57.5677
7.07651 57.4718
7.12121 57.6471
7.16591 58.0596
7.21063 58.3428
7.25533 76.3011
7.30004 224.668
7.34475 108.515
7.38945 59.4734
7.43416 56.9264
7.47889 56.1303
7.5236 56.9297
7.56831 57.49
7.61303 59.9539
7.65774 60.1736
7.70247 58.0906
7.74719 58.2422
7.79191 58.6013
7.83663 58.6913
7.88135 59.9928
7.92607 60.6429
7.97081 61.7407
8.01553 63.0431
8.06026 64.3045
8.10498 66.4986
8.14971 78.3254
8.19446 77.3558
8.23919 71.9489
8.28392 74.5806
8.32865 76.6206
8.37339 81.5269
8.41812 89.773
8.46288 128.139
8.50761 190.856
8.55235 439.357
8.59709 1010.94
8.64183 2039.06
8.68658 1249.69
8.73134 224.905
8.77609 108.551
8.82083 97.9787
8.86558 93.7739
8.91033 94.6168
8.9551 97.3329
8.99985 88.8286
9.04461 86.4323
9.08936 85.6797
9.13412 84.9736
9.17888 84.8553
9.22365 85.8979
9.26841 84.5359
9.31318 85.7241
9.35794 85.7864
9.4027 86.2786
9.44749 86.7093
9.49226 87.4992
9.53703 88.405
9.5818 90.6332
9.62657 96.25
9.67134 104.901
9.71614 97.5453
9.76091 97.1319
9.80569 100.12
9.85047 104.149
9.89525 134.474
9.94005 152.916
9.98484 197.929
10.0296 385.227
10.0744 715.767
10.1192 1487.47
10.164 1804.08
10.2088 603.191
10.2536 152.645
10.2984 121.93
10.3432 123.844
10.388 110.669
10.4328 126.97
10.4776 172.076
10.5224 255.557
10.5672 446.406
10.612 554.157
10.6568 261.655
10.7017 107.528
10.7465 90.8488
10.7913 86.6596
10.8361 84.6794
10.8809 82.1618
10.9257 82.0973
10.9706 83.32
11.0154 78.1749
11.0602 75.4912
11.105 74.4337
11.1499 80.4642
11.1947 91.3174
11.2395 79.3541
11.2844 74.0658
11.3292 70.1617
11.374 68.4446
11.4189 68.2009
11.4637 67.4234
11.5086 68.4022
11.5534 72.4304
11.5983 68.7886
11.6431 66.2812
11.688 65.5935
11.7328 65.0973
11.7777 65.4052
11.8225 64.7411
11.8674 64.7389
11.9122 65.203
11.9571 65.2709
12.002 66.2172
12.0468 70.9843
12.0917 84.6788
12.1366 102.403
12.1814 138.465
12.2263 194.776
12.2712 190.771
12.3161 114.679
12.3609 76.5493
12.4058 67.7939
12.4507 67.1256
12.4956 67.1899
12.5405 67.3873
12.5853 68.1172
12.6302 77.8589
12.6751 86.0023
12.72 73.9417
12.7649 70.4701
12.8098 71.1039
12.8547 72.205
12.8996 73.3343
12.9445 74.6063
12.9894 76.5329
13.0343 78.2791
13.0792 81.6019
13.1242 92.6331
13.1691 121.537
13.214 154.784
13.2589 213.004
13.3038 325.312
13.3487 437.841
13.3937 324.918
13.4386 149.117
13.4835 114.404
13.5285 130.312
13.5734 157.056
13.6183 215.59
13.6633 314.446
13.7082 372.394
13.7531 238.992
13.7981 114.147
13.843 86.3785
13.888 82.9417
13.9329 80.1203
13.9779 78.8679
14.0228 76.8499
14.0678 75.7566
14.1127 75.4313
14.1577 75.5936
14.2027 74.3593
14.2476 72.9969
14.2926 73.2778
14.3376 74.8333
14.3825 73.2927
14.4275 71.033
14.4725 71.0629
14.5175 71.2508
14.5624 71.5644
14.6074 74.326
14.6524 74.8403
14.6974 73.1441
14.7424 74.8298
14.7874 82.7836
14.8324 94.4419
14.8774 109.858
14.9224 138.413
14.9674 189.229
15.0124 227.542
15.0574 175.894
15.1024 105.205
15.1474 77.0492
15.1924 73.6112
15.2374 74.5143
15.2824 73.8758
15.3274 71.3638
15.3725 69.385
15.4175 68.8826
15.4625 68.5164
15.5076 68.9072
15.5526 68.6679
15.5976 68.191
15.6426 69.4591
15.6877 75.8903
15.7327 84.8888
15.7778 95.874
15.8228 115.907
15.8679 153.24
15.9129 193.23
15.958 178.353
16.003 116.269
16.0481 74.866
16.0931 68.4085
16.1382 66.0153
16.1833 63.2455
16.2283 61.4353
16.2734 60.823
16.3185 61.1935
16.3636 62.5027
16.4086 60.5893
16.4537 58.3639
16.4988 57.7429
16.5439 57.5778
16.589 57.3531
16.6341 57.0115
16.6792 56.7
16.7243 56.8678
16.7694 57.2081
16.8145 56.8725
16.8596 57.5108
16.9047 59.555
16.9498 59.8794
16.9949 57.9791
17.04 57.9788
17.0851 59.3898
17.1302 61.4397
17.1754 63.7201
17.2205 67.1098
17.2656 72.4501
17.3108 81.9627
17.3559 85.8422
17.401 77.3126
17.4462 66.3018
17.4913 61.5954
17.5365 61.3453
17.5815 61.5451
17.6268 61.6425
17.6718 62.6456
17.7171 63.1577
17.7622 63.5434
17.8074 64.2652
17.8525 66.4549
17.8977 71.7555
17.9428 77.2363
17.9881 83.2734
18.0331 94.7082
18.0784 113.52
18.1237 137.462
18.1688 143.296
18.214 118.152
18.2591 92.4965
18.3044 89.0479
18.3495 97.3107
18.3948 108.624
18.4399 104.886
18.4852 85.4001
18.5303 70.376
18.5756 65.0475
18.6207 63.7486
18.666 62.845
18.7112 62.0126
18.7565 61.1415
18.8016 60.8422
18.8469 60.1693
18.892 59.9294
18.9374 59.4049
18.9825 59.1722
19.0278 59.0383
19.073 59.4201
19.1183 59.6398
19.1635 60.9893
19.2088 61.9068
19.254 63.2385
19.2993 66.2368
19.3447 72.1289
19.3898 78.6162
19.4352 77.3271
19.4804 68.9376
19.5257 60.4139
19.5709 56.7801
19.6163 56.046
19.6615 55.7433
19.7068 55.3983
19.752 55.2542
19.7974 55.5725
19.8426 56.5859
19.888 57.3964
19.9332 58.2817
19.9786 59.8823
20.0238 62.2401
20.0692 67.0228
20.1144 71.5086
20.1598 72.4379
20.205 67.4625
20.2504 63.6983
20.2957 64.0557
20.3411 67.0403
20.3863 67.7282
20.4318 62.6715
20.477 57.1894
20.5224 54.1767
20.5677 53.3992
20.6131 52.3903
20.6586 51.5796
20.7038 51.5594
20.7493 50.9927
20.7945 50.9747
20.84 50.5929
20.8853 50.7508
20.9307 50.417
20.976 50.4163
21.0215 50.4531
21.0668 50.7762
21.1122 51.2109
21.1575 51.5445
21.203 52.2226
21.2483 52.8933
21.2938 53.3147
21.3391 52.3825
21.3846 51.2189
21.4299 50.4051
21.4754 50.1953
21.5207 50.4099
21.5662 50.5861
21.6116 51.0814
21.6571 51.9612
21.7024 52.8601
21.7479 54.1612
21.7933 56.1745
21.8388 58.8602
21.8843 62.732
21.9297 66.3348
21.9752 67.3768
22.0206 63.595
22.0661 58.968
22.1115 57.7238
22.157 58.1152
22.2024 57.2164
22.248 54.3214
22.2933 52.1669
22.3389 51.1771
22.3843 50.9892
22.4299 50.9613
22.4753 50.8983
22.5208 50.4448
22.5662 50.3872
22.6118 50.4187
22.6572 50.6672
22.7028 51.1915
22.7483 51.5714
22.7939 51.9828
22.8393 53.0868
22.8849 54.6845
22.9303 56.7945
22.9759 59.121
23.0214 60.1774
23.067 58.0036
23.1126 54.2684
23.1581 51.5799
23.2037 50.7372
23.2492 50.8663
23.2948 50.7749
23.3403 51.163
23.3859 51.6807
23.4314 52.0726
23.477 53.4119
23.5225 55.2816
23.5682 57.4102
23.6137 59.6336
23.6593 58.9309
23.7048 55.2085
23.7505 51.1909
23.796 48.7302
23.8417 47.9102
23.8872 47.3977
23.9329 47.0205
23.9784 46.615
24.0241 46.3527
24.0697 46.1742
24.1154 45.7132
24.1609 45.8121
24.2066 45.6932
24.2522 45.5131
24.2979 45.2684
24.3434 45.1347
24.3892 44.8211
24.4349 44.7225
24.4805 44.4721
24.5262 44.717
24.5718 44.5968
24.6175 44.6401
24.6631 44.4926
24.7089 44.2125
24.7545 44.0371
24.8002 43.9765
24.8458 43.7234
24.8916 43.7131
24.9372 43.7392
24.983 44.1135
25.0286 44.3251
25.0744 44.6867
25.12 45.0676
25.1658 45.5401
25.2114 46.0009
25.2572 46.1896
25.3029 46.0746
25.3487 46.4445
25.3943 46.4984
25.4402 45.7697
25.4858 44.4266
25.5316 43.3494
25.5773 42.7513
25.6231 42.5316
25.669 42.1037
25.7147 42.1418
25.7605 41.9507
25.8062 42.2966
25.8521 42.1113
25.8977 42.1212
25.9436 42.1011
25.9893 42.1993
26.0352 42.6887
26.0809 42.9835
26.1268 43.2337
26.1725 43.2177
26.2184 42.6304
26.2641 41.9914
26.31 41.7723
26.3557 41.6854
26.4017 41.7106
26.4474 41.7558
26.4933 42.024
26.5391 42.4959
26.585 43.0035
26.6308 43.3171
26.6767 43.6823
26.7225 43.6632
26.7684 43.1236
26.8142 42.5449
26.8601 42.1579
26.9059 41.6923
26.9519 41.2426
26.9979 40.8293
27.0437 40.4119
27.0896 40.2242
27.1354 40.2776
27.1814 40.0319
27.2272 39.9753
27.2732 39.9551
27.3191 39.7558
27.3651 39.879
27.4109 39.7357
27.4569 39.8352
27.5027 39.7748
27.5488 39.8494
27.5946 39.8592
27.6407 39.6765
27.6865 39.5826
27.7326 39.3848
27.7784 39.2869
27.8245 39.2465
27.8703 39.2919
27.9164 39.5746
27.9623 39.5629
28.0084 39.7701
28.0543 40.2631
28.1003 40.2569
28.1462 40.3329
28.1923 39.9785
28.2384 39.5979
28.2843 39.0845
28.3304 38.7491
28.3764 38.3122
28.4225 37.8703
28.4684 37.7009
28.5145 37.3318
28.5605 37.169
28.6066 36.8906
28.6526 36.9201
28.6987 36.8763
28.7447 36.7522
28.7908 36.6944
28.8368 36.8345
28.8829 36.7411
28.9289 36.6159
28.9751 36.4171
29.0211 36.3356
29.0673 35.9991
29.1133 35.9137
29.1595 35.6976
29.2055 35.5994
29.2517 35.5713
29.2977 35.5145
29.3439 35.4264
29.3899 35.4955
29.4361 35.5145
29.4824 35.182
29.5284 35.1281
29.5746 34.7941
29.6207 34.4512
29.6669 34.4401
29.713 34.2119
29.7593 34.1656
29.8053 34.1818
29.8516 34.0624
29.8977 34.0164
29.9439 33.9121
29.99 33.9425
30.0363 33.6069
30.0824 33.7556
30.1287 33.6609
30.1748 33.7316
30.2211 33.665
30.2673 33.4115
30.3136 33.531
30.3597 33.5273
30.406 33.4267
30.4522 33.3358
30.4985 33.1325
30.5447 33.2501
30.591 33.1952
30.6372 33.4396
30.6835 33.3337
30.7297 33.4491
30.7761 33.4426
30.8224 33.2502
30.8686 33.1145
30.915 32.8557
30.9612 32.6905
31.0076 32.4874
31.0538 32.4157
31.1002 32.2721
31.1464 32.1248
31.1928 32.1649
31.2391 32.1815
31.2855 32.1373
31.3317 31.9842
31.3781 31.9936
31.4244 31.9273
31.4708 31.876
31.5171 32.0414
31.5636 31.9165
31.6098 31.6683
31.6563 31.6454
31.7026 31.4399
31.7491 31.2266
31.7953 31.2988
31.8418 31.1856
31.8881 31.2248
31.9346 31.171
31.9809 31.0469
32.0275 30.9736
32.074 30.8772
32.1203 30.6558
32.1668 30.6879
32.2132 30.6438
32.2597 30.3157
32.306 30.328
32.3526 30.1561
32.399 30.0308
32.4455 29.9321
32.4919 29.7707
32.5385 29.747
32.5848 29.5935
32.6314 29.5371
32.6778 29.4572
32.7244 29.3967
32.7708 29.2278
32.8174 29.2172
32.8638 28.9484
32.9104 29.1354
32.9569 29.092
33.0035 28.9426
33.0499 28.8544
33.0966 28.7983
33.143 28.8306
33.1897 28.7604
33.2361 28.6082
33.2828 28.5409
33.3293 28.429
33.3759 28.4339
33.4226 28.3463
33.4691 28.1856
33.5158 28.05
33.5623 28.0062
33.609 27.7278
33.6555 27.7099
33.7022 27.5954
33.7487 27.4538
33.7954 27.5307
33.842 27.3965
33.8887 27.3337
33.9353 27.2036
33.982 27.1899
34.0286 27.0323
34.0753 26.9941
34.1219 26.8778
34.1687 26.8823
34.2152 26.7639
34.262 26.6339
34.3086 26.5115
34.3554 26.4822
34.402 26.3422
34.4488 26.2309
34.4954 26.1488
34.5422 26.105
34.5889 26.018
34.6357 25.9368
34.6825 25.8948
34.7292 25.7459
34.776 25.69
34.8227 25.6213
34.8695 25.568
34.9162 25.4448
34.9631 25.3988
35.0098 25.3914
35.0566 25.3082
35.1033 25.1463
35.1502 25.1783
35.1969 25.1329
35.2438 25.1049
35.2906 25.0061
35.3375 24.9808
35.3842 24.9548
35.4311 24.8927
35.4779 24.7326
35.5248 24.7357
35.5716 24.5473
35.6185 24.545
35.6653 24.4613
35.7123 24.4247
35.759 24.3361
35.806 24.2555
35.8528 24.0731
35.8998 24.0754
35.9468 24.004
35.9936 23.901
36.0406 23.879
36.0874 23.8844
36.1345 23.8146
36.1813 23.7822
36.2283 23.6133
36.2752 23.5172
36.3222 23.5203
36.3691 23.4184
36.4161 23.323
36.463 23.2542
36.5101 23.2492
36.557 23.1365
36.6041 22.9878
36.651 22.9695
36.6981 22.9482
36.745 22.8682
36.7921 22.8535
36.839 22.6899
36.8861 22.6298
36.9331 22.5373
36.9802 22.4889
37.0272 22.4137
37.0743 22.3331
37.1213 22.3406
37.1684 22.1408
37.2154 22.1399
37.2626 22.0282
37.3098 22.0334
37.3568 21.9021
37.404 21.9553
37.451 21.7428
37.4982 21.7789
37.5452 21.5982
37.5924 21.6289
37.6395 21.6076
37.6867 21.4779
37.7337 21.4133
37.781 21.2994
37.8281 21.2767
37.8753 21.1829
37.9224 21.1246
37.9697 21.0234
38.0168 20.965
38.064 20.8863
38.1111 20.798
38.1584 20.8216
38.2056 20.709
38.2529 20.6634
38.3 20.6017
38.3473 20.6196
38.3945 20.4309
38.4418 20.4084
38.489 20.3303
38.5363 20.3298
38.5837 20.1682
38.6309 20.0848
38.6782 20.0299
38.7254 19.9808
38.7728 19.9396
38.82 19.8562
38.8674 19.8811
38.9146 19.783
38.9621 19.6778
39.0093 19.7188
39.0567 19.5895
39.104 19.4814
39.1514 19.4328
39.1987 19.323
39.2461 19.3743
39.2934 19.2671
39.3409 19.1289
39.3882 19.1271
39.4356 19.086
39.483 18.942
39.5304 18.9549
39.5778 18.8833
39.6253 18.8961
39.6726 18.8613
39.7201 18.8058
39.7675 18.6986
39.815 18.5677
39.8624 18.5931
39.9099 18.4861
39.9575 18.4238
40.0049 18.4028
40.0525 18.3013
40.0999 18.2636
40.1474 18.2675
40.1949 18.1044
40.2425 18.024
40.2899 18.0047
40.3375 17.973
40.385 17.8596
40.4326 17.8786
40.48 17.7827
40.5277 17.7207
40.5752 17.6372
40.6228 17.6258
40.6703 17.5764
40.718 17.5038
40.7655 17.45
40.8132 17.3565
40.8607 17.3412
40.9084 17.3133
40.9559 17.2545
41.0036 17.2075
41.0512 17.1618
41.0989 17.055
41.1465 16.9995
41.1942 16.9056
41.242 16.8781
41.2896 16.8492
41.3373 16.7941
41.3849 16.7367
41.4327 16.6488
41.4803 16.5593
41.5281 16.5557
41.5758 16.4573
41.6236 16.4446
41.6712 16.3734
41.7191 16.3568
41.7667 16.2953
41.8146 16.23
41.8622 16.1571
41.9101 16.1158
41.9578 16.0504
42.0057 15.9622
42.0534 15.949
42.1013 15.8873
42.149 15.8185
42.1969 15.7313
42.2446 15.7299
42.2925 15.7275
42.3403 15.5815
42.3882 15.6169
42.436 15.5372
42.4839 15.4814
42.5319 15.4294
42.5797 15.4198
42.6277 15.3826
42.6755 15.2796
42.7235 15.2337
42.7713 15.2073
42.8193 15.1602
42.8671 15.0952
42.9152 15.007
42.963 14.9655
43.0111 14.938
43.0589 14.8866
43.107 14.8275
43.1549 14.7405
43.2029 14.6728
43.2508 14.6667
43.2989 14.6244
43.3468 14.5165
43.3949 14.5146
43.4429 14.4512
43.491 14.3594
43.5389 14.3606
43.5871 14.3185
43.635 14.2583
43.6832 14.2356
43.7312 14.1793
43.7793 14.0842
43.8273 14.0666
43.8755 14.0137
43.9237 13.9771
43.9717 13.9723
44.0199 13.9095
44.068 13.8485
44.1162 13.7391
44.1642 13.7631
44.2125 13.6612
44.2606 13.6215
44.3088 13.5715
44.3569 13.5749
44.4052 13.4784
44.4533 13.4185
44.5016 13.36
44.5497 13.3446
44.598 13.3111
44.6461 13.2755
44.6945 13.2299
44.7426 13.1843
44.791 13.1007
44.8391 13.0629
44.8875 12.9827
44.9357 12.9957
44.984 12.9255
45.0322 12.8659
45.0806 12.8276
45.1288 12.8187
45.1773 12.7227
45.2257 12.6916
45.2739 12.6785
45.3224 12.6325
45.3706 12.6004
45.4191 12.5269
45.4673 12.4966
45.5158 12.4431
45.5641 12.3651
45.6126 12.3896
45.6609 12.3225
45.7094 12.2234
45.7577 12.2156
45.8063 12.1248
45.8546 12.193
45.9031 12.0928
45.9515 12.0179
46.0001 11.999
46.0484 11.9817
46.097 11.9655
46.1454 11.8789
46.194 11.8308
46.2424 11.806
46.291 11.759
46.3395 11.7216
46.3881 11.634
46.4365 11.6452
46.4852 11.5644
46.5337 11.5385
46.5823 11.5265
46.631 11.4514
46.6795 11.4205
46.7282 11.3935
46.7767 11.3279
46.8254 11.2595
46.8739 11.2213
46.9226 11.1908
46.9712 11.1711
47.0199 11.1065
47.0685 11.0859
47.1173 11.021
47.1658 10.97
47.2146 10.9356
47.2632 10.896
47.312 10.8725
47.3606 10.8386
47.4095 10.7974
47.4581 10.7975
47.5069 10.6898
47.5556 10.6665
47.6044 10.6068
47.6531 10.5925
47.702 10.5286
47.7507 10.5177
47.7996 10.4703
47.8483 10.3961
47.8972 10.3741
47.9461 10.3895
47.9948 10.2986
48.0438 10.3093
48.0925 10.2505
48.1415 10.1973
48.1902 10.1828
48.2392 10.1416
48.288 10.1192
48.337 10.0549
48.3858 10.0448
48.4348 10.0218
48.4837 10.0017
48.5327 9.93674
48.5815 9.89807
48.6306 9.85411
48.6795 9.84588
48.7285 9.77177
48.7774 9.77772
48.8265 9.72723
48.8754 9.65775
48.9245 9.6141
48.9734 9.61697
49.0226 9.60227
49.0715 9.50819
49.1206 9.5099
49.1696 9.45825
49.2188 9.46522
49.2679 9.36984
49.3169 9.31069
49.3661 9.30829
49.4151 9.26937
49.4643 9.28695
49.5134 9.17938
49.5626 9.15327
49.6117 9.14141
49.6609 9.06174
49.71 9.05568
49.7592 9.04549
49.8083 8.97559
49.8576 8.96705
49.9067 8.90806
49.956 8.89862
50.0052 8.85031
50.0545 8.82345
50.1036 8.78559
50.153 8.7837
50.2022 8.73546
50.2515 8.67103
50.3007 8.60962
50.3501 8.59037
50.3993 8.58104
50.4487 8.53801
50.498 8.52296
50.5474 8.50938
50.5966 8.4519
50.6461 8.43015
50.6955 8.40552
50.7448 8.3662
50.7943 8.30507
50.8436 8.29302
50.8931 8.27475
50.9424 8.22735
50.9919 8.17534
51.0413 8.16583
51.0908 8.13471
51.1402 8.11195
51.1897 8.07042
51.2391 8.02902
51.2887 8.01182
51.3381 7.95621
51.3877 7.9826
51.4371 7.88848
51.4867 7.83529
51.5362 7.87766
51.5858 7.81339
51.6353 7.76894
51.6849 7.7578
51.7344 7.72051
51.7841 7.65861
51.8336 7.62844
51.8833 7.63333
51.9328 7.55968
51.9826 7.54013
52.0323 7.49504
52.0818 7.51623
52.1316 7.42753
52.1812 7.39445
52.231 7.38399
52.2806 7.36402
52.3304 7.3223
52.38 7.28175
52.4298 7.27158
52.4794 7.28004
52.5293 7.21693
52.5789 7.15697
52.6288 7.12957
52.6785 7.1239
52.7284 7.11064
52.7781 7.02592
52.828 7.01532
52.8777 6.96567
52.9276 6.98424
52.9774 6.94765
53.0273 6.93018
53.0771 6.91485
53.1271 6.88627
53.1769 6.83395
53.2269 6.778
53.2767 6.73588
53.3267 6.75871
53.3765 6.74878
53.4266 6.63645
53.4766 6.63028
53.5265 6.61791
53.5765 6.58317
53.6264 6.56759
53.6765 6.56316
53.7264 6.52769
53.7765 6.52964
53.8265 6.44431
53.8766 6.42113
53.9266 6.37336
53.9767 6.3405
54.0267 6.36579
54.0769 6.31435
54.1269 6.26172
54.1771 6.29218
54.2271 6.19906
54.2773 6.17219
54.3274 6.19069
54.3776 6.09853
54.4277 6.11847
54.478 6.07482
54.528 6.03346
54.5783 5.95142
54.6285 5.92347
54.6788 5.88405
54.7289 5.85526
54.7792 5.7754
54.8296 5.74253
54.8798 5.69082
54.9301 5.66998
54.9803 5.64294
55.0307 5.65809
55.0809 5.55818
55.1314 5.5595
55.1816 5.48359
55.232 5.48371
55.2823 5.3828
55.3328 5.27573
55.383 5.2387
55.4335 5.23855
55.4838 5.17778
55.5344 5.13619
55.5847 5.12617
55.6352 5.02401
55.6856 5.04603
55.7361 4.98487