File: XRD/Ni3Fe_FD0274.xy
TT I
1.27165 7.75286
1.31627 6.0559
1.36089 6.70802
1.40551 6.5811
1.45013 6.20661
1.49476 5.60818
1.53938 6.3598
1.584 5.30862
1.62863 5.01207
1.67325 5.21818
1.71787 5.341
1.7625 5.11737
1.80712 5.09139
1.85174 4.88774
1.89636 5.09782
1.94099 4.73693
1.98562 4.36748
2.03025 5.07348
2.07487 4.51003
2.11949 4.88939
2.16411 4.43121
2.20874 13.8595
2.25338 21.5135
2.298 6.2924
2.34263 4.54245
2.38725 5.34737
2.43188 4.98131
2.4765 5.4665
2.52115 5.75705
2.56577 6.61528
2.6104 6.12979
2.65503 6.78236
2.69965 6.8162
2.7443 7.14762
2.78893 8.15888
2.83356 7.62411
2.87818 8.29931
2.92281 8.88617
2.96744 9.37224
3.01209 10.2932
3.05672 10.9911
3.10135 11.7855
3.14599 13.4267
3.19062 13.5992
3.23527 15.181
3.2799 15.7489
3.32454 16.8906
3.36917 18.1852
3.4138 19.1787
3.45844 20.4685
3.50309 21.3047
3.54773 21.8465
3.59237 24.3674
3.637 89.0552
3.68164 58.6352
3.7263 26.7251
3.77094 26.6413
3.81558 27.3235
3.86022 27.6229
3.90486 29.6179
3.9495 30.4124
3.99416 31.8098
4.0388 33.075
4.08344 34.5971
4.12809 35.7947
4.17273 38.2266
4.21738 44.141
4.26204 234.92
4.30669 210.785
4.35133 49.9524
4.39598 46.5073
4.44063 54.6968
4.4853 66.3402
4.52995 53.5189
4.5746 53.3789
4.61925 55.0924
4.6639 57.4972
4.70855 60.4271
4.75322 63.6979
4.79788 66.9825
4.84253 70.4862
4.88719 74.8978
4.93184 78.6282
4.97652 84.753
5.02118 92.3776
5.06583 101.808
5.11049 116.671
5.15515 195.165
5.19981 527.285
5.24449 3352.85
5.28916 10729.7
5.33382 4124.55
5.37848 267.214
5.42315 149.365
5.46783 126.249
5.5125 115.07
5.55716 108.404
5.60183 104.599
5.6465 102.623
5.69117 99.9568
5.73586 97.8666
5.78053 98.4739
5.8252 98.4098
5.86988 99.8172
5.91455 102.752
5.95924 115.51
6.00392 271.992
6.0486 1177.65
6.09328 3756.8
6.13795 3739.33
6.18263 368.303
6.22733 107.792
6.27201 90.0222
6.3167 105.84
6.36138 84.3695
6.40606 72.9318
6.45075 70.7162
6.49545 68.4663
6.54014 66.6239
6.58483 65.5721
6.62952 65.3177
6.67421 93.2217
6.71892 142.94
6.76361 70.838
6.8083 61.1249
6.853 59.9675
6.89769 59.4119
6.94239 58.6954
6.98711 57.8146
7.03181 58.0044
7.07651 57.0091
7.12121 57.1598
7.16591 57.5531
7.21063 57.8051
7.25533 70.7642
7.30004 175.192
7.34475 93.2407
7.38945 58.7151
7.43416 56.5586
7.47889 56.211
7.5236 56.6285
7.56831 57.4181
7.61303 59.2036
7.65774 59.5269
7.70247 58.5109
7.74719 58.6425
7.79191 58.8281
7.83663 59.1258
7.88135 59.9808
7.92607 61.1234
7.97081 62.0886
8.01553 63.3706
8.06026 64.8412
8.10498 66.547
8.14971 75.7414
8.19446 74.9021
8.23919 72.6821
8.28392 75.1046
8.32865 77.2616
8.37339 82.1518
8.41812 89.6369
8.46288 120.425
8.50761 196.317
8.55235 474.761
8.59709 1064.77
8.64183 2011.84
8.68658 1258.28
8.73134 228.734
8.77609 109.524
8.82083 99.1499
8.86558 95.1113
8.91033 94.4961
8.9551 95.638
8.99985 89.3766
9.04461 87.4683
9.08936 86.7943
9.13412 85.6385
9.17888 85.379
9.22365 86.5379
9.26841 85.3219
9.31318 86.6446
9.35794 86.975
9.4027 86.7783
9.44749 87.7801
9.49226 88.2779
9.53703 89.3546
9.5818 91.6775
9.62657 96.2546
9.67134 102.29
9.71614 97.9563
9.76091 98.2092
9.80569 101.06
9.85047 104.915
9.89525 127.878
9.94005 143.272
9.98484 205.262
10.0296 422.332
10.0744 772.889
10.1192 1480.89
10.164 1727.55
10.2088 599.926
10.2536 153.832
10.2984 121.11
10.3432 120.935
10.388 111.303
10.4328 129.244
10.4776 182.929
10.5224 270.997
10.5672 453.222
10.612 534.899
10.6568 257.987
10.7017 108.38
10.7465 91.623
10.7913 87.3893
10.8361 84.6347
10.8809 82.6302
10.9257 81.8806
10.9706 82.4374
11.0154 78.2807
11.0602 75.8884
11.105 75.0834
11.1499 78.356
11.1947 85.7418
11.2395 77.1626
11.2844 73.4346
11.3292 70.1555
11.374 69.0453
11.4189 68.4827
11.4637 67.5028
11.5086 67.8645
11.5534 70.8775
11.5983 67.9354
11.6431 66.3118
11.688 65.8261
11.7328 65.7726
11.7777 65.5706
11.8225 65.4612
11.8674 64.7907
11.9122 65.4084
11.9571 65.7584
12.002 66.5323
12.0468 72.0191
12.0917 86.5314
12.1366 105.949
12.1814 141.501
12.2263 196.294
12.2712 189.035
12.3161 114.394
12.3609 75.355
12.4058 67.7355
12.4507 67.1381
12.4956 67.3342
12.5405 67.4058
12.5853 68.0463
12.6302 75.1427
12.6751 81.0148
12.72 72.603
12.7649 70.8103
12.8098 71.1913
12.8547 72.6828
12.8996 73.9032
12.9445 75.1807
12.9894 77.441
13.0343 78.9597
13.0792 82.664
13.1242 93.5102
13.1691 125.551
13.214 161.406
13.2589 223.308
13.3038 330.126
13.3487 432.831
13.3937 325.087
13.4386 152.865
13.4835 116.135
13.5285 135.779
13.5734 164.617
13.6183 226.5
13.6633 318.464
13.7082 359.236
13.7531 234.725
13.7981 114.901
13.843 86.9629
13.888 83.4343
13.9329 80.7965
13.9779 79.0691
14.0228 77.68
14.0678 76.1765
14.1127 75.6683
14.1577 75.447
14.2027 74.6657
14.2476 73.4623
14.2926 73.5437
14.3376 74.52
14.3825 73.1202
14.4275 71.7792
14.4725 71.8338
14.5175 71.5744
14.5624 71.8483
14.6074 74.2175
14.6524 74.5535
14.6974 73.4514
14.7424 75.3949
14.7874 84.3586
14.8324 97.8417
14.8774 114.142
14.9224 144.198
14.9674 189.717
15.0124 219.364
15.0574 174.503
15.1024 106.334
15.1474 77.2165
15.1924 73.7612
15.2374 74.1356
15.2824 73.3286
15.3274 71.1377
15.3725 69.7112
15.4175 69.2736
15.4625 69.0455
15.5076 69.0584
15.5526 69.0256
15.5976 68.5909
15.6426 69.9037
15.6877 77.3557
15.7327 87.6771
15.7778 99.3395
15.8228 120.811
15.8679 155.791
15.9129 190.381
15.958 175.453
16.003 115.61
16.0481 74.743
16.0931 67.9266
16.1382 65.5444
16.1833 63.3325
16.2283 61.5169
16.2734 60.9495
16.3185 61.0794
16.3636 61.8927
16.4086 60.286
16.4537 58.5845
16.4988 57.9922
16.5439 57.995
16.589 57.5625
16.6341 57.3004
16.6792 56.8389
16.7243 57.0244
16.7694 57.2679
16.8145 57.1854
16.8596 57.4487
16.9047 58.9584
16.9498 59.2105
16.9949 57.863
17.04 58.2384
17.0851 59.802
17.1302 62.1252
17.1754 64.5816
17.2205 68.0245
17.2656 73.8428
17.3108 81.7002
17.3559 85.6731
17.401 77.704
17.4462 67.0095
17.4913 62.2239
17.5365 61.675
17.5815 61.9946
17.6268 62.0465
17.6718 63.0262
17.7171 63.5312
17.7622 63.8456
17.8074 64.5294
17.8525 67.1067
17.8977 72.9041
17.9428 79.1089
17.9881 85.5506
18.0331 97.5622
18.0784 115.359
18.1237 136.739
18.1688 141.931
18.214 118.899
18.2591 94.1002
18.3044 90.4779
18.3495 98.0016
18.3948 106.681
18.4399 103.058
18.4852 86.0128
18.5303 70.6574
18.5756 65.134
18.6207 63.9838
18.666 63.0884
18.7112 62.3246
18.7565 61.3931
18.8016 61.0348
18.8469 60.6927
18.892 60.2078
18.9374 59.7557
18.9825 59.455
19.0278 59.3933
19.073 59.4553
19.1183 60.0201
19.1635 61.2792
19.2088 62.5319
19.254 64.0457
19.2993 67.1716
19.3447 72.3072
19.3898 77.8709
19.4352 77.0422
19.4804 69.1884
19.5257 60.9351
19.5709 57.0276
19.6163 56.5758
19.6615 55.8357
19.7068 55.671
19.752 55.5452
19.7974 55.8499
19.8426 56.824
19.888 57.979
19.9332 58.9404
19.9786 60.6925
20.0238 63.2041
20.0692 67.804
20.1144 71.586
20.1598 72.5142
20.205 68.174
20.2504 64.4693
20.2957 64.6862
20.3411 66.7742
20.3863 67.364
20.4318 62.7293
20.477 57.2334
20.5224 54.1634
20.5677 53.4195
20.6131 52.5347
20.6586 51.965
20.7038 51.6839
20.7493 51.3199
20.7945 51.1822
20.84 50.9375
20.8853 51.0844
20.9307 50.5227
20.976 50.9713
21.0215 50.8826
21.0668 51.3617
21.1122 51.5499
21.1575 51.8518
21.203 52.4984
21.2483 53.2284
21.2938 53.7546
21.3391 52.5374
21.3846 51.3075
21.4299 50.4863
21.4754 50.5309
21.5207 50.6031
21.5662 50.9871
21.6116 51.43
21.6571 52.5293
21.7024 53.5285
21.7479 54.6988
21.7933 56.7047
21.8388 59.5642
21.8843 63.3087
21.9297 66.4218
21.9752 66.9663
22.0206 63.6185
22.0661 59.3308
22.1115 57.9906
22.157 58.0661
22.2024 57.179
22.248 54.5553
22.2933 52.622
22.3389 51.3722
22.3843 51.2432
22.4299 51.1028
22.4753 50.9645
22.5208 50.7334
22.5662 50.6197
22.6118 50.8156
22.6572 51.1032
22.7028 51.7024
22.7483 52.0961
22.7939 52.5927
22.8393 53.5774
22.8849 55.329
22.9303 56.9873
22.9759 59.1803
23.0214 60.071
23.067 58.1052
23.1126 54.3529
23.1581 51.9172
23.2037 51.1306
23.2492 51.1159
23.2948 51.2574
23.3403 51.5289
23.3859 51.9364
23.4314 52.6759
23.477 53.8687
23.5225 55.6398
23.5682 57.7616
23.6137 59.5254
23.6593 58.8817
23.7048 55.3295
23.7505 51.4041
23.796 49.1157
23.8417 48.1247
23.8872 47.612
23.9329 47.156
23.9784 46.8137
24.0241 46.6835
24.0697 46.606
24.1154 45.9927
24.1609 45.874
24.2066 45.6715
24.2522 45.623
24.2979 45.3746
24.3434 45.333
24.3892 45.0004
24.4349 45.0151
24.4805 44.7086
24.5262 44.9755
24.5718 44.7056
24.6175 44.7947
24.6631 44.7865
24.7089 44.4064
24.7545 44.1925
24.8002 44.0946
24.8458 44.0131
24.8916 43.8653
24.9372 44.0977
24.983 44.3638
25.0286 44.5573
25.0744 44.9341
25.12 45.2822
25.1658 45.9733
25.2114 46.3798
25.2572 46.4314
25.3029 46.4345
25.3487 46.5371
25.3943 46.5533
25.4402 45.7421
25.4858 44.7745
25.5316 43.4476
25.5773 42.9046
25.6231 42.785
25.669 42.2768
25.7147 42.3658
25.7605 42.202
25.8062 42.232
25.8521 42.5298
25.8977 42.247
25.9436 42.4108
25.9893 42.5961
26.0352 42.8479
26.0809 43.027
26.1268 43.4102
26.1725 43.2616
26.2184 42.8104
26.2641 42.2899
26.31 41.9861
26.3557 41.9445
26.4017 41.9407
26.4474 42.0068
26.4933 42.2809
26.5391 42.8512
26.585 43.0665
26.6308 43.4735
26.6767 43.7298
26.7225 43.9296
26.7684 43.3187
26.8142 42.657
26.8601 42.1996
26.9059 41.9587
26.9519 41.3357
26.9979 40.9928
27.0437 40.6451
27.0896 40.5135
27.1354 40.4238
27.1814 40.2753
27.2272 40.2609
27.2732 40.1355
27.3191 39.9206
27.3651 40.0351
27.4109 39.9019
27.4569 40.1277
27.5027 40.2505
27.5488 40.1423
27.5946 40.0345
27.6407 39.9121
27.6865 39.881
27.7326 39.5871
27.7784 39.6069
27.8245 39.5933
27.8703 39.5374
27.9164 39.8372
27.9623 39.8729
28.0084 40.0954
28.0543 40.4436
28.1003 40.5934
28.1462 40.4074
28.1923 40.199
28.2384 39.6363
28.2843 39.2631
28.3304 38.8576
28.3764 38.4231
28.4225 38.1039
28.4684 37.8565
28.5145 37.4458
28.5605 37.2204
28.6066 37.1667
28.6526 37.192
28.6987 37.1124
28.7447 36.9675
28.7908 36.7777
28.8368 36.9044
28.8829 36.8253
28.9289 36.7334
28.9751 36.6269
29.0211 36.3969
29.0673 36.2081
29.1133 35.9983
29.1595 35.8439
29.2055 35.7305
29.2517 35.7654
29.2977 35.5309
29.3439 35.686
29.3899 35.6621
29.4361 35.6047
29.4824 35.5047
29.5284 35.2434
29.5746 34.9728
29.6207 34.5931
29.6669 34.5121
29.713 34.4126
29.7593 34.2351
29.8053 34.3259
29.8516 34.1471
29.8977 34.2277
29.9439 33.9774
29.99 33.8948
30.0363 33.7532
30.0824 33.8755
30.1287 33.7366
30.1748 33.8419
30.2211 33.7462
30.2673 33.5896
30.3136 33.7415
30.3597 33.7061
30.406 33.6116
30.4522 33.4559
30.4985 33.3759
30.5447 33.4755
30.591 33.5043
30.6372 33.5416
30.6835 33.4678
30.7297 33.564
30.7761 33.4431
30.8224 33.466
30.8686 33.2005
30.915 32.9923
30.9612 32.9229
31.0076 32.5474
31.0538 32.61
31.1002 32.3539
31.1464 32.177
31.1928 32.1565
31.2391 32.2376
31.2855 32.0695
31.3317 32.1066
31.3781 32.1631
31.4244 32.1722
31.4708 32.091
31.5171 32.0544
31.5636 32.1488
31.6098 31.7902
31.6563 31.6223
31.7026 31.5887
31.7491 31.4309
31.7953 31.4406
31.8418 31.4577
31.8881 31.3269
31.9346 31.3253
31.9809 31.2333
32.0275 31.1457
32.074 31.159
32.1203 30.889
32.1668 30.8369
32.2132 30.6658
32.2597 30.4339
32.306 30.4101
32.3526 30.1993
32.399 30.2349
32.4455 29.9919
32.4919 29.8665
32.5385 29.8905
32.5848 29.7251
32.6314 29.6865
32.6778 29.6744
32.7244 29.5106
32.7708 29.346
32.8174 29.3279
32.8638 29.2171
32.9104 29.2522
32.9569 29.2209
33.0035 29.0069
33.0499 29.0248
33.0966 29.0879
33.143 28.9109
33.1897 28.8737
33.2361 28.7849
33.2828 28.82
33.3293 28.5803
33.3759 28.4977
33.4226 28.3926
33.4691 28.2287
33.5158 28.1752
33.5623 28.0131
33.609 27.8858
33.6555 27.8074
33.7022 27.8018
33.7487 27.6348
33.7954 27.6237
33.842 27.5394
33.8887 27.4001
33.9353 27.4442
33.982 27.271
34.0286 27.2063
34.0753 27.0685
34.1219 26.9559
34.1687 26.9287
34.2152 26.9429
34.262 26.777
34.3086 26.6312
34.3554 26.573
34.402 26.4636
34.4488 26.4138
34.4954 26.3738
34.5422 26.2831
34.5889 26.1185
34.6357 26.001
34.6825 25.9608
34.7292 25.9651
34.776 25.7465
34.8227 25.7691
34.8695 25.6792
34.9162 25.5717
34.9631 25.5472
35.0098 25.5298
35.0566 25.3426
35.1033 25.2719
35.1502 25.3446
35.1969 25.164
35.2438 25.1601
35.2906 25.0561
35.3375 25.0441
35.3842 24.9422
35.4311 24.9445
35.4779 24.9377
35.5248 24.9078
35.5716 24.8249
35.6185 24.6864
35.6653 24.6209
35.7123 24.5448
35.759 24.3846
35.806 24.2993
35.8528 24.2135
35.8998 24.1267
35.9468 24.0328
35.9936 24.0855
36.0406 24.0738
36.0874 23.9484
36.1345 23.8455
36.1813 23.747
36.2283 23.6192
36.2752 23.5284
36.3222 23.6804
36.3691 23.5111
36.4161 23.3595
36.463 23.4141
36.5101 23.3993
36.557 23.2929
36.6041 23.1441
36.651 23.1229
36.6981 23.0046
36.745 22.9529
36.7921 22.9623
36.839 22.7581
36.8861 22.7398
36.9331 22.6665
36.9802 22.6187
37.0272 22.5072
37.0743 22.3826
37.1213 22.315
37.1684 22.2509
37.2154 22.2048
37.2626 22.1317
37.3098 22.1306
37.3568 22.0012
37.404 22.0223
37.451 21.8823
37.4982 21.8741
37.5452 21.7405
37.5924 21.7006
37.6395 21.6782
37.6867 21.5825
37.7337 21.5073
37.781 21.4155
37.8281 21.3828
37.8753 21.274
37.9224 21.2148
37.9697 21.1868
38.0168 21.0935
38.064 20.9766
38.1111 20.8861
38.1584 20.8876
38.2056 20.805
38.2529 20.7482
38.3 20.6986
38.3473 20.6012
38.3945 20.5243
38.4418 20.5199
38.489 20.4825
38.5363 20.3181
38.5837 20.2819
38.6309 20.1969
38.6782 20.1358
38.7254 20.0874
38.7728 20.0345
38.82 19.8799
38.8674 19.8654
38.9146 19.883
38.9621 19.8196
39.0093 19.724
39.0567 19.6209
39.104 19.575
39.1514 19.442
39.1987 19.5055
39.2461 19.3779
39.2934 19.3128
39.3409 19.2521
39.3882 19.164
39.4356 19.1534
39.483 19.1154
39.5304 19.0266
39.5778 18.9488
39.6253 18.9235
39.6726 18.8362
39.7201 18.8247
39.7675 18.7741
39.815 18.7346
39.8624 18.611
39.9099 18.5777
39.9575 18.5078
40.0049 18.5045
40.0525 18.3286
40.0999 18.3668
40.1474 18.2234
40.1949 18.2232
40.2425 18.1349
40.2899 18.1035
40.3375 18.046
40.385 17.9952
40.4326 17.8612
40.48 17.8525
40.5277 17.8367
40.5752 17.7682
40.6228 17.704
40.6703 17.6601
40.718 17.5709
40.7655 17.4516
40.8132 17.4669
40.8607 17.4736
40.9084 17.3814
40.9559 17.3249
41.0036 17.2553
41.0512 17.225
41.0989 17.196
41.1465 17.0651
41.1942 17.0687
41.242 16.9233
41.2896 16.8635
41.3373 16.7854
41.3849 16.8834
41.4327 16.7776
41.4803 16.6578
41.5281 16.6397
41.5758 16.5857
41.6236 16.5123
41.6712 16.4283
41.7191 16.3951
41.7667 16.3092
41.8146 16.3405
41.8622 16.2706
41.9101 16.1695
41.9578 16.0886
42.0057 16.0842
42.0534 16.0309
42.1013 15.9425
42.149 15.9354
42.1969 15.8722
42.2446 15.7821
42.2925 15.7452
42.3403 15.7182
42.3882 15.6429
42.436 15.5873
42.4839 15.5332
42.5319 15.4799
42.5797 15.4289
42.6277 15.3514
42.6755 15.3573
42.7235 15.2933
42.7713 15.2374
42.8193 15.1801
42.8671 15.0825
42.9152 15.0829
42.963 15.0241
43.0111 14.969
43.0589 14.9407
43.107 14.8842
43.1549 14.8001
43.2029 14.7794
43.2508 14.7412
43.2989 14.7017
43.3468 14.5608
43.3949 14.6111
43.4429 14.5264
43.491 14.4775
43.5389 14.3959
43.5871 14.3643
43.635 14.3253
43.6832 14.3208
43.7312 14.2018
43.7793 14.1603
43.8273 14.1016
43.8755 14.078
43.9237 14.0081
43.9717 14.0123
44.0199 13.9462
44.068 13.8906
44.1162 13.8296
44.1642 13.7511
44.2125 13.7752
44.2606 13.7102
44.3088 13.6237
44.3569 13.594
44.4052 13.568
44.4533 13.4868
44.5016 13.4318
44.5497 13.3654
44.598 13.3629
44.6461 13.2703
44.6945 13.2206
44.7426 13.2098
44.791 13.1522
44.8391 13.1466
44.8875 13.0724
44.9357 13.0472
44.984 12.9567
45.0322 12.937
45.0806 12.8883
45.1288 12.8562
45.1773 12.7879
45.2257 12.7753
45.2739 12.6494
45.3224 12.6824
45.3706 12.6085
45.4191 12.5782
45.4673 12.5379
45.5158 12.4722
45.5641 12.401
45.6126 12.4099
45.6609 12.3216
45.7094 12.2689
45.7577 12.2535
45.8063 12.1784
45.8546 12.2048
45.9031 12.1188
45.9515 12.1115
46.0001 12.0533
46.0484 12.0028
46.097 11.9724
46.1454 11.8903
46.194 11.8737
46.2424 11.791
46.291 11.8141
46.3395 11.7348
46.3881 11.6857
46.4365 11.693
46.4852 11.6604
46.5337 11.5921
46.5823 11.5586
46.631 11.5338
46.6795 11.4784
46.7282 11.4003
46.7767 11.3755
46.8254 11.3196
46.8739 11.2855
46.9226 11.1946
46.9712 11.2266
47.0199 11.1062
47.0685 11.1275
47.1173 11.0212
47.1658 11.0498
47.2146 10.9355
47.2632 10.9147
47.312 10.8993
47.3606 10.867
47.4095 10.8429
47.4581 10.7997
47.5069 10.7554
47.5556 10.6899
47.6044 10.6198
47.6531 10.6423
47.702 10.5613
47.7507 10.5257
47.7996 10.4945
47.8483 10.4651
47.8972 10.447
47.9461 10.3846
47.9948 10.343
48.0438 10.3239
48.0925 10.2492
48.1415 10.2481
48.1902 10.2473
48.2392 10.205
48.288 10.1579
48.337 10.1012
48.3858 10.0466
48.4348 10.008
48.4837 10.0049
48.5327 9.97966
48.5815 9.88654
48.6306 9.89166
48.6795 9.84717
48.7285 9.81783
48.7774 9.74526
48.8265 9.73275
48.8754 9.72674
48.9245 9.69173
48.9734 9.65195
49.0226 9.60919
49.0715 9.55765
49.1206 9.53986
49.1696 9.47507
49.2188 9.43311
49.2679 9.42354
49.3169 9.35846
49.3661 9.31013
49.4151 9.30509
49.4643 9.29457
49.5134 9.2297
49.5626 9.18949
49.6117 9.17992
49.6609 9.12241
49.71 9.09646
49.7592 9.04577
49.8083 8.9703
49.8576 8.98658
49.9067 8.95686
49.956 8.90462
50.0052 8.85977
50.0545 8.85772
50.1036 8.82441
50.153 8.7739
50.2022 8.75309
50.2515 8.71552
50.3007 8.68351
50.3501 8.59676
50.3993 8.64036
50.4487 8.55024
50.498 8.57051
50.5474 8.52764
50.5966 8.42127
50.6461 8.44526
50.6955 8.4375
50.7448 8.33959
50.7943 8.36682
50.8436 8.31276
50.8931 8.29794
50.9424 8.25417
50.9919 8.20234
51.0413 8.18465
51.0908 8.15854
51.1402 8.10641
51.1897 8.08905
51.2391 8.10041
51.2887 8.04918
51.3381 7.9985
51.3877 7.99483
51.4371 7.89618
51.4867 7.87457
51.5362 7.86141
51.5858 7.80204
51.6353 7.77642
51.6849 7.76925
51.7344 7.71891
51.7841 7.71276
51.8336 7.66115
51.8833 7.62115
51.9328 7.62734
51.9826 7.57164
52.0323 7.52196
52.0818 7.48264
52.1316 7.47227
52.1812 7.44334
52.231 7.42154
52.2806 7.34932
52.3304 7.37692
52.38 7.30675
52.4298 7.27497
52.4794 7.22528
52.5293 7.26341
52.5789 7.19826
52.6288 7.18778
52.6785 7.12665
52.7284 7.10748
52.7781 7.09447
52.828 7.05197
52.8777 6.9979
52.9276 6.9438
52.9774 6.96968
53.0273 6.95559
53.0771 6.90079
53.1271 6.9081
53.1769 6.85027
53.2269 6.81295
53.2767 6.81572
53.3267 6.78199
53.3765 6.71467
53.4266 6.69697
53.4766 6.69999
53.5265 6.64717
53.5765 6.65826
53.6264 6.57685
53.6765 6.53332
53.7264 6.51946
53.7765 6.51251
53.8265 6.48668
53.8766 6.43402
53.9266 6.42207
53.9767 6.39817
54.0267 6.39162
54.0769 6.35862
54.1269 6.24832
54.1771 6.2792
54.2271 6.22491
54.2773 6.20435
54.3274 6.16217
54.3776 6.1393
54.4277 6.07307
54.478 6.0384
54.528 6.04304
54.5783 5.95841
54.6285 5.92765
54.6788 5.96579
54.7289 5.87375
54.7792 5.79356
54.8296 5.75382
54.8798 5.71071
54.9301 5.69678
54.9803 5.66755
55.0307 5.66211
55.0809 5.58651
55.1314 5.55476
55.1816 5.45256
55.232 5.42
55.2823 5.43421
55.3328 5.3162
55.383 5.26471
55.4335 5.23735
55.4838 5.17682
55.5344 5.09906
55.5847 5.06113
55.6352 5.09982
55.6856 5.00375
55.7361 4.97086