File: XRD/Ni3Fe_FD0652.xy
TT I
1.27165 7.31116
1.31627 6.6917
1.36089 7.28291
1.40551 5.80825
1.45013 6.0016
1.49476 6.56554
1.53938 5.96676
1.584 5.1475
1.62863 5.27989
1.67325 5.35037
1.71787 4.86154
1.7625 4.61964
1.80712 5.24486
1.85174 4.68306
1.89636 4.79506
1.94099 4.88845
1.98562 4.66464
2.03025 4.99964
2.07487 4.68181
2.11949 5.24296
2.16411 5.22475
2.20874 17.1626
2.25338 29.2851
2.298 6.27964
2.34263 5.67904
2.38725 6.30791
2.43188 5.63312
2.4765 6.17429
2.52115 7.17585
2.56577 7.751
2.6104 7.99313
2.65503 7.70747
2.69965 7.85582
2.7443 7.58555
2.78893 7.75739
2.83356 8.60703
2.87818 8.52381
2.92281 9.56197
2.96744 9.56682
3.01209 10.113
3.05672 11.3436
3.10135 11.6788
3.14599 12.9335
3.19062 14.2095
3.23527 14.9958
3.2799 16.2284
3.32454 16.6714
3.36917 17.6103
3.4138 19.0033
3.45844 19.4358
3.50309 21.3152
3.54773 22.4605
3.59237 24.8285
3.637 116.664
3.68164 72.3437
3.7263 27.4276
3.77094 26.5061
3.81558 27.0632
3.86022 28.0358
3.90486 29.2207
3.9495 30.4556
3.99416 31.0113
4.0388 32.899
4.08344 33.9256
4.12809 35.1654
4.17273 37.8267
4.21738 45.138
4.26204 322.864
4.30669 286.552
4.35133 51.5475
4.39598 45.1168
4.44063 57.1816
4.4853 72.8477
4.52995 51.0342
4.5746 51.42
4.61925 53.382
4.6639 55.605
4.70855 58.2099
4.75322 61.2018
4.79788 63.5619
4.84253 67.2403
4.88719 70.9006
4.93184 75.348
4.97652 80.4314
5.02118 86.3661
5.06583 93.7723
5.11049 105.45
5.15515 188.157
5.19981 330.76
5.24449 2607.18
5.28916 12599.4
5.33382 3228.94
5.37848 197.867
5.42315 130.736
5.46783 114.159
5.5125 105.985
5.55716 102.048
5.60183 98.6678
5.6465 97.1629
5.69117 94.4859
5.73586 92.067
5.78053 91.1768
5.8252 90.7723
5.86988 91.1759
5.91455 93.2726
5.95924 99.8373
6.00392 187.694
6.0486 890.159
6.09328 4345.77
6.13795 3528.73
6.18263 263.999
6.22733 95.2424
6.27201 84.7613
6.3167 112.258
6.36138 84.3142
6.40606 70.0482
6.45075 67.8032
6.49545 66.049
6.54014 64.6694
6.58483 63.0178
6.62952 63.7236
6.67421 105.344
6.71892 176.874
6.76361 72.8612
6.8083 59.6147
6.853 57.9765
6.89769 57.8784
6.94239 57.6552
6.98711 56.5079
7.03181 56.2509
7.07651 56.1668
7.12121 55.6261
7.16591 56.1155
7.21063 56.4704
7.25533 75.6341
7.30004 227.185
7.34475 107.352
7.38945 58.1554
7.43416 55.4553
7.47889 55.1183
7.5236 55.2669
7.56831 56.0638
7.61303 58.1938
7.65774 58.9294
7.70247 56.6212
7.74719 56.388
7.79191 57.0189
7.83663 57.4065
7.88135 58.2674
7.92607 59.0818
7.97081 60.1014
8.01553 61.1619
8.06026 62.8466
8.10498 64.354
8.14971 76.5416
8.19446 74.9263
8.23919 69.8021
8.28392 71.9272
8.32865 74.0183
8.37339 78.7007
8.41812 85.9626
8.46288 121.824
8.50761 156.953
8.55235 359.102
8.59709 1081.84
8.64183 2160.66
8.68658 1024.69
8.73134 178.601
8.77609 100.445
8.82083 93.2752
8.86558 89.6987
8.91033 90.6933
8.9551 94.1061
8.99985 86.0468
9.04461 83.6432
9.08936 82.6109
9.13412 82.0782
9.17888 82.2239
9.22365 83.3232
9.26841 82.2091
9.31318 82.8078
9.35794 82.7441
9.4027 83.1794
9.44749 83.6994
9.49226 84.8359
9.53703 85.4756
9.5818 87.5535
9.62657 93.2169
9.67134 102.178
9.71614 94.4404
9.76091 93.9847
9.80569 96.2139
9.85047 99.7085
9.89525 130.93
9.94005 145.187
9.98484 166.69
10.0296 316.467
10.0744 742.721
10.1192 1683.96
10.164 1688.57
10.2088 447.361
10.2536 131.775
10.2984 116.106
10.3432 119.338
10.388 105.616
10.4328 115.077
10.4776 153.022
10.5224 263.998
10.5672 491.755
10.612 524.889
10.6568 213.096
10.7017 98.8079
10.7465 86.8896
10.7913 83.7666
10.8361 81.7931
10.8809 79.5205
10.9257 79.3079
10.9706 80.8678
11.0154 75.5491
11.0602 73.1726
11.105 72.2813
11.1499 78.8845
11.1947 89.5451
11.2395 77.3791
11.2844 71.7488
11.3292 68.0787
11.374 66.5566
11.4189 65.8962
11.4637 65.3732
11.5086 65.9947
11.5534 70.5144
11.5983 66.7008
11.6431 64.0362
11.688 63.4349
11.7328 63.1556
11.7777 63.0531
11.8225 62.7875
11.8674 62.8379
11.9122 62.9276
11.9571 63.0371
12.002 63.754
12.0468 67.0337
12.0917 78.1599
12.1366 100.48
12.1814 145.963
12.2263 204.241
12.2712 176.741
12.3161 103.777
12.3609 73.3696
12.4058 65.3222
12.4507 64.7856
12.4956 64.8581
12.5405 64.734
12.5853 66.1148
12.6302 76.2726
12.6751 83.8219
12.72 71.6726
12.7649 68.2538
12.8098 68.7065
12.8547 70.0069
12.8996 70.9938
12.9445 72.3836
12.9894 73.8775
13.0343 75.6449
13.0792 78.5496
13.1242 86.3875
13.1691 109.225
13.214 143.141
13.2589 224.813
13.3038 355.034
13.3487 437.259
13.3937 284.078
13.4386 130.127
13.4835 104.432
13.5285 117.159
13.5734 152.396
13.6183 235.23
13.6633 339.924
13.7082 353.019
13.7531 196.959
13.7981 100.169
13.843 82.3976
13.888 80.1245
13.9329 77.1083
13.9779 76.2354
14.0228 74.598
14.0678 73.2696
14.1127 72.7315
14.1577 73.0564
14.2027 71.7805
14.2476 70.5145
14.2926 70.962
14.3376 72.963
14.3825 71.1388
14.4275 69.1771
14.4725 68.4778
14.5175 68.932
14.5624 69.256
14.6074 71.9326
14.6524 72.7311
14.6974 70.886
14.7424 71.2773
14.7874 77.2911
14.8324 86.7992
14.8774 106.504
14.9224 146.847
14.9674 199.031
15.0124 218.279
15.0574 154.871
15.1024 93.6466
15.1474 72.9434
15.1924 70.9028
15.2374 72.403
15.2824 71.3768
15.3274 68.895
15.3725 67.0495
15.4175 66.6277
15.4625 66.2473
15.5076 66.7718
15.5526 66.5612
15.5976 66.003
15.6426 66.613
15.6877 71.1567
15.7327 77.9568
15.7778 92.1262
15.8228 120.927
15.8679 162.931
15.9129 194.458
15.958 163.773
16.003 102.577
16.0481 69.4631
16.0931 65.8431
16.1382 63.8313
16.1833 60.9724
16.2283 59.4193
16.2734 58.5927
16.3185 59.3561
16.3636 60.7989
16.4086 58.6472
16.4537 56.5484
16.4988 55.8743
16.5439 55.8274
16.589 55.5009
16.6341 55.2179
16.6792 54.7632
16.7243 55.1482
16.7694 55.4839
16.8145 55.3258
16.8596 55.7365
16.9047 57.7319
16.9498 57.9466
16.9949 56.0235
17.04 55.8075
17.0851 56.9431
17.1302 58.6023
17.1754 61.3996
17.2205 65.9811
17.2656 73.3857
17.3108 81.9045
17.3559 83.782
17.401 72.3238
17.4462 62.7708
17.4913 59.2807
17.5365 59.212
17.5815 59.3843
17.6268 59.8902
17.6718 60.7931
17.7171 61.1004
17.7622 61.4481
17.8074 61.6577
17.8525 63.4347
17.8977 67.6608
17.9428 72.6121
17.9881 80.7951
18.0331 96.2559
18.0784 118.075
18.1237 138.539
18.1688 134.097
18.214 105.898
18.2591 86.5233
18.3044 89.1697
18.3495 99.225
18.3948 106.655
18.4399 99.0769
18.4852 79.9642
18.5303 67.0549
18.5756 62.4771
18.6207 61.4392
18.666 60.4903
18.7112 59.8402
18.7565 59.1776
18.8016 58.7142
18.8469 58.2771
18.892 57.7447
18.9374 57.5994
18.9825 57.1681
19.0278 56.9869
19.073 57.1615
19.1183 57.551
19.1635 58.4432
19.2088 59.4709
19.254 61.6241
19.2993 65.8914
19.3447 72.0125
19.3898 77.1106
19.4352 73.5837
19.4804 64.3592
19.5257 57.4549
19.5709 54.5262
19.6163 54.2838
19.6615 53.8589
19.7068 53.4982
19.752 53.4405
19.7974 53.5998
19.8426 54.3997
19.888 55.1574
19.9332 56.0764
19.9786 58.3046
20.0238 61.6558
20.0692 66.4839
20.1144 69.7478
20.1598 68.9711
20.205 64.0935
20.2504 62.041
20.2957 63.3126
20.3411 65.7554
20.3863 64.8293
20.4318 59.2838
20.477 54.2079
20.5224 52.1799
20.5677 51.5701
20.6131 50.6051
20.6586 49.8818
20.7038 49.7787
20.7493 49.3751
20.7945 49.2493
20.84 49.0337
20.8853 48.918
20.9307 48.6912
20.976 48.7459
21.0215 48.583
21.0668 49.1876
21.1122 49.4502
21.1575 50.1588
21.203 50.949
21.2483 51.6415
21.2938 51.7964
21.3391 50.5549
21.3846 49.2237
21.4299 48.6795
21.4754 48.5196
21.5207 48.6613
21.5662 48.7894
21.6116 49.3513
21.6571 49.8502
21.7024 50.627
21.7479 52.4734
21.7933 54.8314
21.8388 58.546
21.8843 62.1154
21.9297 64.6894
21.9752 64.1148
22.0206 60.4027
22.0661 56.7656
22.1115 56.1012
22.157 56.2575
22.2024 54.8903
22.248 51.8845
22.2933 50.2964
22.3389 49.2775
22.3843 49.2876
22.4299 49.3239
22.4753 49.1911
22.5208 48.8279
22.5662 48.5954
22.6118 48.7099
22.6572 48.8423
22.7028 49.4001
22.7483 49.7185
22.7939 50.3097
22.8393 51.6668
22.8849 53.6557
22.9303 55.9263
22.9759 57.8976
23.0214 58.0832
23.067 55.1948
23.1126 51.8439
23.1581 49.6028
23.2037 48.9926
23.2492 48.9321
23.2948 48.9384
23.3403 49.1712
23.3859 49.7007
23.4314 50.6886
23.477 52.3289
23.5225 54.4619
23.5682 56.756
23.6137 58.1658
23.6593 56.3481
23.7048 52.3168
23.7505 48.7734
23.796 46.9572
23.8417 46.3114
23.8872 45.7012
23.9329 45.4814
23.9784 45.0326
24.0241 44.8275
24.0697 44.7585
24.1154 44.3131
24.1609 44.1715
24.2066 44.207
24.2522 43.8325
24.2979 43.5269
24.3434 43.5979
24.3892 43.3974
24.4349 43.3068
24.4805 43.12
24.5262 43.3221
24.5718 43.0026
24.6175 43.1099
24.6631 42.8909
24.7089 42.6741
24.7545 42.5479
24.8002 42.3734
24.8458 42.3855
24.8916 42.1697
24.9372 42.2574
24.983 42.5733
25.0286 42.9957
25.0744 43.3589
25.12 43.7666
25.1658 44.4692
25.2114 44.7287
25.2572 44.9256
25.3029 44.8525
25.3487 44.9391
25.3943 44.9672
25.4402 43.9089
25.4858 42.8374
25.5316 41.7587
25.5773 41.136
25.6231 41.0683
25.669 40.7228
25.7147 40.7488
25.7605 40.6056
25.8062 40.6987
25.8521 40.7839
25.8977 40.7507
25.9436 41.0232
25.9893 40.9639
26.0352 41.4111
26.0809 41.6415
26.1268 41.9198
26.1725 41.5558
26.2184 41.0464
26.2641 40.467
26.31 40.2183
26.3557 40.2794
26.4017 40.2368
26.4474 40.4481
26.4933 40.8411
26.5391 41.3347
26.585 41.7025
26.6308 42.0921
26.6767 42.3808
26.7225 42.1433
26.7684 41.6431
26.8142 41.1096
26.8601 40.619
26.9059 40.2633
26.9519 39.6517
26.9979 39.4386
27.0437 38.9534
27.0896 38.8425
27.1354 38.8516
27.1814 38.8783
27.2272 38.6465
27.2732 38.6332
27.3191 38.4872
27.3651 38.5921
27.4109 38.4299
27.4569 38.554
27.5027 38.5273
27.5488 38.7772
27.5946 38.5603
27.6407 38.3918
27.6865 38.2709
27.7326 37.9669
27.7784 38.0308
27.8245 37.8862
27.8703 38.0738
27.9164 38.4171
27.9623 38.4591
28.0084 38.795
28.0543 39.3265
28.1003 39.3139
28.1462 38.9185
28.1923 38.6255
28.2384 38.1958
28.2843 37.793
28.3304 37.5125
28.3764 36.8794
28.4225 36.6269
28.4684 36.3894
28.5145 36.1982
28.5605 35.9816
28.6066 35.8218
28.6526 35.8078
28.6987 35.7403
28.7447 35.6559
28.7908 35.5606
28.8368 35.5909
28.8829 35.533
28.9289 35.5106
28.9751 35.2857
29.0211 35.1295
29.0673 34.8925
29.1133 34.6314
29.1595 34.5366
29.2055 34.3319
29.2517 34.5542
29.2977 34.3786
29.3439 34.3289
29.3899 34.3342
29.4361 34.2822
29.4824 34.148
29.5284 33.9388
29.5746 33.619
29.6207 33.2684
29.6669 33.1991
29.713 33.1063
29.7593 32.9625
29.8053 32.9971
29.8516 32.8247
29.8977 32.9867
29.9439 32.819
29.99 32.7798
30.0363 32.5705
30.0824 32.6216
30.1287 32.5971
30.1748 32.5804
30.2211 32.6767
30.2673 32.4794
30.3136 32.4981
30.3597 32.344
30.406 32.4015
30.4522 32.0794
30.4985 32.2409
30.5447 32.4156
30.591 32.2468
30.6372 32.3307
30.6835 32.2718
30.7297 32.3026
30.7761 32.2367
30.8224 32.109
30.8686 31.9658
30.915 31.6806
30.9612 31.6881
31.0076 31.4283
31.0538 31.3332
31.1002 31.2974
31.1464 31.1496
31.1928 31.0516
31.2391 31.1585
31.2855 31.0084
31.3317 30.9454
31.3781 31.1294
31.4244 31.0034
31.4708 30.9459
31.5171 30.822
31.5636 30.8176
31.6098 30.682
31.6563 30.4418
31.7026 30.3376
31.7491 30.2413
31.7953 30.3235
31.8418 30.2351
31.8881 30.2563
31.9346 30.2171
31.9809 30.2277
32.0275 30.0929
32.074 29.9035
32.1203 29.7673
32.1668 29.6895
32.2132 29.5454
32.2597 29.4301
32.306 29.2277
32.3526 29.091
32.399 28.9632
32.4455 28.8146
32.4919 28.8902
32.5385 28.8246
32.5848 28.6366
32.6314 28.6124
32.6778 28.5951
32.7244 28.4207
32.7708 28.2849
32.8174 28.2769
32.8638 28.25
32.9104 28.1799
32.9569 28.132
33.0035 27.9243
33.0499 27.9745
33.0966 27.9149
33.143 27.8808
33.1897 27.817
33.2361 27.6932
33.2828 27.6981
33.3293 27.5454
33.3759 27.4586
33.4226 27.4238
33.4691 27.1977
33.5158 27.1366
33.5623 27.0571
33.609 26.829
33.6555 26.8443
33.7022 26.8174
33.7487 26.5741
33.7954 26.6032
33.842 26.5543
33.8887 26.4503
33.9353 26.3908
33.982 26.2355
34.0286 26.2384
34.0753 26.0719
34.1219 26.0848
34.1687 25.963
34.2152 25.9965
34.262 25.7756
34.3086 25.6414
34.3554 25.6404
34.402 25.4673
34.4488 25.5
34.4954 25.2806
34.5422 25.3116
34.5889 25.2011
34.6357 25.0732
34.6825 25.0181
34.7292 24.9467
34.776 24.7865
34.8227 24.7921
34.8695 24.7773
34.9162 24.7039
34.9631 24.6355
35.0098 24.5542
35.0566 24.4998
35.1033 24.4386
35.1502 24.3927
35.1969 24.3336
35.2438 24.2814
35.2906 24.2629
35.3375 24.1311
35.3842 24.0633
35.4311 24.0363
35.4779 23.9916
35.5248 24.0831
35.5716 23.9096
35.6185 23.7756
35.6653 23.789
35.7123 23.7192
35.759 23.5756
35.806 23.4208
35.8528 23.3709
35.8998 23.3423
35.9468 23.1889
35.9936 23.224
36.0406 23.0861
36.0874 23.17
36.1345 22.9817
36.1813 22.9592
36.2283 22.8868
36.2752 22.7957
36.3222 22.8265
36.3691 22.693
36.4161 22.5483
36.463 22.5649
36.5101 22.5137
36.557 22.3941
36.6041 22.2531
36.651 22.2132
36.6981 22.263
36.745 22.1815
36.7921 22.0379
36.839 21.9462
36.8861 21.9252
36.9331 21.7955
36.9802 21.7115
37.0272 21.7173
37.0743 21.5828
37.1213 21.5916
37.1684 21.5258
37.2154 21.471
37.2626 21.3894
37.3098 21.3159
37.3568 21.2635
37.404 21.2398
37.451 21.0897
37.4982 21.1018
37.5452 20.9626
37.5924 20.9028
37.6395 20.8944
37.6867 20.8361
37.7337 20.7242
37.781 20.6769
37.8281 20.5844
37.8753 20.543
37.9224 20.4054
37.9697 20.4278
38.0168 20.3288
38.064 20.18
38.1111 20.2129
38.1584 20.1314
38.2056 20.0545
38.2529 20.0015
38.3 19.8863
38.3473 19.9034
38.3945 19.7956
38.4418 19.7798
38.489 19.6472
38.5363 19.6906
38.5837 19.5357
38.6309 19.5415
38.6782 19.4294
38.7254 19.3438
38.7728 19.2898
38.82 19.2458
38.8674 19.2242
38.9146 19.0715
38.9621 19.0763
39.0093 19.0681
39.0567 18.9694
39.104 18.833
39.1514 18.7935
39.1987 18.715
39.2461 18.7337
39.2934 18.682
39.3409 18.5594
39.3882 18.4676
39.4356 18.4881
39.483 18.3925
39.5304 18.3036
39.5778 18.3235
39.6253 18.2472
39.6726 18.1648
39.7201 18.0963
39.7675 18.1001
39.815 18.023
39.8624 17.9898
39.9099 17.8795
39.9575 17.8471
40.0049 17.7781
40.0525 17.7624
40.0999 17.6854
40.1474 17.5905
40.1949 17.5902
40.2425 17.4923
40.2899 17.452
40.3375 17.3353
40.385 17.3259
40.4326 17.3111
40.48 17.1946
40.5277 17.2179
40.5752 17.1178
40.6228 16.9956
40.6703 17.0391
40.718 16.9246
40.7655 16.9262
40.8132 16.792
40.8607 16.8313
40.9084 16.7487
40.9559 16.6788
41.0036 16.6914
41.0512 16.5763
41.0989 16.587
41.1465 16.4651
41.1942 16.4356
41.242 16.359
41.2896 16.3792
41.3373 16.2292
41.3849 16.1539
41.4327 16.2146
41.4803 16.101
41.5281 16.0008
41.5758 15.9952
41.6236 15.9583
41.6712 15.821
41.7191 15.7987
41.7667 15.7508
41.8146 15.7076
41.8622 15.6537
41.9101 15.6388
41.9578 15.5258
42.0057 15.5018
42.0534 15.4531
42.1013 15.4072
42.149 15.3447
42.1969 15.2568
42.2446 15.2522
42.2925 15.2024
42.3403 15.1966
42.3882 15.0979
42.436 15.0438
42.4839 15.0291
42.5319 14.9497
42.5797 14.8692
42.6277 14.8072
42.6755 14.8073
42.7235 14.7145
42.7713 14.7348
42.8193 14.6273
42.8671 14.5647
42.9152 14.5418
42.963 14.4379
43.0111 14.4478
43.0589 14.337
43.107 14.3341
43.1549 14.2945
43.2029 14.2718
43.2508 14.2481
43.2989 14.1721
43.3468 14.0787
43.3949 14.0607
43.4429 14.0123
43.491 13.9803
43.5389 13.9154
43.5871 13.883
43.635 13.8428
43.6832 13.7826
43.7312 13.6978
43.7793 13.6346
43.8273 13.665
43.8755 13.5508
43.9237 13.5175
43.9717 13.4828
44.0199 13.4338
44.068 13.3479
44.1162 13.3061
44.1642 13.38
44.2125 13.2435
44.2606 13.1915
44.3088 13.1487
44.3569 13.1333
44.4052 13.1067
44.4533 13.0173
44.5016 12.9488
44.5497 12.9577
44.598 12.8503
44.6461 12.8506
44.6945 12.7689
44.7426 12.7735
44.791 12.6698
44.8391 12.6713
44.8875 12.6509
44.9357 12.5764
44.984 12.5431
45.0322 12.4713
45.0806 12.4645
45.1288 12.3967
45.1773 12.3434
45.2257 12.3576
45.2739 12.2758
45.3224 12.2202
45.3706 12.1672
45.4191 12.1621
45.4673 12.1197
45.5158 12.044
45.5641 12.0081
45.6126 11.9984
45.6609 11.9377
45.7094 11.9098
45.7577 11.8404
45.8063 11.7681
45.8546 11.7513
45.9031 11.693
45.9515 11.6405
46.0001 11.6556
46.0484 11.597
46.097 11.5714
46.1454 11.516
46.194 11.4571
46.2424 11.4638
46.291 11.3872
46.3395 11.3297
46.3881 11.3248
46.4365 11.2716
46.4852 11.169
46.5337 11.2092
46.5823 11.1663
46.631 11.0963
46.6795 11.0865
46.7282 11.0133
46.7767 10.9952
46.8254 10.9472
46.8739 10.8753
46.9226 10.854
46.9712 10.7729
47.0199 10.8038
47.0685 10.7494
47.1173 10.7036
47.1658 10.6013
47.2146 10.6479
47.2632 10.5527
47.312 10.5509
47.3606 10.5104
47.4095 10.4453
47.4581 10.42
47.5069 10.3588
47.5556 10.3283
47.6044 10.2827
47.6531 10.2526
47.702 10.2331
47.7507 10.1832
47.7996 10.1358
47.8483 10.1138
47.8972 10.0925
47.9461 10.052
47.9948 9.97815
48.0438 9.93619
48.0925 9.93535
48.1415 9.91098
48.1902 9.88707
48.2392 9.8514
48.288 9.81204
48.337 9.75416
48.3858 9.70623
48.4348 9.68464
48.4837 9.68246
48.5327 9.62611
48.5815 9.58636
48.6306 9.56241
48.6795 9.51826
48.7285 9.44806
48.7774 9.44152
48.8265 9.4225
48.8754 9.37581
48.9245 9.30559
48.9734 9.2996
49.0226 9.27539
49.0715 9.21608
49.1206 9.23306
49.1696 9.13491
49.2188 9.12779
49.2679 9.11115
49.3169 9.02964
49.3661 8.97179
49.4151 8.99599
49.4643 8.98393
49.5134 8.91089
49.5626 8.86812
49.6117 8.8508
49.6609 8.85425
49.71 8.74534
49.7592 8.73764
49.8083 8.69592
49.8576 8.70715
49.9067 8.64664
49.956 8.58741
50.0052 8.5878
50.0545 8.58842
50.1036 8.51649
50.153 8.47911
50.2022 8.45662
50.2515 8.41917
50.3007 8.35039
50.3501 8.32754
50.3993 8.32483
50.4487 8.27732
50.498 8.25361
50.5474 8.20159
50.5966 8.18461
50.6461 8.14408
50.6955 8.13562
50.7448 8.09539
50.7943 8.03962
50.8436 8.03162
50.8931 7.9905
50.9424 8.0255
50.9919 7.95033
51.0413 7.93405
51.0908 7.84597
51.1402 7.88608
51.1897 7.85021
51.2391 7.75598
51.2887 7.78979
51.3381 7.75064
51.3877 7.67121
51.4371 7.65305
51.4867 7.61276
51.5362 7.58186
51.5858 7.57783
51.6353 7.53462
51.6849 7.49162
51.7344 7.47626
51.7841 7.46715
51.8336 7.40339
51.8833 7.39342
51.9328 7.32522
51.9826 7.32785
52.0323 7.26834
52.0818 7.23427
52.1316 7.20644
52.1812 7.19984
52.231 7.1539
52.2806 7.15291
52.3304 7.12211
52.38 7.06987
52.4298 7.06743
52.4794 7.02554
52.5293 7.00171
52.5789 6.95133
52.6288 6.90799
52.6785 6.89343
52.7284 6.89478
52.7781 6.89875
52.828 6.82081
52.8777 6.81957
52.9276 6.74214
52.9774 6.74563
53.0273 6.70345
53.0771 6.71519
53.1271 6.67386
53.1769 6.58979
53.2269 6.58116
53.2767 6.57547
53.3267 6.55449
53.3765 6.506
53.4266 6.49096
53.4766 6.46234
53.5265 6.40901
53.5765 6.40956
53.6264 6.38472
53.6765 6.32417
53.7264 6.33083
53.7765 6.31571
53.8265 6.24367
53.8766 6.22627
53.9266 6.2018
53.9767 6.16646
54.0267 6.15759
54.0769 6.12759
54.1269 6.05822
54.1771 6.0471
54.2271 5.9814
54.2773 6.00993
54.3274 5.97152
54.3776 5.93799
54.4277 5.91151
54.478 5.82548
54.528 5.84686
54.5783 5.80634
54.6285 5.75308
54.6788 5.69969
54.7289 5.63431
54.7792 5.6842
54.8296 5.62364
54.8798 5.56619
54.9301 5.51755
54.9803 5.48886
55.0307 5.48294
55.0809 5.40225
55.1314 5.4063
55.1816 5.3345
55.232 5.24113
55.2823 5.19947
55.3328 5.18898
55.383 5.12421
55.4335 5.08985
55.4838 5.00615
55.5344 4.98525
55.5847 4.94193
55.6352 4.92356
55.6856 4.89207
55.7361 4.85368