File: XRD/Ni3Fe_FD0230.xy
TT I
1.27165 8.0792
1.31627 7.24613
1.36089 7.53677
1.40551 5.62969
1.45013 6.4554
1.49476 6.21531
1.53938 6.32034
1.584 5.98831
1.62863 5.48958
1.67325 5.59227
1.71787 5.60619
1.7625 5.57491
1.80712 5.1108
1.85174 5.03278
1.89636 4.91146
1.94099 5.06305
1.98562 4.58967
2.03025 4.80103
2.07487 4.73824
2.11949 4.64117
2.16411 4.35433
2.20874 4.41108
2.25338 4.3306
2.298 4.7927
2.34263 4.2217
2.38725 4.07652
2.43188 4.70985
2.4765 4.67145
2.52115 4.5887
2.56577 5.11221
2.6104 6.40239
2.65503 5.89612
2.69965 6.1085
2.7443 6.94231
2.78893 6.68749
2.83356 7.47772
2.87818 7.76633
2.92281 8.5178
2.96744 9.02858
3.01209 10.0949
3.05672 11.2983
3.10135 12.1472
3.14599 12.8329
3.19062 13.9898
3.23527 14.5911
3.2799 16.3247
3.32454 16.4219
3.36917 17.842
3.4138 19.0289
3.45844 19.9029
3.50309 21.0968
3.54773 21.3925
3.59237 22.5598
3.637 23.0358
3.68164 24.102
3.7263 25.524
3.77094 26.0765
3.81558 27.0403
3.86022 27.6076
3.90486 29.4341
3.9495 30.0027
3.99416 31.0798
4.0388 32.3613
4.08344 33.9534
4.12809 34.9266
4.17273 36.6983
4.21738 37.7339
4.26204 38.9903
4.30669 40.8
4.35133 43.0393
4.39598 44.5627
4.44063 46.4933
4.4853 48.6845
4.52995 52.4102
4.5746 54.001
4.61925 55.7055
4.6639 58.086
4.70855 61.2296
4.75322 64.5872
4.79788 68.1411
4.84253 71.6308
4.88719 76.7943
4.93184 81.4892
4.97652 88.1748
5.02118 96.286
5.06583 107.264
5.11049 124.07
5.15515 169.676
5.19981 884.092
5.24449 3964.06
5.28916 10744.3
5.33382 4171.07
5.37848 277.995
5.42315 153.639
5.46783 129.495
5.5125 118.055
5.55716 112.456
5.60183 106.481
5.6465 104.454
5.69117 102.686
5.73586 101.371
5.78053 101.619
5.8252 102.108
5.86988 104.553
5.91455 110.031
5.95924 133.282
6.00392 447.173
6.0486 1416.44
6.09328 3657.85
6.13795 3703.5
6.18263 368.923
6.22733 109.608
6.27201 88.7829
6.3167 80.7205
6.36138 75.8603
6.40606 73.1516
6.45075 71.1983
6.49545 68.5057
6.54014 66.9345
6.58483 65.1973
6.62952 63.9377
6.67421 62.4864
6.71892 61.4562
6.76361 60.6885
6.8083 60.0871
6.853 59.4771
6.89769 58.5763
6.94239 58.4834
6.98711 57.3174
7.03181 57.2226
7.07651 56.2332
7.12121 56.4088
7.16591 56.5311
7.21063 56.0502
7.25533 55.9481
7.30004 55.8258
7.34475 55.6352
7.38945 56.0585
7.43416 55.4328
7.47889 55.4405
7.5236 55.9384
7.56831 56.7168
7.61303 57.1533
7.65774 57.329
7.70247 57.8453
7.74719 58.0654
7.79191 58.7238
7.83663 59.3977
7.88135 60.3586
7.92607 61.239
7.97081 62.266
8.01553 63.6124
8.06026 65.0808
8.10498 66.5664
8.14971 68.8007
8.19446 70.4738
8.23919 73.0353
8.28392 76.3433
8.32865 78.9763
8.37339 84.4562
8.41812 90.3043
8.46288 110.517
8.50761 290.72
8.55235 583.96
8.59709 1063.62
8.64183 1974.73
8.68658 1208.41
8.73134 217.094
8.77609 110.439
8.82083 100.13
8.86558 95.9792
8.91033 93.3141
8.9551 90.618
8.99985 89.3594
9.04461 88.5252
9.08936 87.8616
9.13412 86.62
9.17888 86.4939
9.22365 86.3963
9.26841 87.0137
9.31318 88.2536
9.35794 88.2611
9.4027 88.7173
9.44749 88.7972
9.49226 89.5977
9.53703 90.5094
9.5818 93.0268
9.62657 94.4641
9.67134 95.628
9.71614 97.6737
9.76091 100.344
9.80569 103.38
9.85047 106.619
9.89525 112.513
9.94005 136.564
9.98484 303.671
10.0296 516.715
10.0744 802.53
10.1192 1447.65
10.164 1693.76
10.2088 555.401
10.2536 149.361
10.2984 117.517
10.3432 112.772
10.388 114.907
10.4328 159.271
10.4776 211.437
10.5224 281.465
10.5672 445.027
10.612 532.863
10.6568 251.72
10.7017 108.314
10.7465 92.1831
10.7913 87.9886
10.8361 85.6424
10.8809 82.9285
10.9257 80.5888
10.9706 79.51
11.0154 77.6097
11.0602 76.0168
11.105 74.7447
11.1499 73.1213
11.1947 72.2575
11.2395 71.1166
11.2844 70.6571
11.3292 69.8703
11.374 69.0635
11.4189 68.6381
11.4637 67.6301
11.5086 66.9832
11.5534 66.7953
11.5983 66.4685
11.6431 66.4035
11.688 65.7712
11.7328 65.4778
11.7777 65.4817
11.8225 65.1136
11.8674 65.1332
11.9122 66.0612
11.9571 66.2433
12.002 68.8532
12.0468 79.8064
12.0917 93.945
12.1366 108.81
12.1814 141.58
12.2263 193.705
12.2712 184.862
12.3161 104.33
12.3609 70.0257
12.4058 67.0962
12.4507 67.3173
12.4956 67.471
12.5405 67.2236
12.5853 67.8692
12.6302 68.5012
12.6751 68.7799
12.72 69.6492
12.7649 70.7707
12.8098 71.8176
12.8547 73.1398
12.8996 74.8213
12.9445 76.2814
12.9894 78.4975
13.0343 80.7299
13.0792 86.4172
13.1242 110.89
13.1691 147.353
13.214 174.068
13.2589 228.75
13.3038 322.32
13.3487 422.416
13.3937 312.573
13.4386 150.568
13.4835 133.681
13.5285 153.209
13.5734 174.429
13.6183 225.946
13.6633 309.825
13.7082 357.924
13.7531 229.958
13.7981 111.532
13.843 87.11
13.888 84.0846
13.9329 81.4054
13.9779 79.9148
14.0228 78.3384
14.0678 76.8776
14.1127 76.0004
14.1577 75.242
14.2027 74.7456
14.2476 73.6858
14.2926 73.3484
14.3376 73.0741
14.3825 72.8305
14.4275 72.1536
14.4725 72.2043
14.5175 72.6157
14.5624 72.4987
14.6074 72.7468
14.6524 73.2959
14.6974 74.5167
14.7424 81.1264
14.7874 95.3196
14.8324 106.401
14.8774 119.512
14.9224 145.245
14.9674 186.935
15.0124 221.898
15.0574 171.07
15.1024 101.507
15.1474 76.765
15.1924 74.0006
15.2374 72.358
15.2824 71.4538
15.3274 70.2655
15.3725 69.9092
15.4175 69.7391
15.4625 69.2193
15.5076 69.1661
15.5526 69.2804
15.5976 69.7826
15.6426 74.9878
15.6877 86.117
15.7327 94.3453
15.7778 103.157
15.8228 122.147
15.8679 152.855
15.9129 189.43
15.958 175.471
16.003 111.512
16.0481 72.9809
16.0931 65.965
16.1382 63.8435
16.1833 63.1924
16.2283 61.7019
16.2734 61.045
16.3185 60.1603
16.3636 59.6069
16.4086 58.7568
16.4537 58.3537
16.4988 58.0477
16.5439 57.846
16.589 57.5755
16.6341 57.537
16.6792 56.7196
16.7243 57.184
16.7694 57.0243
16.8145 56.9334
16.8596 57.4377
16.9047 57.5163
16.9498 57.7541
16.9949 57.9718
17.04 59.3487
17.0851 61.7066
17.1302 63.6376
17.1754 65.6884
17.2205 68.9376
17.2656 73.7599
17.3108 82.158
17.3559 86.1559
17.401 77.1897
17.4462 66.9341
17.4913 62.3513
17.5365 62.2063
17.5815 62.0883
17.6268 62.6562
17.6718 63.2216
17.7171 63.6196
17.7622 64.7622
17.8074 66.4526
17.8525 72.394
17.8977 78.0386
17.9428 82.594
17.9881 88.2636
18.0331 99.1745
18.0784 115.413
18.1237 138.876
18.1688 145.054
18.214 118.575
18.2591 93.7216
18.3044 90.1047
18.3495 97.1539
18.3948 106.657
18.4399 102.199
18.4852 83.6048
18.5303 70.365
18.5756 65.4852
18.6207 64.4104
18.666 63.3295
18.7112 62.4419
18.7565 61.9181
18.8016 61.415
18.8469 61.0025
18.892 60.5668
18.9374 60.1814
18.9825 59.8061
19.0278 59.6879
19.073 60.3663
19.1183 61.2164
19.1635 62.053
19.2088 62.9523
19.254 64.5955
19.2993 67.2978
19.3447 71.393
19.3898 76.2959
19.4352 75.9223
19.4804 68.3908
19.5257 60.4252
19.5709 56.9401
19.6163 56.5289
19.6615 56.4868
19.7068 56.0088
19.752 55.927
19.7974 56.9478
19.8426 58.1093
19.888 58.7867
19.9332 59.4245
19.9786 61.1617
20.0238 64.0979
20.0692 68.5753
20.1144 72.6308
20.1598 73.2473
20.205 67.9435
20.2504 64.2485
20.2957 64.4894
20.3411 67.0455
20.3863 67.4229
20.4318 62.4897
20.477 56.7424
20.5224 53.5791
20.5677 52.9186
20.6131 52.489
20.6586 52.0581
20.7038 51.7714
20.7493 51.4327
20.7945 51.2061
20.84 51.2412
20.8853 51.0561
20.9307 51.0508
20.976 51.4289
21.0215 51.192
21.0668 51.6158
21.1122 51.6392
21.1575 51.9432
21.203 52.4467
21.2483 53.3725
21.2938 54.1053
21.3391 52.8929
21.3846 51.5651
21.4299 50.9211
21.4754 50.7765
21.5207 51.0958
21.5662 51.9256
21.6116 52.6782
21.6571 53.5259
21.7024 54.2445
21.7479 55.4179
21.7933 57.5744
21.8388 60.2201
21.8843 63.4972
21.9297 66.6346
21.9752 66.9098
22.0206 63.1964
22.0661 58.7455
22.1115 57.5753
22.157 58.4522
22.2024 57.5559
22.248 54.5774
22.2933 52.5706
22.3389 51.3531
22.3843 51.095
22.4299 50.854
22.4753 50.8104
22.5208 50.8891
22.5662 50.7592
22.6118 51.2415
22.6572 51.8974
22.7028 52.4209
22.7483 53.0083
22.7939 53.0678
22.8393 54.2518
22.8849 55.4433
22.9303 57.2466
22.9759 59.1509
23.0214 59.9865
23.067 58.0654
23.1126 54.4274
23.1581 52.1118
23.2037 51.3772
23.2492 51.9144
23.2948 52.0775
23.3403 52.1122
23.3859 52.512
23.4314 53.2476
23.477 54.0661
23.5225 55.5127
23.5682 57.7465
23.6137 59.651
23.6593 58.8424
23.7048 55.0578
23.7505 51.3263
23.796 49.0322
23.8417 48.2904
23.8872 47.7209
23.9329 47.4315
23.9784 47.0934
24.0241 46.7295
24.0697 46.564
24.1154 46.18
24.1609 46.0475
24.2066 45.8067
24.2522 45.6729
24.2979 45.4231
24.3434 45.2857
24.3892 45.1367
24.4349 45.083
24.4805 44.7502
24.5262 44.9456
24.5718 45.0123
24.6175 44.8976
24.6631 44.7859
24.7089 44.3902
24.7545 44.3534
24.8002 44.4374
24.8458 44.3058
24.8916 44.4661
24.9372 44.3716
24.983 44.6375
25.0286 45.052
25.0744 45.3302
25.12 45.5149
25.1658 46.1917
25.2114 46.5628
25.2572 46.5713
25.3029 46.4958
25.3487 46.6205
25.3943 46.682
25.4402 45.9541
25.4858 44.714
25.5316 43.5943
25.5773 42.8934
25.6231 42.7743
25.669 42.4787
25.7147 42.5557
25.7605 42.3587
25.8062 42.5283
25.8521 42.5367
25.8977 42.437
25.9436 42.7051
25.9893 42.7652
26.0352 43.0283
26.0809 43.2626
26.1268 43.6615
26.1725 43.4981
26.2184 43.0298
26.2641 42.6134
26.31 42.1166
26.3557 42.2213
26.4017 42.1398
26.4474 42.4008
26.4933 42.5641
26.5391 42.8139
26.585 43.2243
26.6308 43.6109
26.6767 44.0348
26.7225 43.9677
26.7684 43.3003
26.8142 42.7555
26.8601 42.2582
26.9059 41.8517
26.9519 41.4543
26.9979 41.1091
27.0437 40.7039
27.0896 40.6682
27.1354 40.464
27.1814 40.4937
27.2272 40.411
27.2732 40.4259
27.3191 40.1349
27.3651 40.1731
27.4109 40.1299
27.4569 40.2719
27.5027 40.2794
27.5488 40.4103
27.5946 40.3564
27.6407 40.1426
27.6865 39.9991
27.7326 39.7119
27.7784 39.6712
27.8245 39.6721
27.8703 39.7095
27.9164 39.8899
27.9623 40.0723
28.0084 40.3343
28.0543 40.6863
28.1003 40.7245
28.1462 40.5248
28.1923 40.2623
28.2384 39.6343
28.2843 39.5103
28.3304 39.0316
28.3764 38.5717
28.4225 38.096
28.4684 37.9389
28.5145 37.646
28.5605 37.511
28.6066 37.2493
28.6526 37.2292
28.6987 37.1105
28.7447 36.9969
28.7908 36.9019
28.8368 37.0178
28.8829 36.956
28.9289 36.945
28.9751 36.7932
29.0211 36.4746
29.0673 36.29
29.1133 36.0891
29.1595 35.9798
29.2055 35.8325
29.2517 35.9261
29.2977 35.7159
29.3439 35.6501
29.3899 35.5304
29.4361 35.6994
29.4824 35.5291
29.5284 35.3137
29.5746 34.9489
29.6207 34.6922
29.6669 34.5825
29.713 34.4352
29.7593 34.2595
29.8053 34.4123
29.8516 34.3018
29.8977 34.3531
29.9439 34.1905
29.99 34.126
30.0363 33.9127
30.0824 34.0633
30.1287 33.9365
30.1748 33.9299
30.2211 33.7772
30.2673 33.8072
30.3136 33.7887
30.3597 33.8028
30.406 33.7358
30.4522 33.5242
30.4985 33.4881
30.5447 33.6405
30.591 33.4954
30.6372 33.5378
30.6835 33.6021
30.7297 33.6615
30.7761 33.6964
30.8224 33.4229
30.8686 33.4601
30.915 33.1398
30.9612 33.011
31.0076 32.8219
31.0538 32.614
31.1002 32.5998
31.1464 32.3342
31.1928 32.3618
31.2391 32.4487
31.2855 32.323
31.3317 32.1654
31.3781 32.2877
31.4244 32.3112
31.4708 32.085
31.5171 32.1761
31.5636 32.2304
31.6098 31.9752
31.6563 31.8006
31.7026 31.7116
31.7491 31.5943
31.7953 31.481
31.8418 31.4652
31.8881 31.4264
31.9346 31.526
31.9809 31.4072
32.0275 31.2293
32.074 31.1687
32.1203 30.9905
32.1668 30.8809
32.2132 30.74
32.2597 30.5833
32.306 30.551
32.3526 30.3657
32.399 30.2379
32.4455 30.0789
32.4919 29.9349
32.5385 29.9919
32.5848 29.7433
32.6314 29.8669
32.6778 29.863
32.7244 29.6896
32.7708 29.4297
32.8174 29.4562
32.8638 29.326
32.9104 29.3705
32.9569 29.335
33.0035 29.2366
33.0499 29.0818
33.0966 29.0415
33.143 29.0759
33.1897 29.0289
33.2361 28.8986
33.2828 28.8645
33.3293 28.6091
33.3759 28.6032
33.4226 28.4993
33.4691 28.3959
33.5158 28.2954
33.5623 28.1721
33.609 27.9975
33.6555 27.8833
33.7022 27.7794
33.7487 27.6958
33.7954 27.6833
33.842 27.5518
33.8887 27.5591
33.9353 27.5232
33.982 27.3163
34.0286 27.2503
34.0753 27.1906
34.1219 27.0318
34.1687 26.9643
34.2152 26.9578
34.262 26.8
34.3086 26.6952
34.3554 26.6223
34.402 26.6474
34.4488 26.5127
34.4954 26.4698
34.5422 26.2743
34.5889 26.1779
34.6357 26.1222
34.6825 26.1627
34.7292 26.0034
34.776 25.8943
34.8227 25.8458
34.8695 25.7457
34.9162 25.6753
34.9631 25.5471
35.0098 25.5748
35.0566 25.4864
35.1033 25.4247
35.1502 25.4323
35.1969 25.2838
35.2438 25.2581
35.2906 25.156
35.3375 25.0907
35.3842 25.0364
35.4311 25.0176
35.4779 25.0269
35.5248 24.8978
35.5716 24.8478
35.6185 24.7882
35.6653 24.6697
35.7123 24.6105
35.759 24.5576
35.806 24.4861
35.8528 24.2852
35.8998 24.2604
35.9468 24.1495
35.9936 24.1227
36.0406 24.0091
36.0874 24.0996
36.1345 23.9597
36.1813 23.8592
36.2283 23.7465
36.2752 23.7521
36.3222 23.6162
36.3691 23.6431
36.4161 23.458
36.463 23.4585
36.5101 23.4699
36.557 23.4126
36.6041 23.1958
36.651 23.1945
36.6981 23.1577
36.745 23.0456
36.7921 22.934
36.839 22.9094
36.8861 22.8175
36.9331 22.7479
36.9802 22.6998
37.0272 22.5434
37.0743 22.5371
37.1213 22.4944
37.1684 22.3469
37.2154 22.348
37.2626 22.2077
37.3098 22.1701
37.3568 22.1616
37.404 22.0432
37.451 21.8933
37.4982 21.8464
37.5452 21.8036
37.5924 21.7982
37.6395 21.7823
37.6867 21.6451
37.7337 21.6116
37.781 21.4874
37.8281 21.4972
37.8753 21.3567
37.9224 21.2424
37.9697 21.2259
38.0168 21.1278
38.064 21.0435
38.1111 21.0374
38.1584 20.8833
38.2056 20.901
38.2529 20.79
38.3 20.7015
38.3473 20.7293
38.3945 20.5781
38.4418 20.5132
38.489 20.5104
38.5363 20.3533
38.5837 20.3302
38.6309 20.2782
38.6782 20.2266
38.7254 20.1413
38.7728 20.0544
38.82 19.9887
38.8674 19.9389
38.9146 19.8393
38.9621 19.8193
39.0093 19.7861
39.0567 19.7391
39.104 19.5942
39.1514 19.5224
39.1987 19.5545
39.2461 19.4728
39.2934 19.3642
39.3409 19.2865
39.3882 19.2538
39.4356 19.1769
39.483 19.1199
39.5304 19.1127
39.5778 19.0651
39.6253 18.9456
39.6726 18.8774
39.7201 18.8726
39.7675 18.7955
39.815 18.7278
39.8624 18.6863
39.9099 18.6007
39.9575 18.5374
40.0049 18.4932
40.0525 18.4212
40.0999 18.3961
40.1474 18.3314
40.1949 18.2474
40.2425 18.1768
40.2899 18.1624
40.3375 18.1016
40.385 17.9769
40.4326 17.9316
40.48 17.8963
40.5277 17.8722
40.5752 17.8089
40.6228 17.793
40.6703 17.6754
40.718 17.6234
40.7655 17.5953
40.8132 17.5489
40.8607 17.4669
40.9084 17.4344
40.9559 17.3441
41.0036 17.3551
41.0512 17.2503
41.0989 17.1835
41.1465 17.1408
41.1942 17.0966
41.242 17.0207
41.2896 16.916
41.3373 16.8967
41.3849 16.8463
41.4327 16.7519
41.4803 16.7151
41.5281 16.7169
41.5758 16.6384
41.6236 16.5172
41.6712 16.4735
41.7191 16.435
41.7667 16.4163
41.8146 16.3593
41.8622 16.2847
41.9101 16.2376
41.9578 16.0831
42.0057 16.1158
42.0534 16.0954
42.1013 16.0299
42.149 15.9227
42.1969 15.9022
42.2446 15.8629
42.2925 15.8028
42.3403 15.7701
42.3882 15.6754
42.436 15.6764
42.4839 15.5562
42.5319 15.5632
42.5797 15.4659
42.6277 15.4379
42.6755 15.4057
42.7235 15.2778
42.7713 15.2965
42.8193 15.2248
42.8671 15.1588
42.9152 15.1113
42.963 15.0776
43.0111 15.0325
43.0589 14.9587
43.107 14.8369
43.1549 14.8275
43.2029 14.7642
43.2508 14.7694
43.2989 14.6781
43.3468 14.6431
43.3949 14.6584
43.4429 14.5232
43.491 14.4752
43.5389 14.4392
43.5871 14.3259
43.635 14.3261
43.6832 14.3036
43.7312 14.2345
43.7793 14.2024
43.8273 14.1611
43.8755 14.0932
43.9237 14.0566
43.9717 14.0357
44.0199 13.9677
44.068 13.9137
44.1162 13.8527
44.1642 13.7919
44.2125 13.8034
44.2606 13.7254
44.3088 13.6471
44.3569 13.6574
44.4052 13.5921
44.4533 13.5271
44.5016 13.4639
44.5497 13.4242
44.598 13.4046
44.6461 13.2965
44.6945 13.3028
44.7426 13.2181
44.791 13.1976
44.8391 13.1478
44.8875 13.0798
44.9357 12.998
44.984 12.9848
45.0322 12.9388
45.0806 12.8989
45.1288 12.8403
45.1773 12.784
45.2257 12.7856
45.2739 12.7694
45.3224 12.7109
45.3706 12.6586
45.4191 12.619
45.4673 12.5396
45.5158 12.4976
45.5641 12.4429
45.6126 12.4217
45.6609 12.3652
45.7094 12.3369
45.7577 12.288
45.8063 12.2351
45.8546 12.204
45.9031 12.1289
45.9515 12.1054
46.0001 12.0742
46.0484 12.0131
46.097 11.9749
46.1454 11.9387
46.194 11.905
46.2424 11.8485
46.291 11.7796
46.3395 11.7678
46.3881 11.6704
46.4365 11.6748
46.4852 11.7073
46.5337 11.6091
46.5823 11.5651
46.631 11.4803
46.6795 11.4648
46.7282 11.4551
46.7767 11.3922
46.8254 11.3249
46.8739 11.2654
46.9226 11.29
46.9712 11.1815
47.0199 11.1465
47.0685 11.1438
47.1173 11.0865
47.1658 11.011
47.2146 11.022
47.2632 10.973
47.312 10.8796
47.3606 10.8621
47.4095 10.8005
47.4581 10.8194
47.5069 10.7523
47.5556 10.6814
47.6044 10.7054
47.6531 10.599
47.702 10.6058
47.7507 10.5664
47.7996 10.5532
47.8483 10.4889
47.8972 10.4444
47.9461 10.4243
47.9948 10.3568
48.0438 10.3354
48.0925 10.3186
48.1415 10.2829
48.1902 10.239
48.2392 10.221
48.288 10.1725
48.337 10.0678
48.3858 10.0262
48.4348 10.042
48.4837 10.0136
48.5327 10.0048
48.5815 9.92599
48.6306 9.91771
48.6795 9.87013
48.7285 9.83068
48.7774 9.77547
48.8265 9.75071
48.8754 9.70999
48.9245 9.70558
48.9734 9.65279
49.0226 9.62297
49.0715 9.60211
49.1206 9.50352
49.1696 9.47717
49.2188 9.49891
49.2679 9.44127
49.3169 9.39315
49.3661 9.30472
49.4151 9.35002
49.4643 9.31714
49.5134 9.21519
49.5626 9.19288
49.6117 9.18182
49.6609 9.15285
49.71 9.08196
49.7592 9.08564
49.8083 9.02108
49.8576 8.99407
49.9067 8.95681
49.956 8.93815
50.0052 8.9089
50.0545 8.89628
50.1036 8.79238
50.153 8.81055
50.2022 8.78143
50.2515 8.74597
50.3007 8.66663
50.3501 8.65135
50.3993 8.64927
50.4487 8.59292
50.498 8.56341
50.5474 8.54197
50.5966 8.5111
50.6461 8.48172
50.6955 8.46287
50.7448 8.41005
50.7943 8.35439
50.8436 8.3249
50.8931 8.2962
50.9424 8.26153
50.9919 8.2338
51.0413 8.20966
51.0908 8.1444
51.1402 8.14177
51.1897 8.12077
51.2391 8.06497
51.2887 8.02944
51.3381 8.01162
51.3877 7.95584
51.4371 7.9368
51.4867 7.91019
51.5362 7.87265
51.5858 7.83112
51.6353 7.78092
51.6849 7.76654
51.7344 7.72525
51.7841 7.69676
51.8336 7.66442
51.8833 7.6379
51.9328 7.61542
51.9826 7.58855
52.0323 7.5517
52.0818 7.50448
52.1316 7.4701
52.1812 7.46305
52.231 7.43443
52.2806 7.39431
52.3304 7.40323
52.38 7.33961
52.4298 7.25075
52.4794 7.25804
52.5293 7.23975
52.5789 7.17225
52.6288 7.23116
52.6785 7.13363
52.7284 7.12904
52.7781 7.13487
52.828 7.05626
52.8777 7.04831
52.9276 7.00261
52.9774 7.02325
53.0273 6.97458
53.0771 6.9271
53.1271 6.90717
53.1769 6.86199
53.2269 6.87123
53.2767 6.79366
53.3267 6.79923
53.3765 6.74926
53.4266 6.74692
53.4766 6.69979
53.5265 6.65037
53.5765 6.63021
53.6264 6.58634
53.6765 6.56165
53.7264 6.52121
53.7765 6.50643
53.8265 6.47291
53.8766 6.462
53.9266 6.42509
53.9767 6.39448
54.0267 6.37981
54.0769 6.35365
54.1269 6.29313
54.1771 6.30561
54.2271 6.23402
54.2773 6.21132
54.3274 6.17416
54.3776 6.14381
54.4277 6.10291
54.478 6.06184
54.528 6.04256
54.5783 5.97376
54.6285 5.91511
54.6788 5.88883
54.7289 5.88893
54.7792 5.83057
54.8296 5.75811
54.8798 5.69127
54.9301 5.67726
54.9803 5.61517
55.0307 5.64613
55.0809 5.59265
55.1314 5.53867
55.1816 5.44918
55.232 5.426
55.2823 5.39634
55.3328 5.32197
55.383 5.24372
55.4335 5.20811
55.4838 5.17867
55.5344 5.11709
55.5847 5.04907
55.6352 5.03856
55.6856 4.99864
55.7361 4.96872