File: XRD/Ni3Fe_FD0937.xy
TT I
1.27165 7.15601
1.31627 6.34036
1.36089 6.30312
1.40551 6.24473
1.45013 6.11232
1.49476 5.942
1.53938 5.42221
1.584 4.67221
1.62863 4.84673
1.67325 4.75354
1.71787 4.64138
1.7625 4.98759
1.80712 4.69995
1.85174 4.55439
1.89636 5.23794
1.94099 5.18643
1.98562 4.2954
2.03025 4.84261
2.07487 4.7176
2.11949 4.42033
2.16411 4.10068
2.20874 8.17577
2.25338 10.1873
2.298 5.48863
2.34263 5.59353
2.38725 6.09242
2.43188 6.56191
2.4765 7.15351
2.52115 7.24088
2.56577 8.62546
2.6104 9.03992
2.65503 8.02343
2.69965 8.98918
2.7443 8.65132
2.78893 8.25579
2.83356 9.03858
2.87818 9.21915
2.92281 9.27984
2.96744 9.67229
3.01209 10.3399
3.05672 11.2456
3.10135 12.3477
3.14599 13.0461
3.19062 14.3476
3.23527 15.166
3.2799 15.4975
3.32454 16.6594
3.36917 17.4034
3.4138 18.8942
3.45844 19.7062
3.50309 20.7118
3.54773 21.115
3.59237 23.0097
3.637 43.4384
3.68164 33.7642
3.7263 25.0462
3.77094 25.707
3.81558 26.4255
3.86022 27.3885
3.90486 28.4676
3.9495 29.3824
3.99416 30.3479
4.0388 31.2007
4.08344 32.1969
4.12809 34.0054
4.17273 35.4746
4.21738 38.5574
4.26204 102.685
4.30669 89.2096
4.35133 43.3701
4.39598 42.63
4.44063 47.1525
4.4853 52.2255
4.52995 59.1442
4.5746 59.7554
4.61925 53.3379
4.6639 54.3512
4.70855 57.5286
4.75322 61.3948
4.79788 69.3052
4.84253 68.3003
4.88719 76.227
4.93184 76.1983
4.97652 79.8942
5.02118 86.0604
5.06583 93.5085
5.11049 104.783
5.15515 153.573
5.19981 372.38
5.24449 2774.56
5.28916 13549.9
5.33382 2668.72
5.37848 196.711
5.42315 130.117
5.46783 120.756
5.5125 113.662
5.55716 101.131
5.60183 96.8006
5.6465 95.3757
5.69117 93.2704
5.73586 92.2159
5.78053 99.5067
5.8252 100.201
5.86988 103.226
5.91455 94.4071
5.95924 102.72
6.00392 229.323
6.0486 909.744
6.09328 4692.49
6.13795 2976.38
6.18263 191.368
6.22733 87.6774
6.27201 78.6207
6.3167 80.9589
6.36138 72.5216
6.40606 69.7676
6.45075 70.0977
6.49545 64.7572
6.54014 62.4643
6.58483 61.9879
6.62952 62.5501
6.67421 69.6721
6.71892 82.4036
6.76361 60.949
6.8083 59.4172
6.853 60.3706
6.89769 56.5336
6.94239 55.366
6.98711 55.0245
7.03181 55.4557
7.07651 54.1185
7.12121 54.0213
7.16591 56.2974
7.21063 55.1541
7.25533 58.8239
7.30004 88.9293
7.34475 64.075
7.38945 53.7044
7.43416 52.673
7.47889 53.1232
7.5236 53.5431
7.56831 54.3474
7.61303 54.3308
7.65774 55.4976
7.70247 56.3217
7.74719 55.7855
7.79191 55.9336
7.83663 55.9481
7.88135 56.6532
7.92607 57.6208
7.97081 58.6774
8.01553 60.2547
8.06026 62.202
8.10498 63.5175
8.14971 70.544
8.19446 70.2799
8.23919 68.5703
8.28392 70.8359
8.32865 72.9223
8.37339 77.5407
8.41812 82.3232
8.46288 99.2633
8.50761 170.679
8.55235 366.435
8.59709 1208.03
8.64183 2244.02
8.68658 830.066
8.73134 139.718
8.77609 95.5638
8.82083 91.3537
8.86558 92.4351
8.91033 92.4644
8.9551 88.9453
8.99985 84.2159
9.04461 83.1731
9.08936 83.7007
9.13412 82.0653
9.17888 80.9313
9.22365 81.049
9.26841 81.4289
9.31318 84.5475
9.35794 87.2542
9.4027 86.2339
9.44749 84.4802
9.49226 83.2375
9.53703 84.8949
9.5818 89.2348
9.62657 94.9149
9.67134 94.6367
9.71614 91.5523
9.76091 94.1008
9.80569 99.6022
9.85047 100.679
9.89525 109.286
9.94005 123.806
9.98484 184.536
10.0296 330.373
10.0744 834.295
10.1192 1847.33
10.164 1461.43
10.2088 323.295
10.2536 118.372
10.2984 107.339
10.3432 106.129
10.388 103.414
10.4328 119.951
10.4776 157.904
10.5224 291.291
10.5672 550.838
10.612 480.933
10.6568 177.454
10.7017 91.7823
10.7465 84.7801
10.7913 81.869
10.8361 79.877
10.8809 77.5658
10.9257 76.8758
10.9706 77.2026
11.0154 74.7208
11.0602 71.9179
11.105 70.4998
11.1499 70.6466
11.1947 72.0596
11.2395 68.5561
11.2844 67.2135
11.3292 65.7498
11.374 65.1424
11.4189 64.5409
11.4637 63.8657
11.5086 63.5463
11.5534 64.1302
11.5983 63.3886
11.6431 62.4648
11.688 61.8707
11.7328 61.8514
11.7777 61.8005
11.8225 61.8915
11.8674 61.4492
11.9122 61.7534
11.9571 62.2341
12.002 63.4073
12.0468 67.715
12.0917 77.2683
12.1366 102.312
12.1814 159.541
12.2263 208.899
12.2712 153.868
12.3161 85.6191
12.3609 65.314
12.4058 62.9985
12.4507 63.3622
12.4956 63.8841
12.5405 64.1515
12.5853 64.4341
12.6302 66.2636
12.6751 68.7688
12.72 66.7627
12.7649 66.8966
12.8098 67.4622
12.8547 69.0614
12.8996 70.7741
12.9445 72.0637
12.9894 73.6969
13.0343 75.0394
13.0792 79.5217
13.1242 90.9341
13.1691 109.029
13.214 145.924
13.2589 246.834
13.3038 393.152
13.3487 417.671
13.3937 225.831
13.4386 113.8
13.4835 104.1
13.5285 118.23
13.5734 158.106
13.6183 260.049
13.6633 372.786
13.7082 321.798
13.7531 165.498
13.7981 91.5066
13.843 80.2751
13.888 78.3423
13.9329 75.9522
13.9779 74.5367
14.0228 73.1341
14.0678 71.7051
14.1127 71.1564
14.1577 70.6825
14.2027 70.0479
14.2476 69.3439
14.2926 68.6922
14.3376 69.0651
14.3825 68.5753
14.4275 67.9912
14.4725 67.8421
14.5175 68.0488
14.5624 67.7774
14.6074 68.5064
14.6524 69.3165
14.6974 69.595
14.7424 72.7508
14.7874 78.2925
14.8324 87.387
14.8774 110.783
14.9224 160.181
14.9674 219.677
15.0124 211.803
15.0574 135.59
15.1024 83.6025
15.1474 70.6382
15.1924 68.8948
15.2374 68.3637
15.2824 67.3266
15.3274 66.2544
15.3725 65.7781
15.4175 65.3006
15.4625 64.702
15.5076 64.6527
15.5526 64.7915
15.5976 64.6681
15.6426 67.0103
15.6877 71.4689
15.7327 78.633
15.7778 94.1703
15.8228 128.826
15.8679 177.933
15.9129 195.19
15.958 144.01
16.003 86.6327
16.0481 64.7896
16.0931 61.8198
16.1382 60.1564
16.1833 58.9005
16.2283 57.7862
16.2734 57.0942
16.3185 56.9174
16.3636 56.5732
16.4086 55.5284
16.4537 55.2134
16.4988 54.4009
16.5439 54.4529
16.589 53.9723
16.6341 53.9817
16.6792 53.5239
16.7243 53.7841
16.7694 53.8816
16.8145 53.5806
16.8596 53.9978
16.9047 54.5535
16.9498 54.6058
16.9949 54.4401
17.04 55.05
17.0851 56.3201
17.1302 57.5859
17.1754 60.5061
17.2205 66.207
17.2656 74.6858
17.3108 83.2264
17.3559 79.923
17.401 67.5831
17.4462 60.3708
17.4913 58.24
17.5365 58.0672
17.5815 58.4228
17.6268 58.6675
17.6718 59.2926
17.7171 59.4875
17.7622 60.3608
17.8074 61.6142
17.8525 64.1778
17.8977 67.2833
17.9428 72.4076
17.9881 82.038
18.0331 101.186
18.0784 126.316
18.1237 140.597
18.1688 125.078
18.214 96.6469
18.2591 83.4968
18.3044 90.7762
18.3495 101.506
18.3948 105.31
18.4399 90.6651
18.4852 72.624
18.5303 63.66
18.5756 61.0602
18.6207 60.0871
18.666 59.1985
18.7112 58.4043
18.7565 57.9227
18.8016 57.7152
18.8469 57.0271
18.892 57.0178
18.9374 56.1493
18.9825 55.9223
19.0278 55.7814
19.073 55.9275
19.1183 56.1887
19.1635 56.7314
19.2088 58.4239
19.254 61.1162
19.2993 66.3496
19.3447 72.4218
19.3898 74.7578
19.4352 69.0333
19.4804 60.227
19.5257 54.9595
19.5709 53.2108
19.6163 53.1291
19.6615 52.6474
19.7068 52.4983
19.752 52.2732
19.7974 52.8755
19.8426 53.3425
19.888 53.9278
19.9332 55.214
19.9786 58.1243
20.0238 62.6649
20.0692 67.4165
20.1144 69.5359
20.1598 66.3262
20.205 61.6826
20.2504 61.4715
20.2957 64.1406
20.3411 65.2513
20.3863 62.2727
20.4318 55.9657
20.477 51.8083
20.5224 50.1936
20.5677 49.6161
20.6131 49.109
20.6586 48.7516
20.7038 48.6675
20.7493 48.1972
20.7945 48.1626
20.84 47.8859
20.8853 47.9218
20.9307 47.7549
20.976 47.7857
21.0215 47.6341
21.0668 48.2239
21.1122 48.7628
21.1575 49.4903
21.203 50.0376
21.2483 50.9003
21.2938 50.4427
21.3391 48.8829
21.3846 48.0899
21.4299 47.6479
21.4754 47.5738
21.5207 47.7667
21.5662 48.1246
21.6116 48.6828
21.6571 49.1207
21.7024 50.0743
21.7479 51.948
21.7933 54.9953
21.8388 58.9332
21.8843 63.2229
21.9297 64.0344
21.9752 61.221
22.0206 57.3418
22.0661 55.4634
22.1115 55.3787
22.157 55.1067
22.2024 52.7589
22.248 49.8907
22.2933 48.6009
22.3389 48.153
22.3843 48.184
22.4299 47.7593
22.4753 47.87
22.5208 47.7957
22.5662 47.7173
22.6118 47.8532
22.6572 48.1584
22.7028 48.6087
22.7483 48.8244
22.7939 49.6651
22.8393 51.2513
22.8849 53.761
22.9303 55.9852
22.9759 57.1402
23.0214 56.0536
23.067 52.7719
23.1126 49.6665
23.1581 48.1577
23.2037 48.0441
23.2492 47.8807
23.2948 47.9686
23.3403 48.2119
23.3859 48.9192
23.4314 49.9862
23.477 51.9333
23.5225 54.6974
23.5682 56.976
23.6137 57.1706
23.6593 54.0382
23.7048 49.8686
23.7505 47.0548
23.796 45.5016
23.8417 45.2161
23.8872 44.7861
23.9329 44.5893
23.9784 44.1204
24.0241 43.8574
24.0697 43.6966
24.1154 43.4484
24.1609 43.1914
24.2066 43.0317
24.2522 42.7985
24.2979 42.6002
24.3434 42.5161
24.3892 42.3368
24.4349 42.3694
24.4805 42.2678
24.5262 42.4336
24.5718 42.2291
24.6175 42.1269
24.6631 42.0242
24.7089 41.7004
24.7545 41.6356
24.8002 41.4407
24.8458 41.5198
24.8916 41.3569
24.9372 41.5637
24.983 41.8989
25.0286 42.1199
25.0744 42.7576
25.12 43.2118
25.1658 43.8132
25.2114 43.8168
25.2572 44.0084
25.3029 44.2011
25.3487 44.3587
25.3943 43.7031
25.4402 42.4919
25.4858 41.5245
25.5316 40.5443
25.5773 40.1
25.6231 40.1742
25.669 39.9513
25.7147 39.8234
25.7605 39.7469
25.8062 39.7173
25.8521 39.8767
25.8977 39.9291
25.9436 40.1501
25.9893 40.3474
26.0352 40.9216
26.0809 41.1248
26.1268 41.2142
26.1725 40.6843
26.2184 40.0531
26.2641 39.6285
26.31 39.4908
26.3557 39.4191
26.4017 39.3933
26.4474 39.643
26.4933 40.097
26.5391 40.6626
26.585 41.1782
26.6308 41.5998
26.6767 41.5984
26.7225 41.2991
26.7684 40.5522
26.8142 40.155
26.8601 39.7477
26.9059 39.2604
26.9519 38.7403
26.9979 38.4202
27.0437 38.1728
27.0896 38.076
27.1354 38.0836
27.1814 38.058
27.2272 37.8209
27.2732 37.9399
27.3191 37.6278
27.3651 37.9403
27.4109 37.7968
27.4569 37.9879
27.5027 37.9549
27.5488 37.9617
27.5946 37.7386
27.6407 37.5396
27.6865 37.2894
27.7326 37.1684
27.7784 37.2403
27.8245 37.2879
27.8703 37.3273
27.9164 37.6176
27.9623 37.8842
28.0084 38.2178
28.0543 38.562
28.1003 38.3081
28.1462 38.0647
28.1923 37.6959
28.2384 37.3064
28.2843 36.9111
28.3304 36.475
28.3764 35.9358
28.4225 35.6597
28.4684 35.6038
28.5145 35.4147
28.5605 35.1884
28.6066 35.1151
28.6526 35.0135
28.6987 34.9982
28.7447 34.8909
28.7908 34.8873
28.8368 34.8029
28.8829 34.7765
28.9289 34.742
28.9751 34.5557
29.0211 34.1762
29.0673 34.0332
29.1133 33.9529
29.1595 33.7441
29.2055 33.6951
29.2517 33.8309
29.2977 33.7288
29.3439 33.7891
29.3899 33.7978
29.4361 33.5451
29.4824 33.3488
29.5284 33.1455
29.5746 32.7736
29.6207 32.5141
29.6669 32.4025
29.713 32.4642
29.7593 32.2314
29.8053 32.3544
29.8516 32.2755
29.8977 32.2781
29.9439 32.0708
29.99 32.1445
30.0363 31.8903
30.0824 31.9511
30.1287 31.889
30.1748 31.9149
30.2211 31.9559
30.2673 31.7127
30.3136 31.7682
30.3597 31.7808
30.406 31.596
30.4522 31.5381
30.4985 31.4496
30.5447 31.5774
30.591 31.6753
30.6372 31.6894
30.6835 31.6286
30.7297 31.7464
30.7761 31.6023
30.8224 31.3481
30.8686 31.2558
30.915 30.9642
30.9612 30.9416
31.0076 30.7878
31.0538 30.5825
31.1002 30.5421
31.1464 30.5739
31.1928 30.3189
31.2391 30.4154
31.2855 30.4045
31.3317 30.3541
31.3781 30.3906
31.4244 30.3456
31.4708 30.4031
31.5171 30.3056
31.5636 30.1703
31.6098 29.9243
31.6563 29.8651
31.7026 29.7683
31.7491 29.654
31.7953 29.6524
31.8418 29.731
31.8881 29.7027
31.9346 29.6653
31.9809 29.5117
32.0275 29.3929
32.074 29.2052
32.1203 29.1092
32.1668 28.9507
32.2132 28.8768
32.2597 28.681
32.306 28.7449
32.3526 28.5404
32.399 28.3911
32.4455 28.3559
32.4919 28.1721
32.5385 28.1078
32.5848 28.0565
32.6314 28.0392
32.6778 27.9445
32.7244 27.84
32.7708 27.7377
32.8174 27.5723
32.8638 27.5246
32.9104 27.6469
32.9569 27.5231
33.0035 27.255
33.0499 27.3856
33.0966 27.2706
33.143 27.3459
33.1897 27.2563
33.2361 27.2145
33.2828 27.1435
33.3293 26.9686
33.3759 26.8651
33.4226 26.7288
33.4691 26.5582
33.5158 26.5158
33.5623 26.5227
33.609 26.2761
33.6555 26.3007
33.7022 26.0755
33.7487 26.0857
33.7954 25.9859
33.842 25.9456
33.8887 25.8891
33.9353 25.7776
33.982 25.7052
34.0286 25.6268
34.0753 25.5635
34.1219 25.4627
34.1687 25.4176
34.2152 25.3883
34.262 25.2166
34.3086 25.1721
34.3554 25.0984
34.402 24.9579
34.4488 24.7585
34.4954 24.9204
34.5422 24.7129
34.5889 24.6412
34.6357 24.5481
34.6825 24.4225
34.7292 24.3332
34.776 24.2891
34.8227 24.2816
34.8695 24.1752
34.9162 24.0825
34.9631 24.0878
35.0098 24.1234
35.0566 23.8875
35.1033 23.8785
35.1502 23.8128
35.1969 23.7622
35.2438 23.7354
35.2906 23.6235
35.3375 23.6313
35.3842 23.6285
35.4311 23.5662
35.4779 23.5061
35.5248 23.5282
35.5716 23.3231
35.6185 23.3098
35.6653 23.252
35.7123 23.0685
35.759 23.0272
35.806 22.8298
35.8528 22.8372
35.8998 22.816
35.9468 22.7783
35.9936 22.7123
36.0406 22.6356
36.0874 22.5288
36.1345 22.488
36.1813 22.4372
36.2283 22.3231
36.2752 22.2431
36.3222 22.2894
36.3691 22.2247
36.4161 22.0083
36.463 22.0299
36.5101 22.0507
36.557 21.9834
36.6041 21.8174
36.651 21.8595
36.6981 21.7787
36.745 21.6952
36.7921 21.6199
36.839 21.4663
36.8861 21.4473
36.9331 21.3949
36.9802 21.3278
37.0272 21.2203
37.0743 21.1044
37.1213 21.0752
37.1684 21.0416
37.2154 20.899
37.2626 20.9291
37.3098 20.8392
37.3568 20.7375
37.404 20.7522
37.451 20.6087
37.4982 20.5755
37.5452 20.4019
37.5924 20.414
37.6395 20.4477
37.6867 20.391
37.7337 20.261
37.781 20.2063
37.8281 20.1424
37.8753 20.056
37.9224 19.9117
37.9697 19.8766
38.0168 19.917
38.064 19.767
38.1111 19.7325
38.1584 19.6159
38.2056 19.5891
38.2529 19.5846
38.3 19.5329
38.3473 19.4432
38.3945 19.3055
38.4418 19.2506
38.489 19.2353
38.5363 19.1832
38.5837 19.0872
38.6309 18.9892
38.6782 18.9881
38.7254 18.9044
38.7728 18.9478
38.82 18.7939
38.8674 18.7858
38.9146 18.7713
38.9621 18.6096
39.0093 18.6054
39.0567 18.5022
39.104 18.4742
39.1514 18.3343
39.1987 18.3498
39.2461 18.3074
39.2934 18.2505
39.3409 18.15
39.3882 18.0918
39.4356 18.0776
39.483 17.9867
39.5304 17.8866
39.5778 17.9142
39.6253 17.8032
39.6726 17.783
39.7201 17.7029
39.7675 17.6351
39.815 17.6312
39.8624 17.6048
39.9099 17.5362
39.9575 17.3862
40.0049 17.3819
40.0525 17.3254
40.0999 17.3028
40.1474 17.2623
40.1949 17.0933
40.2425 17.1326
40.2899 17.0479
40.3375 17.0387
40.385 16.966
40.4326 16.9045
40.48 16.866
40.5277 16.8106
40.5752 16.6659
40.6228 16.666
40.6703 16.6722
40.718 16.5891
40.7655 16.5278
40.8132 16.4576
40.8607 16.4507
40.9084 16.3744
40.9559 16.3251
41.0036 16.2526
41.0512 16.275
41.0989 16.1366
41.1465 16.0932
41.1942 16.0889
41.242 15.9395
41.2896 15.9197
41.3373 15.8226
41.3849 15.8632
41.4327 15.7789
41.4803 15.6147
41.5281 15.6368
41.5758 15.6471
41.6236 15.5661
41.6712 15.4602
41.7191 15.5182
41.7667 15.4268
41.8146 15.3867
41.8622 15.2953
41.9101 15.26
41.9578 15.1878
42.0057 15.1994
42.0534 15.1309
42.1013 15.0621
42.149 15.006
42.1969 14.9485
42.2446 14.9063
42.2925 14.8909
42.3403 14.7805
42.3882 14.7871
42.436 14.7056
42.4839 14.6174
42.5319 14.6098
42.5797 14.5325
42.6277 14.5096
42.6755 14.4803
42.7235 14.372
42.7713 14.3544
42.8193 14.3142
42.8671 14.2906
42.9152 14.1861
42.963 14.1694
43.0111 14.1286
43.0589 14.0415
43.107 14.0032
43.1549 13.9955
43.2029 13.892
43.2508 13.897
43.2989 13.799
43.3468 13.7626
43.3949 13.6981
43.4429 13.6747
43.491 13.6332
43.5389 13.5824
43.5871 13.5548
43.635 13.4673
43.6832 13.4541
43.7312 13.3645
43.7793 13.3302
43.8273 13.3239
43.8755 13.2626
43.9237 13.2497
43.9717 13.207
44.0199 13.1048
44.068 13.081
44.1162 13.008
44.1642 12.9756
44.2125 12.9286
44.2606 12.9289
44.3088 12.8629
44.3569 12.7872
44.4052 12.8253
44.4533 12.6889
44.5016 12.7266
44.5497 12.6561
44.598 12.5818
44.6461 12.5598
44.6945 12.527
44.7426 12.4513
44.791 12.4277
44.8391 12.371
44.8875 12.345
44.9357 12.2835
44.984 12.2473
45.0322 12.1955
45.0806 12.1087
45.1288 12.0941
45.1773 12.0349
45.2257 11.9957
45.2739 11.9946
45.3224 11.9783
45.3706 11.9092
45.4191 11.8343
45.4673 11.8339
45.5158 11.757
45.5641 11.7228
45.6126 11.702
45.6609 11.6302
45.7094 11.6024
45.7577 11.5658
45.8063 11.5033
45.8546 11.4721
45.9031 11.4216
45.9515 11.4402
46.0001 11.3428
46.0484 11.335
46.097 11.2738
46.1454 11.2462
46.194 11.187
46.2424 11.1641
46.291 11.1167
46.3395 11.1013
46.3881 11.0208
46.4365 11.0204
46.4852 10.9115
46.5337 10.9389
46.5823 10.871
46.631 10.8159
46.6795 10.8367
46.7282 10.77
46.7767 10.7345
46.8254 10.6507
46.8739 10.6325
46.9226 10.6222
46.9712 10.5805
47.0199 10.5773
47.0685 10.4761
47.1173 10.4359
47.1658 10.4166
47.2146 10.3895
47.2632 10.3123
47.312 10.3039
47.3606 10.2422
47.4095 10.2152
47.4581 10.1911
47.5069 10.1412
47.5556 10.1079
47.6044 10.0333
47.6531 10.0283
47.702 9.9942
47.7507 9.95573
47.7996 9.89899
47.8483 9.87421
47.8972 9.85745
47.9461 9.81331
47.9948 9.76324
48.0438 9.73815
48.0925 9.71154
48.1415 9.70712
48.1902 9.61586
48.2392 9.5886
48.288 9.56633
48.337 9.53963
48.3858 9.48478
48.4348 9.45845
48.4837 9.44718
48.5327 9.41107
48.5815 9.35123
48.6306 9.33109
48.6795 9.27321
48.7285 9.25916
48.7774 9.23422
48.8265 9.19443
48.8754 9.15175
48.9245 9.1283
48.9734 9.08229
49.0226 9.07366
49.0715 9.00677
49.1206 8.95166
49.1696 8.96523
49.2188 8.91155
49.2679 8.87966
49.3169 8.84767
49.3661 8.79017
49.4151 8.77742
49.4643 8.75325
49.5134 8.73759
49.5626 8.66756
49.6117 8.62391
49.6609 8.61341
49.71 8.54741
49.7592 8.52002
49.8083 8.5027
49.8576 8.51085
49.9067 8.44862
49.956 8.41283
50.0052 8.38116
50.0545 8.36531
50.1036 8.30942
50.153 8.28644
50.2022 8.25348
50.2515 8.20958
50.3007 8.17334
50.3501 8.13629
50.3993 8.12311
50.4487 8.07582
50.498 8.06434
50.5474 8.0044
50.5966 8.00133
50.6461 7.9692
50.6955 7.95277
50.7448 7.9084
50.7943 7.87362
50.8436 7.83157
50.8931 7.82216
50.9424 7.79153
50.9919 7.78155
51.0413 7.73109
51.0908 7.70303
51.1402 7.65781
51.1897 7.65257
51.2391 7.57909
51.2887 7.55148
51.3381 7.4994
51.3877 7.53358
51.4371 7.46144
51.4867 7.42089
51.5362 7.43266
51.5858 7.37344
51.6353 7.29653
51.6849 7.34894
51.7344 7.31044
51.7841 7.26113
51.8336 7.2365
51.8833 7.19407
51.9328 7.15456
51.9826 7.12136
52.0323 7.09429
52.0818 7.09759
52.1316 7.03191
52.1812 7.03881
52.231 6.9982
52.2806 6.95992
52.3304 6.95768
52.38 6.90019
52.4298 6.87646
52.4794 6.84412
52.5293 6.85562
52.5789 6.81208
52.6288 6.75938
52.6785 6.7289
52.7284 6.70003
52.7781 6.7051
52.828 6.68409
52.8777 6.61044
52.9276 6.59986
52.9774 6.59315
53.0273 6.56178
53.0771 6.52251
53.1271 6.4773
53.1769 6.48988
53.2269 6.44891
53.2767 6.39648
53.3267 6.34988
53.3765 6.35205
53.4266 6.37782
53.4766 6.29433
53.5265 6.30687
53.5765 6.2387
53.6264 6.22908
53.6765 6.21094
53.7264 6.14412
53.7765 6.11685
53.8265 6.10865
53.8766 6.10992
53.9266 6.01291
53.9767 6.04856
54.0267 6.05411
54.0769 5.9612
54.1269 5.95645
54.1771 5.93136
54.2271 5.90559
54.2773 5.87672
54.3274 5.84675
54.3776 5.79463
54.4277 5.78842
54.478 5.79519
54.528 5.70869
54.5783 5.67528
54.6285 5.6187
54.6788 5.55158
54.7289 5.53544
54.7792 5.50982
54.8296 5.46015
54.8798 5.39035
54.9301 5.39785
54.9803 5.35917
55.0307 5.31352
55.0809 5.28881
55.1314 5.23485
55.1816 5.21091
55.232 5.17187
55.2823 5.1225
55.3328 5.02969
55.383 4.98465
55.4335 4.95757
55.4838 4.95201
55.5344 4.87636
55.5847 4.85809
55.6352 4.80901
55.6856 4.77921
55.7361 4.74371