File: XRD/Ni3Fe_FD0028.xy
TT I
1.27165 33.1583
1.31627 32.6068
1.36089 31.9806
1.40551 29.341
1.45013 28.8756
1.49476 27.4014
1.53938 26.855
1.584 25.9423
1.62863 25.358
1.67325 24.8747
1.71787 24.1752
1.7625 24.0142
1.80712 23.2023
1.85174 22.8778
1.89636 22.494
1.94099 24.0212
1.98562 23.2423
2.03025 22.8886
2.07487 23.4578
2.11949 24.8253
2.16411 24.9459
2.20874 25.8527
2.25338 26.5934
2.298 25.8629
2.34263 25.0533
2.38725 24.6261
2.43188 24.5878
2.4765 24.3857
2.52115 23.7168
2.56577 24.9011
2.6104 25.9339
2.65503 26.9057
2.69965 27.887
2.7443 29.4852
2.78893 31.9416
2.83356 34.2054
2.87818 37.9243
2.92281 42.2315
2.96744 47.5567
3.01209 55.4233
3.05672 64.2942
3.10135 74.8866
3.14599 80.657
3.19062 80.7146
3.23527 74.3047
3.2799 63.6779
3.32454 52.8272
3.36917 45.0727
3.4138 40.3904
3.45844 37.3909
3.50309 36.0156
3.54773 36.1947
3.59237 38.4205
3.637 41.1755
3.68164 42.6911
3.7263 41.6756
3.77094 38.7817
3.81558 36.5884
3.86022 35.4096
3.90486 35.477
3.9495 35.9874
3.99416 36.7212
4.0388 39.7942
4.08344 43.5315
4.12809 48.83
4.17273 57.7124
4.21738 70.3263
4.26204 84.1103
4.30669 92.3077
4.35133 87.0882
4.39598 74.2622
4.44063 65.7964
4.4853 60.6135
4.52995 55.0717
4.5746 49.7326
4.61925 47.1838
4.6639 45.7651
4.70855 45.5695
4.75322 47.311
4.79788 49.1974
4.84253 52.7825
4.88719 56.5052
4.93184 62.4907
4.97652 71.2098
5.02118 87.5969
5.06583 112.337
5.11049 138.363
5.15515 185.876
5.19981 285.695
5.24449 584.109
5.28916 1224.36
5.33382 3309.67
5.37848 3623.25
5.42315 1085.98
5.46783 354.484
5.5125 208.778
5.55716 154.695
5.60183 125.442
5.6465 112.601
5.69117 106.574
5.73586 100.859
5.78053 96.2363
5.8252 97.1439
5.86988 101.87
5.91455 112.504
5.95924 131.486
6.00392 175.569
6.0486 279.681
6.09328 475.175
6.13795 851.886
6.18263 1298.81
6.22733 723.89
6.27201 296.177
6.3167 160.466
6.36138 107.477
6.40606 83.6027
6.45075 71.6615
6.49545 63.4915
6.54014 58.704
6.58483 56.5641
6.62952 56.2853
6.67421 56.9901
6.71892 58.7366
6.76361 58.2591
6.8083 55.5722
6.853 52.0612
6.89769 48.8079
6.94239 46.4627
6.98711 44.3006
7.03181 43.795
7.07651 43.9565
7.12121 45.0894
7.16591 47.4241
7.21063 51.6049
7.25533 58.9421
7.30004 70.3874
7.34475 77.0909
7.38945 71.2968
7.43416 60.0155
7.47889 53.4146
7.5236 55.4176
7.56831 98.0175
7.61303 148.212
7.65774 71.9761
7.70247 44.9632
7.74719 40.0432
7.79191 38.3836
7.83663 37.7585
7.88135 37.5309
7.92607 37.7026
7.97081 38.2154
8.01553 38.8439
8.06026 39.554
8.10498 40.0287
8.14971 41.748
8.19446 43.3082
8.23919 45.1712
8.28392 46.8147
8.32865 48.8344
8.37339 52.9941
8.41812 57.9539
8.46288 66.4369
8.50761 80.4146
8.55235 108.645
8.59709 165.789
8.64183 225.415
8.68658 411.633
8.73134 772.887
8.77609 609.463
8.82083 256.658
8.86558 129.592
8.91033 92.5761
8.9551 77.2143
8.99985 70.0806
9.04461 64.4751
9.08936 61.4104
9.13412 59.268
9.17888 60.3584
9.22365 68.5963
9.26841 130.115
9.31318 249.162
9.35794 141.683
9.4027 68.2125
9.44749 56.8812
9.49226 53.6318
9.53703 52.4195
9.5818 52.6304
9.62657 52.8771
9.67134 54.4544
9.71614 55.3808
9.76091 56.9762
9.80569 58.9063
9.85047 61.8049
9.89525 66.1962
9.94005 72.6565
9.98484 83.1076
10.0296 104.14
10.0744 145.357
10.1192 187.251
10.164 258.792
10.2088 528.62
10.2536 819.628
10.2984 514.893
10.3432 227.133
10.388 125.931
10.4328 94.1055
10.4776 84.0067
10.5224 86.66
10.5672 92.4375
10.612 104.281
10.6568 164.077
10.7017 277.531
10.7465 252.426
10.7913 133.631
10.8361 71.5076
10.8809 55.228
10.9257 49.1815
10.9706 46.7705
11.0154 45.0031
11.0602 44.4312
11.105 43.4855
11.1499 43.0709
11.1947 42.9646
11.2395 42.7514
11.2844 42.5615
11.3292 41.7494
11.374 40.4588
11.4189 39.6287
11.4637 38.8965
11.5086 38.2512
11.5534 38.1949
11.5983 38.1945
11.6431 38.0457
11.688 37.5852
11.7328 37.2063
11.7777 37.2519
11.8225 37.238
11.8674 37.7472
11.9122 39.8234
11.9571 46.7387
12.002 74.7992
12.0468 88.4197
12.0917 58.5666
12.1366 46.9279
12.1814 47.5374
12.2263 50.0602
12.2712 57.0619
12.3161 74.1566
12.3609 95.6691
12.4058 87.8192
12.4507 62.486
12.4956 50.1033
12.5405 44.7166
12.5853 42.673
12.6302 41.4895
12.6751 41.841
12.72 42.2889
12.7649 42.0593
12.8098 41.2269
12.8547 40.4932
12.8996 40.3005
12.9445 40.2152
12.9894 40.6305
13.0343 41.3898
13.0792 43.1245
13.1242 47.6015
13.1691 57.9383
13.214 62.696
13.2589 64.7848
13.3038 69.7242
13.3487 76.6441
13.3937 100.348
13.4386 158.808
13.4835 222.233
13.5285 184.275
13.5734 117.189
13.6183 89.6987
13.6633 80.849
13.7082 82.9546
13.7531 105.555
13.7981 167.969
13.843 208.972
13.888 145.812
13.9329 82.9521
13.9779 59.8345
14.0228 50.842
14.0678 46.8188
14.1127 45.8821
14.1577 48.8981
14.2027 67.9381
14.2476 85.8909
14.2926 65.4899
14.3376 46.5208
14.3825 41.5261
14.4275 40.0003
14.4725 39.2884
14.5175 39.0232
14.5624 38.6737
14.6074 38.7321
14.6524 38.7863
14.6974 39.2154
14.7424 39.4599
14.7874 39.9055
14.8324 41.553
14.8774 44.0747
14.9224 48.051
14.9674 50.1426
15.0124 52.9141
15.0574 62.7602
15.1024 86.0049
15.1474 121.561
15.1924 120.287
15.2374 84.2069
15.2824 59.5608
15.3274 48.2084
15.3725 43.8411
15.4175 41.5958
15.4625 40.4368
15.5076 39.6482
15.5526 39.0377
15.5976 38.9039
15.6426 38.808
15.6877 38.8945
15.7327 39.9448
15.7778 42.0794
15.8228 45.2023
15.8679 47.5435
15.9129 49.1958
15.958 55.5548
16.003 70.0753
16.0481 101.425
16.0931 124.669
16.1382 108.269
16.1833 78.2642
16.2283 54.7042
16.2734 43.8156
16.3185 39.567
16.3636 37.1797
16.4086 35.7411
16.4537 34.9978
16.4988 34.2315
16.5439 33.5793
16.589 33.2151
16.6341 32.6903
16.6792 32.2287
16.7243 32.1031
16.7694 32.1544
16.8145 32.1079
16.8596 32.3089
16.9047 32.5785
16.9498 33.648
16.9949 36.9508
17.04 39.9364
17.0851 38.0141
17.1302 34.5305
17.1754 33.6523
17.2205 33.9491
17.2656 34.3182
17.3108 34.9794
17.3559 35.4834
17.401 37.0942
17.4462 41.0409
17.4913 48.1393
17.5365 51.4154
17.5815 45.902
17.6268 39.5084
17.6718 36.6905
17.7171 35.5606
17.7622 35.7083
17.8074 37.2485
17.8525 40.7647
17.8977 42.0715
17.9428 40.1017
17.9881 39.575
18.0331 41.3224
18.0784 42.5531
18.1237 43.6897
18.1688 46.1951
18.214 52.8875
18.2591 68.1686
18.3044 92.0317
18.3495 98.9752
18.3948 78.8391
18.4399 60.8013
18.4852 55.4246
18.5303 60.8139
18.5756 71.2619
18.6207 72.2663
18.666 60.2514
18.7112 49.1709
18.7565 41.3983
18.8016 37.9115
18.8469 36.2008
18.892 35.5092
18.9374 34.636
18.9825 34.3505
19.0278 33.9278
19.073 33.782
19.1183 33.6256
19.1635 33.7578
19.2088 33.9677
19.254 34.6511
19.2993 35.3321
19.3447 36.6841
19.3898 40.4588
19.4352 45.8033
19.4804 46.8883
19.5257 45.1885
19.5709 47.1622
19.6163 48.7377
19.6615 44.5393
19.7068 38.4821
19.752 35.3225
19.7974 33.507
19.8426 32.8553
19.888 32.1599
19.9332 32.0365
19.9786 32.5565
20.0238 32.6558
20.0692 32.8034
20.1144 32.7727
20.1598 33.5958
20.205 35.2814
20.2504 38.3732
20.2957 43.4884
20.3411 46.3796
20.3863 44.4838
20.4318 40.0661
20.477 38.7791
20.5224 41.3348
20.5677 44.4367
20.6131 42.5008
20.6586 37.2442
20.7038 33.7136
20.7493 31.92
20.7945 31.4456
20.84 32.3047
20.8853 33.4569
20.9307 33.3502
20.976 31.4499
21.0215 29.7757
21.0668 29.2836
21.1122 29.2071
21.1575 29.1378
21.203 28.8905
21.2483 28.8754
21.2938 29.0897
21.3391 29.2124
21.3846 29.6084
21.4299 30.544
21.4754 32.0891
21.5207 32.6775
21.5662 31.9644
21.6116 30.8244
21.6571 30.0056
21.7024 29.757
21.7479 29.9397
21.7933 30.4203
21.8388 30.6094
21.8843 31.2465
21.9297 31.3343
21.9752 32.3642
22.0206 34.2258
22.0661 36.9009
22.1115 41.4668
22.157 46.424
22.2024 47.202
22.248 43.9187
22.2933 41.0621
22.3389 39.546
22.3843 39.1079
22.4299 37.4538
22.4753 34.5884
22.5208 32.3394
22.5662 31.2361
22.6118 30.653
22.6572 30.1963
22.7028 30.0938
22.7483 30.0551
22.7939 30.1316
22.8393 30.7792
22.8849 31.7463
22.9303 31.9769
22.9759 31.7999
23.0214 31.3527
23.067 31.8453
23.1126 32.9713
23.1581 35.5403
23.2037 39.3969
23.2492 41.8828
23.2948 39.7646
23.3403 35.6503
23.3859 33.0228
23.4314 32.27
23.477 32.5502
23.5225 33.4852
23.5682 34.059
23.6137 33.4215
23.6593 32.5821
23.7048 32.9403
23.7505 34.5188
23.796 37.7525
23.8417 42.0245
23.8872 42.6746
23.9329 38.9656
23.9784 34.187
24.0241 31.3029
24.0697 29.9449
24.1154 29.318
24.1609 28.9344
24.2066 28.7165
24.2522 28.2533
24.2979 27.5434
24.3434 27.293
24.3892 27.1165
24.4349 26.9894
24.4805 26.7275
24.5262 26.7595
24.5718 26.5936
24.6175 26.6311
24.6631 26.7261
24.7089 26.9943
24.7545 27.6046
24.8002 27.9554
24.8458 27.8126
24.8916 27.1084
24.9372 26.6725
24.983 26.5522
25.0286 26.3866
25.0744 26.2983
25.12 26.284
25.1658 26.3821
25.2114 26.4703
25.2572 26.7485
25.3029 27.1659
25.3487 27.9921
25.3943 28.9378
25.4402 29.5629
25.4858 29.9623
25.5316 29.8225
25.5773 30.2635
25.6231 31.3412
25.669 31.2892
25.7147 29.9281
25.7605 28.0796
25.8062 27.0308
25.8521 26.5725
25.8977 26.6166
25.9436 26.8391
25.9893 26.605
26.0352 26.2442
26.0809 25.8041
26.1268 25.7171
26.1725 25.7014
26.2184 25.8547
26.2641 26.2604
26.31 26.7616
26.3557 27.7801
26.4017 28.3635
26.4474 28.1753
26.4933 27.3397
26.5391 26.6894
26.585 26.3037
26.6308 26.0729
26.6767 25.9086
26.7225 26.1141
26.7684 26.2593
26.8142 26.8251
26.8601 27.576
26.9059 28.9083
26.9519 29.9076
26.9979 30.1204
27.0437 29.6341
27.0896 29.0833
27.1354 28.6058
27.1814 27.4524
27.2272 26.5186
27.2732 25.8313
27.3191 25.2338
27.3651 25.0473
27.4109 24.8758
27.4569 24.8162
27.5027 24.5485
27.5488 24.5602
27.5946 24.6865
27.6407 24.6749
27.6865 24.7964
27.7326 24.8425
27.7784 25.0986
27.8245 25.4502
27.8703 25.4915
27.9164 25.4121
27.9623 24.9645
28.0084 24.8944
28.0543 24.9662
28.1003 25.1235
28.1462 25.4323
28.1923 25.759
28.2384 25.7693
28.2843 26.1505
28.3304 26.9809
28.3764 27.8582
28.4225 27.8565
28.4684 27.3481
28.5145 26.6732
28.5605 26.4413
28.6066 25.921
28.6526 25.2146
28.6987 24.5472
28.7447 23.9287
28.7908 23.5447
28.8368 23.3177
28.8829 23.1306
28.9289 23.054
28.9751 22.857
29.0211 22.6924
29.0673 22.7715
29.1133 22.7959
29.1595 23.0119
29.2055 23.1888
29.2517 23.3456
29.2977 23.1066
29.3439 22.6742
29.3899 22.4243
29.4361 22.1534
29.4824 22.0094
29.5284 22.0691
29.5746 21.9996
29.6207 22.0755
29.6669 22.39
29.713 22.6641
29.7593 22.6525
29.8053 22.4742
29.8516 22.0306
29.8977 21.7073
29.9439 21.4854
29.99 21.3845
30.0363 21.2476
30.0824 21.3362
30.1287 21.2876
30.1748 21.4415
30.2211 21.5254
30.2673 21.3303
30.3136 21.271
30.3597 21.0259
30.406 21.0939
30.4522 21.1412
30.4985 21.2488
30.5447 21.4593
30.591 21.4687
30.6372 21.3508
30.6835 21.1924
30.7297 21.096
30.7761 21.0441
30.8224 20.9968
30.8686 21.1311
30.915 21.2534
30.9612 21.5932
31.0076 22.0047
31.0538 22.3397
31.1002 22.4801
31.1464 22.1951
31.1928 22.0311
31.2391 21.7673
31.2855 21.5025
31.3317 21.0422
31.3781 20.8617
31.4244 20.703
31.4708 20.5129
31.5171 20.4605
31.5636 20.4688
31.6098 20.5425
31.6563 20.5691
31.7026 20.6832
31.7491 20.7671
31.7953 21.0821
31.8418 21.2183
31.8881 21.1907
31.9346 20.9061
31.9809 20.5238
32.0275 20.3654
32.074 20.2828
32.1203 20.1923
32.1668 20.3107
32.2132 20.4584
32.2597 20.5621
32.306 20.8068
32.3526 20.6795
32.399 20.524
32.4455 20.2395
32.4919 20.0583
32.5385 19.9052
32.5848 19.5241
32.6314 19.4029
32.6778 19.3166
32.7244 19.0879
32.7708 18.95
32.8174 18.9782
32.8638 18.8742
32.9104 18.9299
32.9569 18.8919
33.0035 18.7912
33.0499 18.8398
33.0966 18.8775
33.143 18.8306
33.1897 18.6185
33.2361 18.5604
33.2828 18.5844
33.3293 18.4161
33.3759 18.4873
33.4226 18.5754
33.4691 18.6344
33.5158 18.8072
33.5623 18.9093
33.609 18.8374
33.6555 18.775
33.7022 18.7524
33.7487 18.5682
33.7954 18.3696
33.842 18.1036
33.8887 17.8514
33.9353 17.8429
33.982 17.8421
34.0286 17.7532
34.0753 17.7649
34.1219 17.604
34.1687 17.6247
34.2152 17.6339
34.262 17.5658
34.3086 17.5474
34.3554 17.5211
34.402 17.3294
34.4488 17.2202
34.4954 17.1259
34.5422 17.0848
34.5889 16.9832
34.6357 17.085
34.6825 17.0797
34.7292 17.0771
34.776 16.9591
34.8227 16.8482
34.8695 16.7595
34.9162 16.7757
34.9631 16.574
35.0098 16.5459
35.0566 16.4627
35.1033 16.451
35.1502 16.3444
35.1969 16.3661
35.2438 16.3837
35.2906 16.3619
35.3375 16.3345
35.3842 16.3017
35.4311 16.2451
35.4779 16.2678
35.5248 16.2744
35.5716 16.2295
35.6185 16.1979
35.6653 16.2045
35.7123 16.3574
35.759 16.3864
35.806 16.5377
35.8528 16.5222
35.8998 16.5798
35.9468 16.3645
35.9936 16.3325
36.0406 16.0397
36.0874 16.0622
36.1345 15.8946
36.1813 15.7672
36.2283 15.6797
36.2752 15.6813
36.3222 15.6425
36.3691 15.5979
36.4161 15.4524
36.463 15.5962
36.5101 15.5823
36.557 15.5804
36.6041 15.4843
36.651 15.5257
36.6981 15.3676
36.745 15.2388
36.7921 15.3133
36.839 15.191
36.8861 15.1806
36.9331 15.2342
36.9802 15.1431
37.0272 15.1968
37.0743 15.0962
37.1213 15.0176
37.1684 14.9352
37.2154 14.9028
37.2626 14.76
37.3098 14.6774
37.3568 14.6535
37.404 14.6441
37.451 14.5203
37.4982 14.4051
37.5452 14.337
37.5924 14.3604
37.6395 14.4089
37.6867 14.3579
37.7337 14.2799
37.781 14.1945
37.8281 14.1995
37.8753 14.1293
37.9224 14.0363
37.9697 14.0403
38.0168 13.987
38.064 13.9802
38.1111 13.9744
38.1584 13.8805
38.2056 13.9279
38.2529 13.8745
38.3 13.735
38.3473 13.7081
38.3945 13.6052
38.4418 13.5825
38.489 13.5463
38.5363 13.4614
38.5837 13.5147
38.6309 13.42
38.6782 13.4331
38.7254 13.3844
38.7728 13.4269
38.82 13.3512
38.8674 13.2869
38.9146 13.2398
38.9621 13.173
39.0093 13.2097
39.0567 13.1695
39.104 13.1861
39.1514 13.1035
39.1987 13.0617
39.2461 12.9917
39.2934 12.925
39.3409 12.8631
39.3882 12.7819
39.4356 12.7967
39.483 12.7488
39.5304 12.6773
39.5778 12.6547
39.6253 12.6204
39.6726 12.5822
39.7201 12.5422
39.7675 12.5442
39.815 12.5037
39.8624 12.4188
39.9099 12.3413
39.9575 12.3173
40.0049 12.3754
40.0525 12.287
40.0999 12.3213
40.1474 12.2288
40.1949 12.2041
40.2425 12.2325
40.2899 12.2071
40.3375 12.1985
40.385 12.1431
40.4326 12.0744
40.48 12.0035
40.5277 11.9836
40.5752 11.9578
40.6228 11.8454
40.6703 11.9042
40.718 11.8448
40.7655 11.8446
40.8132 11.8088
40.8607 11.7772
40.9084 11.7279
40.9559 11.7053
41.0036 11.6756
41.0512 11.6505
41.0989 11.591
41.1465 11.6197
41.1942 11.5703
41.242 11.5128
41.2896 11.5058
41.3373 11.3677
41.3849 11.3921
41.4327 11.2897
41.4803 11.264
41.5281 11.2386
41.5758 11.1586
41.6236 11.1587
41.6712 11.1263
41.7191 11.0791
41.7667 11.0414
41.8146 11.0354
41.8622 11.0002
41.9101 10.9972
41.9578 10.8979
42.0057 10.8879
42.0534 10.8662
42.1013 10.8204
42.149 10.8607
42.1969 10.7785
42.2446 10.7595
42.2925 10.7166
42.3403 10.6735
42.3882 10.6754
42.436 10.6324
42.4839 10.5321
42.5319 10.5773
42.5797 10.5014
42.6277 10.4282
42.6755 10.4146
42.7235 10.2831
42.7713 10.3446
42.8193 10.3261
42.8671 10.2447
42.9152 10.2236
42.963 10.1945
43.0111 10.1298
43.0589 10.1448
43.107 10.0276
43.1549 10.1043
43.2029 10.024
43.2508 10.0035
43.2989 9.95978
43.3468 9.93501
43.3949 9.86582
43.4429 9.85563
43.491 9.82217
43.5389 9.80734
43.5871 9.72601
43.635 9.68146
43.6832 9.66857
43.7312 9.6601
43.7793 9.59507
43.8273 9.6011
43.8755 9.55338
43.9237 9.52263
43.9717 9.47636
44.0199 9.46058
44.068 9.45994
44.1162 9.44881
44.1642 9.44935
44.2125 9.38653
44.2606 9.2902
44.3088 9.29708
44.3569 9.27342
44.4052 9.2713
44.4533 9.16307
44.5016 9.15337
44.5497 9.186
44.598 9.10076
44.6461 9.08959
44.6945 9.11523
44.7426 9.02772
44.791 9.00247
44.8391 8.98509
44.8875 8.9233
44.9357 8.90954
44.984 8.8694
45.0322 8.80275
45.0806 8.81186
45.1288 8.83595
45.1773 8.75346
45.2257 8.73603
45.2739 8.70943
45.3224 8.70567
45.3706 8.65532
45.4191 8.58956
45.4673 8.56876
45.5158 8.53922
45.5641 8.51713
45.6126 8.50193
45.6609 8.5025
45.7094 8.42838
45.7577 8.38642
45.8063 8.38798
45.8546 8.38176
45.9031 8.3315
45.9515 8.28693
46.0001 8.25517
46.0484 8.21153
46.097 8.2211
46.1454 8.19404
46.194 8.13363
46.2424 8.11101
46.291 8.1089
46.3395 8.09361
46.3881 8.04434
46.4365 8.03672
46.4852 7.97163
46.5337 7.98978
46.5823 7.94801
46.631 7.89124
46.6795 7.88092
46.7282 7.87442
46.7767 7.81187
46.8254 7.79199
46.8739 7.77313
46.9226 7.71534
46.9712 7.68597
47.0199 7.72099
47.0685 7.64528
47.1173 7.60733
47.1658 7.63388
47.2146 7.56213
47.2632 7.5402
47.312 7.50542
47.3606 7.46212
47.4095 7.47953
47.4581 7.44038
47.5069 7.41221
47.5556 7.39273
47.6044 7.37466
47.6531 7.2961
47.702 7.24992
47.7507 7.29833
47.7996 7.26354
47.8483 7.2249
47.8972 7.17159
47.9461 7.16177
47.9948 7.1342
48.0438 7.13353
48.0925 7.11144
48.1415 7.10015
48.1902 7.03619
48.2392 7.02606
48.288 7.0418
48.337 6.95788
48.3858 6.92008
48.4348 6.94767
48.4837 6.90879
48.5327 6.8841
48.5815 6.8705
48.6306 6.86726
48.6795 6.81472
48.7285 6.78328
48.7774 6.78247
48.8265 6.74544
48.8754 6.70663
48.9245 6.67367
48.9734 6.67263
49.0226 6.64583
49.0715 6.59201
49.1206 6.60179
49.1696 6.54365
49.2188 6.55863
49.2679 6.52482
49.3169 6.499
49.3661 6.47797
49.4151 6.42621
49.4643 6.43022
49.5134 6.41217
49.5626 6.39331
49.6117 6.41481
49.6609 6.35059
49.71 6.30286
49.7592 6.30132
49.8083 6.25553
49.8576 6.2535
49.9067 6.19582
49.956 6.21769
50.0052 6.19268
50.0545 6.16834
50.1036 6.11379
50.153 6.11144
50.2022 6.12249
50.2515 6.09788
50.3007 6.05441
50.3501 6.02984
50.3993 5.98039
50.4487 5.99702
50.498 5.9464
50.5474 5.94898
50.5966 5.91726
50.6461 5.90728
50.6955 5.8797
50.7448 5.86173
50.7943 5.80915
50.8436 5.839
50.8931 5.77632
50.9424 5.77141
50.9919 5.74051
51.0413 5.74221
51.0908 5.68978
51.1402 5.69672
51.1897 5.64742
51.2391 5.64899
51.2887 5.60563
51.3381 5.60535
51.3877 5.59578
51.4371 5.53997
51.4867 5.51998
51.5362 5.52683
51.5858 5.49399
51.6353 5.46752
51.6849 5.41345
51.7344 5.43413
51.7841 5.39911
51.8336 5.38854
51.8833 5.37625
51.9328 5.3334
51.9826 5.30402
52.0323 5.29611
52.0818 5.29555
52.1316 5.24061
52.1812 5.25835
52.231 5.21284
52.2806 5.21213
52.3304 5.18504
52.38 5.14774
52.4298 5.15289
52.4794 5.08938
52.5293 5.10286
52.5789 5.06414
52.6288 5.04834
52.6785 5.01964
52.7284 5.03853
52.7781 4.99872
52.828 4.99712
52.8777 4.93629
52.9276 4.92377
52.9774 4.91403
53.0273 4.89102
53.0771 4.89937
53.1271 4.87329
53.1769 4.84716
53.2269 4.84619
53.2767 4.79208
53.3267 4.77154
53.3765 4.79561
53.4266 4.75528
53.4766 4.71417
53.5265 4.72229
53.5765 4.69429
53.6264 4.64451
53.6765 4.62793
53.7264 4.62873
53.7765 4.58314
53.8265 4.5768
53.8766 4.56207
53.9266 4.53664
53.9767 4.49781
54.0267 4.47098
54.0769 4.48586
54.1269 4.45378
54.1771 4.39339
54.2271 4.39329
54.2773 4.33285
54.3274 4.31107
54.3776 4.31968
54.4277 4.29198
54.478 4.24907
54.528 4.23268
54.5783 4.21665
54.6285 4.11816
54.6788 4.13329
54.7289 4.09463
54.7792 4.05616
54.8296 3.97103
54.8798 4.02396
54.9301 3.94569
54.9803 3.95971
55.0307 3.91746
55.0809 3.86943
55.1314 3.85212
55.1816 3.81025
55.232 3.73704
55.2823 3.77671
55.3328 3.67406
55.383 3.67181
55.4335 3.60797
55.4838 3.54299
55.5344 3.5327
55.5847 3.53385
55.6352 3.53037
55.6856 3.48724
55.7361 3.46557