File: XRD/Ni3Fe_FD0523.xy
TT I
1.27165 7.96306
1.31627 6.72168
1.36089 6.94951
1.40551 6.85123
1.45013 6.50878
1.49476 5.71169
1.53938 6.28054
1.584 5.65852
1.62863 5.5914
1.67325 4.91347
1.71787 4.94392
1.7625 5.16309
1.80712 4.83016
1.85174 4.50133
1.89636 5.013
1.94099 4.71648
1.98562 4.71963
2.03025 4.51361
2.07487 4.54175
2.11949 5.41069
2.16411 5.19885
2.20874 16.3795
2.25338 26.8543
2.298 5.92461
2.34263 4.94055
2.38725 5.93171
2.43188 6.00358
2.4765 6.3669
2.52115 7.31594
2.56577 6.84628
2.6104 7.89415
2.65503 8.05805
2.69965 7.86796
2.7443 7.73857
2.78893 8.07577
2.83356 8.1887
2.87818 8.71204
2.92281 8.63339
2.96744 9.71241
3.01209 10.7002
3.05672 11.1068
3.10135 12.371
3.14599 13.0906
3.19062 14.341
3.23527 15.0001
3.2799 15.6829
3.32454 17.3254
3.36917 17.8154
3.4138 19.0594
3.45844 19.8158
3.50309 21.2957
3.54773 22.3249
3.59237 24.5601
3.637 108.155
3.68164 66.3869
3.7263 26.8411
3.77094 26.6064
3.81558 27.1311
3.86022 27.8079
3.90486 29.7849
3.9495 30.4236
3.99416 31.2119
4.0388 33.1507
4.08344 34.1192
4.12809 35.4238
4.17273 37.9094
4.21738 45.2101
4.26204 289.395
4.30669 256.508
4.35133 50.4141
4.39598 45.4122
4.44063 55.7826
4.4853 70.3065
4.52995 50.8393
4.5746 51.5985
4.61925 53.935
4.6639 56.0347
4.70855 58.581
4.75322 61.4652
4.79788 64.2961
4.84253 67.4476
4.88719 72.0524
4.93184 75.299
4.97652 80.8907
5.02118 87.3285
5.06583 95.4461
5.11049 107.261
5.15515 187.396
5.19981 378.889
5.24449 2830.2
5.28916 11872.5
5.33382 3315.47
5.37848 204.93
5.42315 134.191
5.46783 116.123
5.5125 107.635
5.55716 103.351
5.60183 99.6786
5.6465 98.1578
5.69117 95.3156
5.73586 93.3541
5.78053 92.4089
5.8252 91.9989
5.86988 92.8623
5.91455 95.6104
5.95924 103.806
6.00392 210.345
6.0486 970.851
6.09328 4131.49
6.13795 3481.14
6.18263 300.398
6.22733 97.1921
6.27201 85.4929
6.3167 109.479
6.36138 84.0824
6.40606 70.4945
6.45075 68.268
6.49545 66.4547
6.54014 64.9936
6.58483 63.8038
6.62952 64.0789
6.67421 100.975
6.71892 163.404
6.76361 71.6673
6.8083 60.2357
6.853 58.2777
6.89769 57.9628
6.94239 57.3365
6.98711 56.8589
7.03181 56.3095
7.07651 56.3846
7.12121 56.1598
7.16591 56.3149
7.21063 56.4213
7.25533 74.0247
7.30004 208.131
7.34475 101.159
7.38945 58.1411
7.43416 55.3643
7.47889 55.0522
7.5236 55.7732
7.56831 56.3388
7.61303 58.2875
7.65774 58.4781
7.70247 57.0319
7.74719 56.9378
7.79191 57.5484
7.83663 57.5588
7.88135 58.5525
7.92607 59.7163
7.97081 60.748
8.01553 61.6783
8.06026 62.9748
8.10498 64.6134
8.14971 75.7296
8.19446 73.96
8.23919 70.3514
8.28392 72.7334
8.32865 75.1135
8.37339 78.993
8.41812 86.6576
8.46288 119.904
8.50761 166.633
8.55235 385.869
8.59709 1122.87
8.64183 2142.72
8.68658 1072.44
8.73134 190.42
8.77609 102.449
8.82083 94.1493
8.86558 90.9211
8.91033 91.1258
8.9551 94.2511
8.99985 86.4779
9.04461 84.1428
9.08936 83.7218
9.13412 82.8864
9.17888 83.0234
9.22365 84.1261
9.26841 82.9104
9.31318 83.299
9.35794 83.4623
9.4027 83.8134
9.44749 84.9767
9.49226 85.4062
9.53703 86.5306
9.5818 87.8675
9.62657 92.9306
9.67134 101.335
9.71614 94.5607
9.76091 94.8109
9.80569 97.2229
9.85047 100.677
9.89525 129.187
9.94005 142.896
9.98484 176.607
10.0296 342.533
10.0744 770.608
10.1192 1624.88
10.164 1649.54
10.2088 454.871
10.2536 134.857
10.2984 117.045
10.3432 118.813
10.388 106.457
10.4328 118.712
10.4776 159.791
10.5224 274.184
10.5672 494.859
10.612 536.417
10.6568 224.662
10.7017 99.7641
10.7465 87.5831
10.7913 84.583
10.8361 82.1939
10.8809 80.033
10.9257 79.653
10.9706 80.7312
11.0154 76.0348
11.0602 73.4975
11.105 72.7562
11.1499 78.4164
11.1947 87.5841
11.2395 76.5262
11.2844 72.1092
11.3292 68.4017
11.374 67.1392
11.4189 66.4762
11.4637 65.8557
11.5086 66.2152
11.5534 70.1541
11.5983 66.75
11.6431 64.4632
11.688 63.6231
11.7328 63.6324
11.7777 63.7141
11.8225 63.3982
11.8674 63.0834
11.9122 63.5782
11.9571 63.6643
12.002 64.4163
12.0468 68.321
12.0917 80.3621
12.1366 103.443
12.1814 149.052
12.2263 204.102
12.2712 176.397
12.3161 103.299
12.3609 72.8663
12.4058 65.8128
12.4507 65.382
12.4956 65.4121
12.5405 65.2272
12.5853 66.4538
12.6302 75.4249
12.6751 82.1819
12.72 71.6891
12.7649 68.7598
12.8098 69.112
12.8547 70.175
12.8996 71.544
12.9445 72.7743
12.9894 74.6827
13.0343 76.4146
13.0792 79.4836
13.1242 88.3862
13.1691 112.659
13.214 147.963
13.2589 229.701
13.3038 350.862
13.3487 431.894
13.3937 284.782
13.4386 131.57
13.4835 107.025
13.5285 120.866
13.5734 156.402
13.6183 236.849
13.6633 334.499
13.7082 345.874
13.7531 202.867
13.7981 103.052
13.843 82.8841
13.888 80.8044
13.9329 78.0009
13.9779 76.9435
14.0228 75.1669
14.0678 73.7855
14.1127 73.4835
14.1577 73.5021
14.2027 72.376
14.2476 71.2936
14.2926 71.5828
14.3376 73.0768
14.3825 71.2002
14.4275 69.5615
14.4725 69.2712
14.5175 69.638
14.5624 69.951
14.6074 72.209
14.6524 72.6825
14.6974 71.3414
14.7424 72.6341
14.7874 79.4244
14.8324 89.3299
14.8774 109.483
14.9224 148.674
14.9674 199.185
15.0124 218.596
15.0574 157.207
15.1024 95.1425
15.1474 73.8292
15.1924 71.3086
15.2374 72.4215
15.2824 71.6829
15.3274 69.3788
15.3725 67.7822
15.4175 67.1868
15.4625 66.9274
15.5076 67.35
15.5526 67.1566
15.5976 66.4047
15.6426 67.3022
15.6877 72.3798
15.7327 80.1852
15.7778 94.5276
15.8228 123.053
15.8679 165.133
15.9129 194.071
15.958 163.807
16.003 103.511
16.0481 70.5695
16.0931 66.5054
16.1382 64.3187
16.1833 61.4709
16.2283 59.7512
16.2734 59.212
16.3185 59.7627
16.3636 60.8331
16.4086 58.9435
16.4537 57.0901
16.4988 56.3777
16.5439 56.254
16.589 55.7611
16.6341 55.7632
16.6792 55.1544
16.7243 55.4734
16.7694 55.7937
16.8145 55.73
16.8596 56.0994
16.9047 57.8152
16.9498 57.9064
16.9949 56.4982
17.04 56.4432
17.0851 57.6553
17.1302 59.2423
17.1754 62.327
17.2205 66.8965
17.2656 74.1258
17.3108 82.3212
17.3559 82.8403
17.401 72.8354
17.4462 63.5533
17.4913 60.0314
17.5365 59.8412
17.5815 59.9945
17.6268 60.2799
17.6718 61.1946
17.7171 61.5841
17.7622 62.1119
17.8074 62.462
17.8525 64.6471
17.8977 68.7936
17.9428 74.0019
17.9881 82.3545
18.0331 97.7153
18.0784 118.067
18.1237 138.049
18.1688 135.544
18.214 108.443
18.2591 88.2316
18.3044 90.0197
18.3495 98.9665
18.3948 106.86
18.4399 99.7181
18.4852 80.8667
18.5303 67.4827
18.5756 63.1703
18.6207 61.9116
18.666 61.2366
18.7112 60.3781
18.7565 59.6282
18.8016 59.0888
18.8469 58.5483
18.892 58.5047
18.9374 57.7952
18.9825 57.8138
19.0278 57.841
19.073 57.6477
19.1183 58.1655
19.1635 59.0877
19.2088 60.2455
19.254 62.4953
19.2993 66.4465
19.3447 72.3898
19.3898 76.7496
19.4352 74.1213
19.4804 65.0599
19.5257 57.9645
19.5709 54.9805
19.6163 54.6121
19.6615 54.3932
19.7068 54.0354
19.752 53.9666
19.7974 54.1861
19.8426 55.2851
19.888 55.7319
19.9332 56.8326
19.9786 59.0597
20.0238 62.1788
20.0692 66.9532
20.1144 70.324
20.1598 69.4375
20.205 64.852
20.2504 62.6766
20.2957 63.8448
20.3411 66.0485
20.3863 65.192
20.4318 59.8391
20.477 54.8667
20.5224 52.6433
20.5677 51.7785
20.6131 50.9458
20.6586 50.2489
20.7038 50.2351
20.7493 49.8303
20.7945 49.7848
20.84 49.524
20.8853 49.3535
20.9307 49.1226
20.976 49.3306
21.0215 49.1868
21.0668 49.678
21.1122 50.0018
21.1575 50.3866
21.203 51.2605
21.2483 52.042
21.2938 52.3917
21.3391 51.0924
21.3846 49.7574
21.4299 49.2368
21.4754 49.1416
21.5207 49.1375
21.5662 49.4474
21.6116 49.6705
21.6571 50.3405
21.7024 51.248
21.7479 53.0927
21.7933 55.5074
21.8388 58.8475
21.8843 62.5622
21.9297 64.7601
21.9752 64.439
22.0206 60.7037
22.0661 57.413
22.1115 56.4296
22.157 56.6486
22.2024 55.184
22.248 52.4486
22.2933 50.7282
22.3389 49.8196
22.3843 49.7012
22.4299 49.707
22.4753 49.5318
22.5208 49.3035
22.5662 49.1655
22.6118 49.284
22.6572 49.4372
22.7028 49.6907
22.7483 50.2337
22.7939 50.7919
22.8393 52.4291
22.8849 54.2318
22.9303 56.3235
22.9759 58.332
23.0214 58.1745
23.067 55.6963
23.1126 52.317
23.1581 50.0513
23.2037 49.4599
23.2492 49.3869
23.2948 49.3938
23.3403 49.7176
23.3859 50.2565
23.4314 51.2273
23.477 52.9249
23.5225 54.8242
23.5682 57.1128
23.6137 58.5699
23.6593 56.8579
23.7048 53.0125
23.7505 49.3163
23.796 47.411
23.8417 46.7215
23.8872 46.189
23.9329 45.7632
23.9784 45.4701
24.0241 45.2068
24.0697 45.0791
24.1154 44.8189
24.1609 44.4946
24.2066 44.524
24.2522 44.3637
24.2979 44.0657
24.3434 43.9047
24.3892 43.7639
24.4349 43.7373
24.4805 43.4845
24.5262 43.7235
24.5718 43.3733
24.6175 43.4346
24.6631 43.3455
24.7089 43.1613
24.7545 43.0298
24.8002 42.8726
24.8458 42.9263
24.8916 42.4927
24.9372 42.7247
24.983 43.0039
25.0286 43.3969
25.0744 43.7412
25.12 44.2534
25.1658 44.7451
25.2114 45.1712
25.2572 45.3054
25.3029 45.2828
25.3487 45.4418
25.3943 45.19
25.4402 44.1492
25.4858 43.1595
25.5316 42.1914
25.5773 41.4694
25.6231 41.3919
25.669 41.0723
25.7147 40.9433
25.7605 41.0664
25.8062 41.0985
25.8521 41.2394
25.8977 41.0198
25.9436 41.46
25.9893 41.4286
26.0352 41.8297
26.0809 42.0545
26.1268 42.2085
26.1725 41.9246
26.2184 41.3945
26.2641 40.8821
26.31 40.601
26.3557 40.6679
26.4017 40.6286
26.4474 40.9081
26.4933 41.2441
26.5391 41.7094
26.585 42.1712
26.6308 42.4126
26.6767 42.5474
26.7225 42.4518
26.7684 41.9888
26.8142 41.4258
26.8601 40.9985
26.9059 40.5813
26.9519 40.0693
26.9979 39.7538
27.0437 39.4032
27.0896 39.2384
27.1354 39.1464
27.1814 39.0615
27.2272 39.0761
27.2732 39.0922
27.3191 38.7378
27.3651 38.9239
27.4109 38.8162
27.4569 38.9706
27.5027 38.9904
27.5488 38.9893
27.5946 39.0787
27.6407 38.6982
27.6865 38.5206
27.7326 38.2696
27.7784 38.3517
27.8245 38.2952
27.8703 38.4441
27.9164 38.7883
27.9623 38.7757
28.0084 39.0399
28.0543 39.4055
28.1003 39.4513
28.1462 39.3908
28.1923 38.8441
28.2384 38.4469
28.2843 38.0741
28.3304 37.7178
28.3764 37.2037
28.4225 36.9595
28.4684 36.6687
28.5145 36.4283
28.5605 36.4108
28.6066 35.9987
28.6526 36.1231
28.6987 35.989
28.7447 35.9477
28.7908 35.8636
28.8368 35.9207
28.8829 35.8773
28.9289 35.7489
28.9751 35.6671
29.0211 35.4575
29.0673 35.1155
29.1133 35.0602
29.1595 34.862
29.2055 34.7491
29.2517 34.8591
29.2977 34.7615
29.3439 34.6508
29.3899 34.7325
29.4361 34.6316
29.4824 34.3464
29.5284 34.2065
29.5746 33.889
29.6207 33.5677
29.6669 33.53
29.713 33.3994
29.7593 33.3137
29.8053 33.3982
29.8516 33.1639
29.8977 33.2637
29.9439 33.0168
29.99 33.0038
30.0363 32.8806
30.0824 32.8484
30.1287 32.8863
30.1748 32.8573
30.2211 32.842
30.2673 32.707
30.3136 32.8805
30.3597 32.6515
30.406 32.6749
30.4522 32.4786
30.4985 32.5029
30.5447 32.557
30.591 32.5315
30.6372 32.6007
30.6835 32.5548
30.7297 32.5102
30.7761 32.4802
30.8224 32.4467
30.8686 32.2651
30.915 32.0247
30.9612 31.9063
31.0076 31.689
31.0538 31.5565
31.1002 31.5873
31.1464 31.3114
31.1928 31.2709
31.2391 31.3695
31.2855 31.2392
31.3317 31.2247
31.3781 31.2145
31.4244 31.2147
31.4708 31.2808
31.5171 31.2478
31.5636 31.1591
31.6098 30.8637
31.6563 30.8903
31.7026 30.6248
31.7491 30.4613
31.7953 30.5927
31.8418 30.5676
31.8881 30.5109
31.9346 30.4004
31.9809 30.4112
32.0275 30.2415
32.074 30.1372
32.1203 29.946
32.1668 29.9361
32.2132 29.7443
32.2597 29.6394
32.306 29.5743
32.3526 29.3663
32.399 29.2936
32.4455 29.015
32.4919 29.0891
32.5385 29.0452
32.5848 28.9301
32.6314 28.817
32.6778 28.8338
32.7244 28.7209
32.7708 28.5054
32.8174 28.5392
32.8638 28.3838
32.9104 28.4883
32.9569 28.3724
33.0035 28.2072
33.0499 28.1819
33.0966 28.1486
33.143 28.1476
33.1897 28.0276
33.2361 28.0206
33.2828 27.8734
33.3293 27.6822
33.3759 27.7699
33.4226 27.6718
33.4691 27.4624
33.5158 27.376
33.5623 27.2657
33.609 27.0873
33.6555 26.9886
33.7022 26.8392
33.7487 26.8651
33.7954 26.8886
33.842 26.6804
33.8887 26.6734
33.9353 26.7009
33.982 26.4725
34.0286 26.4194
34.0753 26.3259
34.1219 26.2662
34.1687 26.122
34.2152 26.0522
34.262 25.9933
34.3086 25.9265
34.3554 25.8392
34.402 25.7382
34.4488 25.6431
34.4954 25.6126
34.5422 25.5429
34.5889 25.3526
34.6357 25.3295
34.6825 25.2914
34.7292 25.1731
34.776 25.101
34.8227 25.072
34.8695 24.9979
34.9162 24.9576
34.9631 24.8388
35.0098 24.7693
35.0566 24.6622
35.1033 24.5961
35.1502 24.5757
35.1969 24.5095
35.2438 24.4718
35.2906 24.4596
35.3375 24.4126
35.3842 24.3318
35.4311 24.3712
35.4779 24.2698
35.5248 24.1926
35.5716 24.1667
35.6185 23.9649
35.6653 23.9502
35.7123 23.7573
35.759 23.7449
35.806 23.7288
35.8528 23.5429
35.8998 23.5346
35.9468 23.3713
35.9936 23.3403
36.0406 23.204
36.0874 23.2826
36.1345 23.1504
36.1813 23.0912
36.2283 22.9453
36.2752 22.9303
36.3222 22.9075
36.3691 22.8317
36.4161 22.6572
36.463 22.7581
36.5101 22.7491
36.557 22.6048
36.6041 22.4816
36.651 22.4267
36.6981 22.4653
36.745 22.38
36.7921 22.2544
36.839 22.1221
36.8861 22.0885
36.9331 22.0411
36.9802 22.0021
37.0272 21.8306
37.0743 21.7327
37.1213 21.7467
37.1684 21.6287
37.2154 21.6148
37.2626 21.537
37.3098 21.4898
37.3568 21.4221
37.404 21.3608
37.451 21.2221
37.4982 21.2493
37.5452 21.1478
37.5924 21.0163
37.6395 21.0402
37.6867 20.9845
37.7337 20.9083
37.781 20.7752
37.8281 20.8068
37.8753 20.6433
37.9224 20.6098
37.9697 20.5137
38.0168 20.459
38.064 20.3505
38.1111 20.3362
38.1584 20.2714
38.2056 20.2041
38.2529 20.1802
38.3 20.0364
38.3473 20.087
38.3945 19.9787
38.4418 19.9197
38.489 19.8202
38.5363 19.7936
38.5837 19.6331
38.6309 19.656
38.6782 19.5815
38.7254 19.5354
38.7728 19.4778
38.82 19.4009
38.8674 19.3456
38.9146 19.283
38.9621 19.2333
39.0093 19.1784
39.0567 19.097
39.104 19.0503
39.1514 18.9465
39.1987 18.9337
39.2461 18.8615
39.2934 18.8368
39.3409 18.7178
39.3882 18.6419
39.4356 18.5644
39.483 18.5094
39.5304 18.4043
39.5778 18.4805
39.6253 18.3845
39.6726 18.3736
39.7201 18.3027
39.7675 18.2769
39.815 18.132
39.8624 18.1159
39.9099 18.0803
39.9575 17.985
40.0049 17.8826
40.0525 17.897
40.0999 17.825
40.1474 17.7438
40.1949 17.7152
40.2425 17.6583
40.2899 17.6029
40.3375 17.5386
40.385 17.5018
40.4326 17.4459
40.48 17.2554
40.5277 17.3352
40.5752 17.2008
40.6228 17.1403
40.6703 17.1506
40.718 17.0822
40.7655 17.0696
40.8132 16.9995
40.8607 16.9458
40.9084 16.8551
40.9559 16.8472
41.0036 16.8377
41.0512 16.7592
41.0989 16.756
41.1465 16.6069
41.1942 16.5592
41.242 16.486
41.2896 16.3803
41.3373 16.3859
41.3849 16.3308
41.4327 16.3051
41.4803 16.1527
41.5281 16.1154
41.5758 16.0841
41.6236 16.0373
41.6712 15.9833
41.7191 15.9162
41.7667 15.8994
41.8146 15.8865
41.8622 15.8113
41.9101 15.7454
41.9578 15.6625
42.0057 15.5984
42.0534 15.5311
42.1013 15.5511
42.149 15.4643
42.1969 15.427
42.2446 15.3919
42.2925 15.353
42.3403 15.2715
42.3882 15.2472
42.436 15.22
42.4839 15.0744
42.5319 15.0341
42.5797 14.9959
42.6277 14.9328
42.6755 14.9273
42.7235 14.8864
42.7713 14.8119
42.8193 14.7678
42.8671 14.6948
42.9152 14.6437
42.963 14.6462
43.0111 14.5241
43.0589 14.5296
43.107 14.4422
43.1549 14.4415
43.2029 14.323
43.2508 14.3929
43.2989 14.2536
43.3468 14.174
43.3949 14.1538
43.4429 14.087
43.491 14.0432
43.5389 13.9525
43.5871 13.9579
43.635 13.874
43.6832 13.8768
43.7312 13.786
43.7793 13.7937
43.8273 13.6973
43.8755 13.7124
43.9237 13.65
43.9717 13.6388
44.0199 13.5662
44.068 13.5065
44.1162 13.4598
44.1642 13.4001
44.2125 13.3464
44.2606 13.3153
44.3088 13.2261
44.3569 13.2016
44.4052 13.1888
44.4533 13.1252
44.5016 13.0462
44.5497 13.0355
44.598 12.9658
44.6461 12.9981
44.6945 12.9282
44.7426 12.8678
44.791 12.7974
44.8391 12.7584
44.8875 12.7233
44.9357 12.6956
44.984 12.6073
45.0322 12.5506
45.0806 12.4574
45.1288 12.445
45.1773 12.436
45.2257 12.3861
45.2739 12.3664
45.3224 12.2906
45.3706 12.3068
45.4191 12.1942
45.4673 12.1456
45.5158 12.1413
45.5641 12.0796
45.6126 12.0651
45.6609 12.0181
45.7094 11.913
45.7577 11.8958
45.8063 11.9093
45.8546 11.8401
45.9031 11.7713
45.9515 11.7755
46.0001 11.7189
46.0484 11.6629
46.097 11.6245
46.1454 11.5996
46.194 11.5513
46.2424 11.4891
46.291 11.4725
46.3395 11.4117
46.3881 11.3606
46.4365 11.3496
46.4852 11.2858
46.5337 11.2653
46.5823 11.2561
46.631 11.1824
46.6795 11.1288
46.7282 11.0643
46.7767 11.0428
46.8254 11.0058
46.8739 10.9866
46.9226 10.9188
46.9712 10.9
47.0199 10.8431
47.0685 10.812
47.1173 10.7343
47.1658 10.7271
47.2146 10.6801
47.2632 10.6757
47.312 10.6347
47.3606 10.5339
47.4095 10.5085
47.4581 10.4851
47.5069 10.4371
47.5556 10.4003
47.6044 10.3689
47.6531 10.3082
47.702 10.2888
47.7507 10.2604
47.7996 10.2118
47.8483 10.1779
47.8972 10.124
47.9461 10.1511
47.9948 10.0528
48.0438 10.0167
48.0925 10.0237
48.1415 9.96302
48.1902 9.934
48.2392 9.90357
48.288 9.89193
48.337 9.80183
48.3858 9.80307
48.4348 9.7833
48.4837 9.74063
48.5327 9.7405
48.5815 9.63968
48.6306 9.6233
48.6795 9.57779
48.7285 9.5604
48.7774 9.50818
48.8265 9.46801
48.8754 9.44784
48.9245 9.42746
48.9734 9.34477
49.0226 9.33674
49.0715 9.30883
49.1206 9.27837
49.1696 9.21165
49.2188 9.2315
49.2679 9.13993
49.3169 9.11857
49.3661 9.06259
49.4151 9.04479
49.4643 9.00432
49.5134 8.96668
49.5626 8.95543
49.6117 8.91952
49.6609 8.94048
49.71 8.82441
49.7592 8.80268
49.8083 8.77492
49.8576 8.78043
49.9067 8.6646
49.956 8.72083
50.0052 8.65637
50.0545 8.64656
50.1036 8.59741
50.153 8.51348
50.2022 8.52666
50.2515 8.45166
50.3007 8.41179
50.3501 8.41159
50.3993 8.38609
50.4487 8.33358
50.498 8.32772
50.5474 8.27063
50.5966 8.23434
50.6461 8.22133
50.6955 8.21443
50.7448 8.14371
50.7943 8.12427
50.8436 8.10327
50.8931 8.06671
50.9424 8.01743
50.9919 8.00905
51.0413 7.98347
51.0908 7.95004
51.1402 7.90949
51.1897 7.87888
51.2391 7.87896
51.2887 7.78376
51.3381 7.76215
51.3877 7.75064
51.4371 7.7276
51.4867 7.65261
51.5362 7.63105
51.5858 7.62444
51.6353 7.5733
51.6849 7.54672
51.7344 7.51661
51.7841 7.48154
51.8336 7.48447
51.8833 7.45526
51.9328 7.39459
51.9826 7.39881
52.0323 7.36161
52.0818 7.29634
52.1316 7.2661
52.1812 7.27567
52.231 7.2144
52.2806 7.19813
52.3304 7.16339
52.38 7.14647
52.4298 7.11547
52.4794 7.03266
52.5293 7.06864
52.5789 7.01781
52.6288 7.00331
52.6785 6.9364
52.7284 6.93435
52.7781 6.91224
52.828 6.85238
52.8777 6.85984
52.9276 6.80763
52.9774 6.81375
53.0273 6.78743
53.0771 6.70369
53.1271 6.73908
53.1769 6.66219
53.2269 6.63952
53.2767 6.60579
53.3267 6.59627
53.3765 6.54581
53.4266 6.55462
53.4766 6.53572
53.5265 6.45643
53.5765 6.45254
53.6264 6.40871
53.6765 6.36359
53.7264 6.35662
53.7765 6.35777
53.8265 6.29628
53.8766 6.25073
53.9266 6.25187
53.9767 6.24192
54.0267 6.18648
54.0769 6.1704
54.1269 6.1176
54.1771 6.08518
54.2271 6.05415
54.2773 6.03454
54.3274 6.01182
54.3776 5.959
54.4277 5.95223
54.478 5.93402
54.528 5.88057
54.5783 5.83059
54.6285 5.79108
54.6788 5.81196
54.7289 5.67023
54.7792 5.68445
54.8296 5.60582
54.8798 5.53436
54.9301 5.57541
54.9803 5.49117
55.0307 5.47276
55.0809 5.42434
55.1314 5.39903
55.1816 5.36119
55.232 5.33014
55.2823 5.3012
55.3328 5.19887
55.383 5.16706
55.4335 5.16797
55.4838 5.08176
55.5344 5.02627
55.5847 4.99242
55.6352 4.97072
55.6856 4.88643
55.7361 4.88765