File: XRD/Ni3Fe_FD0928.xy
TT I
1.27165 7.59743
1.31627 6.77944
1.36089 5.90038
1.40551 5.58214
1.45013 6.30788
1.49476 6.61756
1.53938 5.74346
1.584 5.439
1.62863 5.28952
1.67325 4.73896
1.71787 5.39415
1.7625 4.53528
1.80712 4.43406
1.85174 4.64758
1.89636 4.37655
1.94099 5.04499
1.98562 4.26337
2.03025 4.52219
2.07487 4.58146
2.11949 4.68021
2.16411 4.95243
2.20874 8.49799
2.25338 10.3023
2.298 5.91213
2.34263 5.12796
2.38725 6.31789
2.43188 5.89227
2.4765 7.88515
2.52115 6.96248
2.56577 8.04195
2.6104 8.93761
2.65503 7.92577
2.69965 8.69609
2.7443 9.288
2.78893 7.93887
2.83356 8.5667
2.87818 9.50426
2.92281 8.93679
2.96744 10.0553
3.01209 10.5872
3.05672 11.3997
3.10135 12.35
3.14599 12.9373
3.19062 14.0284
3.23527 15.2125
3.2799 15.7301
3.32454 16.6803
3.36917 17.1108
3.4138 18.977
3.45844 19.285
3.50309 20.3579
3.54773 21.1392
3.59237 23.1436
3.637 47.1899
3.68164 35.4789
3.7263 25.1794
3.77094 25.5998
3.81558 26.2043
3.86022 27.1177
3.90486 28.1859
3.9495 29.3413
3.99416 30.3806
4.0388 31.4897
4.08344 32.694
4.12809 33.9353
4.17273 35.642
4.21738 38.8382
4.26204 113.352
4.30669 98.4148
4.35133 43.7474
4.39598 42.8834
4.44063 47.4131
4.4853 52.6498
4.52995 57.8898
4.5746 58.4428
4.61925 53.3831
4.6639 54.8558
4.70855 57.1771
4.75322 61.0017
4.79788 68.0424
4.84253 67.654
4.88719 75.2393
4.93184 75.9431
4.97652 80.079
5.02118 86.2431
5.06583 93.6826
5.11049 104.514
5.15515 153.837
5.19981 368.97
5.24449 2763.1
5.28916 13570.8
5.33382 2679.24
5.37848 193.377
5.42315 129.789
5.46783 119.104
5.5125 112.653
5.55716 100.82
5.60183 96.2982
5.6465 94.3791
5.69117 92.747
5.73586 91.8616
5.78053 98.3577
5.8252 98.0628
5.86988 101.058
5.91455 93.7437
5.95924 101.885
6.00392 227.059
6.0486 907.813
6.09328 4680.43
6.13795 3004.66
6.18263 193.763
6.22733 87.4718
6.27201 78.9856
6.3167 82.2934
6.36138 73.045
6.40606 69.3994
6.45075 69.7414
6.49545 64.6357
6.54014 62.4
6.58483 61.8525
6.62952 62.5563
6.67421 71.6449
6.71892 86.3868
6.76361 61.1979
6.8083 58.8496
6.853 59.8728
6.89769 56.1734
6.94239 55.0835
6.98711 54.9215
7.03181 55.2469
7.07651 54.0475
7.12121 53.9602
7.16591 55.9068
7.21063 54.7875
7.25533 59.157
7.30004 94.7791
7.34475 65.8698
7.38945 53.9484
7.43416 52.9218
7.47889 52.6984
7.5236 53.6598
7.56831 54.2511
7.61303 54.5999
7.65774 55.1953
7.70247 56.189
7.74719 55.7428
7.79191 55.434
7.83663 55.5534
7.88135 56.8966
7.92607 57.9141
7.97081 58.656
8.01553 59.9826
8.06026 62.0891
8.10498 63.5393
8.14971 70.3806
8.19446 70.1322
8.23919 68.6717
8.28392 70.8513
8.32865 73.2083
8.37339 77.1531
8.41812 82.5026
8.46288 100.112
8.50761 169.557
8.55235 362.898
8.59709 1206.19
8.64183 2217.75
8.68658 839.187
8.73134 139.014
8.77609 95.8465
8.82083 91.1639
8.86558 91.5873
8.91033 92.0601
8.9551 88.7666
8.99985 84.2974
9.04461 82.8798
9.08936 83.5642
9.13412 81.9296
9.17888 80.8137
9.22365 81.0522
9.26841 80.7555
9.31318 84.2954
9.35794 86.382
9.4027 85.5932
9.44749 84.294
9.49226 83.7961
9.53703 84.5746
9.5818 88.4941
9.62657 93.8086
9.67134 94.6949
9.71614 91.3336
9.76091 93.9567
9.80569 98.6975
9.85047 100.609
9.89525 110.2
9.94005 124.343
9.98484 183.606
10.0296 328.346
10.0744 822.74
10.1192 1856.09
10.164 1469.34
10.2088 325.447
10.2536 117.968
10.2984 107.569
10.3432 106.247
10.388 103.143
10.4328 119.289
10.4776 157.404
10.5224 288.405
10.5672 543.528
10.612 484.27
10.6568 178.41
10.7017 91.783
10.7465 84.9927
10.7913 81.4593
10.8361 79.4784
10.8809 77.6766
10.9257 76.9155
10.9706 77.1722
11.0154 74.4939
11.0602 71.8083
11.105 70.2216
11.1499 70.8939
11.1947 72.5427
11.2395 68.8886
11.2844 67.5284
11.3292 65.7039
11.374 64.8766
11.4189 64.707
11.4637 63.4774
11.5086 63.4547
11.5534 64.4694
11.5983 63.1478
11.6431 62.396
11.688 61.6427
11.7328 61.8256
11.7777 61.8655
11.8225 61.7068
11.8674 61.4356
11.9122 61.531
11.9571 61.9095
12.002 63.3271
12.0468 67.3304
12.0917 76.9052
12.1366 101.132
12.1814 159.506
12.2263 211.832
12.2712 154.071
12.3161 86.3227
12.3609 65.5685
12.4058 63.1073
12.4507 62.863
12.4956 63.8364
12.5405 64.0357
12.5853 64.1595
12.6302 66.4076
12.6751 69.289
12.72 66.6537
12.7649 66.355
12.8098 67.2545
12.8547 68.8077
12.8996 70.5513
12.9445 72.1331
12.9894 73.3809
13.0343 75.1664
13.0792 79.3508
13.1242 90.7663
13.1691 108.843
13.214 145.01
13.2589 245.516
13.3038 391.229
13.3487 418.627
13.3937 228.618
13.4386 114.396
13.4835 104.033
13.5285 117.388
13.5734 156.995
13.6183 258.45
13.6633 370.917
13.7082 324.84
13.7531 166.073
13.7981 91.6787
13.843 79.9791
13.888 78.2341
13.9329 75.8004
13.9779 74.7278
14.0228 73.0037
14.0678 71.7318
14.1127 71.2639
14.1577 70.4948
14.2027 70.1363
14.2476 69.1298
14.2926 68.9179
14.3376 69.2516
14.3825 68.5488
14.4275 67.8646
14.4725 67.6581
14.5175 67.6264
14.5624 67.259
14.6074 68.6785
14.6524 69.3575
14.6974 69.6669
14.7424 72.7473
14.7874 78.3178
14.8324 87.3767
14.8774 110.134
14.9224 158.637
14.9674 219.058
15.0124 214.206
15.0574 137.489
15.1024 84.2553
15.1474 70.4994
15.1924 69.1567
15.2374 68.4074
15.2824 67.1793
15.3274 66.2534
15.3725 65.6402
15.4175 65.2283
15.4625 64.6279
15.5076 64.5514
15.5526 64.6385
15.5976 64.6635
15.6426 66.6806
15.6877 71.4426
15.7327 78.3824
15.7778 93.6372
15.8228 128.32
15.8679 177.618
15.9129 195.667
15.958 145.787
16.003 87.4749
16.0481 64.6599
16.0931 61.907
16.1382 60.2998
16.1833 59.0322
16.2283 57.6896
16.2734 57.1911
16.3185 56.7591
16.3636 56.6951
16.4086 55.7154
16.4537 55.0859
16.4988 54.3595
16.5439 54.4424
16.589 54.1785
16.6341 53.7036
16.6792 53.5103
16.7243 53.6776
16.7694 53.6412
16.8145 53.7171
16.8596 54.1082
16.9047 54.6432
16.9498 54.5517
16.9949 54.4241
17.04 55.0729
17.0851 56.0301
17.1302 57.5205
17.1754 60.5806
17.2205 66.2132
17.2656 74.731
17.3108 82.998
17.3559 80.4063
17.401 67.384
17.4462 60.1477
17.4913 58.169
17.5365 58.1438
17.5815 58.1922
17.6268 58.7048
17.6718 59.4003
17.7171 59.5773
17.7622 60.3158
17.8074 61.389
17.8525 63.867
17.8977 67.1828
17.9428 72.2001
17.9881 81.8005
18.0331 100.85
18.0784 126.327
18.1237 140.68
18.1688 126.046
18.214 96.6892
18.2591 83.6457
18.3044 90.8396
18.3495 101.515
18.3948 104.937
18.4399 90.6235
18.4852 72.8677
18.5303 63.8131
18.5756 61.0065
18.6207 60.0137
18.666 59.1205
18.7112 58.6167
18.7565 57.9116
18.8016 57.6539
18.8469 57.0765
18.892 56.7698
18.9374 56.1965
18.9825 55.883
19.0278 55.7884
19.073 56.1893
19.1183 56.2656
19.1635 56.7593
19.2088 57.9754
19.254 61.2379
19.2993 66.2456
19.3447 72.2002
19.3898 74.8649
19.4352 69.0643
19.4804 60.2879
19.5257 55.0815
19.5709 52.94
19.6163 52.8774
19.6615 52.7723
19.7068 52.3026
19.752 52.5217
19.7974 52.9187
19.8426 53.4172
19.888 53.8791
19.9332 55.4469
19.9786 58.247
20.0238 62.3163
20.0692 67.5676
20.1144 69.4374
20.1598 66.2484
20.205 61.5906
20.2504 61.4415
20.2957 64.1046
20.3411 65.2717
20.3863 62.1269
20.4318 56.1944
20.477 51.7602
20.5224 50.0863
20.5677 49.7206
20.6131 49.1941
20.6586 48.7808
20.7038 48.7314
20.7493 48.0928
20.7945 48.1149
20.84 47.9658
20.8853 48.0604
20.9307 47.8311
20.976 47.832
21.0215 47.5777
21.0668 48.3261
21.1122 48.7054
21.1575 49.199
21.203 50.137
21.2483 50.5798
21.2938 50.4303
21.3391 49.0152
21.3846 47.9086
21.4299 47.4619
21.4754 47.6495
21.5207 47.9684
21.5662 48.0817
21.6116 48.4357
21.6571 49.0592
21.7024 49.8774
21.7479 51.6769
21.7933 55.1017
21.8388 58.8428
21.8843 63.0894
21.9297 64.2732
21.9752 61.4333
22.0206 57.471
22.0661 55.3959
22.1115 55.6491
22.157 54.9562
22.2024 52.765
22.248 50.0517
22.2933 48.699
22.3389 48.2853
22.3843 47.9805
22.4299 47.7198
22.4753 47.8398
22.5208 47.7602
22.5662 47.7466
22.6118 47.9497
22.6572 48.0129
22.7028 48.4486
22.7483 48.7339
22.7939 49.6021
22.8393 51.3473
22.8849 53.603
22.9303 55.9753
22.9759 57.2872
23.0214 56.0718
23.067 52.8683
23.1126 49.8035
23.1581 48.1008
23.2037 48.0534
23.2492 47.9596
23.2948 47.9087
23.3403 48.3024
23.3859 48.8538
23.4314 50.0168
23.477 52.1228
23.5225 54.791
23.5682 56.9244
23.6137 57.4113
23.6593 53.9852
23.7048 49.9033
23.7505 47.101
23.796 45.4998
23.8417 45.1327
23.8872 44.8003
23.9329 44.468
23.9784 44.1344
24.0241 43.8619
24.0697 43.5734
24.1154 43.3409
24.1609 43.2413
24.2066 43.0106
24.2522 42.9188
24.2979 42.7576
24.3434 42.5722
24.3892 42.4267
24.4349 42.2899
24.4805 42.3665
24.5262 42.4074
24.5718 42.1931
24.6175 42.0655
24.6631 41.9443
24.7089 41.7129
24.7545 41.7547
24.8002 41.5026
24.8458 41.4481
24.8916 41.434
24.9372 41.5378
24.983 41.8618
25.0286 42.2586
25.0744 42.5571
25.12 43.2784
25.1658 43.7145
25.2114 43.9457
25.2572 44.1403
25.3029 44.2452
25.3487 44.3236
25.3943 43.8781
25.4402 42.3908
25.4858 41.522
25.5316 40.5673
25.5773 40.1879
25.6231 40.2648
25.669 39.8106
25.7147 39.714
25.7605 39.6424
25.8062 39.7885
25.8521 39.9142
25.8977 39.9283
25.9436 40.216
25.9893 40.4284
26.0352 40.8114
26.0809 41.0953
26.1268 41.0509
26.1725 40.6621
26.2184 39.9451
26.2641 39.6232
26.31 39.2797
26.3557 39.4797
26.4017 39.3449
26.4474 39.838
26.4933 40.2106
26.5391 40.5917
26.585 41.2326
26.6308 41.4908
26.6767 41.5354
26.7225 41.184
26.7684 40.5916
26.8142 40.1607
26.8601 39.7607
26.9059 39.271
26.9519 38.7763
26.9979 38.5669
27.0437 38.2959
27.0896 38.0268
27.1354 38.1233
27.1814 37.9807
27.2272 37.7921
27.2732 37.8492
27.3191 37.7517
27.3651 37.8789
27.4109 37.7877
27.4569 37.9751
27.5027 37.94
27.5488 37.9692
27.5946 37.8211
27.6407 37.4377
27.6865 37.414
27.7326 37.3239
27.7784 37.4427
27.8245 37.1303
27.8703 37.3119
27.9164 37.6419
27.9623 37.8833
28.0084 38.2796
28.0543 38.6134
28.1003 38.3565
28.1462 38.178
28.1923 37.7463
28.2384 37.2554
28.2843 36.9313
28.3304 36.5379
28.3764 36.0247
28.4225 35.6996
28.4684 35.6436
28.5145 35.4787
28.5605 35.3165
28.6066 35.0889
28.6526 35.0767
28.6987 35.0171
28.7447 34.9327
28.7908 34.8669
28.8368 34.9087
28.8829 34.9329
28.9289 34.6844
28.9751 34.5148
29.0211 34.242
29.0673 34.0602
29.1133 33.9349
29.1595 33.871
29.2055 33.6822
29.2517 33.8155
29.2977 33.6856
29.3439 33.626
29.3899 33.7067
29.4361 33.5375
29.4824 33.3558
29.5284 33.1535
29.5746 32.8257
29.6207 32.6006
29.6669 32.5051
29.713 32.3493
29.7593 32.1926
29.8053 32.3596
29.8516 32.2739
29.8977 32.156
29.9439 31.9608
29.99 31.9585
30.0363 31.8652
30.0824 31.9312
30.1287 31.8056
30.1748 31.9016
30.2211 31.9083
30.2673 31.6742
30.3136 31.8442
30.3597 31.7296
30.406 31.6197
30.4522 31.4875
30.4985 31.4794
30.5447 31.7256
30.591 31.5156
30.6372 31.7535
30.6835 31.7198
30.7297 31.6572
30.7761 31.7017
30.8224 31.4433
30.8686 31.3228
30.915 31.05
30.9612 30.9152
31.0076 30.8044
31.0538 30.6764
31.1002 30.5941
31.1464 30.3985
31.1928 30.4
31.2391 30.4319
31.2855 30.4432
31.3317 30.2817
31.3781 30.4603
31.4244 30.3767
31.4708 30.3013
31.5171 30.3295
31.5636 30.2652
31.6098 29.9077
31.6563 29.8053
31.7026 29.7302
31.7491 29.6162
31.7953 29.6478
31.8418 29.7657
31.8881 29.6694
31.9346 29.6334
31.9809 29.516
32.0275 29.4273
32.074 29.3071
32.1203 29.0282
32.1668 29.0452
32.2132 28.8158
32.2597 28.6668
32.306 28.7314
32.3526 28.4619
32.399 28.4225
32.4455 28.2076
32.4919 28.1733
32.5385 28.1938
32.5848 28.0469
32.6314 28.0396
32.6778 27.9623
32.7244 27.7552
32.7708 27.6992
32.8174 27.707
32.8638 27.4712
32.9104 27.6164
32.9569 27.5322
33.0035 27.379
33.0499 27.4388
33.0966 27.3619
33.143 27.3636
33.1897 27.349
33.2361 27.1158
33.2828 27.0156
33.3293 26.9175
33.3759 26.9308
33.4226 26.756
33.4691 26.616
33.5158 26.5328
33.5623 26.4042
33.609 26.2831
33.6555 26.2068
33.7022 26.1621
33.7487 25.9948
33.7954 26.1449
33.842 25.9311
33.8887 25.9103
33.9353 25.8232
33.982 25.6732
34.0286 25.6448
34.0753 25.5655
34.1219 25.4154
34.1687 25.3882
34.2152 25.3294
34.262 25.2934
34.3086 25.2135
34.3554 25.1318
34.402 24.9635
34.4488 24.9016
34.4954 24.7549
34.5422 24.7776
34.5889 24.6244
34.6357 24.4932
34.6825 24.4439
34.7292 24.3844
34.776 24.402
34.8227 24.2563
34.8695 24.2217
34.9162 24.1905
34.9631 24.0877
35.0098 24.1013
35.0566 23.9615
35.1033 23.88
35.1502 23.8629
35.1969 23.7418
35.2438 23.7267
35.2906 23.7087
35.3375 23.6444
35.3842 23.5593
35.4311 23.6835
35.4779 23.5358
35.5248 23.5038
35.5716 23.405
35.6185 23.3029
35.6653 23.1774
35.7123 23.1847
35.759 23.0354
35.806 22.9903
35.8528 22.8781
35.8998 22.8185
35.9468 22.6326
35.9936 22.7526
36.0406 22.5784
36.0874 22.5845
36.1345 22.4847
36.1813 22.5676
36.2283 22.3512
36.2752 22.2209
36.3222 22.3342
36.3691 22.1729
36.4161 22.0866
36.463 22.0445
36.5101 22.0715
36.557 21.9198
36.6041 21.7449
36.651 21.7405
36.6981 21.7397
36.745 21.6629
36.7921 21.6092
36.839 21.5464
36.8861 21.4407
36.9331 21.3317
36.9802 21.3051
37.0272 21.2071
37.0743 21.128
37.1213 21.1107
37.1684 21.0557
37.2154 20.9922
37.2626 20.8897
37.3098 20.8321
37.3568 20.755
37.404 20.7267
37.451 20.6531
37.4982 20.6116
37.5452 20.4554
37.5924 20.4577
37.6395 20.4287
37.6867 20.3093
37.7337 20.2434
37.781 20.1855
37.8281 20.1491
37.8753 20.041
37.9224 19.9157
37.9697 19.8756
38.0168 19.8668
38.064 19.7467
38.1111 19.7247
38.1584 19.6852
38.2056 19.605
38.2529 19.5114
38.3 19.4978
38.3473 19.4461
38.3945 19.3358
38.4418 19.33
38.489 19.2417
38.5363 19.1253
38.5837 19.052
38.6309 19.0887
38.6782 19.0062
38.7254 18.9451
38.7728 18.8683
38.82 18.8446
38.8674 18.8445
38.9146 18.7021
38.9621 18.605
39.0093 18.5425
39.0567 18.5489
39.104 18.4976
39.1514 18.3471
39.1987 18.3619
39.2461 18.3315
39.2934 18.3042
39.3409 18.1714
39.3882 18.0902
39.4356 18.0161
39.483 17.9945
39.5304 17.9593
39.5778 17.8873
39.6253 17.8259
39.6726 17.7866
39.7201 17.7348
39.7675 17.6523
39.815 17.6273
39.8624 17.5242
39.9099 17.525
39.9575 17.438
40.0049 17.3685
40.0525 17.2872
40.0999 17.2695
40.1474 17.2175
40.1949 17.2282
40.2425 17.1088
40.2899 17.0337
40.3375 16.9771
40.385 16.9334
40.4326 16.9039
40.48 16.8203
40.5277 16.8141
40.5752 16.7359
40.6228 16.6079
40.6703 16.5875
40.718 16.608
40.7655 16.5857
40.8132 16.4085
40.8607 16.465
40.9084 16.3605
40.9559 16.3163
41.0036 16.3038
41.0512 16.2382
41.0989 16.1712
41.1465 16.1405
41.1942 16.0849
41.242 15.9682
41.2896 15.9499
41.3373 15.8697
41.3849 15.8802
41.4327 15.7328
41.4803 15.6949
41.5281 15.684
41.5758 15.6038
41.6236 15.5935
41.6712 15.4905
41.7191 15.4561
41.7667 15.3989
41.8146 15.4053
41.8622 15.3206
41.9101 15.2363
41.9578 15.1113
42.0057 15.1564
42.0534 15.1113
42.1013 15.0632
42.149 14.9816
42.1969 14.9302
42.2446 14.9321
42.2925 14.8312
42.3403 14.7771
42.3882 14.7931
42.436 14.707
42.4839 14.6446
42.5319 14.5848
42.5797 14.5585
42.6277 14.558
42.6755 14.5319
42.7235 14.4284
42.7713 14.3592
42.8193 14.3186
42.8671 14.2438
42.9152 14.1755
42.963 14.1746
43.0111 14.107
43.0589 14.1054
43.107 14.0192
43.1549 13.9429
43.2029 13.9015
43.2508 13.8741
43.2989 13.799
43.3468 13.7534
43.3949 13.7347
43.4429 13.6616
43.491 13.6456
43.5389 13.5952
43.5871 13.5668
43.635 13.5297
43.6832 13.4715
43.7312 13.3809
43.7793 13.3637
43.8273 13.3535
43.8755 13.25
43.9237 13.2779
43.9717 13.212
44.0199 13.1149
44.068 13.158
44.1162 13.0259
44.1642 13.0186
44.2125 12.9759
44.2606 12.8943
44.3088 12.8562
44.3569 12.7912
44.4052 12.8027
44.4533 12.7228
44.5016 12.6832
44.5497 12.6018
44.598 12.6071
44.6461 12.5396
44.6945 12.5275
44.7426 12.4973
44.791 12.3979
44.8391 12.3855
44.8875 12.3148
44.9357 12.293
44.984 12.2471
45.0322 12.2336
45.0806 12.1421
45.1288 12.0906
45.1773 12.0942
45.2257 12.0094
45.2739 11.9896
45.3224 11.9654
45.3706 11.8881
45.4191 11.8449
45.4673 11.8085
45.5158 11.7933
45.5641 11.7201
45.6126 11.6882
45.6609 11.6631
45.7094 11.5792
45.7577 11.5286
45.8063 11.4781
45.8546 11.4921
45.9031 11.431
45.9515 11.4018
46.0001 11.3243
46.0484 11.3374
46.097 11.2681
46.1454 11.2493
46.194 11.1643
46.2424 11.1124
46.291 11.1243
46.3395 11.0719
46.3881 10.9976
46.4365 11.0072
46.4852 10.9581
46.5337 10.899
46.5823 10.8932
46.631 10.8417
46.6795 10.8042
46.7282 10.7578
46.7767 10.7314
46.8254 10.6631
46.8739 10.6159
46.9226 10.5846
46.9712 10.5473
47.0199 10.4962
47.0685 10.4922
47.1173 10.4134
47.1658 10.4172
47.2146 10.3887
47.2632 10.3089
47.312 10.2641
47.3606 10.2739
47.4095 10.2035
47.4581 10.182
47.5069 10.1106
47.5556 10.0772
47.6044 10.0502
47.6531 10.0129
47.702 9.96101
47.7507 9.9579
47.7996 9.89125
47.8483 9.87147
47.8972 9.86165
47.9461 9.83766
47.9948 9.75811
48.0438 9.74228
48.0925 9.72939
48.1415 9.68038
48.1902 9.64266
48.2392 9.59221
48.288 9.58435
48.337 9.51546
48.3858 9.5283
48.4348 9.47939
48.4837 9.41562
48.5327 9.43871
48.5815 9.33753
48.6306 9.34958
48.6795 9.28449
48.7285 9.24461
48.7774 9.24101
48.8265 9.20492
48.8754 9.14968
48.9245 9.11706
48.9734 9.07404
49.0226 9.05992
49.0715 9.02464
49.1206 8.94812
49.1696 8.96434
49.2188 8.90313
49.2679 8.87285
49.3169 8.82746
49.3661 8.81254
49.4151 8.79142
49.4643 8.71884
49.5134 8.74543
49.5626 8.62392
49.6117 8.65719
49.6609 8.60672
49.71 8.57942
49.7592 8.53248
49.8083 8.47205
49.8576 8.46956
49.9067 8.42773
49.956 8.40001
50.0052 8.38056
50.0545 8.36502
50.1036 8.30502
50.153 8.27897
50.2022 8.23855
50.2515 8.23464
50.3007 8.15182
50.3501 8.127
50.3993 8.11954
50.4487 8.07987
50.498 8.07224
50.5474 8.06373
50.5966 7.99272
50.6461 7.96179
50.6955 7.9291
50.7448 7.93727
50.7943 7.87165
50.8436 7.86634
50.8931 7.80902
50.9424 7.79462
50.9919 7.76921
51.0413 7.75369
51.0908 7.71185
51.1402 7.65689
51.1897 7.64135
51.2391 7.60465
51.2887 7.56171
51.3381 7.52771
51.3877 7.52601
51.4371 7.47407
51.4867 7.45377
51.5362 7.43118
51.5858 7.39209
51.6353 7.35986
51.6849 7.2974
51.7344 7.27082
51.7841 7.33069
51.8336 7.23889
51.8833 7.25524
51.9328 7.17118
51.9826 7.15129
52.0323 7.14003
52.0818 7.13288
52.1316 7.05078
52.1812 7.07441
52.231 7.02
52.2806 6.95055
52.3304 6.93498
52.38 6.90301
52.4298 6.85701
52.4794 6.85068
52.5293 6.83446
52.5789 6.81176
52.6288 6.79027
52.6785 6.75851
52.7284 6.73268
52.7781 6.72724
52.828 6.6791
52.8777 6.61301
52.9276 6.62797
52.9774 6.58343
53.0273 6.5359
53.0771 6.54709
53.1271 6.54531
53.1769 6.44933
53.2269 6.43884
53.2767 6.4001
53.3267 6.39387
53.3765 6.37612
53.4266 6.33276
53.4766 6.3386
53.5265 6.26218
53.5765 6.25655
53.6264 6.2157
53.6765 6.2304
53.7264 6.1594
53.7765 6.18796
53.8265 6.10847
53.8766 6.08838
53.9266 6.10246
53.9767 6.07746
54.0267 5.97153
54.0769 5.95001
54.1269 5.94094
54.1771 5.96782
54.2271 5.8693
54.2773 5.84215
54.3274 5.84578
54.3776 5.82628
54.4277 5.77086
54.478 5.76469
54.528 5.68418
54.5783 5.64285
54.6285 5.62044
54.6788 5.59805
54.7289 5.57199
54.7792 5.53072
54.8296 5.4675
54.8798 5.43983
54.9301 5.401
54.9803 5.31239
55.0307 5.30782
55.0809 5.27994
55.1314 5.25432
55.1816 5.18363
55.232 5.15431
55.2823 5.12411
55.3328 5.04227
55.383 5.03194
55.4335 4.99874
55.4838 4.90864
55.5344 4.85911
55.5847 4.86925
55.6352 4.79684
55.6856 4.74784
55.7361 4.69762