File: XRD/Ni3Fe_FD0295.xy
TT I
1.27165 7.50517
1.31627 6.7472
1.36089 7.08727
1.40551 6.78241
1.45013 6.3128
1.49476 6.64239
1.53938 6.50205
1.584 5.646
1.62863 5.47379
1.67325 5.23568
1.71787 5.57779
1.7625 5.37984
1.80712 5.48331
1.85174 5.44443
1.89636 5.33469
1.94099 5.31142
1.98562 4.68442
2.03025 5.00903
2.07487 4.23046
2.11949 5.53874
2.16411 5.36325
2.20874 17.0077
2.25338 29.8289
2.298 6.45881
2.34263 5.2255
2.38725 5.70855
2.43188 4.98954
2.4765 6.20238
2.52115 6.32272
2.56577 6.23076
2.6104 7.16476
2.65503 7.09665
2.69965 7.25453
2.7443 7.48578
2.78893 8.07064
2.83356 7.78472
2.87818 8.20196
2.92281 9.43038
2.96744 9.41312
3.01209 10.1663
3.05672 11.0659
3.10135 12.6629
3.14599 12.7942
3.19062 14.3697
3.23527 15.7195
3.2799 15.9437
3.32454 17.0386
3.36917 17.8348
3.4138 19.3484
3.45844 20.5953
3.50309 21.6872
3.54773 22.472
3.59237 25.1278
3.637 117.858
3.68164 73.7459
3.7263 27.1508
3.77094 27.0614
3.81558 27.3606
3.86022 28.3765
3.90486 30.0672
3.9495 30.5614
3.99416 31.689
4.0388 33.1721
4.08344 35.0255
4.12809 36.2934
4.17273 38.6365
4.21738 46.3045
4.26204 322.879
4.30669 291.193
4.35133 53.2208
4.39598 46.165
4.44063 58.2776
4.4853 74.3801
4.52995 53.4824
4.5746 53.1629
4.61925 54.9959
4.6639 57.2193
4.70855 59.714
4.75322 62.9818
4.79788 65.8356
4.84253 69.185
4.88719 73.9901
4.93184 77.7399
4.97652 83.3541
5.02118 91.1338
5.06583 99.4133
5.11049 114.873
5.15515 212.233
5.19981 500.411
5.24449 3058.42
5.28916 10916.0
5.33382 4249.46
5.37848 258.606
5.42315 146.465
5.46783 124.125
5.5125 113.023
5.55716 107.648
5.60183 103.63
5.6465 101.723
5.69117 98.5622
5.73586 96.6737
5.78053 96.8939
5.8252 96.6529
5.86988 98.0115
5.91455 100.763
5.95924 112.003
6.00392 255.824
6.0486 1057.67
6.09328 3698.62
6.13795 3849.33
6.18263 371.232
6.22733 107.148
6.27201 90.0942
6.3167 117.164
6.36138 87.9592
6.40606 73.0731
6.45075 70.4225
6.49545 68.1954
6.54014 66.2436
6.58483 65.4513
6.62952 65.8678
6.67421 106.414
6.71892 180.316
6.76361 75.0543
6.8083 61.6909
6.853 60.1241
6.89769 59.2688
6.94239 58.8016
6.98711 58.1542
7.03181 57.7186
7.07651 57.5179
7.12121 57.5628
7.16591 58.029
7.21063 58.4932
7.25533 77.297
7.30004 229.212
7.34475 109.756
7.38945 59.4568
7.43416 56.7813
7.47889 56.7212
7.5236 56.8871
7.56831 57.4938
7.61303 59.6158
7.65774 60.3192
7.70247 58.185
7.74719 58.4148
7.79191 59.0759
7.83663 58.6102
7.88135 60.1078
7.92607 60.6048
7.97081 61.8916
8.01553 63.0602
8.06026 64.7996
8.10498 66.0617
8.14971 78.9354
8.19446 76.8444
8.23919 72.0757
8.28392 74.6834
8.32865 76.5722
8.37339 81.5409
8.41812 89.6475
8.46288 129.088
8.50761 190.84
8.55235 434.919
8.59709 999.952
8.64183 2066.99
8.68658 1270.44
8.73134 225.613
8.77609 108.393
8.82083 97.8457
8.86558 93.8746
8.91033 94.8594
8.9551 97.5436
8.99985 88.9772
9.04461 86.4536
9.08936 85.7873
9.13412 84.9317
9.17888 84.8827
9.22365 86.3318
9.26841 84.6985
9.31318 85.5637
9.35794 86.0038
9.4027 86.0529
9.44749 86.8731
9.49226 87.8654
9.53703 88.3882
9.5818 90.4999
9.62657 96.468
9.67134 105.36
9.71614 97.6246
9.76091 97.4753
9.80569 100.092
9.85047 103.799
9.89525 135.609
9.94005 153.104
9.98484 198.223
10.0296 381.713
10.0744 713.3
10.1192 1483.72
10.164 1798.79
10.2088 589.695
10.2536 152.481
10.2984 122.585
10.3432 124.913
10.388 110.813
10.4328 126.707
10.4776 172.264
10.5224 255.721
10.5672 450.537
10.612 558.417
10.6568 258.686
10.7017 107.473
10.7465 90.9235
10.7913 86.5333
10.8361 84.4369
10.8809 81.9338
10.9257 81.6778
10.9706 83.1823
11.0154 78.1561
11.0602 75.5733
11.105 74.5551
11.1499 80.9833
11.1947 92.0327
11.2395 79.5313
11.2844 74.1741
11.3292 70.1706
11.374 68.7298
11.4189 68.184
11.4637 67.1537
11.5086 68.0702
11.5534 72.7058
11.5983 68.9816
11.6431 65.9739
11.688 65.3296
11.7328 65.1682
11.7777 65.2978
11.8225 64.7339
11.8674 64.7
11.9122 64.9789
11.9571 65.1219
12.002 65.8669
12.0468 71.1069
12.0917 84.3077
12.1366 102.203
12.1814 137.271
12.2263 195.166
12.2712 191.817
12.3161 115.738
12.3609 77.1833
12.4058 67.6704
12.4507 66.9154
12.4956 66.9043
12.5405 67.183
12.5853 68.216
12.6302 78.4946
12.6751 86.6663
12.72 74.22
12.7649 70.3929
12.8098 70.7307
12.8547 72.07
12.8996 73.6351
12.9445 74.6942
12.9894 76.6085
13.0343 78.2805
13.0792 81.899
13.1242 92.9133
13.1691 121.503
13.214 153.738
13.2589 212.664
13.3038 323.769
13.3487 437.195
13.3937 324.659
13.4386 148.775
13.4835 114.043
13.5285 129.943
13.5734 156.178
13.6183 214.893
13.6633 312.929
13.7082 372.568
13.7531 238.694
13.7981 113.754
13.843 86.0562
13.888 82.7929
13.9329 80.1857
13.9779 78.6129
14.0228 77.2696
14.0678 75.7871
14.1127 75.3449
14.1577 75.6379
14.2027 74.4761
14.2476 73.0115
14.2926 73.4315
14.3376 75.011
14.3825 73.51
14.4275 71.2517
14.4725 70.9992
14.5175 71.1253
14.5624 71.6656
14.6074 74.3105
14.6524 75.1941
14.6974 73.2312
14.7424 74.7695
14.7874 82.8215
14.8324 94.5137
14.8774 109.387
14.9224 138.24
14.9674 188.816
15.0124 228.403
15.0574 176.109
15.1024 105.31
15.1474 76.7107
15.1924 73.687
15.2374 74.7315
15.2824 73.9035
15.3274 71.1722
15.3725 69.4754
15.4175 68.7202
15.4625 68.4176
15.5076 68.9849
15.5526 68.758
15.5976 68.0617
15.6426 69.5801
15.6877 76.0788
15.7327 84.8341
15.7778 95.6917
15.8228 116.042
15.8679 153.014
15.9129 192.316
15.958 178.346
16.003 116.211
16.0481 74.8519
16.0931 68.6452
16.1382 66.2197
16.1833 63.3601
16.2283 61.2974
16.2734 60.8216
16.3185 61.4469
16.3636 62.5203
16.4086 60.6602
16.4537 58.7258
16.4988 57.6688
16.5439 57.6607
16.589 57.4029
16.6341 57.2862
16.6792 56.6691
16.7243 57.1217
16.7694 57.0547
16.8145 57.1666
16.8596 57.5058
16.9047 59.625
16.9498 59.7314
16.9949 57.8885
17.04 57.9102
17.0851 59.3603
17.1302 61.2
17.1754 63.6475
17.2205 67.0248
17.2656 72.4884
17.3108 82.0111
17.3559 86.1055
17.401 77.3049
17.4462 66.2386
17.4913 61.6229
17.5365 61.4115
17.5815 61.5003
17.6268 61.7108
17.6718 62.6943
17.7171 63.2434
17.7622 63.4648
17.8074 63.9126
17.8525 66.5937
17.8977 71.4869
17.9428 77.2089
17.9881 83.0104
18.0331 94.5986
18.0784 113.235
18.1237 137.866
18.1688 143.184
18.214 117.471
18.2591 92.2308
18.3044 88.8273
18.3495 97.0938
18.3948 108.457
18.4399 104.821
18.4852 85.7724
18.5303 70.2364
18.5756 64.9228
18.6207 63.8653
18.666 62.9226
18.7112 62.0751
18.7565 61.4813
18.8016 60.8649
18.8469 60.1505
18.892 60.1627
18.9374 59.4248
18.9825 59.1228
19.0278 59.0025
19.073 59.1897
19.1183 59.9827
19.1635 60.9279
19.2088 61.7554
19.254 63.4271
19.2993 66.1525
19.3447 71.8926
19.3898 78.2377
19.4352 77.2763
19.4804 68.7892
19.5257 60.606
19.5709 56.5233
19.6163 55.9259
19.6615 55.698
19.7068 55.3202
19.752 55.3395
19.7974 55.4875
19.8426 56.8979
19.888 57.5058
19.9332 58.1706
19.9786 59.8079
20.0238 62.3427
20.0692 67.034
20.1144 71.4485
20.1598 72.4762
20.205 67.5072
20.2504 63.7808
20.2957 64.1517
20.3411 67.0827
20.3863 67.6162
20.4318 62.6986
20.477 56.8775
20.5224 54.3523
20.5677 53.2677
20.6131 52.1749
20.6586 51.5294
20.7038 51.6216
20.7493 51.0105
20.7945 50.8296
20.84 50.8136
20.8853 50.4606
20.9307 50.3145
20.976 50.6008
21.0215 50.5086
21.0668 50.8457
21.1122 51.1952
21.1575 51.6802
21.203 52.0683
21.2483 53.0442
21.2938 53.5222
21.3391 52.3508
21.3846 51.0041
21.4299 50.3374
21.4754 50.2061
21.5207 50.1957
21.5662 50.5016
21.6116 51.0545
21.6571 51.8193
21.7024 52.8033
21.7479 54.3073
21.7933 56.1037
21.8388 58.9081
21.8843 62.8884
21.9297 66.3533
21.9752 67.0295
22.0206 63.2654
22.0661 58.7668
22.1115 57.6603
22.157 58.112
22.2024 57.1709
22.248 54.371
22.2933 52.2521
22.3389 51.1195
22.3843 51.1215
22.4299 50.8622
22.4753 50.8377
22.5208 50.5076
22.5662 50.354
22.6118 50.4448
22.6572 50.6638
22.7028 51.063
22.7483 51.6129
22.7939 52.0526
22.8393 52.9768
22.8849 54.715
22.9303 56.4703
22.9759 59.1152
23.0214 60.1639
23.067 57.9484
23.1126 54.2576
23.1581 51.5207
23.2037 50.8057
23.2492 50.8105
23.2948 50.8164
23.3403 51.2428
23.3859 51.596
23.4314 52.0551
23.477 53.2095
23.5225 54.946
23.5682 57.3017
23.6137 59.7483
23.6593 58.8572
23.7048 55.0477
23.7505 51.1677
23.796 48.776
23.8417 47.8537
23.8872 47.2449
23.9329 47.0565
23.9784 46.6101
24.0241 46.395
24.0697 46.087
24.1154 45.7206
24.1609 45.655
24.2066 45.5063
24.2522 45.353
24.2979 45.1606
24.3434 44.9319
24.3892 44.8676
24.4349 44.6516
24.4805 44.4416
24.5262 44.7169
24.5718 44.501
24.6175 44.537
24.6631 44.516
24.7089 44.0926
24.7545 44.1013
24.8002 43.7874
24.8458 43.8391
24.8916 43.6364
24.9372 43.9019
24.983 44.0181
25.0286 44.3
25.0744 44.6244
25.12 45.046
25.1658 45.7452
25.2114 46.1244
25.2572 46.0448
25.3029 46.2389
25.3487 46.1686
25.3943 46.4845
25.4402 45.6522
25.4858 44.5702
25.5316 43.4141
25.5773 42.4795
25.6231 42.5018
25.669 42.0736
25.7147 42.1602
25.7605 41.9042
25.8062 42.0667
25.8521 42.2135
25.8977 42.0891
25.9436 42.2505
25.9893 42.2834
26.0352 42.5992
26.0809 42.7519
26.1268 43.0985
26.1725 43.1216
26.2184 42.5443
26.2641 41.9673
26.31 41.6335
26.3557 41.675
26.4017 41.5924
26.4474 41.7834
26.4933 42.0069
26.5391 42.5071
26.585 42.8526
26.6308 43.2241
26.6767 43.5035
26.7225 43.6681
26.7684 43.1082
26.8142 42.3811
26.8601 41.9794
26.9059 41.7095
26.9519 41.0725
26.9979 40.6187
27.0437 40.3253
27.0896 40.0865
27.1354 40.197
27.1814 40.0281
27.2272 39.9543
27.2732 39.9592
27.3191 39.7304
27.3651 39.8565
27.4109 39.7847
27.4569 39.8148
27.5027 39.8838
27.5488 39.9109
27.5946 39.904
27.6407 39.7163
27.6865 39.4321
27.7326 39.318
27.7784 39.1854
27.8245 39.1537
27.8703 39.2564
27.9164 39.4825
27.9623 39.5685
28.0084 40.0001
28.0543 40.2385
28.1003 40.3642
28.1462 40.2555
28.1923 39.8936
28.2384 39.3855
28.2843 39.234
28.3304 38.7017
28.3764 38.2329
28.4225 37.8882
28.4684 37.6554
28.5145 37.3218
28.5605 37.1574
28.6066 36.9964
28.6526 37.0177
28.6987 36.8996
28.7447 36.699
28.7908 36.7775
28.8368 36.5353
28.8829 36.6831
28.9289 36.8317
28.9751 36.4954
29.0211 36.3789
29.0673 36.0286
29.1133 35.9272
29.1595 35.6567
29.2055 35.5568
29.2517 35.5206
29.2977 35.4523
29.3439 35.4609
29.3899 35.5321
29.4361 35.3908
29.4824 35.2996
29.5284 35.0601
29.5746 34.7482
29.6207 34.3871
29.6669 34.3185
29.713 34.2726
29.7593 34.0006
29.8053 34.2319
29.8516 34.0518
29.8977 34.1025
29.9439 33.8884
29.99 33.8662
30.0363 33.6605
30.0824 33.6888
30.1287 33.6512
30.1748 33.6324
30.2211 33.5567
30.2673 33.4678
30.3136 33.6256
30.3597 33.5854
30.406 33.3867
30.4522 33.263
30.4985 33.1986
30.5447 33.3443
30.591 33.2349
30.6372 33.3784
30.6835 33.3077
30.7297 33.416
30.7761 33.388
30.8224 33.2299
30.8686 33.1078
30.915 32.7925
30.9612 32.7823
31.0076 32.5521
31.0538 32.3632
31.1002 32.2898
31.1464 31.9454
31.1928 32.0901
31.2391 32.1639
31.2855 32.0022
31.3317 31.8536
31.3781 32.0029
31.4244 31.9297
31.4708 31.9817
31.5171 31.8891
31.5636 31.9256
31.6098 31.6792
31.6563 31.4638
31.7026 31.3901
31.7491 31.1535
31.7953 31.2374
31.8418 31.1874
31.8881 31.2359
31.9346 31.1805
31.9809 31.1467
32.0275 31.0434
32.074 30.9773
32.1203 30.7347
32.1668 30.6604
32.2132 30.5098
32.2597 30.327
32.306 30.32
32.3526 30.075
32.399 30.0605
32.4455 29.7869
32.4919 29.7382
32.5385 29.7353
32.5848 29.4753
32.6314 29.5617
32.6778 29.4096
32.7244 29.3402
32.7708 29.2879
32.8174 29.1855
32.8638 29.0978
32.9104 29.1147
32.9569 29.0396
33.0035 28.9552
33.0499 28.8447
33.0966 28.8137
33.143 28.7558
33.1897 28.6417
33.2361 28.6169
33.2828 28.6236
33.3293 28.4864
33.3759 28.4296
33.4226 28.2922
33.4691 28.1465
33.5158 28.0397
33.5623 28.0051
33.609 27.7079
33.6555 27.7207
33.7022 27.6334
33.7487 27.4973
33.7954 27.4987
33.842 27.3382
33.8887 27.359
33.9353 27.2926
33.982 27.058
34.0286 27.077
34.0753 27.0339
34.1219 26.8648
34.1687 26.7922
34.2152 26.7153
34.262 26.5678
34.3086 26.5126
34.3554 26.4287
34.402 26.2985
34.4488 26.1819
34.4954 26.1724
34.5422 26.0865
34.5889 26.0223
34.6357 25.9586
34.6825 25.9347
34.7292 25.7318
34.776 25.6624
34.8227 25.6073
34.8695 25.5741
34.9162 25.5283
34.9631 25.3289
35.0098 25.3612
35.0566 25.3036
35.1033 25.1996
35.1502 25.2239
35.1969 25.1594
35.2438 25.1034
35.2906 24.9421
35.3375 24.902
35.3842 24.8879
35.4311 24.8399
35.4779 24.8387
35.5248 24.8028
35.5716 24.7347
35.6185 24.5432
35.6653 24.5553
35.7123 24.2972
35.759 24.3625
35.806 24.2247
35.8528 24.1209
35.8998 24.0367
35.9468 23.954
35.9936 23.9694
36.0406 23.8172
36.0874 23.8403
36.1345 23.7583
36.1813 23.6354
36.2283 23.5553
36.2752 23.5624
36.3222 23.5407
36.3691 23.3897
36.4161 23.3207
36.463 23.2665
36.5101 23.2085
36.557 23.1797
36.6041 23.0756
36.651 23.0089
36.6981 22.9619
36.745 22.8458
36.7921 22.8007
36.839 22.7491
36.8861 22.5982
36.9331 22.5169
36.9802 22.4841
37.0272 22.4613
37.0743 22.2933
37.1213 22.3449
37.1684 22.2945
37.2154 22.1199
37.2626 22.0665
37.3098 22.0008
37.3568 21.9575
37.404 21.8735
37.451 21.8103
37.4982 21.7669
37.5452 21.6884
37.5924 21.5986
37.6395 21.6569
37.6867 21.5511
37.7337 21.3951
37.781 21.3119
37.8281 21.2863
37.8753 21.2251
37.9224 21.0153
37.9697 21.0102
38.0168 20.9643
38.064 20.9216
38.1111 20.8298
38.1584 20.7867
38.2056 20.7147
38.2529 20.6897
38.3 20.5702
38.3473 20.5949
38.3945 20.4056
38.4418 20.3966
38.489 20.2789
38.5363 20.2648
38.5837 20.1693
38.6309 20.1375
38.6782 20.085
38.7254 19.9782
38.7728 19.9027
38.82 19.8068
38.8674 19.8526
38.9146 19.7933
38.9621 19.7265
39.0093 19.6528
39.0567 19.6235
39.104 19.4394
39.1514 19.411
39.1987 19.3813
39.2461 19.3483
39.2934 19.2416
39.3409 19.1709
39.3882 19.0786
39.4356 19.0133
39.483 18.9809
39.5304 18.9456
39.5778 18.8952
39.6253 18.8293
39.6726 18.8333
39.7201 18.7267
39.7675 18.688
39.815 18.572
39.8624 18.5212
39.9099 18.4451
39.9575 18.4347
40.0049 18.3945
40.0525 18.2587
40.0999 18.2378
40.1474 18.1466
40.1949 18.1262
40.2425 18.0497
40.2899 17.9992
40.3375 17.986
40.385 17.9098
40.4326 17.8348
40.48 17.7946
40.5277 17.7526
40.5752 17.6651
40.6228 17.5457
40.6703 17.5941
40.718 17.4927
40.7655 17.4416
40.8132 17.368
40.8607 17.3584
40.9084 17.2986
40.9559 17.204
41.0036 17.1803
41.0512 17.0825
41.0989 17.0469
41.1465 17.014
41.1942 16.9538
41.242 16.8647
41.2896 16.8366
41.3373 16.7799
41.3849 16.7332
41.4327 16.6711
41.4803 16.6323
41.5281 16.527
41.5758 16.5163
41.6236 16.3574
41.6712 16.384
41.7191 16.3658
41.7667 16.2966
41.8146 16.2642
41.8622 16.131
41.9101 16.1207
41.9578 16.0551
42.0057 15.9815
42.0534 15.9616
42.1013 15.8934
42.149 15.8064
42.1969 15.8288
42.2446 15.7576
42.2925 15.6771
42.3403 15.6953
42.3882 15.6222
42.436 15.555
42.4839 15.4835
42.5319 15.43
42.5797 15.4152
42.6277 15.3232
42.6755 15.2946
42.7235 15.2108
42.7713 15.1346
42.8193 15.135
42.8671 15.0756
42.9152 15.0097
42.963 15.0061
43.0111 14.9187
43.0589 14.8287
43.107 14.7571
43.1549 14.7546
43.2029 14.6713
43.2508 14.6838
43.2989 14.6199
43.3468 14.5418
43.3949 14.4764
43.4429 14.3882
43.491 14.3658
43.5389 14.3901
43.5871 14.2794
43.635 14.2453
43.6832 14.2176
43.7312 14.1248
43.7793 14.1094
43.8273 14.0507
43.8755 14.0415
43.9237 13.9683
43.9717 13.9578
44.0199 13.878
44.068 13.8607
44.1162 13.7707
44.1642 13.7201
44.2125 13.6851
44.2606 13.63
44.3088 13.5312
44.3569 13.5717
44.4052 13.5047
44.4533 13.4733
44.5016 13.4219
44.5497 13.3341
44.598 13.2956
44.6461 13.2405
44.6945 13.2711
44.7426 13.1625
44.791 13.1006
44.8391 13.0723
44.8875 13.0034
44.9357 12.9969
44.984 12.9343
45.0322 12.8569
45.0806 12.8678
45.1288 12.8112
45.1773 12.8067
45.2257 12.7216
45.2739 12.6798
45.3224 12.6421
45.3706 12.5895
45.4191 12.4919
45.4673 12.4538
45.5158 12.4192
45.5641 12.4333
45.6126 12.3704
45.6609 12.3055
45.7094 12.2368
45.7577 12.1704
45.8063 12.1487
45.8546 12.1821
45.9031 12.0895
45.9515 12.0373
46.0001 12.0361
46.0484 11.9814
46.097 11.9388
46.1454 11.8854
46.194 11.8213
46.2424 11.8061
46.291 11.7356
46.3395 11.6695
46.3881 11.6114
46.4365 11.6178
46.4852 11.5931
46.5337 11.5034
46.5823 11.4934
46.631 11.4235
46.6795 11.4387
46.7282 11.3799
46.7767 11.329
46.8254 11.2508
46.8739 11.2435
46.9226 11.207
46.9712 11.1332
47.0199 11.1148
47.0685 11.067
47.1173 11.0061
47.1658 10.955
47.2146 10.9473
47.2632 10.8865
47.312 10.8828
47.3606 10.8102
47.4095 10.7928
47.4581 10.769
47.5069 10.728
47.5556 10.6274
47.6044 10.5962
47.6531 10.6161
47.702 10.5285
47.7507 10.5448
47.7996 10.4904
47.8483 10.4706
47.8972 10.3943
47.9461 10.3999
47.9948 10.307
48.0438 10.2841
48.0925 10.2614
48.1415 10.2238
48.1902 10.159
48.2392 10.1957
48.288 10.1235
48.337 10.0439
48.3858 10.0238
48.4348 9.98864
48.4837 9.98681
48.5327 9.93996
48.5815 9.92253
48.6306 9.85433
48.6795 9.80632
48.7285 9.76781
48.7774 9.73555
48.8265 9.71868
48.8754 9.65615
48.9245 9.65769
48.9734 9.60852
49.0226 9.56643
49.0715 9.50798
49.1206 9.46573
49.1696 9.39746
49.2188 9.4268
49.2679 9.35813
49.3169 9.32933
49.3661 9.28266
49.4151 9.26652
49.4643 9.27431
49.5134 9.22587
49.5626 9.16162
49.6117 9.12325
49.6609 9.09286
49.71 9.0396
49.7592 9.0448
49.8083 8.97383
49.8576 8.95536
49.9067 8.91045
49.956 8.90946
50.0052 8.8648
50.0545 8.83672
50.1036 8.81012
50.153 8.81105
50.2022 8.76208
50.2515 8.66766
50.3007 8.65676
50.3501 8.63243
50.3993 8.58096
50.4487 8.53901
50.498 8.55671
50.5474 8.50452
50.5966 8.46928
50.6461 8.40752
50.6955 8.39886
50.7448 8.36936
50.7943 8.32454
50.8436 8.25978
50.8931 8.27096
50.9424 8.22607
50.9919 8.20562
51.0413 8.20534
51.0908 8.12232
51.1402 8.07384
51.1897 8.05023
51.2391 8.0636
51.2887 8.00858
51.3381 7.94371
51.3877 7.94523
51.4371 7.9018
51.4867 7.88321
51.5362 7.84626
51.5858 7.83029
51.6353 7.74301
51.6849 7.72829
51.7344 7.70528
51.7841 7.68837
51.8336 7.67526
51.8833 7.62469
51.9328 7.56095
51.9826 7.5169
52.0323 7.47731
52.0818 7.50563
52.1316 7.4442
52.1812 7.44377
52.231 7.36719
52.2806 7.3694
52.3304 7.33153
52.38 7.32945
52.4298 7.2828
52.4794 7.19823
52.5293 7.23438
52.5789 7.1806
52.6288 7.15379
52.6785 7.12576
52.7284 7.08696
52.7781 7.09219
52.828 7.05224
52.8777 6.98908
52.9276 6.94455
52.9774 6.93946
53.0273 6.9004
53.0771 6.93202
53.1271 6.86634
53.1769 6.84568
53.2269 6.78716
53.2767 6.78576
53.3267 6.75595
53.3765 6.72123
53.4266 6.67628
53.4766 6.62223
53.5265 6.61365
53.5765 6.56532
53.6264 6.54311
53.6765 6.56475
53.7264 6.5033
53.7765 6.50327
53.8265 6.44747
53.8766 6.39841
53.9266 6.38927
53.9767 6.35471
54.0267 6.34243
54.0769 6.32874
54.1269 6.28826
54.1771 6.21522
54.2271 6.22569
54.2773 6.14519
54.3274 6.16404
54.3776 6.06623
54.4277 6.08041
54.478 6.02365
54.528 5.9841
54.5783 5.98664
54.6285 5.90882
54.6788 5.88923
54.7289 5.81154
54.7792 5.79183
54.8296 5.79859
54.8798 5.70446
54.9301 5.70218
54.9803 5.66101
55.0307 5.61075
55.0809 5.58659
55.1314 5.60545
55.1816 5.50093
55.232 5.38565
55.2823 5.42413
55.3328 5.35286
55.383 5.28662
55.4335 5.23413
55.4838 5.16252
55.5344 5.1931
55.5847 5.05965
55.6352 5.13529
55.6856 4.96121
55.7361 4.94959