File: XRD/Ni3Fe_FD0289.xy
TT I
1.27165 8.09874
1.31627 6.74126
1.36089 6.82199
1.40551 5.3044
1.45013 6.84174
1.49476 6.20853
1.53938 6.2201
1.584 6.36368
1.62863 6.20409
1.67325 5.26578
1.71787 5.50457
1.7625 5.24226
1.80712 5.20248
1.85174 4.9635
1.89636 5.359
1.94099 5.6764
1.98562 4.97433
2.03025 4.84258
2.07487 4.66858
2.11949 5.12108
2.16411 5.09831
2.20874 16.7044
2.25338 27.6111
2.298 5.7315
2.34263 5.44226
2.38725 5.02035
2.43188 4.92166
2.4765 5.99368
2.52115 5.84593
2.56577 6.04688
2.6104 7.08515
2.65503 6.00904
2.69965 7.18034
2.7443 7.6933
2.78893 7.60404
2.83356 7.38987
2.87818 8.81286
2.92281 8.82259
2.96744 9.67725
3.01209 10.591
3.05672 10.8187
3.10135 12.4263
3.14599 13.0869
3.19062 14.2572
3.23527 15.1553
3.2799 16.138
3.32454 16.9969
3.36917 18.4176
3.4138 19.7755
3.45844 20.2597
3.50309 21.5712
3.54773 22.528
3.59237 24.8468
3.637 112.116
3.68164 69.012
3.7263 27.6293
3.77094 27.0281
3.81558 27.6144
3.86022 28.3237
3.90486 29.7035
3.9495 30.8225
3.99416 31.9361
4.0388 33.2763
4.08344 34.6931
4.12809 35.9665
4.17273 38.575
4.21738 45.5768
4.26204 305.94
4.30669 267.285
4.35133 52.2299
4.39598 46.3176
4.44063 57.1308
4.4853 71.9098
4.52995 53.9975
4.5746 53.6143
4.61925 55.1825
4.6639 56.9423
4.70855 60.2548
4.75322 62.9314
4.79788 66.8617
4.84253 69.7328
4.88719 74.828
4.93184 78.2396
4.97652 84.46
5.02118 91.62
5.06583 100.581
5.11049 115.951
5.15515 209.946
5.19981 509.56
5.24449 3145.79
5.28916 10965.9
5.33382 4177.32
5.37848 258.99
5.42315 147.405
5.46783 124.554
5.5125 114.059
5.55716 108.403
5.60183 104.237
5.6465 102.497
5.69117 99.0526
5.73586 97.2802
5.78053 97.8718
5.8252 97.5883
5.86988 98.4452
5.91455 101.67
5.95924 113.25
6.00392 262.96
6.0486 1084.43
6.09328 3703.2
6.13795 3725.61
6.18263 362.297
6.22733 107.16
6.27201 90.342
6.3167 114.314
6.36138 87.19
6.40606 73.3846
6.45075 70.7055
6.49545 68.5654
6.54014 66.5382
6.58483 65.7306
6.62952 65.8905
6.67421 104.276
6.71892 170.566
6.76361 73.7984
6.8083 61.6149
6.853 60.2613
6.89769 59.307
6.94239 59.3363
6.98711 58.511
7.03181 57.7597
7.07651 57.7049
7.12121 57.8341
7.16591 58.0202
7.21063 58.1776
7.25533 76.3049
7.30004 215.496
7.34475 103.728
7.38945 59.6729
7.43416 57.0755
7.47889 56.887
7.5236 57.0065
7.56831 58.1499
7.61303 60.0073
7.65774 60.1533
7.70247 58.5369
7.74719 58.3239
7.79191 59.0645
7.83663 59.3489
7.88135 60.4394
7.92607 60.9225
7.97081 62.2304
8.01553 63.192
8.06026 65.1011
8.10498 66.7739
8.14971 78.2781
8.19446 76.9351
8.23919 72.6853
8.28392 74.4097
8.32865 77.0464
8.37339 81.9923
8.41812 90.0303
8.46288 127.325
8.50761 194.178
8.55235 448.263
8.59709 1025.62
8.64183 2057.33
8.68658 1261.29
8.73134 224.072
8.77609 108.865
8.82083 98.4707
8.86558 94.3191
8.91033 94.9525
8.9551 97.5881
8.99985 89.3941
9.04461 87.0973
9.08936 86.5757
9.13412 85.3958
9.17888 85.5425
9.22365 86.2473
9.26841 85.4238
9.31318 85.9198
9.35794 86.038
9.4027 86.1855
9.44749 87.4663
9.49226 87.7649
9.53703 88.7004
9.5818 91.2699
9.62657 96.9924
9.67134 105.11
9.71614 98.3116
9.76091 97.8566
9.80569 101.123
9.85047 104.557
9.89525 134.734
9.94005 150.858
9.98484 202.156
10.0296 393.643
10.0744 731.762
10.1192 1511.29
10.164 1765.4
10.2088 596.951
10.2536 150.902
10.2984 122.267
10.3432 123.916
10.388 111.21
10.4328 128.601
10.4776 175.859
10.5224 260.92
10.5672 457.27
10.612 551.193
10.6568 255.788
10.7017 107.479
10.7465 91.8393
10.7913 87.3687
10.8361 84.6974
10.8809 82.2656
10.9257 82.2495
10.9706 83.5523
11.0154 78.4895
11.0602 75.9436
11.105 75.0739
11.1499 80.664
11.1947 90.6379
11.2395 79.0032
11.2844 74.0396
11.3292 70.3584
11.374 68.9784
11.4189 68.6162
11.4637 67.6421
11.5086 68.5486
11.5534 72.2937
11.5983 68.7714
11.6431 66.2304
11.688 65.7955
11.7328 65.5807
11.7777 65.5113
11.8225 65.2604
11.8674 64.8071
11.9122 65.306
11.9571 65.5203
12.002 66.5956
12.0468 71.8525
12.0917 85.3648
12.1366 103.287
12.1814 138.598
12.2263 197.147
12.2712 193.349
12.3161 114.069
12.3609 76.5971
12.4058 67.7968
12.4507 67.2928
12.4956 67.4608
12.5405 67.4395
12.5853 68.4002
12.6302 78.6524
12.6751 85.2033
12.72 73.9097
12.7649 70.8096
12.8098 71.1256
12.8547 72.4983
12.8996 74.0341
12.9445 75.1914
12.9894 76.911
13.0343 78.4379
13.0792 82.4063
13.1242 93.6405
13.1691 122.644
13.214 156.276
13.2589 216.246
13.3038 327.831
13.3487 437.864
13.3937 321.758
13.4386 148.231
13.4835 115.13
13.5285 131.859
13.5734 159.13
13.6183 218.684
13.6633 315.999
13.7082 364.111
13.7531 233.159
13.7981 112.741
13.843 86.4373
13.888 83.3523
13.9329 80.6503
13.9779 79.2284
14.0228 77.6437
14.0678 75.9811
14.1127 75.4518
14.1577 75.5664
14.2027 74.7744
14.2476 73.4381
14.2926 73.6333
14.3376 75.2713
14.3825 73.4041
14.4275 71.5309
14.4725 71.4459
14.5175 71.5275
14.5624 72.1001
14.6074 74.4347
14.6524 74.9913
14.6974 73.3798
14.7424 75.1649
14.7874 83.5152
14.8324 95.4542
14.8774 111.208
14.9224 140.227
14.9674 190.105
15.0124 225.562
15.0574 173.022
15.1024 103.598
15.1474 76.8115
15.1924 73.9386
15.2374 74.9866
15.2824 74.0147
15.3274 71.2514
15.3725 69.7326
15.4175 69.2514
15.4625 68.9128
15.5076 69.2415
15.5526 68.9504
15.5976 68.4706
15.6426 69.7905
15.6877 76.6082
15.7327 85.6138
15.7778 96.78
15.8228 117.552
15.8679 154.646
15.9129 191.66
15.958 176.552
16.003 114.762
16.0481 74.5391
16.0931 68.5671
16.1382 66.2651
16.1833 63.4413
16.2283 61.6532
16.2734 60.9986
16.3185 61.5955
16.3636 62.5171
16.4086 60.6968
16.4537 58.8046
16.4988 58.0846
16.5439 57.9449
16.589 57.586
16.6341 57.1179
16.6792 56.7854
16.7243 57.1136
16.7694 57.3361
16.8145 57.3697
16.8596 57.7997
16.9047 59.8137
16.9498 59.6835
16.9949 58.2197
17.04 58.2259
17.0851 59.4703
17.1302 61.6237
17.1754 64.1059
17.2205 67.5784
17.2656 72.9133
17.3108 81.9474
17.3559 85.9954
17.401 77.4314
17.4462 66.2303
17.4913 61.9853
17.5365 61.5384
17.5815 61.6147
17.6268 61.8217
17.6718 62.937
17.7171 63.5147
17.7622 63.7261
17.8074 64.4912
17.8525 67.0567
17.8977 72.1578
17.9428 77.9436
17.9881 84.0566
18.0331 95.5829
18.0784 113.59
18.1237 137.256
18.1688 142.906
18.214 117.61
18.2591 91.9859
18.3044 89.4756
18.3495 97.7648
18.3948 108.258
18.4399 104.611
18.4852 85.2386
18.5303 70.425
18.5756 65.06
18.6207 64.0666
18.666 63.0332
18.7112 62.2979
18.7565 61.6426
18.8016 61.2643
18.8469 60.577
18.892 60.0443
18.9374 59.4727
18.9825 59.3711
19.0278 59.404
19.073 59.311
19.1183 60.121
19.1635 61.2491
19.2088 62.2327
19.254 63.5961
19.2993 66.6146
19.3447 72.3018
19.3898 78.211
19.4352 77.1477
19.4804 68.7539
19.5257 60.8883
19.5709 56.9268
19.6163 56.0195
19.6615 56.0218
19.7068 55.3924
19.752 55.3872
19.7974 56.0147
19.8426 57.0469
19.888 57.5804
19.9332 58.6486
19.9786 60.3643
20.0238 62.629
20.0692 67.4877
20.1144 71.5674
20.1598 72.5062
20.205 67.2864
20.2504 63.9214
20.2957 64.247
20.3411 66.9601
20.3863 67.5736
20.4318 62.8893
20.477 57.2263
20.5224 54.2706
20.5677 53.3358
20.6131 52.6434
20.6586 51.8249
20.7038 51.606
20.7493 51.13
20.7945 51.0718
20.84 50.8624
20.8853 50.6675
20.9307 50.5296
20.976 50.6817
21.0215 50.8473
21.0668 51.1074
21.1122 51.3959
21.1575 51.6548
21.203 52.5287
21.2483 53.2628
21.2938 53.7407
21.3391 52.4128
21.3846 51.2007
21.4299 50.5545
21.4754 50.3392
21.5207 50.5079
21.5662 50.764
21.6116 51.2874
21.6571 52.0575
21.7024 53.0786
21.7479 54.2784
21.7933 56.4118
21.8388 59.2939
21.8843 62.9345
21.9297 66.6601
21.9752 67.0432
22.0206 63.3853
22.0661 59.0397
22.1115 57.6729
22.157 58.1763
22.2024 57.2853
22.248 54.3971
22.2933 52.2788
22.3389 51.3557
22.3843 51.0676
22.4299 51.0651
22.4753 50.9755
22.5208 50.6572
22.5662 50.4293
22.6118 50.7318
22.6572 50.9583
22.7028 51.3781
22.7483 51.8216
22.7939 52.2195
22.8393 53.1716
22.8849 54.8581
22.9303 56.7458
22.9759 59.091
23.0214 59.9199
23.067 58.069
23.1126 54.3431
23.1581 51.7642
23.2037 50.8844
23.2492 50.9147
23.2948 50.8607
23.3403 51.2577
23.3859 51.6663
23.4314 52.3166
23.477 53.4296
23.5225 55.1539
23.5682 57.6932
23.6137 59.7843
23.6593 58.7195
23.7048 54.957
23.7505 51.2587
23.796 48.8904
23.8417 47.9228
23.8872 47.5246
23.9329 47.1135
23.9784 46.7995
24.0241 46.4373
24.0697 46.4232
24.1154 45.9535
24.1609 45.782
24.2066 45.6584
24.2522 45.5702
24.2979 45.1378
24.3434 45.1508
24.3892 44.9308
24.4349 44.9376
24.4805 44.5059
24.5262 44.746
24.5718 44.5895
24.6175 44.6377
24.6631 44.6184
24.7089 44.3056
24.7545 44.1252
24.8002 43.9176
24.8458 43.8617
24.8916 43.8489
24.9372 43.8848
24.983 44.1216
25.0286 44.5013
25.0744 44.8781
25.12 45.0529
25.1658 45.8321
25.2114 46.1493
25.2572 46.2835
25.3029 46.4026
25.3487 46.5462
25.3943 46.5032
25.4402 45.754
25.4858 44.5048
25.5316 43.4063
25.5773 42.5657
25.6231 42.5769
25.669 42.2359
25.7147 42.2404
25.7605 42.1299
25.8062 42.177
25.8521 42.4062
25.8977 42.1735
25.9436 42.4176
25.9893 42.3043
26.0352 42.8507
26.0809 42.9889
26.1268 43.247
26.1725 43.1865
26.2184 42.65
26.2641 42.0347
26.31 41.7521
26.3557 41.8576
26.4017 41.8022
26.4474 41.8251
26.4933 42.1853
26.5391 42.5651
26.585 43.0342
26.6308 43.3987
26.6767 43.6485
26.7225 43.7935
26.7684 43.2304
26.8142 42.4992
26.8601 42.1078
26.9059 41.6759
26.9519 41.1925
26.9979 40.8451
27.0437 40.4729
27.0896 40.3071
27.1354 40.2601
27.1814 40.1398
27.2272 39.9774
27.2732 40.0963
27.3191 39.9169
27.3651 39.9688
27.4109 39.7998
27.4569 39.8847
27.5027 39.9487
27.5488 40.0823
27.5946 39.8688
27.6407 39.7886
27.6865 39.6977
27.7326 39.4483
27.7784 39.4215
27.8245 39.3002
27.8703 39.4515
27.9164 39.6481
27.9623 39.7607
28.0084 39.8895
28.0543 40.438
28.1003 40.4496
28.1462 40.3291
28.1923 40.0975
28.2384 39.4272
28.2843 39.1725
28.3304 38.7812
28.3764 38.3375
28.4225 38.0298
28.4684 37.8788
28.5145 37.4612
28.5605 37.3326
28.6066 37.0624
28.6526 37.1139
28.6987 37.0831
28.7447 36.8916
28.7908 36.7911
28.8368 36.7436
28.8829 36.759
28.9289 36.7422
28.9751 36.5937
29.0211 36.2729
29.0673 36.1892
29.1133 35.9457
29.1595 35.7823
29.2055 35.7326
29.2517 35.7001
29.2977 35.4431
29.3439 35.5474
29.3899 35.6128
29.4361 35.4732
29.4824 35.4208
29.5284 35.2436
29.5746 34.8718
29.6207 34.5263
29.6669 34.4678
29.713 34.3021
29.7593 34.1613
29.8053 34.1545
29.8516 34.164
29.8977 34.1384
29.9439 33.8893
29.99 34.0195
30.0363 33.7705
30.0824 33.749
30.1287 33.6164
30.1748 33.6611
30.2211 33.6589
30.2673 33.5286
30.3136 33.7302
30.3597 33.533
30.406 33.5493
30.4522 33.4704
30.4985 33.2492
30.5447 33.401
30.591 33.2941
30.6372 33.4265
30.6835 33.2621
30.7297 33.4232
30.7761 33.4533
30.8224 33.3236
30.8686 33.2962
30.915 32.8276
30.9612 32.7792
31.0076 32.6336
31.0538 32.4574
31.1002 32.3466
31.1464 32.1513
31.1928 32.1928
31.2391 32.2149
31.2855 32.1114
31.3317 32.0453
31.3781 32.0504
31.4244 32.1458
31.4708 32.0221
31.5171 32.1074
31.5636 31.9845
31.6098 31.7874
31.6563 31.6369
31.7026 31.3842
31.7491 31.2374
31.7953 31.3056
31.8418 31.2975
31.8881 31.2468
31.9346 31.1972
31.9809 31.2109
32.0275 31.0439
32.074 30.9558
32.1203 30.7787
32.1668 30.7144
32.2132 30.5658
32.2597 30.441
32.306 30.3222
32.3526 30.0578
32.399 30.1123
32.4455 29.9399
32.4919 29.7924
32.5385 29.83
32.5848 29.6255
32.6314 29.6184
32.6778 29.5888
32.7244 29.4005
32.7708 29.2457
32.8174 29.3058
32.8638 29.1416
32.9104 29.1649
32.9569 29.1657
33.0035 28.9687
33.0499 28.9931
33.0966 28.7588
33.143 28.789
33.1897 28.7865
33.2361 28.6465
33.2828 28.7288
33.3293 28.4553
33.3759 28.4646
33.4226 28.3212
33.4691 28.2501
33.5158 28.1509
33.5623 27.9348
33.609 27.8576
33.6555 27.689
33.7022 27.7238
33.7487 27.5221
33.7954 27.4912
33.842 27.415
33.8887 27.3851
33.9353 27.2184
33.982 27.0517
34.0286 27.0147
34.0753 27.064
34.1219 26.937
34.1687 26.8051
34.2152 26.7616
34.262 26.6403
34.3086 26.5596
34.3554 26.5745
34.402 26.3793
34.4488 26.3063
34.4954 26.2439
34.5422 26.1996
34.5889 26.1272
34.6357 26.0228
34.6825 25.8444
34.7292 25.8469
34.776 25.6688
34.8227 25.5972
34.8695 25.5859
34.9162 25.5848
34.9631 25.474
35.0098 25.4918
35.0566 25.3686
35.1033 25.2112
35.1502 25.2136
35.1969 25.2059
35.2438 25.1373
35.2906 25.1136
35.3375 25.0358
35.3842 24.9225
35.4311 24.8669
35.4779 24.9381
35.5248 24.7791
35.5716 24.7336
35.6185 24.681
35.6653 24.5952
35.7123 24.485
35.759 24.4295
35.806 24.3915
35.8528 24.1492
35.8998 24.0386
35.9468 24.0317
35.9936 24.064
36.0406 23.9747
36.0874 23.9064
36.1345 23.7473
36.1813 23.7544
36.2283 23.6824
36.2752 23.4873
36.3222 23.645
36.3691 23.4352
36.4161 23.2874
36.463 23.3161
36.5101 23.2639
36.557 23.1671
36.6041 22.9918
36.651 23.0604
36.6981 23.0394
36.745 22.8933
36.7921 22.8469
36.839 22.7128
36.8861 22.7281
36.9331 22.6616
36.9802 22.5481
37.0272 22.404
37.0743 22.36
37.1213 22.2578
37.1684 22.2844
37.2154 22.1028
37.2626 22.105
37.3098 22.0514
37.3568 21.9345
37.404 21.9779
37.451 21.8139
37.4982 21.7555
37.5452 21.6225
37.5924 21.5933
37.6395 21.7013
37.6867 21.5917
37.7337 21.4633
37.781 21.3654
37.8281 21.2997
37.8753 21.1911
37.9224 21.1978
37.9697 21.1113
38.0168 20.9465
38.064 20.9687
38.1111 20.8361
38.1584 20.8467
38.2056 20.775
38.2529 20.6565
38.3 20.6016
38.3473 20.5838
38.3945 20.461
38.4418 20.4809
38.489 20.414
38.5363 20.2787
38.5837 20.2492
38.6309 20.2005
38.6782 20.117
38.7254 20.0754
38.7728 19.9574
38.82 19.8965
38.8674 19.8347
38.9146 19.7935
38.9621 19.7245
39.0093 19.6734
39.0567 19.5671
39.104 19.5865
39.1514 19.4444
39.1987 19.4076
39.2461 19.3458
39.2934 19.3288
39.3409 19.1359
39.3882 19.1862
39.4356 19.1212
39.483 19.0675
39.5304 18.9411
39.5778 18.9356
39.6253 18.8673
39.6726 18.7961
39.7201 18.7661
39.7675 18.7188
39.815 18.6051
39.8624 18.5361
39.9099 18.4937
39.9575 18.4346
40.0049 18.3542
40.0525 18.3588
40.0999 18.2964
40.1474 18.2079
40.1949 18.159
40.2425 18.0701
40.2899 18.0395
40.3375 17.9873
40.385 17.8865
40.4326 17.8778
40.48 17.7655
40.5277 17.7599
40.5752 17.754
40.6228 17.5992
40.6703 17.6049
40.718 17.5562
40.7655 17.4415
40.8132 17.4234
40.8607 17.3797
40.9084 17.3286
40.9559 17.2766
41.0036 17.2335
41.0512 17.1544
41.0989 17.0914
41.1465 16.9959
41.1942 17.0151
41.242 16.9261
41.2896 16.9263
41.3373 16.7869
41.3849 16.7662
41.4327 16.7029
41.4803 16.6215
41.5281 16.5906
41.5758 16.5086
41.6236 16.4793
41.6712 16.4194
41.7191 16.3835
41.7667 16.3348
41.8146 16.2752
41.8622 16.1883
41.9101 16.1547
41.9578 16.016
42.0057 16.0601
42.0534 15.9757
42.1013 15.921
42.149 15.8321
42.1969 15.8511
42.2446 15.7756
42.2925 15.68
42.3403 15.6838
42.3882 15.5844
42.436 15.5422
42.4839 15.4406
42.5319 15.4594
42.5797 15.392
42.6277 15.3591
42.6755 15.3099
42.7235 15.2427
42.7713 15.1697
42.8193 15.1442
42.8671 15.0717
42.9152 15.0519
42.963 14.9454
43.0111 14.9277
43.0589 14.8937
43.107 14.8608
43.1549 14.7935
43.2029 14.7262
43.2508 14.7346
43.2989 14.5744
43.3468 14.587
43.3949 14.5027
43.4429 14.5167
43.491 14.4268
43.5389 14.3558
43.5871 14.3474
43.635 14.2696
43.6832 14.2819
43.7312 14.1383
43.7793 14.1103
43.8273 14.1167
43.8755 13.9941
43.9237 14.0196
43.9717 13.9963
44.0199 13.8824
44.068 13.8572
44.1162 13.7983
44.1642 13.7537
44.2125 13.7192
44.2606 13.6762
44.3088 13.6173
44.3569 13.582
44.4052 13.5082
44.4533 13.473
44.5016 13.4041
44.5497 13.3561
44.598 13.3182
44.6461 13.3076
44.6945 13.2796
44.7426 13.1658
44.791 13.0915
44.8391 13.0954
44.8875 13.0148
44.9357 12.9963
44.984 12.9508
45.0322 12.9395
45.0806 12.8072
45.1288 12.8129
45.1773 12.766
45.2257 12.6971
45.2739 12.6957
45.3224 12.6929
45.3706 12.576
45.4191 12.5449
45.4673 12.5333
45.5158 12.5149
45.5641 12.4164
45.6126 12.4047
45.6609 12.3371
45.7094 12.2571
45.7577 12.2031
45.8063 12.1805
45.8546 12.154
45.9031 12.0805
45.9515 12.0505
46.0001 12.0415
46.0484 11.9751
46.097 11.9147
46.1454 11.9084
46.194 11.8928
46.2424 11.8138
46.291 11.7511
46.3395 11.7622
46.3881 11.6136
46.4365 11.6772
46.4852 11.5721
46.5337 11.5415
46.5823 11.4858
46.631 11.4433
46.6795 11.4217
46.7282 11.3977
46.7767 11.3201
46.8254 11.3084
46.8739 11.2636
46.9226 11.2139
46.9712 11.1628
47.0199 11.1481
47.0685 11.1236
47.1173 11.0062
47.1658 10.9903
47.2146 10.9833
47.2632 10.9165
47.312 10.9022
47.3606 10.8291
47.4095 10.8076
47.4581 10.761
47.5069 10.7129
47.5556 10.6938
47.6044 10.6344
47.6531 10.6315
47.702 10.5404
47.7507 10.538
47.7996 10.5099
47.8483 10.4578
47.8972 10.3705
47.9461 10.395
47.9948 10.3374
48.0438 10.2752
48.0925 10.2469
48.1415 10.2353
48.1902 10.1393
48.2392 10.1615
48.288 10.1329
48.337 10.0633
48.3858 10.0377
48.4348 10.0188
48.4837 9.96958
48.5327 9.96013
48.5815 9.91148
48.6306 9.86945
48.6795 9.86306
48.7285 9.77443
48.7774 9.77892
48.8265 9.71628
48.8754 9.71264
48.9245 9.66382
48.9734 9.59157
49.0226 9.5737
49.0715 9.54217
49.1206 9.49012
49.1696 9.48961
49.2188 9.43366
49.2679 9.45316
49.3169 9.33821
49.3661 9.27462
49.4151 9.27059
49.4643 9.28193
49.5134 9.2047
49.5626 9.17522
49.6117 9.15391
49.6609 9.13951
49.71 9.09082
49.7592 9.0294
49.8083 8.98966
49.8576 8.96296
49.9067 8.93495
49.956 8.8966
50.0052 8.83552
50.0545 8.86689
50.1036 8.80957
50.153 8.76061
50.2022 8.76936
50.2515 8.70419
50.3007 8.64473
50.3501 8.62188
50.3993 8.5754
50.4487 8.58219
50.498 8.53516
50.5474 8.51575
50.5966 8.50476
50.6461 8.41751
50.6955 8.40043
50.7448 8.37097
50.7943 8.30848
50.8436 8.33918
50.8931 8.24542
50.9424 8.23916
50.9919 8.23797
51.0413 8.1416
51.0908 8.11283
51.1402 8.12678
51.1897 8.07151
51.2391 8.08051
51.2887 7.98835
51.3381 7.97365
51.3877 7.95748
51.4371 7.88487
51.4867 7.86023
51.5362 7.86155
51.5858 7.80605
51.6353 7.762
51.6849 7.75619
51.7344 7.70971
51.7841 7.70608
51.8336 7.6358
51.8833 7.62424
51.9328 7.60969
51.9826 7.58661
52.0323 7.53252
52.0818 7.54331
52.1316 7.44377
52.1812 7.43547
52.231 7.40119
52.2806 7.38247
52.3304 7.36952
52.38 7.28081
52.4298 7.27533
52.4794 7.24089
52.5293 7.22496
52.5789 7.24006
52.6288 7.13239
52.6785 7.09054
52.7284 7.11029
52.7781 7.08478
52.828 7.05205
52.8777 6.99563
52.9276 7.00922
52.9774 6.94951
53.0273 6.91391
53.0771 6.88276
53.1271 6.89052
53.1769 6.82889
53.2269 6.80366
53.2767 6.79998
53.3267 6.75557
53.3765 6.70851
53.4266 6.75099
53.4766 6.66877
53.5265 6.62388
53.5765 6.59438
53.6264 6.59248
53.6765 6.56396
53.7264 6.52898
53.7765 6.51416
53.8265 6.45767
53.8766 6.44414
53.9266 6.38938
53.9767 6.4332
54.0267 6.36201
54.0769 6.32871
54.1269 6.26137
54.1771 6.25654
54.2271 6.2118
54.2773 6.17743
54.3274 6.13168
54.3776 6.11853
54.4277 6.09578
54.478 6.10116
54.528 6.0017
54.5783 5.98656
54.6285 5.90148
54.6788 5.88338
54.7289 5.87766
54.7792 5.81955
54.8296 5.71059
54.8798 5.6992
54.9301 5.66748
54.9803 5.65485
55.0307 5.68272
55.0809 5.57202
55.1314 5.5604
55.1816 5.47188
55.232 5.40719
55.2823 5.41795
55.3328 5.31138
55.383 5.29871
55.4335 5.25028
55.4838 5.17322
55.5344 5.17682
55.5847 5.07293
55.6352 5.09608
55.6856 5.05231
55.7361 5.02447