File: XRD/Ni3Fe_FD0936.xy
TT I
1.27165 7.21974
1.31627 6.83785
1.36089 6.74416
1.40551 5.97034
1.45013 5.78058
1.49476 5.22467
1.53938 5.33868
1.584 5.77339
1.62863 5.08869
1.67325 5.28441
1.71787 5.0647
1.7625 4.68478
1.80712 4.45356
1.85174 4.23089
1.89636 5.10808
1.94099 4.13802
1.98562 4.21124
2.03025 4.42473
2.07487 4.68466
2.11949 4.74051
2.16411 4.63813
2.20874 7.60369
2.25338 9.98891
2.298 5.32181
2.34263 5.12747
2.38725 6.47636
2.43188 6.24615
2.4765 6.41739
2.52115 7.53637
2.56577 8.31935
2.6104 8.75289
2.65503 8.51492
2.69965 8.5611
2.7443 8.29068
2.78893 7.90884
2.83356 8.46478
2.87818 9.34133
2.92281 9.12331
2.96744 9.2996
3.01209 10.4184
3.05672 11.2248
3.10135 12.3564
3.14599 12.9143
3.19062 14.103
3.23527 15.0918
3.2799 15.7305
3.32454 16.7536
3.36917 17.6158
3.4138 18.5521
3.45844 19.4403
3.50309 20.4283
3.54773 21.3047
3.59237 22.9574
3.637 43.1616
3.68164 33.9625
3.7263 24.6792
3.77094 25.3433
3.81558 26.1366
3.86022 27.0242
3.90486 28.3675
3.9495 29.09
3.99416 30.3305
4.0388 31.4543
4.08344 32.5466
4.12809 33.6533
4.17273 35.7067
4.21738 37.8004
4.26204 102.884
4.30669 90.3183
4.35133 43.6819
4.39598 43.1332
4.44063 47.2891
4.4853 52.2567
4.52995 59.1717
4.5746 59.2331
4.61925 53.2661
4.6639 55.2586
4.70855 57.2574
4.75322 61.2666
4.79788 68.9145
4.84253 67.9411
4.88719 75.6445
4.93184 76.3605
4.97652 79.867
5.02118 86.0771
5.06583 92.8301
5.11049 104.356
5.15515 153.292
5.19981 370.008
5.24449 2773.05
5.28916 13487.1
5.33382 2692.1
5.37848 196.074
5.42315 130.177
5.46783 120.364
5.5125 113.584
5.55716 100.878
5.60183 96.5332
5.6465 94.7737
5.69117 93.1903
5.73586 92.1709
5.78053 99.4543
5.8252 99.3904
5.86988 102.638
5.91455 94.2144
5.95924 102.172
6.00392 227.776
6.0486 906.399
6.09328 4642.8
6.13795 2997.13
6.18263 191.027
6.22733 88.02
6.27201 78.4137
6.3167 80.6276
6.36138 72.8179
6.40606 69.6314
6.45075 69.7918
6.49545 64.0999
6.54014 62.57
6.58483 62.1709
6.62952 62.383
6.67421 69.7653
6.71892 82.3287
6.76361 60.824
6.8083 58.999
6.853 60.3505
6.89769 56.0183
6.94239 55.2628
6.98711 54.9292
7.03181 55.4042
7.07651 54.294
7.12121 53.8588
7.16591 55.7546
7.21063 54.9588
7.25533 58.7411
7.30004 88.7975
7.34475 64.2113
7.38945 54.3605
7.43416 52.8445
7.47889 53.0188
7.5236 53.4399
7.56831 54.2896
7.61303 54.5059
7.65774 54.9439
7.70247 56.611
7.74719 55.6809
7.79191 55.5344
7.83663 55.4585
7.88135 56.7712
7.92607 57.737
7.97081 58.861
8.01553 60.1115
8.06026 61.7012
8.10498 63.5884
8.14971 70.376
8.19446 70.5262
8.23919 68.4759
8.28392 70.5448
8.32865 72.9608
8.37339 77.1274
8.41812 82.1805
8.46288 99.2121
8.50761 170.741
8.55235 364.01
8.59709 1203.91
8.64183 2209.54
8.68658 832.727
8.73134 139.856
8.77609 95.7857
8.82083 90.9996
8.86558 91.8719
8.91033 92.457
8.9551 88.9699
8.99985 84.2688
9.04461 83.1078
9.08936 83.6162
9.13412 81.9617
9.17888 81.1228
9.22365 80.9504
9.26841 80.9974
9.31318 84.4047
9.35794 86.9192
9.4027 85.6867
9.44749 84.6311
9.49226 83.9796
9.53703 84.713
9.5818 88.9509
9.62657 94.5025
9.67134 94.5629
9.71614 91.8177
9.76091 93.9599
9.80569 98.9435
9.85047 100.711
9.89525 109.22
9.94005 123.464
9.98484 184.284
10.0296 328.795
10.0744 826.517
10.1192 1845.78
10.164 1459.73
10.2088 325.341
10.2536 118.581
10.2984 107.083
10.3432 105.511
10.388 103.42
10.4328 119.482
10.4776 157.849
10.5224 288.466
10.5672 544.717
10.612 483.993
10.6568 177.808
10.7017 91.8156
10.7465 84.7736
10.7913 81.7043
10.8361 79.7298
10.8809 77.6875
10.9257 76.975
10.9706 77.1607
11.0154 74.7354
11.0602 71.9463
11.105 70.3345
11.1499 70.5456
11.1947 71.853
11.2395 68.6214
11.2844 67.1285
11.3292 65.6793
11.374 65.1588
11.4189 64.3461
11.4637 63.6559
11.5086 63.5355
11.5534 64.224
11.5983 63.0501
11.6431 62.1811
11.688 62.0246
11.7328 61.8533
11.7777 61.6567
11.8225 61.8956
11.8674 61.6837
11.9122 61.4397
11.9571 62.2968
12.002 63.3575
12.0468 67.5212
12.0917 76.9816
12.1366 101.802
12.1814 159.625
12.2263 209.273
12.2712 154.376
12.3161 85.9261
12.3609 65.2279
12.4058 62.9772
12.4507 63.1309
12.4956 63.9654
12.5405 64.0815
12.5853 64.2101
12.6302 66.5352
12.6751 68.7798
12.72 66.764
12.7649 66.7432
12.8098 67.4743
12.8547 68.854
12.8996 70.7182
12.9445 72.1662
12.9894 73.7364
13.0343 74.9852
13.0792 79.5075
13.1242 90.8859
13.1691 108.911
13.214 145.458
13.2589 246.108
13.3038 391.059
13.3487 419.228
13.3937 227.824
13.4386 114.229
13.4835 103.936
13.5285 117.603
13.5734 157.79
13.6183 258.824
13.6633 369.064
13.7082 322.656
13.7531 165.801
13.7981 91.973
13.843 80.0049
13.888 78.4015
13.9329 76.0017
13.9779 74.5938
14.0228 72.9586
14.0678 71.7841
14.1127 71.3611
14.1577 70.7092
14.2027 69.9618
14.2476 69.4058
14.2926 68.7698
14.3376 68.9498
14.3825 68.5457
14.4275 67.8724
14.4725 67.6656
14.5175 67.7924
14.5624 67.7629
14.6074 68.5587
14.6524 69.007
14.6974 69.4851
14.7424 72.6764
14.7874 78.0338
14.8324 87.2749
14.8774 111.164
14.9224 159.145
14.9674 219.671
15.0124 213.872
15.0574 136.324
15.1024 83.9032
15.1474 70.5415
15.1924 69.2115
15.2374 68.169
15.2824 67.3673
15.3274 65.9894
15.3725 65.729
15.4175 65.3267
15.4625 64.8391
15.5076 64.7033
15.5526 64.6356
15.5976 64.8679
15.6426 66.8051
15.6877 71.4145
15.7327 78.291
15.7778 94.0607
15.8228 128.096
15.8679 177.899
15.9129 195.433
15.958 144.982
16.003 87.0319
16.0481 64.7294
16.0931 61.8985
16.1382 60.1454
16.1833 59.0657
16.2283 57.853
16.2734 57.1677
16.3185 56.6682
16.3636 56.5003
16.4086 55.4973
16.4537 54.9397
16.4988 54.5245
16.5439 54.3416
16.589 54.0937
16.6341 53.7075
16.6792 53.4342
16.7243 53.8371
16.7694 53.7423
16.8145 53.6324
16.8596 53.8352
16.9047 54.4392
16.9498 54.6479
16.9949 54.4472
17.04 55.0657
17.0851 56.2239
17.1302 57.6084
17.1754 60.5049
17.2205 66.2478
17.2656 74.6601
17.3108 82.9481
17.3559 80.35
17.401 67.5507
17.4462 60.1667
17.4913 58.2615
17.5365 58.1146
17.5815 58.2399
17.6268 58.5475
17.6718 59.1999
17.7171 59.6119
17.7622 60.2646
17.8074 61.5289
17.8525 63.8641
17.8977 67.1834
17.9428 72.3562
17.9881 81.856
18.0331 100.918
18.0784 126.433
18.1237 140.98
18.1688 125.737
18.214 96.9716
18.2591 83.7652
18.3044 90.4279
18.3495 101.488
18.3948 104.767
18.4399 90.4641
18.4852 72.7658
18.5303 63.5025
18.5756 60.9676
18.6207 60.0615
18.666 59.2649
18.7112 58.7017
18.7565 57.8948
18.8016 57.793
18.8469 57.0685
18.892 56.7072
18.9374 56.2958
18.9825 56.0934
19.0278 55.5393
19.073 56.0994
19.1183 56.0342
19.1635 56.6863
19.2088 58.1584
19.254 61.3187
19.2993 66.0908
19.3447 72.259
19.3898 75.0584
19.4352 69.1231
19.4804 60.2287
19.5257 54.807
19.5709 53.1305
19.6163 52.7607
19.6615 52.7091
19.7068 52.3549
19.752 52.2787
19.7974 52.7516
19.8426 53.3427
19.888 53.8582
19.9332 55.1208
19.9786 58.0787
20.0238 62.3219
20.0692 67.5009
20.1144 69.5343
20.1598 66.3465
20.205 61.5838
20.2504 61.4464
20.2957 64.2269
20.3411 65.2278
20.3863 62.2358
20.4318 56.0364
20.477 51.6733
20.5224 50.1175
20.5677 49.6603
20.6131 49.235
20.6586 48.9043
20.7038 48.6656
20.7493 48.1245
20.7945 48.0441
20.84 47.9462
20.8853 47.8567
20.9307 47.615
20.976 47.9011
21.0215 47.6504
21.0668 48.0911
21.1122 48.5834
21.1575 49.481
21.203 50.0341
21.2483 50.6303
21.2938 50.4125
21.3391 48.985
21.3846 47.9321
21.4299 47.5913
21.4754 47.6805
21.5207 47.7996
21.5662 48.3918
21.6116 48.553
21.6571 49.0332
21.7024 49.9486
21.7479 51.8654
21.7933 54.8906
21.8388 58.9275
21.8843 62.9939
21.9297 64.1917
21.9752 61.1503
22.0206 57.316
22.0661 55.4844
22.1115 55.6296
22.157 55.0343
22.2024 52.7278
22.248 49.9562
22.2933 48.7526
22.3389 48.0561
22.3843 48.0297
22.4299 48.0008
22.4753 47.7328
22.5208 47.5922
22.5662 47.6068
22.6118 48.0551
22.6572 48.2747
22.7028 48.3584
22.7483 48.8995
22.7939 49.5524
22.8393 51.2136
22.8849 53.5512
22.9303 55.9317
22.9759 57.3186
23.0214 55.9786
23.067 52.7615
23.1126 49.5655
23.1581 48.273
23.2037 47.8742
23.2492 48.0318
23.2948 48.0991
23.3403 48.4263
23.3859 48.9508
23.4314 49.9696
23.477 52.0238
23.5225 54.7106
23.5682 57.0925
23.6137 57.2731
23.6593 53.9678
23.7048 49.8031
23.7505 46.9098
23.796 45.6274
23.8417 45.2537
23.8872 44.7901
23.9329 44.4324
23.9784 43.933
24.0241 43.7755
24.0697 43.6448
24.1154 43.2411
24.1609 43.0675
24.2066 43.0054
24.2522 42.9418
24.2979 42.6658
24.3434 42.6606
24.3892 42.4103
24.4349 42.269
24.4805 42.2452
24.5262 42.3813
24.5718 42.3157
24.6175 42.2124
24.6631 42.0453
24.7089 41.7954
24.7545 41.5049
24.8002 41.5044
24.8458 41.5938
24.8916 41.4082
24.9372 41.4706
24.983 41.7657
25.0286 42.2513
25.0744 42.6665
25.12 43.2434
25.1658 43.8626
25.2114 43.9849
25.2572 44.0018
25.3029 44.3829
25.3487 44.3986
25.3943 43.8601
25.4402 42.4113
25.4858 41.434
25.5316 40.6322
25.5773 40.1728
25.6231 40.2606
25.669 39.7835
25.7147 39.7024
25.7605 39.6126
25.8062 39.7204
25.8521 39.8387
25.8977 39.9533
25.9436 40.172
25.9893 40.2868
26.0352 40.9597
26.0809 41.1237
26.1268 41.0606
26.1725 40.5585
26.2184 40.0928
26.2641 39.4972
26.31 39.4436
26.3557 39.5158
26.4017 39.4098
26.4474 39.819
26.4933 39.9473
26.5391 40.7102
26.585 41.034
26.6308 41.5714
26.6767 41.4285
26.7225 41.041
26.7684 40.6764
26.8142 40.1244
26.8601 39.7482
26.9059 39.2385
26.9519 38.6862
26.9979 38.5165
27.0437 38.2724
27.0896 38.1242
27.1354 38.0657
27.1814 37.9773
27.2272 37.8506
27.2732 37.7827
27.3191 37.7051
27.3651 37.8289
27.4109 37.7742
27.4569 37.8306
27.5027 37.9883
27.5488 37.9971
27.5946 37.6996
27.6407 37.5522
27.6865 37.4466
27.7326 37.1832
27.7784 37.2226
27.8245 37.1661
27.8703 37.2768
27.9164 37.6756
27.9623 37.8248
28.0084 38.1581
28.0543 38.7087
28.1003 38.326
28.1462 38.1997
28.1923 37.7396
28.2384 37.1333
28.2843 37.0613
28.3304 36.4281
28.3764 35.9857
28.4225 35.7969
28.4684 35.6356
28.5145 35.3748
28.5605 35.2546
28.6066 35.0202
28.6526 35.0167
28.6987 35.0966
28.7447 34.8411
28.7908 34.8285
28.8368 34.815
28.8829 34.7979
28.9289 34.8362
28.9751 34.4717
29.0211 34.31
29.0673 34.0112
29.1133 33.9719
29.1595 33.9001
29.2055 33.7378
29.2517 33.7946
29.2977 33.8033
29.3439 33.7172
29.3899 33.7033
29.4361 33.4891
29.4824 33.3394
29.5284 33.1813
29.5746 32.81
29.6207 32.5692
29.6669 32.5462
29.713 32.3899
29.7593 32.2742
29.8053 32.2969
29.8516 32.2472
29.8977 32.2634
29.9439 32.0501
29.99 32.0683
30.0363 31.9284
30.0824 32.0023
30.1287 31.8936
30.1748 31.8992
30.2211 31.912
30.2673 31.7498
30.3136 31.7633
30.3597 31.6149
30.406 31.6066
30.4522 31.5585
30.4985 31.4725
30.5447 31.6762
30.591 31.7312
30.6372 31.6593
30.6835 31.7083
30.7297 31.6189
30.7761 31.736
30.8224 31.439
30.8686 31.2806
30.915 31.0137
30.9612 30.8804
31.0076 30.8335
31.0538 30.7514
31.1002 30.6221
31.1464 30.4607
31.1928 30.3655
31.2391 30.4541
31.2855 30.2909
31.3317 30.3323
31.3781 30.3326
31.4244 30.3616
31.4708 30.4017
31.5171 30.2185
31.5636 30.2384
31.6098 30.0499
31.6563 29.8207
31.7026 29.7231
31.7491 29.6797
31.7953 29.719
31.8418 29.5584
31.8881 29.6872
31.9346 29.5629
31.9809 29.626
32.0275 29.4207
32.074 29.3193
32.1203 29.0748
32.1668 28.9312
32.2132 28.8382
32.2597 28.7007
32.306 28.6379
32.3526 28.4569
32.399 28.4237
32.4455 28.2951
32.4919 28.2764
32.5385 28.0563
32.5848 27.9817
32.6314 28.0651
32.6778 27.962
32.7244 27.7654
32.7708 27.6244
32.8174 27.6806
32.8638 27.5497
32.9104 27.6066
32.9569 27.4685
33.0035 27.3953
33.0499 27.4563
33.0966 27.2883
33.143 27.3035
33.1897 27.2733
33.2361 27.1714
33.2828 27.0291
33.3293 26.9256
33.3759 26.9121
33.4226 26.7255
33.4691 26.6804
33.5158 26.4896
33.5623 26.4546
33.609 26.3101
33.6555 26.2525
33.7022 26.0471
33.7487 26.0958
33.7954 26.0514
33.842 25.8551
33.8887 25.8084
33.9353 25.7898
33.982 25.7296
34.0286 25.5892
34.0753 25.4941
34.1219 25.5348
34.1687 25.4098
34.2152 25.2757
34.262 25.2214
34.3086 25.1526
34.3554 25.0712
34.402 24.866
34.4488 24.8616
34.4954 24.714
34.5422 24.71
34.5889 24.6158
34.6357 24.5075
34.6825 24.4916
34.7292 24.355
34.776 24.3343
34.8227 24.3653
34.8695 24.1609
34.9162 24.1722
34.9631 24.0902
35.0098 24.0765
35.0566 23.9376
35.1033 23.9113
35.1502 23.8147
35.1969 23.7609
35.2438 23.7372
35.2906 23.7102
35.3375 23.7529
35.3842 23.579
35.4311 23.6072
35.4779 23.532
35.5248 23.4647
35.5716 23.4147
35.6185 23.3168
35.6653 23.1282
35.7123 23.153
35.759 23.1073
35.806 22.9163
35.8528 22.7964
35.8998 22.7927
35.9468 22.7384
35.9936 22.7257
36.0406 22.5327
36.0874 22.6864
36.1345 22.4208
36.1813 22.4642
36.2283 22.2739
36.2752 22.2233
36.3222 22.2467
36.3691 22.1804
36.4161 22.0315
36.463 22.1019
36.5101 21.9921
36.557 21.9882
36.6041 21.8246
36.651 21.7735
36.6981 21.7413
36.745 21.6388
36.7921 21.5607
36.839 21.4697
36.8861 21.4115
36.9331 21.3726
36.9802 21.3416
37.0272 21.1468
37.0743 21.1163
37.1213 21.0703
37.1684 21.0392
37.2154 20.9534
37.2626 20.8889
37.3098 20.8031
37.3568 20.742
37.404 20.7222
37.451 20.5825
37.4982 20.6153
37.5452 20.4991
37.5924 20.4575
37.6395 20.4329
37.6867 20.3697
37.7337 20.2795
37.781 20.1565
37.8281 20.1007
37.8753 19.9757
37.9224 19.9496
37.9697 19.8818
38.0168 19.8209
38.064 19.7666
38.1111 19.7977
38.1584 19.6619
38.2056 19.6594
38.2529 19.519
38.3 19.4909
38.3473 19.4434
38.3945 19.3501
38.4418 19.2732
38.489 19.2166
38.5363 19.1874
38.5837 19.0491
38.6309 19.0739
38.6782 18.9588
38.7254 18.9424
38.7728 18.8403
38.82 18.701
38.8674 18.7185
38.9146 18.6985
38.9621 18.6277
39.0093 18.5363
39.0567 18.4977
39.104 18.4997
39.1514 18.437
39.1987 18.3746
39.2461 18.3211
39.2934 18.3001
39.3409 18.1605
39.3882 18.055
39.4356 18.0816
39.483 17.9881
39.5304 17.8931
39.5778 17.901
39.6253 17.8211
39.6726 17.7891
39.7201 17.7539
39.7675 17.6721
39.815 17.6019
39.8624 17.5094
39.9099 17.5508
39.9575 17.4868
40.0049 17.4327
40.0525 17.3162
40.0999 17.2421
40.1474 17.2055
40.1949 17.1394
40.2425 17.0956
40.2899 17.0338
40.3375 16.9804
40.385 16.8991
40.4326 16.906
40.48 16.7976
40.5277 16.7809
40.5752 16.7419
40.6228 16.6086
40.6703 16.6278
40.718 16.5573
40.7655 16.5313
40.8132 16.448
40.8607 16.4092
40.9084 16.3583
40.9559 16.2495
41.0036 16.2928
41.0512 16.2338
41.0989 16.1373
41.1465 16.1287
41.1942 16.0491
41.242 15.9461
41.2896 15.8791
41.3373 15.9183
41.3849 15.8231
41.4327 15.7337
41.4803 15.6768
41.5281 15.6466
41.5758 15.6082
41.6236 15.5614
41.6712 15.4541
41.7191 15.4197
41.7667 15.418
41.8146 15.3471
41.8622 15.3149
41.9101 15.2461
41.9578 15.1491
42.0057 15.1286
42.0534 15.1215
42.1013 15.0682
42.149 14.9836
42.1969 14.898
42.2446 14.9424
42.2925 14.8212
42.3403 14.8245
42.3882 14.7996
42.436 14.7269
42.4839 14.657
42.5319 14.6527
42.5797 14.5874
42.6277 14.4419
42.6755 14.4242
42.7235 14.4142
42.7713 14.3401
42.8193 14.3332
42.8671 14.2571
42.9152 14.2033
42.963 14.1352
43.0111 14.1271
43.0589 14.1121
43.107 14.0132
43.1549 13.9571
43.2029 13.9459
43.2508 13.8892
43.2989 13.8211
43.3468 13.706
43.3949 13.743
43.4429 13.6653
43.491 13.596
43.5389 13.5937
43.5871 13.5313
43.635 13.4485
43.6832 13.4918
43.7312 13.4139
43.7793 13.3216
43.8273 13.3335
43.8755 13.2234
43.9237 13.2176
43.9717 13.1544
44.0199 13.1262
44.068 13.0632
44.1162 13.0406
44.1642 13.0083
44.2125 12.9329
44.2606 12.9581
44.3088 12.8417
44.3569 12.7826
44.4052 12.7328
44.4533 12.6877
44.5016 12.6679
44.5497 12.6056
44.598 12.6105
44.6461 12.5758
44.6945 12.4647
44.7426 12.4405
44.791 12.4179
44.8391 12.3344
44.8875 12.3293
44.9357 12.3082
44.984 12.2641
45.0322 12.2721
45.0806 12.1329
45.1288 12.0967
45.1773 12.0488
45.2257 12.0496
45.2739 12.0027
45.3224 11.914
45.3706 11.9248
45.4191 11.8336
45.4673 11.8177
45.5158 11.7463
45.5641 11.6895
45.6126 11.7093
45.6609 11.633
45.7094 11.6129
45.7577 11.5689
45.8063 11.4817
45.8546 11.5018
45.9031 11.4514
45.9515 11.4303
46.0001 11.3628
46.0484 11.3048
46.097 11.3032
46.1454 11.2065
46.194 11.2218
46.2424 11.1695
46.291 11.1048
46.3395 11.0838
46.3881 11.0353
46.4365 11.0756
46.4852 10.9614
46.5337 10.9409
46.5823 10.8667
46.631 10.8244
46.6795 10.7806
46.7282 10.7707
46.7767 10.7373
46.8254 10.6584
46.8739 10.6664
46.9226 10.5783
46.9712 10.5486
47.0199 10.5517
47.0685 10.4586
47.1173 10.442
47.1658 10.4298
47.2146 10.3757
47.2632 10.3226
47.312 10.2937
47.3606 10.2587
47.4095 10.1999
47.4581 10.1665
47.5069 10.1499
47.5556 10.1083
47.6044 10.0285
47.6531 9.99308
47.702 9.96034
47.7507 9.93983
47.7996 9.89862
47.8483 9.88594
47.8972 9.82107
47.9461 9.82449
47.9948 9.69758
48.0438 9.71094
48.0925 9.66607
48.1415 9.70529
48.1902 9.61297
48.2392 9.63588
48.288 9.59982
48.337 9.5282
48.3858 9.47243
48.4348 9.46351
48.4837 9.42854
48.5327 9.39955
48.5815 9.36259
48.6306 9.33338
48.6795 9.30697
48.7285 9.25202
48.7774 9.23426
48.8265 9.22229
48.8754 9.11995
48.9245 9.11968
48.9734 9.10613
49.0226 9.0609
49.0715 9.00706
49.1206 9.0114
49.1696 8.9675
49.2188 8.92117
49.2679 8.87024
49.3169 8.86362
49.3661 8.79317
49.4151 8.77666
49.4643 8.75372
49.5134 8.72619
49.5626 8.6812
49.6117 8.63265
49.6609 8.61175
49.71 8.56103
49.7592 8.53353
49.8083 8.48999
49.8576 8.49342
49.9067 8.44203
49.956 8.41775
50.0052 8.38101
50.0545 8.37333
50.1036 8.2949
50.153 8.26661
50.2022 8.28482
50.2515 8.19146
50.3007 8.14857
50.3501 8.15278
50.3993 8.10089
50.4487 8.05546
50.498 8.05259
50.5474 8.05374
50.5966 8.01226
50.6461 7.98484
50.6955 7.94123
50.7448 7.89948
50.7943 7.89202
50.8436 7.8421
50.8931 7.80924
50.9424 7.79692
50.9919 7.75991
51.0413 7.74124
51.0908 7.66911
51.1402 7.68693
51.1897 7.62866
51.2391 7.58813
51.2887 7.56126
51.3381 7.56146
51.3877 7.52156
51.4371 7.48428
51.4867 7.41552
51.5362 7.44253
51.5858 7.36574
51.6353 7.32706
51.6849 7.33355
51.7344 7.28632
51.7841 7.28674
51.8336 7.24525
51.8833 7.22011
51.9328 7.17946
51.9826 7.15606
52.0323 7.11515
52.0818 7.10209
52.1316 7.03444
52.1812 7.08107
52.231 6.97953
52.2806 6.96164
52.3304 6.97361
52.38 6.89148
52.4298 6.90552
52.4794 6.85288
52.5293 6.80743
52.5789 6.77595
52.6288 6.7542
52.6785 6.76656
52.7284 6.72839
52.7781 6.7007
52.828 6.64604
52.8777 6.60951
52.9276 6.60533
52.9774 6.589
53.0273 6.56772
53.0771 6.5243
53.1271 6.48773
53.1769 6.48147
53.2269 6.44351
53.2767 6.4027
53.3267 6.40827
53.3765 6.36762
53.4266 6.35041
53.4766 6.32079
53.5265 6.23463
53.5765 6.23092
53.6264 6.21591
53.6765 6.21754
53.7264 6.17455
53.7765 6.14694
53.8265 6.11167
53.8766 6.09645
53.9266 6.09025
53.9767 6.04032
54.0267 6.05187
54.0769 5.97768
54.1269 5.9442
54.1771 5.96246
54.2271 5.89354
54.2773 5.84023
54.3274 5.78364
54.3776 5.79298
54.4277 5.8025
54.478 5.74346
54.528 5.70406
54.5783 5.64127
54.6285 5.62028
54.6788 5.56292
54.7289 5.56338
54.7792 5.53836
54.8296 5.45836
54.8798 5.39984
54.9301 5.38269
54.9803 5.37287
55.0307 5.36735
55.0809 5.30593
55.1314 5.2975
55.1816 5.20479
55.232 5.15831
55.2823 5.12021
55.3328 5.03928
55.383 5.003
55.4335 4.95026
55.4838 4.89961
55.5344 4.89156
55.5847 4.85986
55.6352 4.79287
55.6856 4.77801
55.7361 4.75745