File: XRD/Ni3Fe_FD0125.xy
TT I
1.27165 8.22992
1.31627 6.99987
1.36089 6.85465
1.40551 6.10334
1.45013 6.01676
1.49476 6.32993
1.53938 5.62137
1.584 5.5229
1.62863 5.4558
1.67325 5.0257
1.71787 5.45884
1.7625 5.17771
1.80712 5.07096
1.85174 4.55704
1.89636 5.49462
1.94099 5.5766
1.98562 5.22075
2.03025 5.32857
2.07487 4.09941
2.11949 4.7285
2.16411 4.60462
2.20874 4.46088
2.25338 4.43453
2.298 4.42399
2.34263 4.34482
2.38725 4.5606
2.43188 4.30924
2.4765 4.14534
2.52115 4.4867
2.56577 4.63944
2.6104 4.48992
2.65503 4.94342
2.69965 5.57612
2.7443 5.8942
2.78893 5.95015
2.83356 7.29568
2.87818 6.94028
2.92281 8.33118
2.96744 9.09099
3.01209 9.77837
3.05672 10.8912
3.10135 12.5492
3.14599 12.9153
3.19062 14.408
3.23527 14.5609
3.2799 15.8303
3.32454 16.0539
3.36917 17.6385
3.4138 18.4167
3.45844 19.2114
3.50309 20.5045
3.54773 20.7355
3.59237 21.1534
3.637 22.185
3.68164 22.7482
3.7263 23.6565
3.77094 24.5385
3.81558 25.2185
3.86022 26.0076
3.90486 27.1054
3.9495 28.5032
3.99416 29.2991
4.0388 30.2056
4.08344 31.6105
4.12809 32.7451
4.17273 34.142
4.21738 35.5709
4.26204 36.3511
4.30669 37.3162
4.35133 39.4133
4.39598 40.331
4.44063 42.7727
4.4853 44.9988
4.52995 47.0657
4.5746 48.9243
4.61925 51.1563
4.6639 53.6338
4.70855 56.3607
4.75322 58.8138
4.79788 61.6022
4.84253 65.3532
4.88719 70.0242
4.93184 75.1508
4.97652 82.3242
5.02118 91.0124
5.06583 101.705
5.11049 118.806
5.15515 159.18
5.19981 583.224
5.24449 3762.56
5.28916 7694.97
5.33382 6672.85
5.37848 519.477
5.42315 169.844
5.46783 129.988
5.5125 115.104
5.55716 108.02
5.60183 102.349
5.6465 99.4224
5.69117 97.4353
5.73586 95.5615
5.78053 95.7835
5.8252 95.83
5.86988 99.0945
5.91455 106.721
5.95924 127.749
6.00392 301.398
6.0486 1401.3
6.09328 2522.28
6.13795 3942.8
6.18263 763.297
6.22733 128.312
6.27201 90.9585
6.3167 78.8865
6.36138 72.7308
6.40606 68.3429
6.45075 66.101
6.49545 63.969
6.54014 61.9717
6.58483 60.5697
6.62952 59.2232
6.67421 57.8183
6.71892 57.2492
6.76361 55.813
6.8083 55.1358
6.853 54.3371
6.89769 53.9982
6.94239 53.864
6.98711 52.8057
7.03181 52.6769
7.07651 52.5136
7.12121 51.8705
7.16591 51.8652
7.21063 51.4679
7.25533 51.5689
7.30004 51.4807
7.34475 51.6901
7.38945 51.6846
7.43416 51.2909
7.47889 51.7502
7.5236 56.4479
7.56831 66.1178
7.61303 56.0508
7.65774 53.2089
7.70247 53.4039
7.74719 53.7061
7.79191 54.4905
7.83663 54.6937
7.88135 55.648
7.92607 56.6021
7.97081 57.6866
8.01553 58.5614
8.06026 59.8827
8.10498 61.3372
8.14971 63.3507
8.19446 64.6901
8.23919 67.4935
8.28392 70.0863
8.32865 72.7343
8.37339 77.863
8.41812 83.3374
8.46288 95.8863
8.50761 175.799
8.55235 615.394
8.59709 839.446
8.64183 1373.56
8.68658 1686.5
8.73134 449.131
8.77609 118.89
8.82083 98.0031
8.86558 90.9203
8.91033 87.2195
8.9551 85.1137
8.99985 83.4084
9.04461 82.1303
9.08936 81.4612
9.13412 81.0567
9.17888 80.7883
9.22365 87.6995
9.26841 102.272
9.31318 88.0801
9.35794 81.6336
9.4027 81.6163
9.44749 82.2859
9.49226 82.5038
9.53703 83.6644
9.5818 85.616
9.62657 85.9698
9.67134 87.8415
9.71614 89.8538
9.76091 92.1704
9.80569 95.1899
9.85047 97.9654
9.89525 103.463
9.94005 114.391
9.98484 188.974
10.0296 558.003
10.0744 711.296
10.1192 942.203
10.164 1597.39
10.2088 1055.64
10.2536 233.317
10.2984 117.835
10.3432 107.995
10.388 104.494
10.4328 120.886
10.4776 218.263
10.5224 254.925
10.5672 307.326
10.612 470.353
10.6568 393.898
10.7017 143.008
10.7465 91.4596
10.7913 83.5363
10.8361 79.8915
10.8809 77.7942
10.9257 74.9257
10.9706 73.819
11.0154 72.1248
11.0602 70.6843
11.105 69.6267
11.1499 68.0587
11.1947 67.2897
11.2395 66.1626
11.2844 65.2629
11.3292 64.8292
11.374 63.9956
11.4189 63.5086
11.4637 62.9866
11.5086 62.2511
11.5534 61.6299
11.5983 61.5278
11.6431 61.593
11.688 60.9423
11.7328 61.0274
11.7777 60.8587
11.8225 60.2357
11.8674 60.6055
11.9122 61.9937
11.9571 66.5355
12.002 65.7839
12.0468 67.5293
12.0917 90.6899
12.1366 107.124
12.1814 112.641
12.2263 141.549
12.2712 187.508
12.3161 144.945
12.3609 76.4375
12.4058 63.8349
12.4507 62.9196
12.4956 62.5839
12.5405 62.5516
12.5853 63.0032
12.6302 63.3894
12.6751 64.0607
12.72 64.8187
12.7649 65.5123
12.8098 65.9769
12.8547 67.5742
12.8996 68.8856
12.9445 70.2026
12.9894 72.4292
13.0343 74.626
13.0792 78.9019
13.1242 86.3187
13.1691 133.86
13.214 188.429
13.2589 196.954
13.3038 228.189
13.3487 330.78
13.3937 387.811
13.4386 223.199
13.4835 121.695
13.5285 156.218
13.5734 181.997
13.6183 183.197
13.6633 221.658
13.7082 316.48
13.7531 314.891
13.7981 164.296
13.843 89.0208
13.888 80.4419
13.9329 76.9806
13.9779 75.4283
14.0228 73.7199
14.0678 72.1523
14.1127 72.355
14.1577 74.4741
14.2027 72.9819
14.2476 70.1271
14.2926 68.7923
14.3376 68.38
14.3825 67.9054
14.4275 67.2781
14.4725 67.5181
14.5175 67.7277
14.5624 67.8374
14.6074 67.9955
14.6524 68.5821
14.6974 69.1935
14.7424 70.7222
14.7874 80.2364
14.8324 107.53
14.8774 120.287
14.9224 121.93
14.9674 139.938
15.0124 182.572
15.0574 206.13
15.1024 144.86
15.1474 83.7552
15.1924 71.0776
15.2374 68.6613
15.2824 67.2335
15.3274 66.1442
15.3725 65.9899
15.4175 65.5437
15.4625 65.3304
15.5076 64.6626
15.5526 64.9621
15.5976 65.1783
15.6426 65.8928
15.6877 73.2628
15.7327 95.2199
15.7778 106.963
15.8228 107.131
15.8679 117.978
15.9129 146.335
15.958 183.415
16.003 157.108
16.0481 91.593
16.0931 66.6843
16.1382 61.8338
16.1833 59.8649
16.2283 58.369
16.2734 57.5183
16.3185 56.7962
16.3636 56.1122
16.4086 55.3827
16.4537 55.0982
16.4988 54.4928
16.5439 54.5162
16.589 54.1157
16.6341 53.915
16.6792 53.5048
16.7243 53.7405
16.7694 53.5956
16.8145 53.5509
16.8596 53.7711
16.9047 54.2344
16.9498 54.7018
16.9949 54.4329
17.04 54.7599
17.0851 56.3761
17.1302 60.5094
17.1754 63.8346
17.2205 64.2529
17.2656 65.5016
17.3108 70.1749
17.3559 77.3619
17.401 80.8209
17.4462 71.8685
17.4913 61.4264
17.5365 58.6288
17.5815 58.3555
17.6268 58.7385
17.6718 59.1244
17.7171 59.6693
17.7622 61.0237
17.8074 61.8642
17.8525 63.3996
17.8977 71.7449
17.9428 83.8393
17.9881 88.0038
18.0331 88.7066
18.0784 93.8963
18.1237 109.652
18.1688 136.832
18.214 144.354
18.2591 113.7
18.3044 87.5014
18.3495 83.9808
18.3948 91.8953
18.4399 101.986
18.4852 96.5699
18.5303 77.3974
18.5756 65.0805
18.6207 61.7218
18.666 60.4808
18.7112 59.6143
18.7565 58.7363
18.8016 58.3701
18.8469 57.6776
18.892 57.2874
18.9374 56.8692
18.9825 56.6184
19.0278 56.2928
19.073 56.2972
19.1183 56.7317
19.1635 59.1086
19.2088 61.4287
19.254 61.8018
19.2993 61.8776
19.3447 63.8267
19.3898 67.3297
19.4352 72.3661
19.4804 72.4329
19.5257 64.3858
19.5709 56.2794
19.6163 54.055
19.6615 53.3515
19.7068 53.004
19.752 52.8295
19.7974 52.9687
19.8426 54.1964
19.888 56.4242
19.9332 57.7639
19.9786 57.8782
20.0238 58.1929
20.0692 60.8241
20.1144 65.6467
20.1598 71.4866
20.205 70.9788
20.2504 65.2122
20.2957 60.4093
20.3411 60.4835
20.3863 63.5538
20.4318 64.0348
20.477 59.5984
20.5224 53.2894
20.5677 50.7824
20.6131 50.1259
20.6586 49.3587
20.7038 49.2907
20.7493 48.9009
20.7945 48.9948
20.84 48.6395
20.8853 48.3487
20.9307 48.2585
20.976 48.4761
21.0215 48.6197
21.0668 49.0423
21.1122 49.1151
21.1575 48.8279
21.203 49.078
21.2483 49.8206
21.2938 50.5994
21.3391 51.0152
21.3846 50.2508
21.4299 49.0531
21.4754 48.3516
21.5207 48.3859
21.5662 48.5315
21.6116 48.9201
21.6571 51.0102
21.7024 52.8349
21.7479 53.6591
21.7933 53.7063
21.8388 54.7161
21.8843 57.2531
21.9297 60.8354
21.9752 64.779
22.0206 65.3961
22.0661 60.8941
22.1115 56.0404
22.157 54.9722
22.2024 55.8507
22.248 54.979
22.2933 52.6389
22.3389 49.7237
22.3843 48.8936
22.4299 48.5024
22.4753 48.5615
22.5208 48.2987
22.5662 48.4016
22.6118 48.6223
22.6572 48.6
22.7028 49.8127
22.7483 51.1259
22.7939 51.5229
22.8393 51.5616
22.8849 51.7833
22.9303 52.4584
22.9759 54.0792
23.0214 56.0257
23.067 57.797
23.1126 56.3193
23.1581 52.2729
23.2037 49.5865
23.2492 48.9102
23.2948 49.2525
23.3403 50.6994
23.3859 51.4684
23.4314 51.3898
23.477 51.1466
23.5225 51.5186
23.5682 52.5296
23.6137 54.7267
23.6593 56.95
23.7048 57.2724
23.7505 53.6572
23.796 49.2543
23.8417 46.7665
23.8872 45.7398
23.9329 45.3639
23.9784 44.8544
24.0241 44.6863
24.0697 44.3567
24.1154 43.9028
24.1609 43.876
24.2066 43.6981
24.2522 43.6068
24.2979 43.339
24.3434 43.0601
24.3892 42.9429
24.4349 42.9415
24.4805 42.6299
24.5262 42.7162
24.5718 42.6291
24.6175 42.6078
24.6631 42.8261
24.7089 42.5507
24.7545 42.3548
24.8002 42.0436
24.8458 42.1607
24.8916 42.3195
24.9372 42.3026
24.983 42.6455
25.0286 42.7373
25.0744 43.3332
25.12 43.4167
25.1658 43.9471
25.2114 44.0515
25.2572 44.4875
25.3029 44.5503
25.3487 44.2836
25.3943 44.3966
25.4402 44.6868
25.4858 44.3438
25.5316 42.9725
25.5773 41.6453
25.6231 41.1006
25.669 40.4846
25.7147 40.5711
25.7605 40.3928
25.8062 40.6155
25.8521 40.939
25.8977 40.6514
25.9436 40.7329
25.9893 40.6449
26.0352 40.8578
26.0809 40.8541
26.1268 41.1069
26.1725 41.7262
26.2184 41.6522
26.2641 41.2345
26.31 40.7953
26.3557 40.6371
26.4017 40.493
26.4474 40.5691
26.4933 40.555
26.5391 40.8169
26.585 40.9715
26.6308 41.3321
26.6767 41.6598
26.7225 42.1137
26.7684 42.3828
26.8142 41.8797
26.8601 41.0643
26.9059 40.5934
26.9519 40.2395
26.9979 39.8919
27.0437 39.3097
27.0896 38.8643
27.1354 38.8292
27.1814 38.5891
27.2272 38.6472
27.2732 38.6809
27.3191 38.4692
27.3651 38.4049
27.4109 38.3259
27.4569 38.2438
27.5027 38.3245
27.5488 38.4309
27.5946 38.447
27.6407 38.5071
27.6865 38.4688
27.7326 38.4193
27.7784 38.3058
27.8245 37.9623
27.8703 38.0592
27.9164 38.2707
27.9623 38.1039
28.0084 38.3282
28.0543 38.5158
28.1003 38.6657
28.1462 38.9088
28.1923 39.1151
28.2384 38.6569
28.2843 38.1423
28.3304 37.848
28.3764 37.3449
28.4225 36.9487
28.4684 36.6168
28.5145 35.9561
28.5605 35.9434
28.6066 35.7472
28.6526 35.7643
28.6987 35.6455
28.7447 35.503
28.7908 35.327
28.8368 35.2601
28.8829 35.2188
28.9289 35.1355
28.9751 35.1209
29.0211 35.1279
29.0673 34.946
29.1133 34.6833
29.1595 34.5801
29.2055 34.2406
29.2517 34.3007
29.2977 34.0481
29.3439 34.0637
29.3899 34.0182
29.4361 33.9254
29.4824 33.943
29.5284 33.9788
29.5746 33.6402
29.6207 33.3856
29.6669 33.0927
29.713 32.9656
29.7593 32.8591
29.8053 32.7928
29.8516 32.6483
29.8977 32.6166
29.9439 32.4829
29.99 32.4775
30.0363 32.3564
30.0824 32.4272
30.1287 32.3213
30.1748 32.2973
30.2211 32.25
30.2673 32.1466
30.3136 32.3185
30.3597 32.4183
30.406 32.3543
30.4522 32.2352
30.4985 32.0409
30.5447 32.0792
30.591 32.042
30.6372 32.0348
30.6835 31.9252
30.7297 32.0007
30.7761 32.0138
30.8224 32.1913
30.8686 32.0804
30.915 31.7451
30.9612 31.7536
31.0076 31.4411
31.0538 31.3242
31.1002 31.3119
31.1464 31.1872
31.1928 31.0317
31.2391 30.9331
31.2855 30.9476
31.3317 30.8532
31.3781 30.8661
31.4244 30.8891
31.4708 30.7545
31.5171 30.7981
31.5636 30.876
31.6098 30.6711
31.6563 30.7008
31.7026 30.4674
31.7491 30.3051
31.7953 30.1994
31.8418 30.0979
31.8881 30.1394
31.9346 30.0349
31.9809 30.0417
32.0275 30.0779
32.074 29.9228
32.1203 29.8625
32.1668 29.7771
32.2132 29.4578
32.2597 29.397
32.306 29.286
32.3526 29.1149
32.399 28.9393
32.4455 28.8335
32.4919 28.7149
32.5385 28.6938
32.5848 28.4539
32.6314 28.5233
32.6778 28.4318
32.7244 28.24
32.7708 28.1436
32.8174 28.1058
32.8638 27.9115
32.9104 28.0387
32.9569 28.0221
33.0035 27.794
33.0499 27.805
33.0966 27.8014
33.143 27.6991
33.1897 27.6419
33.2361 27.5517
33.2828 27.4705
33.3293 27.4058
33.3759 27.392
33.4226 27.3559
33.4691 27.24
33.5158 27.092
33.5623 26.9549
33.609 26.8468
33.6555 26.707
33.7022 26.5857
33.7487 26.4239
33.7954 26.3987
33.842 26.3489
33.8887 26.2922
33.9353 26.2278
33.982 26.0747
34.0286 26.1731
34.0753 26.0373
34.1219 25.8973
34.1687 25.8352
34.2152 25.7206
34.262 25.5909
34.3086 25.4942
34.3554 25.4876
34.402 25.346
34.4488 25.31
34.4954 25.1857
34.5422 25.2267
34.5889 25.0491
34.6357 24.9747
34.6825 24.9543
34.7292 24.7671
34.776 24.7182
34.8227 24.6247
34.8695 24.6633
34.9162 24.5251
34.9631 24.4571
35.0098 24.4954
35.0566 24.342
35.1033 24.3498
35.1502 24.2291
35.1969 24.1454
35.2438 24.1957
35.2906 24.0688
35.3375 24.0266
35.3842 23.8947
35.4311 23.9632
35.4779 23.9251
35.5248 23.8796
35.5716 23.7442
35.6185 23.7077
35.6653 23.6058
35.7123 23.4838
35.759 23.4557
35.806 23.4041
35.8528 23.2887
35.8998 23.1428
35.9468 23.0615
35.9936 23.1523
36.0406 22.9913
36.0874 22.9686
36.1345 22.9006
36.1813 22.8334
36.2283 22.7219
36.2752 22.6601
36.3222 22.6278
36.3691 22.6001
36.4161 22.4485
36.463 22.3986
36.5101 22.3673
36.557 22.3372
36.6041 22.0945
36.651 22.1792
36.6981 22.1308
36.745 22.051
36.7921 22.0276
36.839 21.8683
36.8861 21.7471
36.9331 21.7213
36.9802 21.6613
37.0272 21.6122
37.0743 21.5152
37.1213 21.4238
37.1684 21.4212
37.2154 21.318
37.2626 21.2115
37.3098 21.153
37.3568 21.1239
37.404 21.0881
37.451 20.9561
37.4982 20.9301
37.5452 20.8803
37.5924 20.8253
37.6395 20.7865
37.6867 20.6771
37.7337 20.5661
37.781 20.4972
37.8281 20.498
37.8753 20.3844
37.9224 20.255
37.9697 20.2299
38.0168 20.2255
38.064 20.1168
38.1111 20.0826
38.1584 19.917
38.2056 19.8827
38.2529 19.875
38.3 19.7432
38.3473 19.802
38.3945 19.6489
38.4418 19.6319
38.489 19.5631
38.5363 19.509
38.5837 19.4244
38.6309 19.3789
38.6782 19.2892
38.7254 19.2595
38.7728 19.2302
38.82 19.1088
38.8674 19.1315
38.9146 19.0756
38.9621 18.9341
39.0093 18.8591
39.0567 18.8169
39.104 18.8012
39.1514 18.6829
39.1987 18.6853
39.2461 18.5565
39.2934 18.5388
39.3409 18.5012
39.3882 18.4573
39.4356 18.3294
39.483 18.2962
39.5304 18.1923
39.5778 18.1948
39.6253 18.0652
39.6726 18.0906
39.7201 18.097
39.7675 17.9986
39.815 17.8828
39.8624 17.8371
39.9099 17.8053
39.9575 17.6672
40.0049 17.6775
40.0525 17.58
40.0999 17.5709
40.1474 17.4823
40.1949 17.4451
40.2425 17.3325
40.2899 17.3274
40.3375 17.2957
40.385 17.2209
40.4326 17.1111
40.48 17.107
40.5277 17.0678
40.5752 17.0108
40.6228 16.972
40.6703 16.9272
40.718 16.8894
40.7655 16.7756
40.8132 16.7233
40.8607 16.707
40.9084 16.6576
40.9559 16.4904
41.0036 16.5531
41.0512 16.5231
41.0989 16.4842
41.1465 16.3929
41.1942 16.4013
41.242 16.2441
41.2896 16.2007
41.3373 16.1822
41.3849 16.0827
41.4327 16.0233
41.4803 15.9702
41.5281 15.9558
41.5758 15.8923
41.6236 15.7962
41.6712 15.7795
41.7191 15.6979
41.7667 15.6477
41.8146 15.6328
41.8622 15.569
41.9101 15.5662
41.9578 15.4454
42.0057 15.4349
42.0534 15.3707
42.1013 15.2997
42.149 15.241
42.1969 15.2505
42.2446 15.1326
42.2925 15.1248
42.3403 15.0528
42.3882 15.0307
42.436 14.9878
42.4839 14.8784
42.5319 14.9046
42.5797 14.817
42.6277 14.7448
42.6755 14.7227
42.7235 14.6436
42.7713 14.6514
42.8193 14.5439
42.8671 14.4931
42.9152 14.4469
42.963 14.3735
43.0111 14.3737
43.0589 14.3306
43.107 14.2613
43.1549 14.2035
43.2029 14.1732
43.2508 14.1038
43.2989 14.0794
43.3468 14.0708
43.3949 13.9388
43.4429 13.9263
43.491 13.876
43.5389 13.8146
43.5871 13.7551
43.635 13.725
43.6832 13.6806
43.7312 13.6159
43.7793 13.5584
43.8273 13.5099
43.8755 13.5357
43.9237 13.4536
43.9717 13.4293
44.0199 13.3439
44.068 13.3148
44.1162 13.2421
44.1642 13.2054
44.2125 13.2191
44.2606 13.1206
44.3088 13.0773
44.3569 13.0377
44.4052 13.0123
44.4533 12.961
44.5016 12.8682
44.5497 12.8592
44.598 12.8015
44.6461 12.7568
44.6945 12.7193
44.7426 12.6714
44.791 12.594
44.8391 12.5689
44.8875 12.5037
44.9357 12.5082
44.984 12.4025
45.0322 12.4032
45.0806 12.3447
45.1288 12.3019
45.1773 12.2541
45.2257 12.2338
45.2739 12.1986
45.3224 12.144
45.3706 12.1013
45.4191 12.0573
45.4673 12.0232
45.5158 11.9861
45.5641 11.8921
45.6126 11.8531
45.6609 11.82
45.7094 11.7388
45.7577 11.7461
45.8063 11.7223
45.8546 11.6694
45.9031 11.599
45.9515 11.6124
46.0001 11.5693
46.0484 11.5302
46.097 11.4737
46.1454 11.4595
46.194 11.3853
46.2424 11.3623
46.291 11.3061
46.3395 11.2344
46.3881 11.1824
46.4365 11.173
46.4852 11.1604
46.5337 11.0877
46.5823 11.0967
46.631 10.9952
46.6795 10.98
46.7282 10.9496
46.7767 10.8709
46.8254 10.8612
46.8739 10.7595
46.9226 10.776
46.9712 10.7107
47.0199 10.6708
47.0685 10.6189
47.1173 10.6106
47.1658 10.5332
47.2146 10.5322
47.2632 10.5166
47.312 10.4489
47.3606 10.3854
47.4095 10.3382
47.4581 10.3448
47.5069 10.2737
47.5556 10.2592
47.6044 10.2503
47.6531 10.176
47.702 10.118
47.7507 10.0971
47.7996 10.0624
47.8483 10.018
47.8972 9.98245
47.9461 9.98337
47.9948 9.93879
48.0438 9.9036
48.0925 9.88579
48.1415 9.84735
48.1902 9.81043
48.2392 9.74241
48.288 9.72933
48.337 9.73155
48.3858 9.64152
48.4348 9.64477
48.4837 9.60338
48.5327 9.55156
48.5815 9.51506
48.6306 9.48738
48.6795 9.39989
48.7285 9.38551
48.7774 9.39612
48.8265 9.38495
48.8754 9.31338
48.9245 9.26737
48.9734 9.23768
49.0226 9.25144
49.0715 9.1858
49.1206 9.12979
49.1696 9.12287
49.2188 9.0752
49.2679 9.02691
49.3169 8.98826
49.3661 8.99065
49.4151 8.91862
49.4643 8.89643
49.5134 8.82581
49.5626 8.78782
49.6117 8.80712
49.6609 8.74804
49.71 8.71047
49.7592 8.69879
49.8083 8.66811
49.8576 8.64978
49.9067 8.55554
49.956 8.57083
50.0052 8.52739
50.0545 8.49716
50.1036 8.46115
50.153 8.45507
50.2022 8.43063
50.2515 8.38719
50.3007 8.29694
50.3501 8.27995
50.3993 8.27324
50.4487 8.2618
50.498 8.20117
50.5474 8.19404
50.5966 8.1031
50.6461 8.111
50.6955 8.10773
50.7448 8.04808
50.7943 8.04972
50.8436 8.00503
50.8931 7.96172
50.9424 7.93372
50.9919 7.90736
51.0413 7.86132
51.0908 7.83496
51.1402 7.8191
51.1897 7.77495
51.2391 7.75804
51.2887 7.71848
51.3381 7.68806
51.3877 7.65616
51.4371 7.61236
51.4867 7.60445
51.5362 7.54095
51.5858 7.56395
51.6353 7.50278
51.6849 7.48447
51.7344 7.43274
51.7841 7.39227
51.8336 7.42111
51.8833 7.33493
51.9328 7.28622
51.9826 7.22392
52.0323 7.23151
52.0818 7.20346
52.1316 7.16171
52.1812 7.14477
52.231 7.13659
52.2806 7.09546
52.3304 7.06484
52.38 7.05262
52.4298 6.99796
52.4794 6.99488
52.5293 6.96723
52.5789 6.92493
52.6288 6.8748
52.6785 6.85738
52.7284 6.8537
52.7781 6.77713
52.828 6.78429
52.8777 6.73908
52.9276 6.74863
52.9774 6.69915
53.0273 6.68732
53.0771 6.6418
53.1271 6.66167
53.1769 6.5687
53.2269 6.56945
53.2767 6.54274
53.3267 6.49735
53.3765 6.46519
53.4266 6.46904
53.4766 6.40656
53.5265 6.35793
53.5765 6.38953
53.6264 6.34495
53.6765 6.34882
53.7264 6.29977
53.7765 6.27
53.8265 6.22357
53.8766 6.17379
53.9266 6.17057
53.9767 6.14739
54.0267 6.15122
54.0769 6.08253
54.1269 6.08227
54.1771 5.97414
54.2271 5.98006
54.2773 5.93034
54.3274 5.88658
54.3776 5.85266
54.4277 5.85213
54.478 5.8026
54.528 5.78994
54.5783 5.69014
54.6285 5.63023
54.6788 5.61659
54.7289 5.55348
54.7792 5.56295
54.8296 5.45988
54.8798 5.40096
54.9301 5.37151
54.9803 5.34613
55.0307 5.35846
55.0809 5.30333
55.1314 5.2349
55.1816 5.19093
55.232 5.12972
55.2823 5.08391
55.3328 5.00314
55.383 4.97693
55.4335 4.92018
55.4838 4.9188
55.5344 4.81897
55.5847 4.8174
55.6352 4.81891
55.6856 4.77187
55.7361 4.72472