File: XRD/Ni3Fe_FD0006.xy
TT I
1.27165 36.2547
1.31627 35.9405
1.36089 36.6928
1.40551 33.9479
1.45013 31.8264
1.49476 31.4021
1.53938 30.0026
1.584 29.0118
1.62863 29.0125
1.67325 27.5584
1.71787 26.9237
1.7625 27.2911
1.80712 25.8788
1.85174 25.6669
1.89636 25.1318
1.94099 25.336
1.98562 25.8076
2.03025 24.5851
2.07487 25.3967
2.11949 26.2097
2.16411 25.7981
2.20874 25.9742
2.25338 26.6261
2.298 26.6433
2.34263 26.6904
2.38725 26.6111
2.43188 26.7538
2.4765 26.7605
2.52115 26.3334
2.56577 26.5416
2.6104 28.083
2.65503 28.8978
2.69965 29.4504
2.7443 31.492
2.78893 33.9041
2.83356 36.6718
2.87818 40.276
2.92281 44.0509
2.96744 48.808
3.01209 57.3025
3.05672 66.1483
3.10135 77.0494
3.14599 83.7344
3.19062 86.3713
3.23527 81.452
3.2799 71.7225
3.32454 60.0822
3.36917 51.5154
3.4138 45.9457
3.45844 41.8628
3.50309 40.5626
3.54773 39.4702
3.59237 40.1568
3.637 40.775
3.68164 41.6261
3.7263 42.2926
3.77094 41.7909
3.81558 41.4226
3.86022 41.8931
3.90486 42.9652
3.9495 44.0749
3.99416 45.5852
4.0388 48.1495
4.08344 51.1896
4.12809 55.0472
4.17273 60.007
4.21738 66.0511
4.26204 72.9548
4.30669 77.8549
4.35133 79.8816
4.39598 77.0342
4.44063 73.0521
4.4853 69.5128
4.52995 65.8828
4.5746 61.76
4.61925 58.7719
4.6639 55.9659
4.70855 55.3561
4.75322 55.6889
4.79788 57.3938
4.84253 60.6452
4.88719 64.5343
4.93184 69.6786
4.97652 77.6146
5.02118 90.5612
5.06583 113.574
5.11049 135.434
5.15515 171.243
5.19981 248.661
5.24449 475.588
5.28916 979.395
5.33382 2528.32
5.37848 4138.75
5.42315 1597.19
5.46783 441.342
5.5125 235.018
5.55716 164.904
5.60183 129.329
5.6465 112.987
5.69117 105.337
5.73586 99.9185
5.78053 94.9574
5.8252 93.9329
5.86988 98.2857
5.91455 106.179
5.95924 121.598
6.00392 155.732
6.0486 234.723
6.09328 395.747
6.13795 672.85
6.18263 1236.69
6.22733 933.856
6.27201 382.224
6.3167 188.85
6.36138 117.221
6.40606 87.1906
6.45075 73.5589
6.49545 65.2949
6.54014 59.6798
6.58483 56.3184
6.62952 54.5805
6.67421 53.0266
6.71892 52.7922
6.76361 52.5378
6.8083 51.7193
6.853 50.5664
6.89769 50.3258
6.94239 49.0743
6.98711 48.3921
7.03181 48.6687
7.07651 48.5112
7.12121 49.8825
7.16591 51.9682
7.21063 53.7358
7.25533 57.4254
7.30004 63.5015
7.34475 69.8887
7.38945 71.9838
7.43416 68.4522
7.47889 64.0352
7.5236 63.8915
7.56831 88.9595
7.61303 167.505
7.65774 107.47
7.70247 53.5186
7.74719 44.695
7.79191 41.4904
7.83663 40.1648
7.88135 39.2407
7.92607 39.1113
7.97081 38.9204
8.01553 39.426
8.06026 39.8719
8.10498 40.0653
8.14971 41.0966
8.19446 42.4163
8.23919 43.8566
8.28392 45.3591
8.32865 47.1675
8.37339 50.3869
8.41812 54.1977
8.46288 60.8943
8.50761 71.0012
8.55235 90.9582
8.59709 138.233
8.64183 194.551
8.68658 295.905
8.73134 604.61
8.77609 780.043
8.82083 394.871
8.86558 170.929
8.91033 106.629
8.9551 81.8671
8.99985 71.2949
9.04461 65.0271
9.08936 61.253
9.13412 58.0727
9.17888 58.0522
9.22365 63.1935
9.26841 96.2207
9.31318 232.567
9.35794 216.768
9.4027 83.8357
9.44749 55.9006
9.49226 51.3144
9.53703 49.0154
9.5818 48.539
9.62657 48.3663
9.67134 49.0776
9.71614 49.8955
9.76091 50.9527
9.80569 52.5521
9.85047 54.6382
9.89525 57.843
9.94005 62.4021
9.98484 70.5013
10.0296 85.8071
10.0744 117.818
10.1192 165.69
10.164 206.505
10.2088 356.371
10.2536 717.979
10.2984 750.689
10.3432 365.288
10.388 162.923
10.4328 104.567
10.4776 84.4344
10.5224 81.062
10.5672 87.6218
10.612 92.8928
10.6568 120.733
10.7017 221.287
10.7465 303.21
10.7913 205.339
10.8361 95.7665
10.8809 59.2302
10.9257 48.8292
10.9706 45.3145
11.0154 43.0447
11.0602 41.641
11.105 40.767
11.1499 40.0608
11.1947 40.0033
11.2395 39.5834
11.2844 39.6406
11.3292 39.2569
11.374 39.0066
11.4189 38.5984
11.4637 38.2948
11.5086 37.5154
11.5534 37.1688
11.5983 37.2493
11.6431 37.1448
11.688 36.8119
11.7328 36.8062
11.7777 36.6891
11.8225 36.8072
11.8674 37.2178
11.9122 38.5139
11.9571 42.4838
12.002 61.2855
12.0468 95.4126
12.0917 80.1669
12.1366 50.1743
12.1814 45.6066
12.2263 47.204
12.2712 50.9351
12.3161 61.6324
12.3609 83.7759
12.4058 99.1515
12.4507 79.3216
12.4956 57.2069
12.5405 46.8035
12.5853 42.376
12.6302 39.7651
12.6751 38.9276
12.72 38.7533
12.7649 39.0826
12.8098 39.2616
12.8547 39.0274
12.8996 38.7798
12.9445 38.6323
12.9894 38.8743
13.0343 39.1087
13.0792 40.5661
13.1242 42.6059
13.1691 51.3635
13.214 61.2346
13.2589 61.3114
13.3038 64.7747
13.3487 69.4104
13.3937 80.8123
13.4386 114.392
13.4835 189.998
13.5285 235.368
13.5734 170.382
13.6183 107.1
13.6633 86.0497
13.7082 79.3999
13.7531 85.974
13.7981 122.516
13.843 198.31
13.888 212.81
13.9329 129.37
13.9779 74.286
14.0228 54.3192
14.0678 46.3851
14.1127 43.5094
14.1577 43.9993
14.2027 54.2931
14.2476 82.1871
14.2926 87.4615
14.3376 55.9973
14.3825 40.4443
14.4275 37.2579
14.4725 36.0195
14.5175 35.715
14.5624 35.1657
14.6074 35.2634
14.6524 35.0984
14.6974 35.4443
14.7424 35.8891
14.7874 36.3105
14.8324 37.4923
14.8774 39.4868
14.9224 43.609
14.9674 47.2305
15.0124 49.2142
15.0574 53.8872
15.1024 66.9668
15.1474 98.5114
15.1924 134.03
15.2374 121.818
15.2824 81.1475
15.3274 55.72
15.3725 45.4632
15.4175 41.0487
15.4625 38.6645
15.5076 37.641
15.5526 37.0182
15.5976 36.5272
15.6426 36.4323
15.6877 36.7229
15.7327 37.3276
15.7778 38.5007
15.8228 41.6006
15.8679 45.1034
15.9129 46.7624
15.958 49.6603
16.003 57.9167
16.0481 78.6471
16.0931 115.478
16.1382 138.473
16.1833 116.098
16.2283 77.6024
16.2734 51.9785
16.3185 41.3904
16.3636 37.1171
16.4086 34.5771
16.4537 33.5297
16.4988 32.425
16.5439 32.029
16.589 31.4157
16.6341 30.8806
16.6792 30.4043
16.7243 30.2876
16.7694 30.2289
16.8145 30.1519
16.8596 30.294
16.9047 30.4232
16.9498 30.9702
16.9949 32.8403
17.04 37.5263
17.0851 40.2873
17.1302 36.0803
17.1754 32.4369
17.2205 31.9829
17.2656 32.3615
17.3108 33.0087
17.3559 33.3442
17.401 34.0053
17.4462 36.4019
17.4913 41.5859
17.5365 49.9164
17.5815 52.8867
17.6268 45.7475
17.6718 38.1033
17.7171 34.6603
17.7622 33.759
17.8074 34.0008
17.8525 36.7152
17.8977 41.1196
17.9428 41.5667
17.9881 38.2336
18.0331 38.3545
18.0784 40.2303
18.1237 41.6418
18.1688 42.5978
18.214 46.0942
18.2591 54.8527
18.3044 74.6257
18.3495 102.276
18.3948 110.157
18.4399 85.8342
18.4852 63.3549
18.5303 57.4677
18.5756 63.5741
18.6207 77.456
18.666 78.7145
18.7112 64.5541
18.7565 49.2279
18.8016 40.231
18.8469 36.045
18.892 34.3295
18.9374 33.2233
18.9825 32.394
19.0278 32.1388
19.073 31.84
19.1183 31.5886
19.1635 31.379
19.2088 31.7503
19.254 32.3051
19.2993 33.1273
19.3447 33.9744
19.3898 36.5298
19.4352 42.4755
19.4804 48.9414
19.5257 48.5445
19.5709 45.4945
19.6163 49.0498
19.6615 51.3319
19.7068 46.2156
19.752 39.1059
19.7974 34.6111
19.8426 32.4284
19.888 31.2719
19.9332 30.8277
19.9786 30.6252
20.0238 30.8115
20.0692 31.2904
20.1144 31.2433
20.1598 31.5795
20.205 32.4757
20.2504 34.6138
20.2957 38.5203
20.3411 44.6762
20.3863 49.3135
20.4318 47.0513
20.477 41.3442
20.5224 39.3553
20.5677 42.514
20.6131 46.5726
20.6586 44.7544
20.7038 38.242
20.7493 33.2491
20.7945 30.9145
20.84 30.3748
20.8853 31.7873
20.9307 33.876
20.976 33.2648
21.0215 30.1651
21.0668 28.3138
21.1122 27.5332
21.1575 27.4753
21.203 27.4507
21.2483 27.3747
21.2938 27.4519
21.3391 27.351
21.3846 27.6348
21.4299 28.1119
21.4754 29.4347
21.5207 31.3892
21.5662 32.5243
21.6116 31.8163
21.6571 30.3028
21.7024 28.9935
21.7479 28.5091
21.7933 28.7328
21.8388 29.3329
21.8843 29.7866
21.9297 30.115
21.9752 30.6598
22.0206 32.1222
22.0661 33.9331
22.1115 37.4163
22.157 43.4378
22.2024 50.6419
22.248 53.0202
22.2933 49.6231
22.3389 44.6898
22.3843 41.6973
22.4299 41.0136
22.4753 39.494
22.5208 35.631
22.5662 32.0986
22.6118 30.5478
22.6572 29.462
22.7028 29.0416
22.7483 28.6753
22.7939 28.7148
22.8393 29.0763
22.8849 29.8584
22.9303 31.1867
22.9759 31.9585
23.0214 31.2573
23.067 30.4533
23.1126 30.8498
23.1581 32.4017
23.2037 35.5003
23.2492 40.9007
23.2948 45.2783
23.3403 43.9273
23.3859 38.4389
23.4314 33.8441
23.477 32.2756
23.5225 32.8609
23.5682 34.3419
23.6137 35.124
23.6593 33.9238
23.7048 32.6283
23.7505 32.7933
23.796 34.7267
23.8417 39.1194
23.8872 45.2909
23.9329 48.4148
23.9784 44.3514
24.0241 36.9582
24.0697 32.1524
24.1154 29.6765
24.1609 28.7808
24.2066 28.4014
24.2522 27.9793
24.2979 26.9773
24.3434 26.4176
24.3892 25.8354
24.4349 25.5543
24.4805 25.4522
24.5262 25.4249
24.5718 25.2912
24.6175 25.3302
24.6631 25.3426
24.7089 25.4344
24.7545 26.0446
24.8002 27.1192
24.8458 27.7884
24.8916 27.289
24.9372 26.3938
24.983 25.8095
25.0286 25.4642
25.0744 25.2457
25.12 25.0634
25.1658 25.2592
25.2114 25.4242
25.2572 25.6905
25.3029 26.1281
25.3487 26.7147
25.3943 27.7409
25.4402 28.953
25.4858 30.2766
25.5316 30.9641
25.5773 30.8867
25.6231 31.4212
25.669 32.83
25.7147 33.965
25.7605 32.287
25.8062 29.4119
25.8521 27.3683
25.8977 26.2635
25.9436 26.3482
25.9893 26.6629
26.0352 26.6486
26.0809 25.7692
26.1268 25.232
26.1725 24.9113
26.2184 24.9307
26.2641 25.0465
26.31 25.5018
26.3557 26.4485
26.4017 27.7508
26.4474 29.207
26.4933 29.4389
26.5391 28.3648
26.585 27.0158
26.6308 26.2076
26.6767 25.6128
26.7225 25.505
26.7684 25.6268
26.8142 25.9024
26.8601 26.4078
26.9059 27.4646
26.9519 29.2667
26.9979 31.53
27.0437 32.839
27.0896 32.4028
27.1354 31.5307
27.1814 30.3854
27.2272 28.8582
27.2732 27.1866
27.3191 25.7211
27.3651 24.8837
27.4109 24.2991
27.4569 24.182
27.5027 24.0579
27.5488 23.8491
27.5946 23.8522
27.6407 24.0745
27.6865 24.2293
27.7326 24.1832
27.7784 24.2876
27.8245 24.5373
27.8703 25.219
27.9164 25.9842
27.9623 25.7286
28.0084 25.295
28.0543 24.7873
28.1003 24.7064
28.1462 25.3048
28.1923 26.0364
28.2384 26.2868
28.2843 26.3592
28.3304 26.5048
28.3764 27.7679
28.4225 29.6369
28.4684 30.561
28.5145 29.862
28.5605 28.6804
28.6066 28.1153
28.6526 27.6568
28.6987 26.6395
28.7447 25.3946
28.7908 24.3568
28.8368 23.4103
28.8829 22.9002
28.9289 22.6371
28.9751 22.3192
29.0211 22.1627
29.0673 22.0638
29.1133 22.0918
29.1595 22.1704
29.2055 22.5388
29.2517 23.093
29.2977 23.3703
29.3439 23.3727
29.3899 22.6971
29.4361 22.2458
29.4824 21.857
29.5284 21.6721
29.5746 21.4787
29.6207 21.5388
29.6669 21.6978
29.713 22.1151
29.7593 22.5502
29.8053 23.0521
29.8516 22.9571
29.8977 22.375
29.9439 21.7098
29.99 21.2213
30.0363 20.9456
30.0824 20.8719
30.1287 20.7443
30.1748 20.8145
30.2211 21.1386
30.2673 21.3534
30.3136 21.4369
30.3597 21.0226
30.406 20.707
30.4522 20.6985
30.4985 20.5997
30.5447 20.9812
30.591 21.3224
30.6372 21.6315
30.6835 21.4973
30.7297 21.1784
30.7761 20.9853
30.8224 20.8244
30.8686 20.8278
30.915 20.9569
30.9612 21.1203
31.0076 21.5671
31.0538 22.3603
31.1002 23.2799
31.1464 23.9189
31.1928 23.9141
31.2391 23.5918
31.2855 22.9964
31.3317 22.4042
31.3781 21.5982
31.4244 21.0406
31.4708 20.63
31.5171 20.3951
31.5636 20.3209
31.6098 20.2445
31.6563 20.2952
31.7026 20.5002
31.7491 20.6829
31.7953 20.9547
31.8418 21.3835
31.8881 21.8894
31.9346 22.1905
31.9809 21.9512
32.0275 21.2567
32.074 20.723
32.1203 20.3926
32.1668 20.4292
32.2132 20.4987
32.2597 20.6416
32.306 21.0374
32.3526 21.2866
32.399 21.6434
32.4455 21.5846
32.4919 21.1359
32.5385 20.7271
32.5848 20.2886
32.6314 19.9413
32.6778 19.6564
32.7244 19.2551
32.7708 18.9079
32.8174 18.8188
32.8638 18.5848
32.9104 18.5534
32.9569 18.533
33.0035 18.4417
33.0499 18.5761
33.0966 18.6778
33.143 18.8116
33.1897 18.7428
33.2361 18.5224
33.2828 18.3838
33.3293 18.268
33.3759 18.2818
33.4226 18.2598
33.4691 18.3279
33.5158 18.6734
33.5623 19.0202
33.609 19.2886
33.6555 19.4071
33.7022 19.5591
33.7487 19.498
33.7954 19.4217
33.842 18.934
33.8887 18.4623
33.9353 18.1165
33.982 17.8209
34.0286 17.7747
34.0753 17.6697
34.1219 17.6267
34.1687 17.5126
34.2152 17.5514
34.262 17.4967
34.3086 17.6517
34.3554 17.7576
34.402 17.6038
34.4488 17.505
34.4954 17.2854
34.5422 17.0631
34.5889 17.0395
34.6357 16.8956
34.6825 16.9552
34.7292 17.0292
34.776 17.1134
34.8227 17.1334
34.8695 17.0511
34.9162 16.8366
34.9631 16.6239
35.0098 16.5021
35.0566 16.3773
35.1033 16.3174
35.1502 16.2257
35.1969 16.1674
35.2438 16.1408
35.2906 16.1837
35.3375 16.2213
35.3842 16.256
35.4311 16.3272
35.4779 16.3077
35.5248 16.3342
35.5716 16.213
35.6185 16.1651
35.6653 16.2233
35.7123 16.3076
35.759 16.4919
35.806 16.6486
35.8528 16.8975
35.8998 17.1603
35.9468 17.2899
35.9936 17.4032
36.0406 17.0947
36.0874 16.9081
36.1345 16.5551
36.1813 16.2415
36.2283 16.0452
36.2752 15.8531
36.3222 15.758
36.3691 15.7072
36.4161 15.5694
36.463 15.5651
36.5101 15.6161
36.557 15.6448
36.6041 15.7215
36.651 15.896
36.6981 15.8716
36.745 15.6919
36.7921 15.4197
36.839 15.2814
36.8861 15.2442
36.9331 15.2453
36.9802 15.3333
37.0272 15.4348
37.0743 15.4813
37.1213 15.5165
37.1684 15.4096
37.2154 15.2603
37.2626 15.1184
37.3098 14.9901
37.3568 14.7595
37.404 14.7112
37.451 14.6361
37.4982 14.5221
37.5452 14.4517
37.5924 14.4013
37.6395 14.4153
37.6867 14.3501
37.7337 14.3278
37.781 14.2647
37.8281 14.2874
37.8753 14.1714
37.9224 14.1674
37.9697 14.0834
38.0168 14.0243
38.064 14.1088
38.1111 14.0761
38.1584 14.1004
38.2056 14.1213
38.2529 14.1042
38.3 14.0125
38.3473 13.9166
38.3945 13.7907
38.4418 13.6369
38.489 13.5642
38.5363 13.5093
38.5837 13.4412
38.6309 13.473
38.6782 13.4709
38.7254 13.4742
38.7728 13.5376
38.82 13.5034
38.8674 13.5421
38.9146 13.4859
38.9621 13.3023
39.0093 13.3149
39.0567 13.2533
39.104 13.2461
39.1514 13.2364
39.1987 13.3103
39.2461 13.3237
39.2934 13.2916
39.3409 13.0449
39.3882 12.9281
39.4356 12.8972
39.483 12.8114
39.5304 12.7722
39.5778 12.6801
39.6253 12.6175
39.6726 12.5815
39.7201 12.507
39.7675 12.5079
39.815 12.4991
39.8624 12.4951
39.9099 12.4858
39.9575 12.4685
40.0049 12.3358
40.0525 12.3304
40.0999 12.345
40.1474 12.3126
40.1949 12.2881
40.2425 12.3171
40.2899 12.4018
40.3375 12.454
40.385 12.4057
40.4326 12.3799
40.48 12.2292
40.5277 12.1732
40.5752 12.0634
40.6228 12.0271
40.6703 12.0283
40.718 11.9822
40.7655 11.9738
40.8132 11.9185
40.8607 11.8975
40.9084 11.8927
40.9559 11.8911
41.0036 11.8439
41.0512 11.7762
41.0989 11.7307
41.1465 11.724
41.1942 11.7344
41.242 11.7374
41.2896 11.732
41.3373 11.7024
41.3849 11.66
41.4327 11.6011
41.4803 11.4878
41.5281 11.3926
41.5758 11.3517
41.6236 11.2729
41.6712 11.229
41.7191 11.1963
41.7667 11.1723
41.8146 11.1624
41.8622 11.123
41.9101 11.0983
41.9578 10.9685
42.0057 10.9867
42.0534 11.0156
42.1013 10.9736
42.149 10.9481
42.1969 10.946
42.2446 11.0325
42.2925 11.0363
42.3403 10.96
42.3882 10.9248
42.436 10.8615
42.4839 10.7462
42.5319 10.6638
42.5797 10.6137
42.6277 10.6091
42.6755 10.4909
42.7235 10.4472
42.7713 10.4488
42.8193 10.4275
42.8671 10.3881
42.9152 10.3442
42.963 10.3308
43.0111 10.2314
43.0589 10.1907
43.107 10.1488
43.1549 10.0978
43.2029 10.1106
43.2508 10.0704
43.2989 10.0483
43.3468 9.9748
43.3949 9.96058
43.4429 9.8782
43.491 9.86464
43.5389 9.8132
43.5871 9.80089
43.635 9.76127
43.6832 9.77541
43.7312 9.72694
43.7793 9.68427
43.8273 9.65073
43.8755 9.63216
43.9237 9.60618
43.9717 9.58492
44.0199 9.56991
44.068 9.51906
44.1162 9.49954
44.1642 9.48459
44.2125 9.51527
44.2606 9.48461
44.3088 9.50266
44.3569 9.40224
44.4052 9.38372
44.4533 9.28789
44.5016 9.27658
44.5497 9.21016
44.598 9.2295
44.6461 9.21131
44.6945 9.16718
44.7426 9.15023
44.791 9.09019
44.8391 9.10284
44.8875 9.05357
44.9357 9.03086
44.984 9.01726
45.0322 8.99761
45.0806 8.95827
45.1288 8.96805
45.1773 8.94505
45.2257 8.92495
45.2739 8.82795
45.3224 8.81643
45.3706 8.79319
45.4191 8.71679
45.4673 8.68761
45.5158 8.68631
45.5641 8.62718
45.6126 8.59991
45.6609 8.57979
45.7094 8.52288
45.7577 8.50935
45.8063 8.4669
45.8546 8.48254
45.9031 8.45455
45.9515 8.41575
46.0001 8.3919
46.0484 8.40766
46.097 8.37563
46.1454 8.35624
46.194 8.31662
46.2424 8.29711
46.291 8.22256
46.3395 8.16352
46.3881 8.14591
46.4365 8.13559
46.4852 8.13724
46.5337 8.09834
46.5823 8.07178
46.631 8.05233
46.6795 8.00908
46.7282 7.98521
46.7767 7.94914
46.8254 7.89773
46.8739 7.88317
46.9226 7.83064
46.9712 7.80538
47.0199 7.80726
47.0685 7.76123
47.1173 7.71764
47.1658 7.73623
47.2146 7.70276
47.2632 7.60496
47.312 7.62316
47.3606 7.57468
47.4095 7.54919
47.4581 7.53041
47.5069 7.50719
47.5556 7.44642
47.6044 7.43883
47.6531 7.43056
47.702 7.38195
47.7507 7.37456
47.7996 7.32975
47.8483 7.3357
47.8972 7.3197
47.9461 7.28012
47.9948 7.24762
48.0438 7.20855
48.0925 7.18593
48.1415 7.21813
48.1902 7.11519
48.2392 7.11975
48.288 7.06814
48.337 7.06795
48.3858 6.98661
48.4348 6.99261
48.4837 7.02296
48.5327 6.9588
48.5815 6.96091
48.6306 6.91102
48.6795 6.89587
48.7285 6.86991
48.7774 6.84137
48.8265 6.82925
48.8754 6.78873
48.9245 6.77786
48.9734 6.7893
49.0226 6.72475
49.0715 6.7072
49.1206 6.65809
49.1696 6.63072
49.2188 6.63826
49.2679 6.60817
49.3169 6.56113
49.3661 6.55748
49.4151 6.52428
49.4643 6.51658
49.5134 6.51323
49.5626 6.46993
49.6117 6.45159
49.6609 6.39675
49.71 6.40725
49.7592 6.43574
49.8083 6.37193
49.8576 6.38286
49.9067 6.312
49.956 6.30738
50.0052 6.26111
50.0545 6.24841
50.1036 6.20565
50.153 6.18333
50.2022 6.18702
50.2515 6.15263
50.3007 6.08459
50.3501 6.15937
50.3993 6.07776
50.4487 6.09848
50.498 6.05226
50.5474 6.04622
50.5966 6.01905
50.6461 5.9933
50.6955 5.99007
50.7448 5.93307
50.7943 5.88738
50.8436 5.89934
50.8931 5.88719
50.9424 5.86276
50.9919 5.81771
51.0413 5.81021
51.0908 5.76756
51.1402 5.74167
51.1897 5.73521
51.2391 5.72928
51.2887 5.72693
51.3381 5.67753
51.3877 5.68925
51.4371 5.64535
51.4867 5.61509
51.5362 5.59804
51.5858 5.60178
51.6353 5.55127
51.6849 5.5127
51.7344 5.50526
51.7841 5.46455
51.8336 5.4519
51.8833 5.43901
51.9328 5.38078
51.9826 5.39038
52.0323 5.35622
52.0818 5.35879
52.1316 5.30803
52.1812 5.32428
52.231 5.25938
52.2806 5.24186
52.3304 5.22903
52.38 5.2218
52.4298 5.21275
52.4794 5.1768
52.5293 5.15984
52.5789 5.13656
52.6288 5.09731
52.6785 5.09481
52.7284 5.07738
52.7781 5.06352
52.828 5.02841
52.8777 5.06534
52.9276 5.01107
52.9774 4.97298
53.0273 4.99581
53.0771 4.94498
53.1271 4.93417
53.1769 4.89875
53.2269 4.86871
53.2767 4.85771
53.3267 4.85103
53.3765 4.84118
53.4266 4.79793
53.4766 4.78376
53.5265 4.70299
53.5765 4.72716
53.6264 4.71225
53.6765 4.69815
53.7264 4.65626
53.7765 4.69602
53.8265 4.62101
53.8766 4.60514
53.9266 4.60066
53.9767 4.55801
54.0267 4.5383
54.0769 4.51073
54.1269 4.5076
54.1771 4.45213
54.2271 4.43457
54.2773 4.41599
54.3274 4.40513
54.3776 4.36695
54.4277 4.31534
54.478 4.29789
54.528 4.27647
54.5783 4.25014
54.6285 4.20649
54.6788 4.20911
54.7289 4.11866
54.7792 4.11603
54.8296 4.08938
54.8798 4.02581
54.9301 4.0274
54.9803 4.01164
55.0307 4.00862
55.0809 3.93308
55.1314 3.94014
55.1816 3.87387
55.232 3.81229
55.2823 3.79055
55.3328 3.78736
55.383 3.72039
55.4335 3.68531
55.4838 3.6647
55.5344 3.57418
55.5847 3.60866
55.6352 3.54429
55.6856 3.54811
55.7361 3.52909