File: XRD/Ni3Fe_FD0908.xy
TT I
1.27165 7.0496
1.31627 6.36544
1.36089 6.3643
1.40551 6.28199
1.45013 6.02711
1.49476 5.61005
1.53938 6.01012
1.584 4.71848
1.62863 5.25972
1.67325 4.88496
1.71787 5.00781
1.7625 4.85999
1.80712 4.81432
1.85174 4.50468
1.89636 3.87998
1.94099 4.52533
1.98562 4.76988
2.03025 4.51325
2.07487 4.98091
2.11949 5.17527
2.16411 4.79149
2.20874 10.8947
2.25338 14.7908
2.298 5.90995
2.34263 5.386
2.38725 6.03536
2.43188 6.54377
2.4765 7.23588
2.52115 7.67749
2.56577 8.10405
2.6104 8.00605
2.65503 8.53053
2.69965 8.27557
2.7443 8.19815
2.78893 8.75397
2.83356 8.82987
2.87818 9.0131
2.92281 8.73637
2.96744 9.73774
3.01209 10.8058
3.05672 11.2404
3.10135 12.415
3.14599 12.8948
3.19062 14.3748
3.23527 15.6335
3.2799 15.388
3.32454 16.8513
3.36917 17.4743
3.4138 18.5482
3.45844 19.2923
3.50309 20.6489
3.54773 21.3168
3.59237 23.7787
3.637 62.7934
3.68164 43.312
3.7263 25.3744
3.77094 25.6589
3.81558 26.7649
3.86022 27.2862
3.90486 28.1795
3.9495 29.4963
3.99416 30.551
4.0388 31.3304
4.08344 32.7915
4.12809 34.4945
4.17273 36.2833
4.21738 40.2064
4.26204 158.184
4.30669 137.975
4.35133 45.1155
4.39598 43.5016
4.44063 50.1837
4.4853 56.9706
4.52995 52.423
4.5746 53.3395
4.61925 53.014
4.6639 54.7446
4.70855 57.5422
4.75322 60.9446
4.79788 65.4765
4.84253 66.8355
4.88719 71.9762
4.93184 74.7465
4.97652 79.5724
5.02118 86.0975
5.06583 93.389
5.11049 103.696
5.15515 154.41
5.19981 344.776
5.24449 2701.36
5.28916 13659.7
5.33382 2599.48
5.37848 177.386
5.42315 125.358
5.46783 113.301
5.5125 106.934
5.55716 100.524
5.60183 97.0759
5.6465 95.03
5.69117 92.9988
5.73586 91.0473
5.78053 93.3116
5.8252 92.7465
5.86988 94.1536
5.91455 92.3456
5.95924 101.388
6.00392 210.86
6.0486 914.089
6.09328 4586.5
6.13795 2998.02
6.18263 194.552
6.22733 88.0506
6.27201 79.1911
6.3167 88.3659
6.36138 75.0167
6.40606 68.5584
6.45075 67.2842
6.49545 64.133
6.54014 63.0478
6.58483 61.673
6.62952 61.7382
6.67421 79.0304
6.71892 105.837
6.76361 63.7485
6.8083 57.9924
6.853 57.8073
6.89769 55.5936
6.94239 55.0571
6.98711 54.9714
7.03181 54.9447
7.07651 54.1126
7.12121 54.3323
7.16591 54.2832
7.21063 54.4951
7.25533 63.4402
7.30004 122.444
7.34475 74.688
7.38945 54.8641
7.43416 53.1171
7.47889 53.2487
7.5236 53.9242
7.56831 54.3556
7.61303 55.2888
7.65774 55.5955
7.70247 55.6314
7.74719 55.614
7.79191 55.6631
7.83663 55.7135
7.88135 57.0046
7.92607 57.7529
7.97081 58.8765
8.01553 59.7935
8.06026 61.3937
8.10498 63.1238
8.14971 70.3654
8.19446 70.0376
8.23919 68.3641
8.28392 70.5432
8.32865 72.7481
8.37339 77.3626
8.41812 82.848
8.46288 103.44
8.50761 165.22
8.55235 365.06
8.59709 1191.63
8.64183 2282.66
8.68658 838.357
8.73134 141.49
8.77609 95.8622
8.82083 90.4863
8.86558 89.3211
8.91033 88.9291
8.9551 88.4297
8.99985 83.5915
9.04461 82.3095
9.08936 81.9755
9.13412 81.1024
9.17888 80.8169
9.22365 81.063
9.26841 80.9066
9.31318 82.0097
9.35794 83.4539
9.4027 83.399
9.44749 83.2247
9.49226 83.4028
9.53703 84.3253
9.5818 86.8851
9.62657 91.0994
9.67134 94.7006
9.71614 91.773
9.76091 92.8183
9.80569 96.5052
9.85047 98.9196
9.89525 113.843
9.94005 127.432
9.98484 178.117
10.0296 327.246
10.0744 817.763
10.1192 1845.09
10.164 1487.36
10.2088 329.333
10.2536 118.278
10.2984 108.077
10.3432 108.462
10.388 102.604
10.4328 117.596
10.4776 157.486
10.5224 288.75
10.5672 542.98
10.612 487.969
10.6568 178.938
10.7017 92.3078
10.7465 84.6541
10.7913 81.5583
10.8361 79.4842
10.8809 77.5784
10.9257 76.9727
10.9706 76.9573
11.0154 73.7101
11.0602 71.3459
11.105 70.2489
11.1499 72.5337
11.1947 75.8423
11.2395 70.495
11.2844 67.9216
11.3292 65.8508
11.374 64.8553
11.4189 64.3903
11.4637 63.8081
11.5086 63.9069
11.5534 65.1676
11.5983 63.5025
11.6431 62.4603
11.688 61.8989
11.7328 61.8438
11.7777 61.6042
11.8225 61.6862
11.8674 61.5289
11.9122 61.741
11.9571 61.747
12.002 63.0086
12.0468 66.9198
12.0917 77.0846
12.1366 101.457
12.1814 157.067
12.2263 217.911
12.2712 154.888
12.3161 86.2371
12.3609 66.6892
12.4058 63.0101
12.4507 62.934
12.4956 63.4051
12.5405 63.6433
12.5853 64.1372
12.6302 68.7149
12.6751 72.1809
12.72 67.5676
12.7649 66.6443
12.8098 67.3686
12.8547 68.6614
12.8996 70.1587
12.9445 71.2075
12.9894 73.0608
13.0343 74.6877
13.0792 78.4155
13.1242 88.6553
13.1691 108.824
13.214 144.734
13.2589 243.27
13.3038 391.511
13.3487 423.668
13.3937 231.06
13.4386 113.967
13.4835 103.82
13.5285 117.131
13.5734 156.142
13.6183 257.929
13.6633 376.183
13.7082 332.087
13.7531 167.232
13.7981 91.5636
13.843 79.7664
13.888 77.8344
13.9329 75.6949
13.9779 74.669
14.0228 73.1594
14.0678 71.7675
14.1127 71.2536
14.1577 70.6314
14.2027 69.9981
14.2476 69.1734
14.2926 69.0258
14.3376 69.5186
14.3825 68.6514
14.4275 67.6256
14.4725 67.6494
14.5175 67.6833
14.5624 67.657
14.6074 69.0074
14.6524 69.3643
14.6974 69.197
14.7424 71.4868
14.7874 78.0124
14.8324 86.8014
14.8774 109.817
14.9224 157.535
14.9674 218.918
15.0124 214.662
15.0574 139.042
15.1024 84.2095
15.1474 70.2892
15.1924 68.8688
15.2374 68.7665
15.2824 68.1173
15.3274 66.4161
15.3725 65.5138
15.4175 65.1645
15.4625 64.879
15.5076 64.832
15.5526 64.7548
15.5976 64.774
15.6426 66.2184
15.6877 71.2533
15.7327 78.0506
15.7778 92.8962
15.8228 128.27
15.8679 176.088
15.9129 193.939
15.958 145.698
16.003 87.6685
16.0481 65.0189
16.0931 62.3287
16.1382 60.5996
16.1833 59.0496
16.2283 57.6609
16.2734 57.0786
16.3185 57.1347
16.3636 57.3733
16.4086 55.773
16.4537 54.9297
16.4988 54.1984
16.5439 54.4904
16.589 54.0816
16.6341 53.9123
16.6792 53.5034
16.7243 53.7521
16.7694 53.6955
16.8145 53.744
16.8596 53.9142
16.9047 54.9397
16.9498 55.0999
16.9949 54.2173
17.04 54.8652
17.0851 56.3258
17.1302 57.5856
17.1754 60.3922
17.2205 65.9429
17.2656 74.4157
17.3108 83.2578
17.3559 80.0733
17.401 67.4741
17.4462 59.8992
17.4913 58.0641
17.5365 58.047
17.5815 57.9136
17.6268 58.48
17.6718 59.2795
17.7171 59.7258
17.7622 60.2626
17.8074 61.0284
17.8525 63.6561
17.8977 67.1237
17.9428 72.0519
17.9881 81.4782
18.0331 100.349
18.0784 125.371
18.1237 139.632
18.1688 124.77
18.214 96.3714
18.2591 83.206
18.3044 90.4811
18.3495 102.455
18.3948 105.889
18.4399 91.269
18.4852 73.168
18.5303 63.7752
18.5756 60.869
18.6207 60.1007
18.666 59.1709
18.7112 58.7084
18.7565 57.8396
18.8016 57.5603
18.8469 57.0109
18.892 56.686
18.9374 56.3054
18.9825 56.1649
19.0278 55.8594
19.073 55.7842
19.1183 56.2877
19.1635 56.7465
19.2088 58.134
19.254 61.2966
19.2993 65.9295
19.3447 72.1578
19.3898 74.8706
19.4352 69.2022
19.4804 60.5299
19.5257 55.04
19.5709 53.1763
19.6163 53.0085
19.6615 52.7579
19.7068 52.3679
19.752 52.3948
19.7974 52.7771
19.8426 53.4887
19.888 54.0341
19.9332 55.3493
19.9786 57.9743
20.0238 62.2618
20.0692 67.2275
20.1144 69.3995
20.1598 66.1606
20.205 61.5867
20.2504 61.2402
20.2957 64.0105
20.3411 65.3506
20.3863 62.5617
20.4318 56.3243
20.477 51.9507
20.5224 50.3078
20.5677 49.6726
20.6131 49.1715
20.6586 48.7155
20.7038 48.5502
20.7493 48.079
20.7945 47.9896
20.84 47.9467
20.8853 47.8165
20.9307 47.6818
20.976 47.7846
21.0215 47.6196
21.0668 48.2407
21.1122 48.5975
21.1575 49.3436
21.203 50.2125
21.2483 50.6547
21.2938 50.3114
21.3391 48.8723
21.3846 47.9386
21.4299 47.426
21.4754 47.5587
21.5207 47.7996
21.5662 48.1755
21.6116 48.3738
21.6571 48.9213
21.7024 49.9887
21.7479 51.6825
21.7933 54.8941
21.8388 58.9569
21.8843 62.978
21.9297 64.1556
21.9752 61.3825
22.0206 57.5459
22.0661 55.4638
22.1115 55.6681
22.157 55.0309
22.2024 52.726
22.248 49.9095
22.2933 48.8515
22.3389 48.1467
22.3843 48.0561
22.4299 47.9053
22.4753 47.8604
22.5208 47.7822
22.5662 47.7007
22.6118 47.8789
22.6572 48.0264
22.7028 48.4226
22.7483 48.8028
22.7939 49.6261
22.8393 51.1264
22.8849 53.6287
22.9303 56.0004
22.9759 57.3222
23.0214 56.0559
23.067 52.8938
23.1126 49.5289
23.1581 48.1263
23.2037 47.8367
23.2492 48.007
23.2948 47.9662
23.3403 48.1605
23.3859 48.8568
23.4314 50.0038
23.477 52.0329
23.5225 54.6668
23.5682 57.057
23.6137 57.4276
23.6593 54.2458
23.7048 49.7612
23.7505 47.1015
23.796 45.8102
23.8417 45.1299
23.8872 44.6543
23.9329 44.2166
23.9784 44.0759
24.0241 43.7662
24.0697 43.5422
24.1154 43.3197
24.1609 43.053
24.2066 42.9745
24.2522 42.7704
24.2979 42.6701
24.3434 42.6136
24.3892 42.3328
24.4349 42.4397
24.4805 42.2348
24.5262 42.3965
24.5718 42.2268
24.6175 42.1547
24.6631 41.9828
24.7089 41.8045
24.7545 41.5731
24.8002 41.5483
24.8458 41.6265
24.8916 41.3396
24.9372 41.5611
24.983 41.9897
25.0286 42.0252
25.0744 42.6647
25.12 43.2361
25.1658 43.8995
25.2114 43.8711
25.2572 43.981
25.3029 44.3275
25.3487 44.2875
25.3943 43.7806
25.4402 42.3227
25.4858 41.3863
25.5316 40.6186
25.5773 40.2161
25.6231 40.2266
25.669 39.7878
25.7147 39.6728
25.7605 39.7608
25.8062 39.6446
25.8521 39.8874
25.8977 39.8922
25.9436 40.2426
25.9893 40.2565
26.0352 40.9144
26.0809 40.9261
26.1268 41.0093
26.1725 40.5804
26.2184 40.0174
26.2641 39.4538
26.31 39.449
26.3557 39.4869
26.4017 39.389
26.4474 39.8673
26.4933 40.0515
26.5391 40.5512
26.585 41.135
26.6308 41.6596
26.6767 41.4585
26.7225 41.227
26.7684 40.5413
26.8142 40.1747
26.8601 39.7669
26.9059 39.295
26.9519 38.7682
26.9979 38.5014
27.0437 38.2225
27.0896 38.014
27.1354 38.0508
27.1814 37.9559
27.2272 37.7917
27.2732 37.8258
27.3191 37.6822
27.3651 37.697
27.4109 37.8129
27.4569 37.8982
27.5027 37.8168
27.5488 37.9705
27.5946 37.703
27.6407 37.3135
27.6865 37.3243
27.7326 37.2262
27.7784 37.3545
27.8245 37.2326
27.8703 37.289
27.9164 37.6553
27.9623 37.8868
28.0084 38.2062
28.0543 38.4335
28.1003 38.313
28.1462 38.1102
28.1923 37.6488
28.2384 37.2365
28.2843 36.9691
28.3304 36.5138
28.3764 36.0394
28.4225 35.844
28.4684 35.5156
28.5145 35.3219
28.5605 35.2623
28.6066 35.0475
28.6526 35.0856
28.6987 35.041
28.7447 34.8905
28.7908 34.8603
28.8368 34.9051
28.8829 34.7841
28.9289 34.7329
28.9751 34.5229
29.0211 34.2436
29.0673 34.0687
29.1133 33.8802
29.1595 33.9032
29.2055 33.7149
29.2517 33.7123
29.2977 33.6979
29.3439 33.6745
29.3899 33.6695
29.4361 33.6106
29.4824 33.3309
29.5284 33.1392
29.5746 32.8237
29.6207 32.6464
29.6669 32.5471
29.713 32.3626
29.7593 32.2724
29.8053 32.2989
29.8516 32.2278
29.8977 32.2523
29.9439 32.0785
29.99 32.0302
30.0363 31.8182
30.0824 31.9777
30.1287 31.8748
30.1748 31.9376
30.2211 31.9475
30.2673 31.7329
30.3136 31.7932
30.3597 31.7806
30.406 31.6734
30.4522 31.537
30.4985 31.563
30.5447 31.5992
30.591 31.6552
30.6372 31.6979
30.6835 31.6708
30.7297 31.728
30.7761 31.6216
30.8224 31.403
30.8686 31.3515
30.915 31.0516
30.9612 30.9011
31.0076 30.7551
31.0538 30.7305
31.1002 30.5986
31.1464 30.4279
31.1928 30.4461
31.2391 30.4039
31.2855 30.3265
31.3317 30.2324
31.3781 30.48
31.4244 30.3738
31.4708 30.3472
31.5171 30.2435
31.5636 30.2699
31.6098 29.9839
31.6563 29.8412
31.7026 29.7815
31.7491 29.5665
31.7953 29.6788
31.8418 29.5981
31.8881 29.5593
31.9346 29.6126
31.9809 29.4926
32.0275 29.3805
32.074 29.3277
32.1203 29.1014
32.1668 28.9226
32.2132 28.9349
32.2597 28.7722
32.306 28.7
32.3526 28.4842
32.399 28.3758
32.4455 28.2227
32.4919 28.2505
32.5385 28.262
32.5848 28.0796
32.6314 28.0758
32.6778 27.9354
32.7244 27.8189
32.7708 27.6473
32.8174 27.6249
32.8638 27.5557
32.9104 27.5788
32.9569 27.5394
33.0035 27.3876
33.0499 27.3714
33.0966 27.2574
33.143 27.3317
33.1897 27.1834
33.2361 27.1142
33.2828 27.1013
33.3293 26.9977
33.3759 26.9024
33.4226 26.7276
33.4691 26.6911
33.5158 26.6565
33.5623 26.5052
33.609 26.2834
33.6555 26.1512
33.7022 26.1973
33.7487 25.9888
33.7954 26.107
33.842 25.9638
33.8887 25.9145
33.9353 25.811
33.982 25.7791
34.0286 25.6002
34.0753 25.5037
34.1219 25.4234
34.1687 25.4263
34.2152 25.3008
34.262 25.1319
34.3086 25.0555
34.3554 25.0778
34.402 24.9431
34.4488 24.8974
34.4954 24.7614
34.5422 24.7854
34.5889 24.5686
34.6357 24.5767
34.6825 24.5745
34.7292 24.4462
34.776 24.3102
34.8227 24.2926
34.8695 24.3041
34.9162 24.1803
34.9631 24.0986
35.0098 24.0808
35.0566 23.9591
35.1033 23.8674
35.1502 23.8625
35.1969 23.8631
35.2438 23.784
35.2906 23.7572
35.3375 23.6457
35.3842 23.5992
35.4311 23.5863
35.4779 23.5885
35.5248 23.434
35.5716 23.4583
35.6185 23.2638
35.6653 23.2215
35.7123 23.1022
35.759 23.0625
35.806 22.9919
35.8528 22.8811
35.8998 22.7614
35.9468 22.6887
35.9936 22.6974
36.0406 22.5504
36.0874 22.5959
36.1345 22.5334
36.1813 22.391
36.2283 22.2695
36.2752 22.2695
36.3222 22.2138
36.3691 22.208
36.4161 22.0189
36.463 22.0445
36.5101 22.034
36.557 21.9624
36.6041 21.7441
36.651 21.7894
36.6981 21.7568
36.745 21.7112
36.7921 21.6541
36.839 21.5281
36.8861 21.4671
36.9331 21.3833
36.9802 21.3609
37.0272 21.1966
37.0743 21.1733
37.1213 21.1148
37.1684 21.1111
37.2154 20.9625
37.2626 20.8954
37.3098 20.8297
37.3568 20.7435
37.404 20.7159
37.451 20.7096
37.4982 20.5984
37.5452 20.5387
37.5924 20.4667
37.6395 20.4668
37.6867 20.4317
37.7337 20.2506
37.781 20.1641
37.8281 20.0624
37.8753 20.0522
37.9224 20.0349
37.9697 19.945
38.0168 19.9336
38.064 19.7309
38.1111 19.7722
38.1584 19.686
38.2056 19.7161
38.2529 19.6185
38.3 19.5689
38.3473 19.5221
38.3945 19.4291
38.4418 19.3104
38.489 19.1872
38.5363 19.1467
38.5837 19.0894
38.6309 19.0685
38.6782 19.0374
38.7254 18.971
38.7728 18.9147
38.82 18.8514
38.8674 18.7362
38.9146 18.7452
38.9621 18.6716
39.0093 18.6175
39.0567 18.4939
39.104 18.4388
39.1514 18.4037
39.1987 18.3284
39.2461 18.3884
39.2934 18.2984
39.3409 18.1693
39.3882 18.0744
39.4356 18.0408
39.483 18.0643
39.5304 17.9386
39.5778 18.0088
39.6253 17.8584
39.6726 17.7744
39.7201 17.8425
39.7675 17.7394
39.815 17.668
39.8624 17.5238
39.9099 17.6109
39.9575 17.439
40.0049 17.3767
40.0525 17.3384
40.0999 17.3019
40.1474 17.2438
40.1949 17.1744
40.2425 17.1235
40.2899 17.0965
40.3375 17.0628
40.385 17.015
40.4326 16.8867
40.48 16.7837
40.5277 16.8215
40.5752 16.7506
40.6228 16.6715
40.6703 16.6231
40.718 16.6174
40.7655 16.5848
40.8132 16.4575
40.8607 16.4313
40.9084 16.409
40.9559 16.3244
41.0036 16.2875
41.0512 16.1809
41.0989 16.1939
41.1465 16.0925
41.1942 16.0839
41.242 16.0059
41.2896 15.913
41.3373 15.9156
41.3849 15.9039
41.4327 15.7759
41.4803 15.7111
41.5281 15.7075
41.5758 15.6404
41.6236 15.5755
41.6712 15.5289
41.7191 15.5202
41.7667 15.3604
41.8146 15.4119
41.8622 15.2844
41.9101 15.3149
41.9578 15.2221
42.0057 15.1487
42.0534 15.1266
42.1013 15.0458
42.149 14.9852
42.1969 14.9888
42.2446 14.8856
42.2925 14.8823
42.3403 14.8626
42.3882 14.8119
42.436 14.7173
42.4839 14.6279
42.5319 14.6714
42.5797 14.6064
42.6277 14.5045
42.6755 14.485
42.7235 14.3777
42.7713 14.3353
42.8193 14.3471
42.8671 14.2574
42.9152 14.2428
42.963 14.138
43.0111 14.1145
43.0589 14.1059
43.107 14.0226
43.1549 13.9694
43.2029 13.8854
43.2508 13.9156
43.2989 13.8694
43.3468 13.7353
43.3949 13.7402
43.4429 13.6851
43.491 13.6427
43.5389 13.5857
43.5871 13.5412
43.635 13.5401
43.6832 13.453
43.7312 13.3949
43.7793 13.3591
43.8273 13.3591
43.8755 13.2532
43.9237 13.2456
43.9717 13.2179
44.0199 13.1535
44.068 13.1419
44.1162 13.0677
44.1642 12.9808
44.2125 12.9898
44.2606 12.9283
44.3088 12.8944
44.3569 12.8334
44.4052 12.7622
44.4533 12.7597
44.5016 12.6862
44.5497 12.6701
44.598 12.6395
44.6461 12.5647
44.6945 12.5408
44.7426 12.52
44.791 12.3734
44.8391 12.425
44.8875 12.3646
44.9357 12.2676
44.984 12.237
45.0322 12.2329
45.0806 12.2097
45.1288 12.1499
45.1773 12.1371
45.2257 12.0342
45.2739 11.9932
45.3224 11.9874
45.3706 11.9128
45.4191 11.8428
45.4673 11.8401
45.5158 11.7885
45.5641 11.7634
45.6126 11.7262
45.6609 11.6302
45.7094 11.6156
45.7577 11.5661
45.8063 11.4901
45.8546 11.4981
45.9031 11.4259
45.9515 11.4161
46.0001 11.3563
46.0484 11.3254
46.097 11.3131
46.1454 11.29
46.194 11.2098
46.2424 11.1647
46.291 11.0928
46.3395 11.0716
46.3881 10.9947
46.4365 11.0223
46.4852 10.9488
46.5337 10.882
46.5823 10.9198
46.631 10.8347
46.6795 10.7767
46.7282 10.7514
46.7767 10.7536
46.8254 10.6643
46.8739 10.6426
46.9226 10.6042
46.9712 10.5477
47.0199 10.5237
47.0685 10.484
47.1173 10.4187
47.1658 10.4046
47.2146 10.3949
47.2632 10.3462
47.312 10.3026
47.3606 10.2622
47.4095 10.2082
47.4581 10.202
47.5069 10.1181
47.5556 10.1001
47.6044 10.0579
47.6531 10.0461
47.702 9.94531
47.7507 9.96559
47.7996 9.91072
47.8483 9.88214
47.8972 9.84988
47.9461 9.8184
47.9948 9.75653
48.0438 9.77362
48.0925 9.71705
48.1415 9.67578
48.1902 9.63424
48.2392 9.6524
48.288 9.6004
48.337 9.55481
48.3858 9.52401
48.4348 9.47816
48.4837 9.43014
48.5327 9.41814
48.5815 9.37383
48.6306 9.32472
48.6795 9.32209
48.7285 9.24062
48.7774 9.26428
48.8265 9.22434
48.8754 9.14806
48.9245 9.12124
48.9734 9.10535
49.0226 9.04696
49.0715 9.01455
49.1206 9.01436
49.1696 8.96082
49.2188 8.9346
49.2679 8.89198
49.3169 8.83687
49.3661 8.80933
49.4151 8.76924
49.4643 8.75716
49.5134 8.70757
49.5626 8.66754
49.6117 8.68309
49.6609 8.63275
49.71 8.5615
49.7592 8.53843
49.8083 8.50813
49.8576 8.48969
49.9067 8.45723
49.956 8.43319
50.0052 8.37801
50.0545 8.35987
50.1036 8.31594
50.153 8.29933
50.2022 8.25986
50.2515 8.2172
50.3007 8.15431
50.3501 8.18146
50.3993 8.12479
50.4487 8.06931
50.498 8.08364
50.5474 8.02726
50.5966 7.99619
50.6461 7.98501
50.6955 7.98229
50.7448 7.91624
50.7943 7.89275
50.8436 7.86794
50.8931 7.79151
50.9424 7.79573
50.9919 7.79001
51.0413 7.75156
51.0908 7.7034
51.1402 7.66577
51.1897 7.64287
51.2391 7.62533
51.2887 7.57961
51.3381 7.56358
51.3877 7.54561
51.4371 7.46462
51.4867 7.46653
51.5362 7.41488
51.5858 7.41471
51.6353 7.37867
51.6849 7.33856
51.7344 7.29048
51.7841 7.30127
51.8336 7.26518
51.8833 7.21771
51.9328 7.14876
51.9826 7.16297
52.0323 7.14143
52.0818 7.12027
52.1316 7.02625
52.1812 7.06258
52.231 7.00351
52.2806 7.04234
52.3304 6.94186
52.38 6.88958
52.4298 6.88306
52.4794 6.83732
52.5293 6.87768
52.5789 6.81212
52.6288 6.76313
52.6785 6.75563
52.7284 6.71535
52.7781 6.73935
52.828 6.65902
52.8777 6.65148
52.9276 6.62415
52.9774 6.5913
53.0273 6.56305
53.0771 6.56966
53.1271 6.54396
53.1769 6.50362
53.2269 6.4615
53.2767 6.42995
53.3267 6.3828
53.3765 6.39732
53.4266 6.3672
53.4766 6.34497
53.5265 6.31018
53.5765 6.2929
53.6264 6.23417
53.6765 6.18448
53.7264 6.20088
53.7765 6.18014
53.8265 6.11696
53.8766 6.0903
53.9266 6.0541
53.9767 6.04159
54.0267 6.00931
54.0769 5.96878
54.1269 5.9442
54.1771 5.94143
54.2271 5.89097
54.2773 5.86253
54.3274 5.84664
54.3776 5.82027
54.4277 5.75788
54.478 5.79015
54.528 5.69031
54.5783 5.66002
54.6285 5.64087
54.6788 5.55554
54.7289 5.58835
54.7792 5.49449
54.8296 5.4696
54.8798 5.427
54.9301 5.42043
54.9803 5.34776
55.0307 5.32405
55.0809 5.28787
55.1314 5.28298
55.1816 5.18783
55.232 5.18174
55.2823 5.10782
55.3328 5.06293
55.383 5.07233
55.4335 5.0066
55.4838 4.92732
55.5344 4.89221
55.5847 4.83978
55.6352 4.83523
55.6856 4.78234
55.7361 4.75186