File: XRD/Ni3Fe_FD0605.xy
TT I
1.27165 7.78134
1.31627 6.79172
1.36089 6.43566
1.40551 6.56749
1.45013 6.27907
1.49476 5.34819
1.53938 5.663
1.584 4.84259
1.62863 5.39189
1.67325 5.02692
1.71787 5.46716
1.7625 4.43677
1.80712 4.9334
1.85174 4.72091
1.89636 4.54088
1.94099 5.03806
1.98562 4.68698
2.03025 5.0401
2.07487 4.40426
2.11949 4.88054
2.16411 5.3125
2.20874 11.9116
2.25338 17.0829
2.298 5.953
2.34263 5.30826
2.38725 5.29775
2.43188 6.29958
2.4765 6.35056
2.52115 6.31495
2.56577 7.02535
2.6104 7.9393
2.65503 7.74139
2.69965 7.92729
2.7443 7.97536
2.78893 8.10458
2.83356 8.62129
2.87818 9.29382
2.92281 8.91375
2.96744 9.7343
3.01209 9.76614
3.05672 11.1967
3.10135 12.2996
3.14599 13.2546
3.19062 14.1438
3.23527 14.451
3.2799 15.6552
3.32454 16.9913
3.36917 17.6389
3.4138 19.0339
3.45844 19.2299
3.50309 20.6477
3.54773 21.3366
3.59237 23.6765
3.637 71.8941
3.68164 48.1091
3.7263 26.1559
3.77094 26.4214
3.81558 26.8808
3.86022 27.3498
3.90486 29.0032
3.9495 30.0795
3.99416 30.9701
4.0388 32.4344
4.08344 33.3843
4.12809 35.1654
4.17273 37.2022
4.21738 42.3175
4.26204 188.036
4.30669 157.547
4.35133 47.5302
4.39598 44.5532
4.44063 52.3123
4.4853 60.3214
4.52995 51.3264
4.5746 52.5222
4.61925 53.7299
4.6639 56.1342
4.70855 58.9685
4.75322 61.8901
4.79788 65.07
4.84253 68.1669
4.88719 72.5133
4.93184 76.468
4.97652 81.5852
5.02118 88.4614
5.06583 95.7244
5.11049 107.987
5.15515 163.709
5.19981 395.029
5.24449 3090.48
5.28916 12128.4
5.33382 2939.8
5.37848 197.427
5.42315 131.382
5.46783 115.332
5.5125 108.234
5.55716 103.412
5.60183 99.5699
5.6465 97.2152
5.69117 95.5195
5.73586 93.3073
5.78053 93.4742
5.8252 93.2975
5.86988 94.4715
5.91455 95.9115
5.95924 104.713
6.00392 232.028
6.0486 1047.21
6.09328 4250.6
6.13795 3446.0
6.18263 256.355
6.22733 94.4052
6.27201 83.3376
6.3167 94.7461
6.36138 77.6591
6.40606 69.7471
6.45075 68.2508
6.49545 66.3011
6.54014 63.9443
6.58483 63.4744
6.62952 62.8908
6.67421 86.2905
6.71892 118.269
6.76361 66.0437
6.8083 59.1424
6.853 58.0922
6.89769 57.1318
6.94239 56.9155
6.98711 56.1029
7.03181 56.1327
7.07651 55.3695
7.12121 55.3227
7.16591 55.694
7.21063 55.6325
7.25533 66.828
7.30004 140.675
7.34475 79.8983
7.38945 56.0829
7.43416 54.5764
7.47889 54.6257
7.5236 55.0527
7.56831 55.4048
7.61303 56.7577
7.65774 57.3346
7.70247 56.5692
7.74719 56.574
7.79191 57.0834
7.83663 57.4034
7.88135 58.3324
7.92607 58.7733
7.97081 60.1501
8.01553 61.1908
8.06026 63.4321
8.10498 64.2315
8.14971 71.9674
8.19446 71.4463
8.23919 69.9223
8.28392 72.6189
8.32865 74.7768
8.37339 79.4429
8.41812 85.7902
8.46288 109.302
8.50761 175.869
8.55235 413.125
8.59709 1230.24
8.64183 2155.09
8.68658 993.21
8.73134 175.364
8.77609 100.791
8.82083 93.6744
8.86558 90.9444
8.91033 90.4974
8.9551 90.7168
8.99985 85.9794
9.04461 84.3376
9.08936 83.6929
9.13412 83.0513
9.17888 83.1333
9.22365 83.2825
9.26841 82.7133
9.31318 83.5892
9.35794 83.9996
9.4027 84.2187
9.44749 84.694
9.49226 85.3911
9.53703 86.5138
9.5818 88.2915
9.62657 92.3613
9.67134 97.1659
9.71614 94.4562
9.76091 95.0575
9.80569 97.3572
9.85047 100.828
9.89525 119.585
9.94005 131.773
9.98484 190.271
10.0296 364.402
10.0744 854.764
10.1192 1664.24
10.164 1535.72
10.2088 414.553
10.2536 129.751
10.2984 113.077
10.3432 112.655
10.388 105.597
10.4328 122.563
10.4776 167.032
10.5224 294.017
10.5672 502.871
10.612 485.319
10.6568 207.037
10.7017 97.4843
10.7465 87.0097
10.7913 84.0221
10.8361 81.8688
10.8809 79.6224
10.9257 78.6044
10.9706 78.7119
11.0154 75.4048
11.0602 73.598
11.105 72.2549
11.1499 75.3723
11.1947 79.4935
11.2395 73.0489
11.2844 69.9943
11.3292 67.6852
11.374 66.4797
11.4189 66.222
11.4637 65.5585
11.5086 65.4857
11.5534 67.4889
11.5983 65.4468
11.6431 63.9668
11.688 63.4946
11.7328 63.3904
11.7777 63.1549
11.8225 63.0612
11.8674 62.9869
11.9122 63.2256
11.9571 63.6232
12.002 64.4511
12.0468 69.0484
12.0917 80.7951
12.1366 106.492
12.1814 155.549
12.2263 199.665
12.2712 166.462
12.3161 96.9065
12.3609 69.7083
12.4058 65.0537
12.4507 64.7615
12.4956 64.8292
12.5405 64.9738
12.5853 66.0971
12.6302 71.8979
12.6751 75.1423
12.72 69.3227
12.7649 68.3645
12.8098 69.0801
12.8547 70.3265
12.8996 71.4689
12.9445 72.9286
12.9894 74.9501
13.0343 76.7041
13.0792 80.0501
13.1242 91.2002
13.1691 114.828
13.214 154.848
13.2589 250.684
13.3038 370.655
13.3487 415.649
13.3937 269.887
13.4386 128.969
13.4835 108.647
13.5285 124.21
13.5734 165.335
13.6183 252.167
13.6633 339.476
13.7082 332.16
13.7531 192.751
13.7981 100.642
13.843 82.7644
13.888 80.4993
13.9329 77.7577
13.9779 76.4916
14.0228 74.8279
14.0678 73.6329
14.1127 73.3015
14.1577 72.9373
14.2027 72.1542
14.2476 71.1297
14.2926 71.0025
14.3376 71.5501
14.3825 70.4171
14.4275 69.5956
14.4725 69.419
14.5175 69.5964
14.5624 69.7516
14.6074 71.3609
14.6524 71.7767
14.6974 70.8486
14.7424 73.1219
14.7874 80.6453
14.8324 90.962
14.8774 115.096
14.9224 158.032
14.9674 206.507
15.0124 213.251
15.0574 151.538
15.1024 93.3224
15.1474 73.3891
15.1924 70.9887
15.2374 70.9812
15.2824 70.1342
15.3274 68.2953
15.3725 67.2803
15.4175 66.9711
15.4625 66.6328
15.5076 66.7511
15.5526 66.8
15.5976 66.4186
15.6426 68.1315
15.6877 73.7409
15.7327 81.4532
15.7778 98.2956
15.8228 130.626
15.8679 170.315
15.9129 187.916
15.958 153.855
16.003 98.0862
16.0481 68.6337
16.0931 64.6236
16.1382 62.6104
16.1833 60.9491
16.2283 59.5372
16.2734 59.1476
16.3185 58.9101
16.3636 59.0336
16.4086 57.7856
16.4537 56.6337
16.4988 56.0103
16.5439 55.7625
16.589 55.6223
16.6341 55.3369
16.6792 55.0666
16.7243 55.0722
16.7694 55.2216
16.8145 55.3347
16.8596 55.4311
16.9047 56.7487
16.9498 56.8232
16.9949 56.0556
17.04 56.3317
17.0851 57.6515
17.1302 59.2643
17.1754 62.3985
17.2205 67.7324
17.2656 75.1064
17.3108 81.6905
17.3559 82.0197
17.401 72.5283
17.4462 63.1575
17.4913 59.663
17.5365 59.6585
17.5815 59.6081
17.6268 60.0808
17.6718 60.8548
17.7171 61.2502
17.7622 61.8885
17.8074 62.5195
17.8525 65.3904
17.8977 69.2634
17.9428 75.0254
17.9881 84.9785
18.0331 102.306
18.0784 122.257
18.1237 138.018
18.1688 131.718
18.214 105.753
18.2591 88.7336
18.3044 92.1276
18.3495 99.914
18.3948 104.385
18.4399 96.4592
18.4852 79.3604
18.5303 66.7847
18.5756 62.8314
18.6207 61.9049
18.666 60.837
18.7112 60.1244
18.7565 59.4366
18.8016 58.9894
18.8469 58.2877
18.892 58.2741
18.9374 57.7928
18.9825 57.5223
19.0278 57.3763
19.073 57.5812
19.1183 58.0288
19.1635 58.5492
19.2088 60.0411
19.254 62.8738
19.2993 67.5165
19.3447 72.6769
19.3898 75.4641
19.4352 72.1854
19.4804 64.2494
19.5257 57.5143
19.5709 54.7618
19.6163 54.3905
19.6615 54.1261
19.7068 53.6536
19.752 53.8976
19.7974 54.1571
19.8426 54.8903
19.888 55.4309
19.9332 56.9212
19.9786 59.645
20.0238 63.1498
20.0692 67.5315
20.1144 69.5975
20.1598 68.4188
20.205 64.4424
20.2504 62.9717
20.2957 63.8923
20.3411 65.1424
20.3863 64.0415
20.4318 59.0239
20.477 54.1536
20.5224 51.9394
20.5677 51.2425
20.6131 50.728
20.6586 50.0757
20.7038 49.9618
20.7493 49.4518
20.7945 49.4561
20.84 49.2648
20.8853 49.1566
20.9307 49.0407
20.976 49.0888
21.0215 49.1572
21.0668 49.417
21.1122 49.9339
21.1575 50.527
21.203 51.3253
21.2483 51.5663
21.2938 51.4925
21.3391 50.3425
21.3846 49.3865
21.4299 48.8045
21.4754 48.852
21.5207 48.8639
21.5662 49.1318
21.6116 49.7494
21.6571 50.2643
21.7024 51.5393
21.7479 53.3801
21.7933 56.1335
21.8388 59.5866
21.8843 62.6238
21.9297 64.4465
21.9752 63.6143
22.0206 60.3433
22.0661 57.1629
22.1115 56.3266
22.157 56.1354
22.2024 54.5315
22.248 51.9805
22.2933 50.4363
22.3389 49.5947
22.3843 49.3723
22.4299 49.0177
22.4753 49.2697
22.5208 48.9009
22.5662 48.8054
22.6118 49.0817
22.6572 49.3589
22.7028 49.693
22.7483 50.2175
22.7939 50.8665
22.8393 52.6046
22.8849 54.618
22.9303 56.306
22.9759 57.8148
23.0214 57.5481
23.067 54.9353
23.1126 51.7491
23.1581 49.7793
23.2037 49.1553
23.2492 49.4756
23.2948 49.2437
23.3403 49.5357
23.3859 50.2351
23.4314 51.34
23.477 53.3234
23.5225 55.2275
23.5682 56.9908
23.6137 57.7629
23.6593 55.9532
23.7048 52.1663
23.7505 48.8671
23.796 47.0128
23.8417 46.2142
23.8872 45.8421
23.9329 45.6525
23.9784 45.3701
24.0241 45.0306
24.0697 44.7258
24.1154 44.3255
24.1609 44.2998
24.2066 44.1481
24.2522 44.0575
24.2979 43.7748
24.3434 43.6033
24.3892 43.39
24.4349 43.5563
24.4805 43.3034
24.5262 43.4925
24.5718 43.3168
24.6175 43.3018
24.6631 43.1136
24.7089 42.8657
24.7545 42.7835
24.8002 42.6364
24.8458 42.7072
24.8916 42.403
24.9372 42.6008
24.983 42.8457
25.0286 43.3143
25.0744 43.651
25.12 44.0401
25.1658 44.6329
25.2114 44.9652
25.2572 45.0831
25.3029 45.1828
25.3487 45.1245
25.3943 44.8598
25.4402 43.89
25.4858 42.8334
25.5316 41.7996
25.5773 41.1135
25.6231 41.0785
25.669 40.9855
25.7147 40.834
25.7605 40.6649
25.8062 40.8052
25.8521 40.9044
25.8977 40.8563
25.9436 41.2341
25.9893 41.2925
26.0352 41.8701
26.0809 41.9149
26.1268 41.855
26.1725 41.6429
26.2184 41.1774
26.2641 40.5229
26.31 40.457
26.3557 40.4564
26.4017 40.4239
26.4474 40.7962
26.4933 41.1242
26.5391 41.4788
26.585 42.0075
26.6308 42.3865
26.6767 42.4072
26.7225 42.3819
26.7684 41.8098
26.8142 41.1201
26.8601 40.752
26.9059 40.4233
26.9519 39.7865
26.9979 39.5403
27.0437 39.198
27.0896 39.0173
27.1354 39.073
27.1814 38.9158
27.2272 38.9204
27.2732 38.9386
27.3191 38.6928
27.3651 38.7422
27.4109 38.6321
27.4569 38.7847
27.5027 38.796
27.5488 38.8807
27.5946 38.6446
27.6407 38.4621
27.6865 38.3642
27.7326 38.104
27.7784 38.1094
27.8245 38.029
27.8703 38.3234
27.9164 38.5406
27.9623 38.8257
28.0084 39.0129
28.0543 39.2801
28.1003 39.2758
28.1462 39.0522
28.1923 38.8212
28.2384 38.1246
28.2843 37.9293
28.3304 37.4011
28.3764 37.0302
28.4225 36.7404
28.4684 36.6399
28.5145 36.195
28.5605 36.0886
28.6066 35.9046
28.6526 35.9535
28.6987 35.7898
28.7447 35.6914
28.7908 35.6685
28.8368 35.6123
28.8829 35.6688
28.9289 35.6544
28.9751 35.3994
29.0211 35.0696
29.0673 34.8817
29.1133 34.7601
29.1595 34.6479
29.2055 34.4483
29.2517 34.7017
29.2977 34.6611
29.3439 34.4392
29.3899 34.558
29.4361 34.2696
29.4824 34.2095
29.5284 34.0907
29.5746 33.5998
29.6207 33.346
29.6669 33.3719
29.713 33.1402
29.7593 33.1669
29.8053 33.1115
29.8516 33.0733
29.8977 33.004
29.9439 32.87
29.99 32.7958
30.0363 32.6847
30.0824 32.7139
30.1287 32.743
30.1748 32.7165
30.2211 32.6106
30.2673 32.4565
30.3136 32.569
30.3597 32.4358
30.406 32.4172
30.4522 32.2594
30.4985 32.263
30.5447 32.4925
30.591 32.2686
30.6372 32.4367
30.6835 32.5259
30.7297 32.4455
30.7761 32.351
30.8224 32.2635
30.8686 32.0989
30.915 31.8206
30.9612 31.7833
31.0076 31.5256
31.0538 31.3558
31.1002 31.3608
31.1464 31.0814
31.1928 31.0948
31.2391 31.3424
31.2855 31.0671
31.3317 31.0521
31.3781 31.1927
31.4244 31.1225
31.4708 31.1652
31.5171 31.0958
31.5636 31.0087
31.6098 30.7173
31.6563 30.583
31.7026 30.4793
31.7491 30.4763
31.7953 30.4514
31.8418 30.3956
31.8881 30.4074
31.9346 30.3656
31.9809 30.4074
32.0275 30.1791
32.074 30.0197
32.1203 29.7905
32.1668 29.7158
32.2132 29.5752
32.2597 29.4315
32.306 29.4596
32.3526 29.1874
32.399 29.1587
32.4455 28.9713
32.4919 28.8594
32.5385 28.9436
32.5848 28.748
32.6314 28.6912
32.6778 28.6338
32.7244 28.497
32.7708 28.3643
32.8174 28.4072
32.8638 28.0979
32.9104 28.3588
32.9569 28.2189
33.0035 28.0462
33.0499 28.0498
33.0966 28.0773
33.143 28.0715
33.1897 27.8981
33.2361 27.8119
33.2828 27.8487
33.3293 27.5142
33.3759 27.5853
33.4226 27.4518
33.4691 27.3517
33.5158 27.2647
33.5623 27.1094
33.609 26.95
33.6555 26.8101
33.7022 26.7572
33.7487 26.7184
33.7954 26.7341
33.842 26.6427
33.8887 26.5525
33.9353 26.4644
33.982 26.3191
34.0286 26.3279
34.0753 26.1672
34.1219 26.1698
34.1687 25.9848
34.2152 25.9821
34.262 25.8354
34.3086 25.7977
34.3554 25.7283
34.402 25.591
34.4488 25.4609
34.4954 25.4032
34.5422 25.334
34.5889 25.1677
34.6357 25.1906
34.6825 25.0382
34.7292 25.0535
34.776 24.9322
34.8227 24.8885
34.8695 24.777
34.9162 24.8051
34.9631 24.6163
35.0098 24.6944
35.0566 24.5868
35.1033 24.4507
35.1502 24.4142
35.1969 24.3181
35.2438 24.3818
35.2906 24.3245
35.3375 24.2145
35.3842 24.1514
35.4311 24.1978
35.4779 24.1309
35.5248 24.0813
35.5716 24.0138
35.6185 23.9303
35.6653 23.7814
35.7123 23.6732
35.759 23.6544
35.806 23.5113
35.8528 23.3636
35.8998 23.3747
35.9468 23.3174
35.9936 23.2028
36.0406 23.1831
36.0874 23.2329
36.1345 23.0705
36.1813 22.9638
36.2283 22.8943
36.2752 22.8122
36.3222 22.8311
36.3691 22.7455
36.4161 22.6
36.463 22.5552
36.5101 22.5874
36.557 22.499
36.6041 22.3465
36.651 22.3034
36.6981 22.2504
36.745 22.148
36.7921 22.1361
36.839 21.9881
36.8861 21.9126
36.9331 21.907
36.9802 21.8187
37.0272 21.7314
37.0743 21.662
37.1213 21.7287
37.1684 21.5746
37.2154 21.5
37.2626 21.4316
37.3098 21.3526
37.3568 21.2947
37.404 21.2036
37.451 21.1512
37.4982 21.048
37.5452 21.021
37.5924 20.972
37.6395 21.0333
37.6867 20.8576
37.7337 20.8191
37.781 20.6591
37.8281 20.6069
37.8753 20.5173
37.9224 20.4762
37.9697 20.4369
38.0168 20.3884
38.064 20.2944
38.1111 20.3192
38.1584 20.1548
38.2056 20.1394
38.2529 20.0542
38.3 19.9502
38.3473 19.9772
38.3945 19.8843
38.4418 19.8491
38.489 19.7047
38.5363 19.6019
38.5837 19.5924
38.6309 19.5452
38.6782 19.4635
38.7254 19.4256
38.7728 19.289
38.82 19.2979
38.8674 19.2602
38.9146 19.1667
38.9621 19.0991
39.0093 19.0277
39.0567 19.0178
39.104 18.8968
39.1514 18.8913
39.1987 18.8445
39.2461 18.8324
39.2934 18.7552
39.3409 18.5889
39.3882 18.494
39.4356 18.5449
39.483 18.4832
39.5304 18.4017
39.5778 18.351
39.6253 18.2487
39.6726 18.1749
39.7201 18.2321
39.7675 18.1307
39.815 18.0983
39.8624 18.0516
39.9099 17.9811
39.9575 17.8834
40.0049 17.768
40.0525 17.7467
40.0999 17.7757
40.1474 17.7012
40.1949 17.597
40.2425 17.4971
40.2899 17.4395
40.3375 17.4408
40.385 17.3913
40.4326 17.3237
40.48 17.2521
40.5277 17.2164
40.5752 17.1681
40.6228 17.0054
40.6703 17.0185
40.718 16.9579
40.7655 16.9467
40.8132 16.8538
40.8607 16.8487
40.9084 16.7702
40.9559 16.7563
41.0036 16.6479
41.0512 16.6347
41.0989 16.5793
41.1465 16.5044
41.1942 16.4605
41.242 16.3565
41.2896 16.3187
41.3373 16.2342
41.3849 16.2126
41.4327 16.184
41.4803 16.0901
41.5281 16.0691
41.5758 15.9689
41.6236 15.9524
41.6712 15.8673
41.7191 15.8354
41.7667 15.7592
41.8146 15.7904
41.8622 15.6982
41.9101 15.6765
41.9578 15.5465
42.0057 15.524
42.0534 15.5153
42.1013 15.4222
42.149 15.3982
42.1969 15.3043
42.2446 15.265
42.2925 15.2359
42.3403 15.1608
42.3882 15.1077
42.436 15.0885
42.4839 15.0446
42.5319 15.0117
42.5797 14.9369
42.6277 14.8881
42.6755 14.8012
42.7235 14.6813
42.7713 14.7247
42.8193 14.6885
42.8671 14.6419
42.9152 14.5779
42.963 14.5508
43.0111 14.4274
43.0589 14.4685
43.107 14.3971
43.1549 14.3039
43.2029 14.237
43.2508 14.2116
43.2989 14.1479
43.3468 14.1215
43.3949 14.0952
43.4429 14.1064
43.491 13.9662
43.5389 13.942
43.5871 13.8907
43.635 13.7781
43.6832 13.8092
43.7312 13.7472
43.7793 13.6588
43.8273 13.6575
43.8755 13.5581
43.9237 13.5841
43.9717 13.527
44.0199 13.484
44.068 13.4175
44.1162 13.3711
44.1642 13.3869
44.2125 13.2983
44.2606 13.2245
44.3088 13.1543
44.3569 13.1183
44.4052 13.0839
44.4533 13.028
44.5016 13.0026
44.5497 12.9699
44.598 12.9214
44.6461 12.9046
44.6945 12.8186
44.7426 12.7463
44.791 12.7544
44.8391 12.716
44.8875 12.6095
44.9357 12.586
44.984 12.5331
45.0322 12.473
45.0806 12.4711
45.1288 12.4225
45.1773 12.3815
45.2257 12.3569
45.2739 12.2788
45.3224 12.2582
45.3706 12.2402
45.4191 12.1817
45.4673 12.1427
45.5158 12.0964
45.5641 12.0223
45.6126 12.0095
45.6609 11.9331
45.7094 11.889
45.7577 11.8787
45.8063 11.7887
45.8546 11.7268
45.9031 11.7293
45.9515 11.6937
46.0001 11.6517
46.0484 11.6295
46.097 11.5904
46.1454 11.5192
46.194 11.5263
46.2424 11.4911
46.291 11.3931
46.3395 11.3372
46.3881 11.2864
46.4365 11.2849
46.4852 11.2484
46.5337 11.2262
46.5823 11.1734
46.631 11.0948
46.6795 11.0505
46.7282 11.052
46.7767 10.9997
46.8254 10.9379
46.8739 10.9075
46.9226 10.8596
46.9712 10.8078
47.0199 10.7738
47.0685 10.7531
47.1173 10.7072
47.1658 10.6501
47.2146 10.6414
47.2632 10.5692
47.312 10.5264
47.3606 10.5262
47.4095 10.4666
47.4581 10.4908
47.5069 10.3997
47.5556 10.3654
47.6044 10.2672
47.6531 10.3026
47.702 10.2379
47.7507 10.174
47.7996 10.1673
47.8483 10.1106
47.8972 10.108
47.9461 10.0707
47.9948 10.0264
48.0438 9.95186
48.0925 9.98909
48.1415 9.91295
48.1902 9.85741
48.2392 9.86606
48.288 9.79108
48.337 9.74973
48.3858 9.72549
48.4348 9.67346
48.4837 9.68366
48.5327 9.60213
48.5815 9.60032
48.6306 9.59472
48.6795 9.54643
48.7285 9.48063
48.7774 9.4652
48.8265 9.39557
48.8754 9.38651
48.9245 9.37726
48.9734 9.28129
49.0226 9.28979
49.0715 9.26244
49.1206 9.17093
49.1696 9.20382
49.2188 9.12713
49.2679 9.12917
49.3169 9.03911
49.3661 9.00947
49.4151 9.00124
49.4643 9.00423
49.5134 8.93901
49.5626 8.86602
49.6117 8.88552
49.6609 8.81981
49.71 8.79918
49.7592 8.7929
49.8083 8.69906
49.8576 8.72858
49.9067 8.64327
49.956 8.62627
50.0052 8.57917
50.0545 8.55229
50.1036 8.54369
50.153 8.49986
50.2022 8.44141
50.2515 8.41165
50.3007 8.35051
50.3501 8.36052
50.3993 8.30897
50.4487 8.2804
50.498 8.26871
50.5474 8.25154
50.5966 8.17272
50.6461 8.1566
50.6955 8.12755
50.7448 8.14247
50.7943 8.06278
50.8436 8.0442
50.8931 8.01602
50.9424 7.98547
50.9919 7.95758
51.0413 7.9092
51.0908 7.90405
51.1402 7.87272
51.1897 7.80913
51.2391 7.78792
51.2887 7.76773
51.3381 7.71563
51.3877 7.70981
51.4371 7.64732
51.4867 7.63778
51.5362 7.57401
51.5858 7.56887
51.6353 7.53544
51.6849 7.51511
51.7344 7.48886
51.7841 7.4776
51.8336 7.43801
51.8833 7.36307
51.9328 7.35223
51.9826 7.2973
52.0323 7.31962
52.0818 7.2347
52.1316 7.23243
52.1812 7.21523
52.231 7.19391
52.2806 7.15426
52.3304 7.10888
52.38 7.05193
52.4298 7.05846
52.4794 6.98582
52.5293 6.99599
52.5789 6.98529
52.6288 6.94212
52.6785 6.89062
52.7284 6.8369
52.7781 6.87605
52.828 6.83334
52.8777 6.76664
52.9276 6.72866
52.9774 6.74489
53.0273 6.71993
53.0771 6.68652
53.1271 6.64132
53.1769 6.63154
53.2269 6.64537
53.2767 6.54625
53.3267 6.55748
53.3765 6.52784
53.4266 6.4957
53.4766 6.46163
53.5265 6.4462
53.5765 6.40004
53.6264 6.37687
53.6765 6.31582
53.7264 6.2967
53.7765 6.32715
53.8265 6.24132
53.8766 6.22694
53.9266 6.1983
53.9767 6.17669
54.0267 6.13637
54.0769 6.137
54.1269 6.0572
54.1771 6.05829
54.2271 6.01205
54.2773 5.99657
54.3274 5.97392
54.3776 5.93117
54.4277 5.88691
54.478 5.86204
54.528 5.82711
54.5783 5.77757
54.6285 5.78912
54.6788 5.6979
54.7289 5.64639
54.7792 5.65366
54.8296 5.55488
54.8798 5.5289
54.9301 5.52982
54.9803 5.49453
55.0307 5.44749
55.0809 5.39664
55.1314 5.37899
55.1816 5.31142
55.232 5.22467
55.2823 5.24237
55.3328 5.20297
55.383 5.1716
55.4335 5.02729
55.4838 5.03424
55.5344 4.97341
55.5847 4.93612
55.6352 4.92959
55.6856 4.89841
55.7361 4.91591