File: XRD/Ni3Fe_FD0397.xy
TT I
1.27165 7.68513
1.31627 6.83204
1.36089 7.26201
1.40551 6.18092
1.45013 6.37188
1.49476 6.46612
1.53938 5.5904
1.584 5.35293
1.62863 5.40831
1.67325 5.37058
1.71787 5.18471
1.7625 5.1607
1.80712 5.36865
1.85174 5.12398
1.89636 5.24526
1.94099 5.0574
1.98562 4.68508
2.03025 4.76389
2.07487 4.74062
2.11949 5.28011
2.16411 5.4073
2.20874 15.8052
2.25338 25.1168
2.298 6.2983
2.34263 5.06225
2.38725 5.84866
2.43188 5.41114
2.4765 6.12311
2.52115 6.11866
2.56577 6.01888
2.6104 7.22635
2.65503 6.86803
2.69965 7.00953
2.7443 8.12303
2.78893 8.22147
2.83356 8.0847
2.87818 8.94159
2.92281 9.02759
2.96744 9.53982
3.01209 10.8067
3.05672 11.3085
3.10135 12.6677
3.14599 12.5233
3.19062 14.4348
3.23527 14.6286
3.2799 16.3157
3.32454 16.5665
3.36917 17.7187
3.4138 19.3862
3.45844 20.323
3.50309 21.2203
3.54773 22.4504
3.59237 24.9219
3.637 102.974
3.68164 64.3144
3.7263 26.9062
3.77094 27.1251
3.81558 26.7968
3.86022 28.3759
3.90486 29.2482
3.9495 30.427
3.99416 31.3942
4.0388 32.973
4.08344 34.3833
4.12809 36.0948
4.17273 37.7373
4.21738 44.6827
4.26204 273.248
4.30669 240.914
4.35133 50.4287
4.39598 46.1005
4.44063 55.6103
4.4853 68.9314
4.52995 52.3535
4.5746 52.5718
4.61925 54.3364
4.6639 56.3203
4.70855 59.116
4.75322 62.0695
4.79788 64.9888
4.84253 68.6554
4.88719 73.4859
4.93184 76.8486
4.97652 82.9986
5.02118 89.4676
5.06583 97.5824
5.11049 111.252
5.15515 194.353
5.19981 441.958
5.24449 3066.85
5.28916 11625.1
5.33382 3598.23
5.37848 224.882
5.42315 138.914
5.46783 119.83
5.5125 110.263
5.55716 105.303
5.60183 101.514
5.6465 99.4382
5.69117 96.6028
5.73586 95.1023
5.78053 94.4217
5.8252 94.5541
5.86988 95.8489
5.91455 98.0347
5.95924 107.974
6.00392 238.184
6.0486 1064.77
6.09328 3978.88
6.13795 3525.28
6.18263 308.317
6.22733 100.747
6.27201 87.0675
6.3167 108.621
6.36138 84.0013
6.40606 71.3957
6.45075 69.3561
6.49545 67.3377
6.54014 65.6276
6.58483 64.3335
6.62952 64.5848
6.67421 99.2911
6.71892 156.872
6.76361 71.4737
6.8083 60.2116
6.853 59.0685
6.89769 58.5216
6.94239 58.0235
6.98711 57.4831
7.03181 56.6089
7.07651 56.8323
7.12121 56.5966
7.16591 57.113
7.21063 57.3475
7.25533 73.5511
7.30004 196.909
7.34475 97.9308
7.38945 58.1888
7.43416 55.8871
7.47889 55.8725
7.5236 56.2272
7.56831 56.944
7.61303 58.8463
7.65774 59.3876
7.70247 57.5975
7.74719 57.5222
7.79191 57.7049
7.83663 58.377
7.88135 59.0617
7.92607 59.9493
7.97081 61.3558
8.01553 62.288
8.06026 63.8594
8.10498 65.3795
8.14971 76.2694
8.19446 74.838
8.23919 71.2252
8.28392 73.4073
8.32865 75.8045
8.37339 80.2313
8.41812 87.5793
8.46288 120.32
8.50761 179.802
8.55235 426.283
8.59709 1104.77
8.64183 2096.58
8.68658 1119.18
8.73134 198.375
8.77609 104.534
8.82083 96.1667
8.86558 92.3725
8.91033 92.703
8.9551 94.7831
8.99985 87.4177
9.04461 85.5823
9.08936 84.6129
9.13412 83.5892
9.17888 83.9668
9.22365 84.5727
9.26841 83.7562
9.31318 84.8324
9.35794 84.9894
9.4027 85.1748
9.44749 85.8754
9.49226 86.6068
9.53703 87.2539
9.5818 89.7409
9.62657 94.723
9.67134 102.174
9.71614 96.3376
9.76091 96.0749
9.80569 98.8132
9.85047 102.535
9.89525 129.688
9.94005 144.268
9.98484 189.501
10.0296 372.455
10.0744 784.671
10.1192 1597.55
10.164 1738.59
10.2088 505.647
10.2536 141.553
10.2984 118.879
10.3432 119.635
10.388 107.941
10.4328 123.533
10.4776 168.617
10.5224 273.663
10.5672 477.521
10.612 529.294
10.6568 229.064
10.7017 102.483
10.7465 89.3799
10.7913 85.4553
10.8361 83.2511
10.8809 80.7899
10.9257 80.651
10.9706 81.508
11.0154 76.9337
11.0602 74.5889
11.105 73.7523
11.1499 78.6962
11.1947 87.631
11.2395 77.0711
11.2844 72.5583
11.3292 68.9287
11.374 67.7013
11.4189 67.0704
11.4637 66.4792
11.5086 66.9353
11.5534 70.6052
11.5983 67.4573
11.6431 65.3293
11.688 64.6978
11.7328 64.2821
11.7777 64.3015
11.8225 63.8548
11.8674 63.8214
11.9122 64.4081
11.9571 64.4343
12.002 65.2337
12.0468 69.9087
12.0917 82.511
12.1366 104.224
12.1814 147.067
12.2263 195.77
12.2712 181.168
12.3161 108.04
12.3609 73.8549
12.4058 66.3715
12.4507 65.8924
12.4956 66.2434
12.5405 66.1647
12.5853 67.2753
12.6302 76.1446
12.6751 82.3017
12.72 72.2717
12.7649 69.3561
12.8098 69.9748
12.8547 71.5379
12.8996 72.6116
12.9445 73.94
12.9894 75.6348
13.0343 77.4881
13.0792 80.742
13.1242 91.0753
13.1691 118.1
13.214 154.599
13.2589 231.928
13.3038 347.052
13.3487 428.574
13.3937 298.421
13.4386 138.655
13.4835 110.596
13.5285 126.661
13.5734 161.416
13.6183 234.525
13.6633 327.69
13.7082 352.572
13.7531 214.74
13.7981 106.735
13.843 84.5799
13.888 81.9476
13.9329 79.011
13.9779 77.7459
14.0228 76.165
14.0678 74.782
14.1127 74.4664
14.1577 74.4683
14.2027 73.5028
14.2476 72.1787
14.2926 72.5398
14.3376 73.9667
14.3825 72.1266
14.4275 70.6663
14.4725 70.2057
14.5175 70.6873
14.5624 70.8138
14.6074 73.3987
14.6524 73.8592
14.6974 72.2864
14.7424 73.83
14.7874 81.6293
14.8324 92.7513
14.8774 111.833
14.9224 148.289
14.9674 198.059
15.0124 220.917
15.0574 165.601
15.1024 100.76
15.1474 75.2822
15.1924 72.5238
15.2374 73.4074
15.2824 72.4874
15.3274 70.463
15.3725 68.4717
15.4175 68.2447
15.4625 67.9356
15.5076 68.1087
15.5526 67.9083
15.5976 67.4295
15.6426 68.6263
15.6877 74.6827
15.7327 82.9536
15.7778 96.8954
15.8228 123.273
15.8679 162.622
15.9129 193.14
15.958 170.267
16.003 107.863
16.0481 71.8456
16.0931 67.0176
16.1382 64.786
16.1833 62.3214
16.2283 60.6497
16.2734 59.9928
16.3185 60.3891
16.3636 61.2027
16.4086 59.5879
16.4537 57.9942
16.4988 56.817
16.5439 56.8998
16.589 56.6647
16.6341 56.1797
16.6792 56.0152
16.7243 56.3269
16.7694 56.3734
16.8145 56.3398
16.8596 56.7541
16.9047 58.6045
16.9498 58.7009
16.9949 57.1261
17.04 57.3538
17.0851 58.6248
17.1302 60.3622
17.1754 63.3822
17.2205 67.6725
17.2656 74.0976
17.3108 82.121
17.3559 83.727
17.401 74.8909
17.4462 64.5445
17.4913 60.8034
17.5365 60.7403
17.5815 60.633
17.6268 61.0444
17.6718 62.0219
17.7171 62.5886
17.7622 62.9311
17.8074 63.3172
17.8525 65.944
17.8977 70.4702
17.9428 76.3184
17.9881 84.1912
18.0331 98.3302
18.0784 117.303
18.1237 137.863
18.1688 138.207
18.214 112.316
18.2591 90.6522
18.3044 90.4326
18.3495 99.1004
18.3948 107.101
18.4399 100.687
18.4852 82.1515
18.5303 68.8613
18.5756 64.0604
18.6207 62.9366
18.666 62.0161
18.7112 61.1875
18.7565 60.5195
18.8016 60.0379
18.8469 59.7273
18.892 59.3622
18.9374 58.6603
18.9825 58.7486
19.0278 58.3945
19.073 58.4952
19.1183 59.0519
19.1635 60.0518
19.2088 61.1646
19.254 63.4209
19.2993 66.9197
19.3447 72.3997
19.3898 77.3202
19.4352 74.8433
19.4804 66.7788
19.5257 59.0346
19.5709 55.7716
19.6163 55.0609
19.6615 54.7854
19.7068 54.7692
19.752 54.4186
19.7974 54.9854
19.8426 55.8418
19.888 56.5864
19.9332 57.7924
19.9786 59.8129
20.0238 62.8774
20.0692 67.2684
20.1144 70.6701
20.1598 70.4298
20.205 66.0175
20.2504 63.4219
20.2957 64.3125
20.3411 66.2846
20.3863 66.2883
20.4318 61.2889
20.477 55.9715
20.5224 53.447
20.5677 52.5712
20.6131 51.7873
20.6586 50.7353
20.7038 50.8992
20.7493 50.3874
20.7945 50.3553
20.84 49.9593
20.8853 49.8413
20.9307 49.7209
20.976 50.0124
21.0215 50.0598
21.0668 50.3613
21.1122 50.83
21.1575 51.1952
21.203 51.8281
21.2483 52.3532
21.2938 52.8525
21.3391 51.6001
21.3846 50.4954
21.4299 49.8304
21.4754 49.69
21.5207 49.7361
21.5662 50.0855
21.6116 50.6483
21.6571 51.1578
21.7024 52.3225
21.7479 53.7492
21.7933 56.2058
21.8388 59.3319
21.8843 62.8877
21.9297 65.6038
21.9752 65.6449
22.0206 61.9588
22.0661 58.2868
22.1115 57.2932
22.157 57.3732
22.2024 56.1785
22.248 53.4315
22.2933 51.6189
22.3389 50.4791
22.3843 50.5036
22.4299 50.176
22.4753 50.2219
22.5208 49.9269
22.5662 49.7226
22.6118 49.9339
22.6572 50.2355
22.7028 50.5113
22.7483 51.2654
22.7939 51.7782
22.8393 52.9068
22.8849 54.7037
22.9303 56.6117
22.9759 58.5748
23.0214 58.9799
23.067 56.7809
23.1126 53.0082
23.1581 50.7399
23.2037 50.1549
23.2492 50.0817
23.2948 50.1038
23.3403 50.5247
23.3859 51.0787
23.4314 52.1077
23.477 53.381
23.5225 55.2174
23.5682 57.4518
23.6137 58.9358
23.6593 57.4821
23.7048 53.9366
23.7505 50.049
23.796 48.1481
23.8417 47.3969
23.8872 46.7406
23.9329 46.3886
23.9784 46.0045
24.0241 45.8528
24.0697 45.5695
24.1154 45.347
24.1609 45.2333
24.2066 45.1128
24.2522 44.8965
24.2979 44.545
24.3434 44.4842
24.3892 44.2546
24.4349 44.2534
24.4805 43.9736
24.5262 44.0849
24.5718 44.039
24.6175 44.1176
24.6631 43.8543
24.7089 43.698
24.7545 43.6059
24.8002 43.3358
24.8458 43.2792
24.8916 43.132
24.9372 43.3014
24.983 43.7158
25.0286 43.9074
25.0744 44.166
25.12 44.6348
25.1658 45.3076
25.2114 45.6697
25.2572 45.8886
25.3029 45.8246
25.3487 45.9078
25.3943 45.806
25.4402 44.93
25.4858 43.8366
25.5316 42.7189
25.5773 42.0816
25.6231 42.1033
25.669 41.5416
25.7147 41.5605
25.7605 41.4975
25.8062 41.5588
25.8521 41.662
25.8977 41.6221
25.9436 41.7607
25.9893 42.0434
26.0352 42.4361
26.0809 42.578
26.1268 42.768
26.1725 42.5175
26.2184 41.9433
26.2641 41.4654
26.31 41.3108
26.3557 41.2364
26.4017 41.1411
26.4474 41.4722
26.4933 41.6064
26.5391 42.1911
26.585 42.5974
26.6308 42.8492
26.6767 43.061
26.7225 43.1025
26.7684 42.5067
26.8142 41.9933
26.8601 41.4581
26.9059 41.0301
26.9519 40.6131
26.9979 40.2355
27.0437 39.9343
27.0896 39.6649
27.1354 39.7782
27.1814 39.5803
27.2272 39.5001
27.2732 39.5783
27.3191 39.3335
27.3651 39.4849
27.4109 39.2813
27.4569 39.4482
27.5027 39.5062
27.5488 39.5441
27.5946 39.4944
27.6407 39.2642
27.6865 39.0457
27.7326 38.8114
27.7784 38.8592
27.8245 39.0098
27.8703 38.8912
27.9164 39.2596
27.9623 39.2052
28.0084 39.6803
28.0543 39.8691
28.1003 39.8862
28.1462 39.7801
28.1923 39.4328
28.2384 38.841
28.2843 38.7056
28.3304 38.1533
28.3764 37.7732
28.4225 37.4295
28.4684 37.1762
28.5145 36.8307
28.5605 36.8844
28.6066 36.6142
28.6526 36.5079
28.6987 36.5133
28.7447 36.3676
28.7908 36.2907
28.8368 36.3525
28.8829 36.4089
28.9289 36.2897
28.9751 36.1126
29.0211 35.8396
29.0673 35.5854
29.1133 35.4315
29.1595 35.3065
29.2055 35.1846
29.2517 35.1693
29.2977 35.1697
29.3439 35.2082
29.3899 35.0402
29.4361 34.957
29.4824 34.8458
29.5284 34.8066
29.5746 34.344
29.6207 33.9941
29.6669 34.0163
29.713 33.9005
29.7593 33.7411
29.8053 33.6623
29.8516 33.6472
29.8977 33.6679
29.9439 33.4022
29.99 33.4199
30.0363 33.2501
30.0824 33.2674
30.1287 33.1627
30.1748 33.1499
30.2211 33.2663
30.2673 33.078
30.3136 33.1343
30.3597 33.0968
30.406 33.0346
30.4522 32.8472
30.4985 32.7974
30.5447 32.9327
30.591 32.9754
30.6372 32.9651
30.6835 32.8828
30.7297 33.0533
30.7761 32.9213
30.8224 32.7552
30.8686 32.7491
30.915 32.4656
30.9612 32.2987
31.0076 32.0949
31.0538 31.9669
31.1002 31.9032
31.1464 31.8201
31.1928 31.7477
31.2391 31.7504
31.2855 31.6621
31.3317 31.6171
31.3781 31.6553
31.4244 31.6875
31.4708 31.5785
31.5171 31.5846
31.5636 31.5421
31.6098 31.3227
31.6563 31.0868
31.7026 31.0608
31.7491 30.8841
31.7953 30.9289
31.8418 30.893
31.8881 30.8818
31.9346 30.9173
31.9809 30.7692
32.0275 30.6492
32.074 30.5494
32.1203 30.3488
32.1668 30.2756
32.2132 30.2158
32.2597 30.0326
32.306 29.9847
32.3526 29.7179
32.399 29.5566
32.4455 29.514
32.4919 29.4689
32.5385 29.3544
32.5848 29.1957
32.6314 29.1833
32.6778 29.1818
32.7244 29.0016
32.7708 28.8342
32.8174 28.9101
32.8638 28.724
32.9104 28.7921
32.9569 28.6677
33.0035 28.6288
33.0499 28.5426
33.0966 28.4767
33.143 28.5069
33.1897 28.433
33.2361 28.3666
33.2828 28.3247
33.3293 28.0656
33.3759 28.0892
33.4226 27.9541
33.4691 27.705
33.5158 27.6423
33.5623 27.5628
33.609 27.4177
33.6555 27.3799
33.7022 27.2363
33.7487 27.1708
33.7954 27.2217
33.842 27.095
33.8887 27.0278
33.9353 26.9011
33.982 26.8487
34.0286 26.7794
34.0753 26.6694
34.1219 26.6479
34.1687 26.4701
34.2152 26.3973
34.262 26.2092
34.3086 26.2633
34.3554 26.1358
34.402 26.0981
34.4488 25.9569
34.4954 25.9171
34.5422 25.7723
34.5889 25.694
34.6357 25.6661
34.6825 25.5486
34.7292 25.4246
34.776 25.346
34.8227 25.3999
34.8695 25.2226
34.9162 25.2195
34.9631 25.0956
35.0098 25.1573
35.0566 24.9374
35.1033 24.9197
35.1502 24.9038
35.1969 24.7866
35.2438 24.7553
35.2906 24.6461
35.3375 24.6123
35.3842 24.5896
35.4311 24.5363
35.4779 24.5783
35.5248 24.3962
35.5716 24.3297
35.6185 24.2531
35.6653 24.2182
35.7123 24.0983
35.759 24.0439
35.806 23.9515
35.8528 23.8706
35.8998 23.7959
35.9468 23.6861
35.9936 23.6653
36.0406 23.5366
36.0874 23.545
36.1345 23.5339
36.1813 23.3963
36.2283 23.2613
36.2752 23.1927
36.3222 23.2107
36.3691 23.1594
36.4161 23.003
36.463 22.9685
36.5101 22.9832
36.557 23.0305
36.6041 22.7067
36.651 22.685
36.6981 22.6994
36.745 22.619
36.7921 22.4885
36.839 22.3905
36.8861 22.3986
36.9331 22.2852
36.9802 22.1757
37.0272 22.1971
37.0743 21.9672
37.1213 22.0286
37.1684 21.8948
37.2154 21.8824
37.2626 21.7534
37.3098 21.781
37.3568 21.6525
37.404 21.6778
37.451 21.5357
37.4982 21.4946
37.5452 21.3712
37.5924 21.3187
37.6395 21.3
37.6867 21.2474
37.7337 21.1247
37.781 21.1463
37.8281 20.9815
37.8753 20.9043
37.9224 20.7726
37.9697 20.7062
38.0168 20.6802
38.064 20.7513
38.1111 20.5775
38.1584 20.4476
38.2056 20.4704
38.2529 20.3548
38.3 20.3765
38.3473 20.263
38.3945 20.1882
38.4418 20.1093
38.489 20.104
38.5363 19.9835
38.5837 19.9452
38.6309 19.8763
38.6782 19.7946
38.7254 19.7297
38.7728 19.7324
38.82 19.6044
38.8674 19.5802
38.9146 19.4623
38.9621 19.4075
39.0093 19.4229
39.0567 19.3609
39.104 19.3082
39.1514 19.1429
39.1987 19.1201
39.2461 19.0857
39.2934 19.0116
39.3409 18.8644
39.3882 18.8844
39.4356 18.8398
39.483 18.7568
39.5304 18.6996
39.5778 18.698
39.6253 18.6545
39.6726 18.5348
39.7201 18.478
39.7675 18.4746
39.815 18.4437
39.8624 18.3075
39.9099 18.2967
39.9575 18.233
40.0049 18.1602
40.0525 18.0559
40.0999 18.0641
40.1474 18.0067
40.1949 17.9371
40.2425 17.8225
40.2899 17.8421
40.3375 17.7483
40.385 17.7064
40.4326 17.6437
40.48 17.5484
40.5277 17.5286
40.5752 17.4366
40.6228 17.3241
40.6703 17.3336
40.718 17.2947
40.7655 17.2671
40.8132 17.146
40.8607 17.1891
40.9084 17.1058
40.9559 17.0604
41.0036 16.9475
41.0512 16.8765
41.0989 16.9198
41.1465 16.7711
41.1942 16.7832
41.242 16.6521
41.2896 16.5922
41.3373 16.5535
41.3849 16.5197
41.4327 16.5105
41.4803 16.3756
41.5281 16.3606
41.5758 16.2587
41.6236 16.2532
41.6712 16.2092
41.7191 16.1017
41.7667 16.1143
41.8146 16.0309
41.8622 16.0321
41.9101 15.9129
41.9578 15.8029
42.0057 15.7976
42.0534 15.7414
42.1013 15.7247
42.149 15.6472
42.1969 15.6234
42.2446 15.5408
42.2925 15.5019
42.3403 15.4093
42.3882 15.3871
42.436 15.3514
42.4839 15.323
42.5319 15.2878
42.5797 15.1867
42.6277 15.0869
42.6755 15.1109
42.7235 15.0091
42.7713 15.0351
42.8193 14.9491
42.8671 14.8618
42.9152 14.8288
42.963 14.7881
43.0111 14.7142
43.0589 14.6597
43.107 14.6043
43.1549 14.6123
43.2029 14.4999
43.2508 14.5133
43.2989 14.4377
43.3468 14.3922
43.3949 14.3204
43.4429 14.2809
43.491 14.2465
43.5389 14.1865
43.5871 14.1662
43.635 14.0529
43.6832 14.0319
43.7312 13.9361
43.7793 13.9013
43.8273 13.8995
43.8755 13.8591
43.9237 13.7894
43.9717 13.7703
44.0199 13.6711
44.068 13.6742
44.1162 13.6461
44.1642 13.5921
44.2125 13.509
44.2606 13.4878
44.3088 13.3856
44.3569 13.3436
44.4052 13.3137
44.4533 13.2432
44.5016 13.1978
44.5497 13.1887
44.598 13.2014
44.6461 13.0611
44.6945 13.0293
44.7426 13.0197
44.791 12.9365
44.8391 12.8802
44.8875 12.8344
44.9357 12.8189
44.984 12.7544
45.0322 12.7247
45.0806 12.6451
45.1288 12.675
45.1773 12.5695
45.2257 12.5329
45.2739 12.4608
45.3224 12.4927
45.3706 12.3745
45.4191 12.362
45.4673 12.3389
45.5158 12.2827
45.5641 12.2278
45.6126 12.2355
45.6609 12.16
45.7094 12.1284
45.7577 12.0511
45.8063 12.0137
45.8546 11.9933
45.9031 11.9207
45.9515 11.8971
46.0001 11.8737
46.0484 11.816
46.097 11.7436
46.1454 11.7203
46.194 11.7158
46.2424 11.6219
46.291 11.5926
46.3395 11.5667
46.3881 11.4942
46.4365 11.4974
46.4852 11.4488
46.5337 11.4086
46.5823 11.3437
46.631 11.2949
46.6795 11.2581
46.7282 11.2598
46.7767 11.2003
46.8254 11.1022
46.8739 11.119
46.9226 11.077
46.9712 11.0315
47.0199 10.9971
47.0685 10.9308
47.1173 10.8842
47.1658 10.8641
47.2146 10.8275
47.2632 10.7469
47.312 10.7373
47.3606 10.7315
47.4095 10.6304
47.4581 10.6207
47.5069 10.5738
47.5556 10.541
47.6044 10.5006
47.6531 10.4445
47.702 10.3913
47.7507 10.3806
47.7996 10.3187
47.8483 10.2966
47.8972 10.2657
47.9461 10.2553
47.9948 10.1814
48.0438 10.1635
48.0925 10.1517
48.1415 10.0778
48.1902 10.0451
48.2392 10.0744
48.288 9.99382
48.337 9.94931
48.3858 9.9075
48.4348 9.8806
48.4837 9.84054
48.5327 9.83961
48.5815 9.78509
48.6306 9.76545
48.6795 9.69625
48.7285 9.62685
48.7774 9.66752
48.8265 9.62708
48.8754 9.56264
48.9245 9.51748
48.9734 9.45759
49.0226 9.44202
49.0715 9.40731
49.1206 9.38417
49.1696 9.30625
49.2188 9.31633
49.2679 9.24768
49.3169 9.22435
49.3661 9.2188
49.4151 9.13537
49.4643 9.1329
49.5134 9.12707
49.5626 9.05266
49.6117 9.0463
49.6609 9.01112
49.71 8.93879
49.7592 8.93018
49.8083 8.87612
49.8576 8.86851
49.9067 8.77801
49.956 8.78652
50.0052 8.71609
50.0545 8.74388
50.1036 8.67977
50.153 8.65378
50.2022 8.60926
50.2515 8.56582
50.3007 8.52608
50.3501 8.47676
50.3993 8.48137
50.4487 8.44644
50.498 8.4353
50.5474 8.3942
50.5966 8.33642
50.6461 8.33462
50.6955 8.25779
50.7448 8.28206
50.7943 8.25719
50.8436 8.17375
50.8931 8.15282
50.9424 8.11215
50.9919 8.08399
51.0413 8.0749
51.0908 8.05711
51.1402 7.99431
51.1897 7.94002
51.2391 7.94721
51.2887 7.90372
51.3381 7.87596
51.3877 7.84297
51.4371 7.76881
51.4867 7.76221
51.5362 7.75097
51.5858 7.70132
51.6353 7.6749
51.6849 7.63842
51.7344 7.57648
51.7841 7.57658
51.8336 7.54919
51.8833 7.53488
51.9328 7.48874
51.9826 7.47053
52.0323 7.42103
52.0818 7.38996
52.1316 7.34443
52.1812 7.32735
52.231 7.2785
52.2806 7.2571
52.3304 7.28539
52.38 7.24268
52.4298 7.1681
52.4794 7.1703
52.5293 7.14096
52.5789 7.11654
52.6288 7.08372
52.6785 7.03107
52.7284 7.00624
52.7781 6.9614
52.828 6.95374
52.8777 6.92247
52.9276 6.89522
52.9774 6.90259
53.0273 6.81347
53.0771 6.8054
53.1271 6.7932
53.1769 6.76987
53.2269 6.73869
53.2767 6.68471
53.3267 6.64379
53.3765 6.65684
53.4266 6.64272
53.4766 6.57168
53.5265 6.55434
53.5765 6.51906
53.6264 6.49187
53.6765 6.4658
53.7264 6.4254
53.7765 6.40906
53.8265 6.36204
53.8766 6.32648
53.9266 6.32687
53.9767 6.28661
54.0267 6.27082
54.0769 6.26141
54.1269 6.18825
54.1771 6.18012
54.2271 6.20814
54.2773 6.09214
54.3274 6.09947
54.3776 6.08945
54.4277 6.02262
54.478 5.93483
54.528 5.94228
54.5783 5.89268
54.6285 5.83544
54.6788 5.80708
54.7289 5.76686
54.7792 5.75095
54.8296 5.67608
54.8798 5.70085
54.9301 5.62861
54.9803 5.64492
55.0307 5.57945
55.0809 5.50664
55.1314 5.50192
55.1816 5.40749
55.232 5.40157
55.2823 5.33901
55.3328 5.27541
55.383 5.22385
55.4335 5.22945
55.4838 5.1446
55.5344 5.10602
55.5847 5.04885
55.6352 5.03757
55.6856 4.9569
55.7361 4.96108