File: XRD/Ni3Fe_FD1014.xy
TT I
1.27165 6.87458
1.31627 6.52265
1.36089 6.59722
1.40551 5.84189
1.45013 5.56579
1.49476 6.13807
1.53938 5.35067
1.584 5.05239
1.62863 4.91526
1.67325 4.36678
1.71787 4.72143
1.7625 4.27332
1.80712 4.62349
1.85174 4.7453
1.89636 4.51495
1.94099 4.39133
1.98562 4.38637
2.03025 4.30122
2.07487 4.12659
2.11949 4.75802
2.16411 4.29069
2.20874 5.97941
2.25338 7.27513
2.298 5.05066
2.34263 5.54497
2.38725 6.3981
2.43188 6.53253
2.4765 6.71974
2.52115 7.58603
2.56577 7.53613
2.6104 8.14973
2.65503 8.41306
2.69965 8.86196
2.7443 8.82271
2.78893 8.60226
2.83356 8.88387
2.87818 8.96552
2.92281 9.23729
2.96744 9.45217
3.01209 10.813
3.05672 10.9801
3.10135 12.2228
3.14599 13.2006
3.19062 13.9581
3.23527 14.8841
3.2799 15.1895
3.32454 16.1813
3.36917 17.4693
3.4138 18.4382
3.45844 18.8018
3.50309 20.2581
3.54773 20.4695
3.59237 21.119
3.637 28.6307
3.68164 27.6929
3.7263 23.9399
3.77094 24.6522
3.81558 25.4871
3.86022 26.1126
3.90486 27.4959
3.9495 28.0483
3.99416 29.1833
4.0388 30.3077
4.08344 31.8098
4.12809 32.3067
4.17273 32.9984
4.21738 35.2785
4.26204 55.1536
4.30669 60.35
4.35133 40.8095
4.39598 40.3256
4.44063 43.1479
4.4853 46.3535
4.52995 46.6622
4.5746 47.6664
4.61925 50.0016
4.6639 51.9766
4.70855 54.707
4.75322 57.2318
4.79788 60.0607
4.84253 63.521
4.88719 67.0174
4.93184 70.5244
4.97652 75.7002
5.02118 81.828
5.06583 88.4498
5.11049 96.3967
5.15515 116.468
5.19981 222.387
5.24449 2223.63
5.28916 13488.9
5.33382 3512.85
5.37848 248.474
5.42315 126.974
5.46783 108.295
5.5125 100.295
5.55716 96.6197
5.60183 92.2194
5.6465 90.3724
5.69117 88.8951
5.73586 86.5779
5.78053 85.6958
5.8252 85.1054
5.86988 86.0803
5.91455 87.6361
5.95924 93.5935
6.00392 154.474
6.0486 770.807
6.09328 4352.21
6.13795 3519.57
6.18263 245.299
6.22733 86.9137
6.27201 75.0564
6.3167 72.7079
6.36138 68.1884
6.40606 64.0565
6.45075 62.5764
6.49545 61.6353
6.54014 59.2487
6.58483 58.3429
6.62952 57.6628
6.67421 58.665
6.71892 65.3167
6.76361 56.4072
6.8083 53.9474
6.853 53.9383
6.89769 52.6208
6.94239 52.6461
6.98711 52.3585
7.03181 51.7612
7.07651 51.4929
7.12121 51.4079
7.16591 51.4353
7.21063 50.5708
7.25533 51.4855
7.30004 63.7924
7.34475 56.6929
7.38945 51.302
7.43416 50.8213
7.47889 51.4194
7.5236 64.0388
7.56831 88.7072
7.61303 60.2935
7.65774 52.6631
7.70247 52.5584
7.74719 52.5933
7.79191 53.0076
7.83663 53.5367
7.88135 53.922
7.92607 54.8998
7.97081 56.3351
8.01553 57.2198
8.06026 58.2527
8.10498 59.4879
8.14971 61.9245
8.19446 63.2958
8.23919 64.8766
8.28392 66.8259
8.32865 69.0889
8.37339 72.9663
8.41812 76.5594
8.46288 85.0537
8.50761 122.39
8.55235 319.008
8.59709 1031.0
8.64183 2270.45
8.68658 1101.41
8.73134 176.196
8.77609 94.2429
8.82083 87.4971
8.86558 84.5866
8.91033 82.9102
8.9551 81.4743
8.99985 80.4418
9.04461 79.0518
9.08936 78.9171
9.13412 78.7343
9.17888 79.6766
9.22365 100.417
9.26841 139.402
9.31318 97.1786
9.35794 80.2999
9.4027 79.4183
9.44749 79.602
9.49226 79.9318
9.53703 80.5594
9.5818 82.4897
9.62657 83.6209
9.67134 85.1841
9.71614 86.337
9.76091 87.9526
9.80569 89.9681
9.85047 92.3086
9.89525 97.4941
9.94005 104.986
9.98484 139.327
10.0296 301.3
10.0744 703.495
10.1192 1717.07
10.164 1727.6
10.2088 467.142
10.2536 126.89
10.2984 102.299
10.3432 99.5124
10.388 96.3291
10.4328 104.634
10.4776 145.906
10.5224 249.256
10.5672 491.989
10.612 537.566
10.6568 225.547
10.7017 109.292
10.7465 88.1396
10.7913 79.2588
10.8361 76.6613
10.8809 74.7618
10.9257 72.6559
10.9706 71.8036
11.0154 69.6458
11.0602 68.3936
11.105 67.4694
11.1499 66.2365
11.1947 66.4513
11.2395 64.7339
11.2844 64.1465
11.3292 62.6894
11.374 62.1788
11.4189 61.7611
11.4637 61.3028
11.5086 60.4009
11.5534 60.3461
11.5983 60.1175
11.6431 59.7224
11.688 59.4652
11.7328 59.0868
11.7777 58.9499
11.8225 58.8237
11.8674 59.2017
11.9122 62.8052
11.9571 73.6794
12.002 70.6111
12.0468 64.1064
12.0917 72.9982
12.1366 92.6205
12.1814 140.769
12.2263 200.23
12.2712 171.539
12.3161 94.4524
12.3609 63.9172
12.4058 60.4112
12.4507 60.4311
12.4956 60.3283
12.5405 60.4342
12.5853 60.7934
12.6302 61.5814
12.6751 62.9945
12.72 63.1335
12.7649 63.4858
12.8098 64.1182
12.8547 65.4943
12.8996 66.7547
12.9445 67.8168
12.9894 69.455
13.0343 71.5158
13.0792 75.7712
13.1242 81.929
13.1691 101.887
13.214 134.742
13.2589 214.392
13.3038 359.017
13.3487 438.555
13.3937 279.01
13.4386 126.741
13.4835 96.795
13.5285 112.727
13.5734 144.733
13.6183 225.629
13.6633 350.025
13.7082 361.022
13.7531 203.724
13.7981 99.5285
13.843 78.4347
13.888 75.7715
13.9329 73.6364
13.9779 72.4773
14.0228 70.9352
14.0678 70.0102
14.1127 72.2718
14.1577 79.3436
14.2027 76.252
14.2476 69.2055
14.2926 66.7578
14.3376 66.3552
14.3825 65.9782
14.4275 65.2437
14.4725 65.0436
14.5175 65.4302
14.5624 65.1147
14.6074 65.8102
14.6524 66.0522
14.6974 66.2059
14.7424 67.4548
14.7874 72.2364
14.8324 83.9264
14.8774 102.825
14.9224 142.152
14.9674 203.777
15.0124 224.927
15.0574 158.387
15.1024 93.4307
15.1474 70.6365
15.1924 66.8262
15.2374 65.8099
15.2824 64.6766
15.3274 63.8147
15.3725 63.3326
15.4175 62.9449
15.4625 62.6183
15.5076 62.3443
15.5526 62.445
15.5976 62.4545
15.6426 62.6916
15.6877 66.7404
15.7327 75.5583
15.7778 88.4595
15.8228 116.614
15.8679 166.541
15.9129 202.377
15.958 172.335
16.003 104.85
16.0481 70.1089
16.0931 63.7039
16.1382 59.8417
16.1833 57.9023
16.2283 56.2026
16.2734 55.4624
16.3185 54.9236
16.3636 54.4803
16.4086 53.7908
16.4537 53.1033
16.4988 52.6262
16.5439 52.5943
16.589 52.3225
16.6341 52.2813
16.6792 51.7065
16.7243 52.0824
16.7694 51.8252
16.8145 51.8426
16.8596 52.2886
16.9047 52.9991
16.9498 54.2126
16.9949 53.6385
17.04 53.0412
17.0851 53.6909
17.1302 55.6383
17.1754 58.4525
17.2205 62.938
17.2656 70.9839
17.3108 81.6155
17.3559 81.8541
17.401 71.3557
17.4462 60.6741
17.4913 56.6159
17.5365 56.0951
17.5815 56.2899
17.6268 56.6379
17.6718 57.1602
17.7171 57.9302
17.7622 59.6014
17.8074 60.0112
17.8525 60.7349
17.8977 64.5256
17.9428 70.0049
17.9881 77.6102
18.0331 93.7026
18.0784 118.06
18.1237 140.502
18.1688 137.254
18.214 107.767
18.2591 86.188
18.3044 86.8192
18.3495 98.0165
18.3948 105.823
18.4399 97.6835
18.4852 77.9862
18.5303 65.2712
18.5756 60.9546
18.6207 59.5388
18.666 58.0667
18.7112 57.1022
18.7565 56.5048
18.8016 56.0841
18.8469 55.6344
18.892 55.323
18.9374 54.7646
18.9825 54.2505
19.0278 54.1858
19.073 54.2803
19.1183 54.264
19.1635 55.2687
19.2088 56.6697
19.254 59.2106
19.2993 64.803
19.3447 71.7676
19.3898 76.0644
19.4352 71.9938
19.4804 62.8242
19.5257 55.2784
19.5709 52.1737
19.6163 51.7595
19.6615 51.4606
19.7068 50.9968
19.752 50.9048
19.7974 50.9662
19.8426 51.7123
19.888 52.4693
19.9332 53.7548
19.9786 55.9957
20.0238 59.5638
20.0692 65.337
20.1144 69.4559
20.1598 67.9979
20.205 62.9403
20.2504 60.4151
20.2957 62.3805
20.3411 64.7936
20.3863 63.4704
20.4318 57.5764
20.477 52.3053
20.5224 49.4103
20.5677 48.4727
20.6131 48.2027
20.6586 47.5854
20.7038 47.497
20.7493 47.5076
20.7945 47.7318
20.84 47.4317
20.8853 46.9507
20.9307 46.6076
20.976 46.6694
21.0215 46.5235
21.0668 46.8499
21.1122 47.1958
21.1575 47.9603
21.203 48.724
21.2483 49.7482
21.2938 49.8174
21.3391 48.4544
21.3846 47.1974
21.4299 46.5246
21.4754 46.5502
21.5207 46.7491
21.5662 46.7663
21.6116 47.1369
21.6571 47.7857
21.7024 48.7378
21.7479 50.3754
21.7933 52.856
21.8388 56.6177
21.8843 61.2998
21.9297 64.3781
21.9752 63.3374
22.0206 58.934
22.0661 55.6933
22.1115 55.3423
22.157 55.5005
22.2024 53.7168
22.248 50.5569
22.2933 48.2993
22.3389 47.3175
22.3843 47.0221
22.4299 46.6513
22.4753 46.6926
22.5208 46.7065
22.5662 46.7566
22.6118 46.7678
22.6572 46.7829
22.7028 47.4612
22.7483 47.9811
22.7939 48.7432
22.8393 50.2807
22.8849 52.3521
22.9303 54.8639
22.9759 56.9254
23.0214 56.7862
23.067 54.0321
23.1126 50.3074
23.1581 47.9021
23.2037 47.1114
23.2492 47.0103
23.2948 47.1302
23.3403 47.607
23.3859 48.2204
23.4314 49.3736
23.477 51.1925
23.5225 53.5634
23.5682 56.3521
23.6137 57.8801
23.6593 55.8003
23.7048 51.4731
23.7505 47.5173
23.796 45.3074
23.8417 44.4988
23.8872 43.9807
23.9329 43.5485
23.9784 43.2915
24.0241 43.0876
24.0697 42.8963
24.1154 42.447
24.1609 42.4728
24.2066 42.1797
24.2522 42.1058
24.2979 41.6606
24.3434 41.5877
24.3892 41.4277
24.4349 41.4192
24.4805 41.3423
24.5262 41.5483
24.5718 41.4111
24.6175 41.3578
24.6631 41.5445
24.7089 41.0739
24.7545 40.8832
24.8002 40.6094
24.8458 40.6716
24.8916 40.6066
24.9372 40.7594
24.983 40.9461
25.0286 41.325
25.0744 41.8191
25.12 42.4288
25.1658 43.0486
25.2114 43.542
25.2572 43.7403
25.3029 43.8852
25.3487 43.964
25.3943 43.8208
25.4402 42.6153
25.4858 41.5571
25.5316 40.2156
25.5773 39.6538
25.6231 39.6477
25.669 39.0916
25.7147 39.2239
25.7605 39.0442
25.8062 39.0528
25.8521 39.1705
25.8977 39.2531
25.9436 39.3562
25.9893 39.5058
26.0352 40.1963
26.0809 40.5297
26.1268 40.7488
26.1725 40.3617
26.2184 39.6901
26.2641 39.0619
26.31 38.7445
26.3557 38.8562
26.4017 38.6894
26.4474 39.0462
26.4933 39.3133
26.5391 39.7994
26.585 40.5554
26.6308 41.0166
26.6767 41.2541
26.7225 41.3193
26.7684 40.6607
26.8142 39.9633
26.8601 39.5691
26.9059 39.0767
26.9519 38.6486
26.9979 38.1092
27.0437 37.8168
27.0896 37.5123
27.1354 37.5859
27.1814 37.3636
27.2272 37.3348
27.2732 37.3662
27.3191 37.165
27.3651 37.3052
27.4109 37.1899
27.4569 37.2949
27.5027 37.4698
27.5488 37.4135
27.5946 37.3692
27.6407 37.0815
27.6865 36.9441
27.7326 36.762
27.7784 36.7019
27.8245 36.6631
27.8703 36.7618
27.9164 37.1654
27.9623 37.2956
28.0084 37.8515
28.0543 38.3562
28.1003 38.3634
28.1462 38.078
28.1923 37.7519
28.2384 37.1946
28.2843 36.8143
28.3304 36.2842
28.3764 35.8273
28.4225 35.3756
28.4684 35.195
28.5145 34.8224
28.5605 34.7634
28.6066 34.5926
28.6526 34.57
28.6987 34.4768
28.7447 34.3145
28.7908 34.3618
28.8368 34.3765
28.8829 34.3525
28.9289 34.2714
28.9751 34.0961
29.0211 33.8981
29.0673 33.5566
29.1133 33.4674
29.1595 33.2994
29.2055 33.2145
29.2517 33.1491
29.2977 33.2331
29.3439 33.2347
29.3899 33.3404
29.4361 33.1327
29.4824 33.0225
29.5284 32.7423
29.5746 32.4277
29.6207 32.1689
29.6669 32.0882
29.713 31.7891
29.7593 31.7247
29.8053 31.7934
29.8516 31.6815
29.8977 31.6184
29.9439 31.4598
29.99 31.6076
30.0363 31.4579
30.0824 31.5981
30.1287 31.4841
30.1748 31.4958
30.2211 31.42
30.2673 31.2782
30.3136 31.2728
30.3597 31.1649
30.406 31.1231
30.4522 31.0313
30.4985 31.0414
30.5447 31.1558
30.591 31.2031
30.6372 31.2618
30.6835 31.2403
30.7297 31.3593
30.7761 31.3448
30.8224 31.2287
30.8686 30.9935
30.915 30.709
30.9612 30.6809
31.0076 30.4233
31.0538 30.2514
31.1002 30.1657
31.1464 29.9874
31.1928 29.9664
31.2391 29.9398
31.2855 29.8761
31.3317 29.8765
31.3781 30.0344
31.4244 30.0819
31.4708 29.9764
31.5171 29.9818
31.5636 29.993
31.6098 29.6562
31.6563 29.492
31.7026 29.3494
31.7491 29.1886
31.7953 29.3332
31.8418 29.2396
31.8881 29.3583
31.9346 29.2902
31.9809 29.2216
32.0275 29.1085
32.074 28.9761
32.1203 28.7581
32.1668 28.6743
32.2132 28.5431
32.2597 28.2843
32.306 28.2814
32.3526 28.1614
32.399 28.009
32.4455 27.8733
32.4919 27.8349
32.5385 27.7456
32.5848 27.6347
32.6314 27.5842
32.6778 27.5946
32.7244 27.4242
32.7708 27.3212
32.8174 27.2485
32.8638 27.2122
32.9104 27.1836
32.9569 27.2016
33.0035 27.0403
33.0499 27.0374
33.0966 26.9892
33.143 27.01
33.1897 26.9031
33.2361 26.8823
33.2828 26.834
33.3293 26.6961
33.3759 26.6115
33.4226 26.4118
33.4691 26.2876
33.5158 26.2875
33.5623 26.1404
33.609 25.9423
33.6555 25.8624
33.7022 25.7446
33.7487 25.6793
33.7954 25.6623
33.842 25.5235
33.8887 25.5867
33.9353 25.5568
33.982 25.3027
34.0286 25.3259
34.0753 25.1784
34.1219 25.0957
34.1687 24.9364
34.2152 24.8953
34.262 24.8444
34.3086 24.8089
34.3554 24.7104
34.402 24.6136
34.4488 24.5393
34.4954 24.4454
34.5422 24.3796
34.5889 24.2678
34.6357 24.1566
34.6825 24.1122
34.7292 24.0277
34.776 23.9835
34.8227 23.9917
34.8695 23.8591
34.9162 23.8018
34.9631 23.7515
35.0098 23.691
35.0566 23.5877
35.1033 23.5751
35.1502 23.5176
35.1969 23.5009
35.2438 23.4623
35.2906 23.3746
35.3375 23.2849
35.3842 23.275
35.4311 23.3584
35.4779 23.2208
35.5248 23.2543
35.5716 23.1277
35.6185 23.1089
35.6653 22.9435
35.7123 22.9045
35.759 22.779
35.806 22.7206
35.8528 22.5458
35.8998 22.5436
35.9468 22.386
35.9936 22.5043
36.0406 22.3775
36.0874 22.2982
36.1345 22.2336
36.1813 22.146
36.2283 22.0794
36.2752 21.9644
36.3222 21.9879
36.3691 21.8876
36.4161 21.7965
36.463 21.8026
36.5101 21.7226
36.557 21.7207
36.6041 21.5404
36.651 21.5486
36.6981 21.4326
36.745 21.3581
36.7921 21.3405
36.839 21.2576
36.8861 21.1215
36.9331 21.092
36.9802 20.9776
37.0272 20.994
37.0743 20.8913
37.1213 20.8332
37.1684 20.7451
37.2154 20.6435
37.2626 20.6609
37.3098 20.5482
37.3568 20.4952
37.404 20.4713
37.451 20.3383
37.4982 20.3647
37.5452 20.2238
37.5924 20.1087
37.6395 20.2157
37.6867 20.0577
37.7337 19.971
37.781 19.9035
37.8281 19.88
37.8753 19.8138
37.9224 19.7296
37.9697 19.5984
38.0168 19.5651
38.064 19.5294
38.1111 19.4998
38.1584 19.4481
38.2056 19.3421
38.2529 19.3641
38.3 19.3282
38.3473 19.2148
38.3945 19.0739
38.4418 19.07
38.489 19.0121
38.5363 18.9434
38.5837 18.8568
38.6309 18.8225
38.6782 18.7626
38.7254 18.6873
38.7728 18.6764
38.82 18.5232
38.8674 18.548
38.9146 18.4777
38.9621 18.425
39.0093 18.3519
39.0567 18.2965
39.104 18.1969
39.1514 18.158
39.1987 18.1642
39.2461 18.1024
39.2934 18.024
39.3409 17.8836
39.3882 17.8765
39.4356 17.8029
39.483 17.7664
39.5304 17.6457
39.5778 17.6881
39.6253 17.6131
39.6726 17.6025
39.7201 17.5118
39.7675 17.5565
39.815 17.3838
39.8624 17.2837
39.9099 17.3325
39.9575 17.2048
40.0049 17.1376
40.0525 17.0783
40.0999 17.0705
40.1474 16.9946
40.1949 16.8761
40.2425 16.9439
40.2899 16.8895
40.3375 16.7798
40.385 16.7073
40.4326 16.6942
40.48 16.6326
40.5277 16.5536
40.5752 16.52
40.6228 16.4769
40.6703 16.4512
40.718 16.3494
40.7655 16.285
40.8132 16.1988
40.8607 16.3159
40.9084 16.1505
40.9559 16.1126
41.0036 16.0808
41.0512 16.0148
41.0989 16.0021
41.1465 15.8954
41.1942 15.885
41.242 15.7538
41.2896 15.7847
41.3373 15.6718
41.3849 15.6541
41.4327 15.6084
41.4803 15.4856
41.5281 15.4495
41.5758 15.4501
41.6236 15.3529
41.6712 15.353
41.7191 15.2759
41.7667 15.2277
41.8146 15.1594
41.8622 15.1423
41.9101 15.0714
41.9578 14.9624
42.0057 14.9756
42.0534 14.8829
42.1013 14.8407
42.149 14.785
42.1969 14.7992
42.2446 14.734
42.2925 14.6802
42.3403 14.617
42.3882 14.6578
42.436 14.5248
42.4839 14.4476
42.5319 14.438
42.5797 14.3691
42.6277 14.334
42.6755 14.2726
42.7235 14.2713
42.7713 14.1668
42.8193 14.1486
42.8671 14.113
42.9152 14.0606
42.963 14.0244
43.0111 13.9168
43.0589 13.8914
43.107 13.8465
43.1549 13.7967
43.2029 13.7948
43.2508 13.7564
43.2989 13.6592
43.3468 13.6118
43.3949 13.5429
43.4429 13.5027
43.491 13.4671
43.5389 13.4674
43.5871 13.3398
43.635 13.3353
43.6832 13.3057
43.7312 13.2054
43.7793 13.2052
43.8273 13.1295
43.8755 13.0725
43.9237 13.0523
43.9717 12.9854
44.0199 12.995
44.068 12.9354
44.1162 12.8691
44.1642 12.87
44.2125 12.8453
44.2606 12.7745
44.3088 12.7038
44.3569 12.6896
44.4052 12.6722
44.4533 12.5762
44.5016 12.4901
44.5497 12.4524
44.598 12.4352
44.6461 12.4312
44.6945 12.3711
44.7426 12.3367
44.791 12.2331
44.8391 12.2679
44.8875 12.1922
44.9357 12.1853
44.984 12.0675
45.0322 12.0461
45.0806 12.0
45.1288 11.9863
45.1773 11.9857
45.2257 11.8592
45.2739 11.8191
45.3224 11.8443
45.3706 11.7675
45.4191 11.7163
45.4673 11.6857
45.5158 11.6243
45.5641 11.6089
45.6126 11.5584
45.6609 11.4999
45.7094 11.4197
45.7577 11.4464
45.8063 11.4089
45.8546 11.381
45.9031 11.3285
45.9515 11.2517
46.0001 11.2193
46.0484 11.2006
46.097 11.1111
46.1454 11.1295
46.194 11.0616
46.2424 11.0336
46.291 11.0087
46.3395 10.9735
46.3881 10.8744
46.4365 10.9033
46.4852 10.8842
46.5337 10.7912
46.5823 10.7795
46.631 10.6946
46.6795 10.6717
46.7282 10.6028
46.7767 10.6122
46.8254 10.5494
46.8739 10.5225
46.9226 10.5019
46.9712 10.3949
47.0199 10.3833
47.0685 10.3874
47.1173 10.3192
47.1658 10.2911
47.2146 10.2683
47.2632 10.197
47.312 10.1772
47.3606 10.1298
47.4095 10.0769
47.4581 10.0555
47.5069 9.98223
47.5556 9.95538
47.6044 9.9322
47.6531 9.9067
47.702 9.85867
47.7507 9.83905
47.7996 9.7583
47.8483 9.7551
47.8972 9.73628
47.9461 9.68634
47.9948 9.63979
48.0438 9.62053
48.0925 9.60911
48.1415 9.53702
48.1902 9.50417
48.2392 9.50348
48.288 9.483
48.337 9.41913
48.3858 9.36848
48.4348 9.3737
48.4837 9.32779
48.5327 9.30693
48.5815 9.28498
48.6306 9.22627
48.6795 9.18177
48.7285 9.14401
48.7774 9.07632
48.8265 9.06887
48.8754 9.04728
48.9245 9.02443
48.9734 8.95326
49.0226 8.96741
49.0715 8.89696
49.1206 8.84847
49.1696 8.84059
49.2188 8.78056
49.2679 8.77781
49.3169 8.76379
49.3661 8.71787
49.4151 8.67422
49.4643 8.65786
49.5134 8.61607
49.5626 8.52882
49.6117 8.51106
49.6609 8.49818
49.71 8.4763
49.7592 8.43309
49.8083 8.41544
49.8576 8.39715
49.9067 8.34364
49.956 8.3541
50.0052 8.25912
50.0545 8.25793
50.1036 8.23784
50.153 8.17196
50.2022 8.13117
50.2515 8.14829
50.3007 8.064
50.3501 8.03105
50.3993 8.04364
50.4487 8.00782
50.498 8.00103
50.5474 7.96462
50.5966 7.88403
50.6461 7.85625
50.6955 7.83607
50.7448 7.80131
50.7943 7.77968
50.8436 7.72853
50.8931 7.73702
50.9424 7.67191
50.9919 7.64569
51.0413 7.63868
51.0908 7.59364
51.1402 7.5979
51.1897 7.53955
51.2391 7.5013
51.2887 7.45096
51.3381 7.44994
51.3877 7.43144
51.4371 7.38244
51.4867 7.37147
51.5362 7.3307
51.5858 7.31271
51.6353 7.28295
51.6849 7.21702
51.7344 7.19431
51.7841 7.21402
51.8336 7.15554
51.8833 7.13226
51.9328 7.12761
51.9826 7.04705
52.0323 7.02172
52.0818 7.01012
52.1316 6.94144
52.1812 6.95887
52.231 6.91295
52.2806 6.88312
52.3304 6.87251
52.38 6.82515
52.4298 6.80511
52.4794 6.75641
52.5293 6.72391
52.5789 6.6995
52.6288 6.67973
52.6785 6.66828
52.7284 6.66827
52.7781 6.64211
52.828 6.56843
52.8777 6.53324
52.9276 6.51987
52.9774 6.51922
53.0273 6.48037
53.0771 6.49194
53.1271 6.44422
53.1769 6.40503
53.2269 6.35144
53.2767 6.32199
53.3267 6.29824
53.3765 6.28531
53.4266 6.28107
53.4766 6.19309
53.5265 6.20948
53.5765 6.18287
53.6264 6.17121
53.6765 6.17887
53.7264 6.09532
53.7765 6.10783
53.8265 6.08408
53.8766 6.03591
53.9266 6.00635
53.9767 5.9735
54.0267 5.93203
54.0769 5.87781
54.1269 5.91534
54.1771 5.81923
54.2271 5.81472
54.2773 5.7909
54.3274 5.81461
54.3776 5.70435
54.4277 5.72466
54.478 5.69694
54.528 5.64924
54.5783 5.55576
54.6285 5.55092
54.6788 5.52886
54.7289 5.49996
54.7792 5.44031
54.8296 5.40939
54.8798 5.34754
54.9301 5.31316
54.9803 5.33416
55.0307 5.23832
55.0809 5.22332
55.1314 5.26101
55.1816 5.10472
55.232 5.07488
55.2823 5.10371
55.3328 4.99942
55.383 4.94896
55.4335 4.95221
55.4838 4.84373
55.5344 4.81627
55.5847 4.79016
55.6352 4.82851
55.6856 4.71305
55.7361 4.65333