File: XRD/Ni3Fe_FD0233.xy
TT I
1.27165 7.53422
1.31627 6.90925
1.36089 7.51012
1.40551 6.3569
1.45013 6.32759
1.49476 7.09069
1.53938 6.4604
1.584 5.63805
1.62863 6.27771
1.67325 5.39242
1.71787 5.61811
1.7625 5.31744
1.80712 5.26817
1.85174 4.79129
1.89636 5.2012
1.94099 5.53147
1.98562 5.07335
2.03025 4.9162
2.07487 4.56872
2.11949 4.50091
2.16411 4.44743
2.20874 4.89156
2.25338 4.38541
2.298 4.31517
2.34263 5.02518
2.38725 4.38322
2.43188 5.0078
2.4765 5.2597
2.52115 5.40161
2.56577 6.12817
2.6104 5.9045
2.65503 5.69909
2.69965 6.41485
2.7443 6.54701
2.78893 7.44958
2.83356 7.0708
2.87818 8.16178
2.92281 8.53544
2.96744 8.98761
3.01209 10.7433
3.05672 11.0906
3.10135 11.6828
3.14599 12.4789
3.19062 14.1134
3.23527 14.7634
3.2799 16.1634
3.32454 17.0635
3.36917 17.2447
3.4138 19.0711
3.45844 20.2697
3.50309 20.6327
3.54773 21.5817
3.59237 22.1797
3.637 23.1557
3.68164 24.1348
3.7263 25.204
3.77094 25.925
3.81558 26.8312
3.86022 28.1238
3.90486 28.9969
3.9495 30.3182
3.99416 31.3994
4.0388 32.4163
4.08344 34.178
4.12809 34.8582
4.17273 36.3711
4.21738 37.8494
4.26204 39.3843
4.30669 40.2908
4.35133 42.8137
4.39598 44.5504
4.44063 46.6998
4.4853 48.4452
4.52995 52.54
4.5746 54.3989
4.61925 55.9595
4.6639 57.9071
4.70855 60.964
4.75322 64.5137
4.79788 68.6413
4.84253 71.5041
4.88719 76.8594
4.93184 81.817
4.97652 88.5392
5.02118 96.6909
5.06583 106.693
5.11049 124.334
5.15515 169.353
5.19981 884.77
5.24449 3983.73
5.28916 10799.4
5.33382 4169.92
5.37848 275.379
5.42315 153.43
5.46783 129.617
5.5125 118.594
5.55716 111.75
5.60183 107.26
5.6465 104.614
5.69117 103.466
5.73586 101.116
5.78053 101.93
5.8252 102.546
5.86988 104.953
5.91455 110.078
5.95924 133.07
6.00392 448.069
6.0486 1426.94
6.09328 3682.58
6.13795 3703.16
6.18263 357.813
6.22733 108.928
6.27201 88.7875
6.3167 81.2398
6.36138 76.2716
6.40606 73.0254
6.45075 71.1635
6.49545 68.4742
6.54014 66.7618
6.58483 65.4647
6.62952 64.1781
6.67421 62.379
6.71892 61.7034
6.76361 60.7458
6.8083 60.5002
6.853 59.4463
6.89769 58.6903
6.94239 58.3594
6.98711 57.3535
7.03181 57.1604
7.07651 56.9538
7.12121 56.307
7.16591 56.7094
7.21063 56.0773
7.25533 56.0681
7.30004 55.5784
7.34475 55.8944
7.38945 56.3183
7.43416 55.2663
7.47889 55.4771
7.5236 56.1586
7.56831 57.1331
7.61303 57.4786
7.65774 57.3779
7.70247 58.5438
7.74719 58.0995
7.79191 58.7748
7.83663 59.4237
7.88135 60.2908
7.92607 61.3359
7.97081 62.6416
8.01553 63.802
8.06026 65.3767
8.10498 66.8977
8.14971 69.2681
8.19446 70.7968
8.23919 73.7453
8.28392 76.5739
8.32865 79.1983
8.37339 84.6872
8.41812 91.1461
8.46288 111.224
8.50761 291.086
8.55235 586.443
8.59709 1075.77
8.64183 1979.76
8.68658 1198.77
8.73134 213.825
8.77609 111.055
8.82083 100.032
8.86558 96.0456
8.91033 93.8595
8.9551 90.715
8.99985 89.4253
9.04461 88.2547
9.08936 88.039
9.13412 87.1498
9.17888 86.863
9.22365 86.5555
9.26841 86.9761
9.31318 88.5038
9.35794 88.5209
9.4027 88.4803
9.44749 89.4887
9.49226 89.5434
9.53703 90.6906
9.5818 92.9347
9.62657 94.7969
9.67134 95.7984
9.71614 97.5601
9.76091 100.582
9.80569 103.512
9.85047 106.952
9.89525 112.246
9.94005 137.663
9.98484 303.759
10.0296 517.809
10.0744 809.932
10.1192 1458.96
10.164 1679.74
10.2088 551.648
10.2536 149.295
10.2984 117.739
10.3432 112.963
10.388 115.509
10.4328 159.41
10.4776 212.281
10.5224 284.083
10.5672 448.426
10.612 532.204
10.6568 248.316
10.7017 107.924
10.7465 92.3378
10.7913 88.2345
10.8361 85.6296
10.8809 83.2338
10.9257 80.9934
10.9706 79.6952
11.0154 77.7913
11.0602 76.4132
11.105 74.8024
11.1499 73.3486
11.1947 72.4087
11.2395 71.1888
11.2844 70.5051
11.3292 69.8962
11.374 69.0853
11.4189 68.7059
11.4637 68.0119
11.5086 67.2528
11.5534 66.762
11.5983 66.5308
11.6431 66.6038
11.688 66.1211
11.7328 65.7845
11.7777 65.7761
11.8225 65.3416
11.8674 65.6345
11.9122 65.8271
11.9571 66.4669
12.002 68.5951
12.0468 80.0403
12.0917 94.3281
12.1366 109.168
12.1814 142.455
12.2263 194.275
12.2712 183.38
12.3161 103.302
12.3609 70.0015
12.4058 67.373
12.4507 67.5601
12.4956 67.2447
12.5405 67.5584
12.5853 67.993
12.6302 68.1424
12.6751 68.8746
12.72 69.5803
12.7649 71.011
12.8098 71.7059
12.8547 73.0008
12.8996 74.7653
12.9445 76.5494
12.9894 78.552
13.0343 81.0521
13.0792 86.3365
13.1242 111.079
13.1691 147.014
13.214 174.847
13.2589 230.801
13.3038 323.898
13.3487 421.057
13.3937 309.507
13.4386 149.2
13.4835 133.439
13.5285 153.224
13.5734 175.056
13.6183 227.268
13.6633 311.095
13.7082 354.666
13.7531 225.691
13.7981 110.783
13.843 86.8938
13.888 84.219
13.9329 81.4468
13.9779 80.1481
14.0228 78.511
14.0678 76.9818
14.1127 76.3151
14.1577 75.3134
14.2027 74.5603
14.2476 74.2545
14.2926 73.4022
14.3376 73.2767
14.3825 72.7006
14.4275 72.4516
14.4725 72.3867
14.5175 72.4473
14.5624 72.7252
14.6074 72.9089
14.6524 73.4375
14.6974 74.6379
14.7424 81.2388
14.7874 95.1077
14.8324 106.768
14.8774 120.333
14.9224 146.167
14.9674 187.52
15.0124 221.634
15.0574 169.078
15.1024 100.633
15.1474 76.857
15.1924 73.7753
15.2374 72.5869
15.2824 71.5642
15.3274 70.4864
15.3725 70.0895
15.4175 69.8423
15.4625 69.5531
15.5076 69.3415
15.5526 69.4238
15.5976 69.7899
15.6426 75.3954
15.6877 85.9077
15.7327 94.6799
15.7778 103.655
15.8228 122.598
15.8679 153.87
15.9129 189.773
15.958 173.83
16.003 110.759
16.0481 72.7924
16.0931 65.8779
16.1382 63.9147
16.1833 62.9734
16.2283 61.5404
16.2734 60.8681
16.3185 60.3067
16.3636 59.511
16.4086 58.7681
16.4537 58.6854
16.4988 58.0881
16.5439 58.0817
16.589 57.887
16.6341 57.416
16.6792 57.0634
16.7243 57.2225
16.7694 57.181
16.8145 57.1747
16.8596 57.1854
16.9047 57.5549
16.9498 57.6073
16.9949 57.8571
17.04 59.4646
17.0851 61.8341
17.1302 63.8329
17.1754 65.509
17.2205 68.7588
17.2656 73.9038
17.3108 82.1067
17.3559 85.9189
17.401 77.0121
17.4462 66.8894
17.4913 62.4746
17.5365 62.0235
17.5815 62.1528
17.6268 62.5862
17.6718 63.0966
17.7171 63.6707
17.7622 64.497
17.8074 66.7132
17.8525 72.1735
17.8977 78.2826
17.9428 82.733
17.9881 88.462
18.0331 99.2796
18.0784 115.652
18.1237 138.895
18.1688 144.147
18.214 117.991
18.2591 93.576
18.3044 90.4403
18.3495 97.1231
18.3948 106.53
18.4399 101.722
18.4852 83.247
18.5303 69.8724
18.5756 65.5405
18.6207 64.4047
18.666 63.5138
18.7112 62.526
18.7565 62.1671
18.8016 61.6229
18.8469 61.0463
18.892 60.4473
18.9374 60.0795
18.9825 59.9073
19.0278 59.713
19.073 60.4366
19.1183 61.1603
19.1635 62.0633
19.2088 62.8933
19.254 64.8938
19.2993 67.2465
19.3447 71.614
19.3898 76.1047
19.4352 75.7739
19.4804 68.1207
19.5257 60.3693
19.5709 56.9421
19.6163 56.4833
19.6615 56.5007
19.7068 55.9361
19.752 56.1024
19.7974 57.1235
19.8426 58.3131
19.888 58.732
19.9332 59.4989
19.9786 61.4196
20.0238 64.1786
20.0692 68.4163
20.1144 72.4596
20.1598 72.8791
20.205 67.8325
20.2504 64.3439
20.2957 64.5037
20.3411 66.7551
20.3863 67.415
20.4318 62.1353
20.477 56.9031
20.5224 53.5888
20.5677 53.0052
20.6131 52.6062
20.6586 52.0784
20.7038 51.9255
20.7493 51.5238
20.7945 51.3542
20.84 51.2634
20.8853 51.1351
20.9307 51.2249
20.976 51.3387
21.0215 51.2212
21.0668 51.4601
21.1122 51.9189
21.1575 52.1807
21.203 52.5788
21.2483 53.4578
21.2938 53.9552
21.3391 52.8396
21.3846 51.6032
21.4299 50.8853
21.4754 50.9165
21.5207 51.1717
21.5662 51.8416
21.6116 52.6964
21.6571 53.5372
21.7024 54.3677
21.7479 55.5025
21.7933 57.4782
21.8388 60.2196
21.8843 63.4448
21.9297 66.7608
21.9752 66.8457
22.0206 63.1255
22.0661 58.673
22.1115 57.6588
22.157 58.4347
22.2024 57.3241
22.248 54.572
22.2933 52.5284
22.3389 51.4259
22.3843 51.2128
22.4299 51.0049
22.4753 51.1298
22.5208 50.8873
22.5662 50.8795
22.6118 51.4238
22.6572 51.9538
22.7028 52.4517
22.7483 52.7646
22.7939 53.1326
22.8393 54.223
22.8849 55.4608
22.9303 57.1562
22.9759 59.1477
23.0214 59.8505
23.067 57.9637
23.1126 54.3496
23.1581 52.0273
23.2037 51.4195
23.2492 51.8495
23.2948 52.0723
23.3403 52.3929
23.3859 52.546
23.4314 53.3632
23.477 54.1755
23.5225 55.5746
23.5682 57.7033
23.6137 59.6907
23.6593 58.6185
23.7048 55.0885
23.7505 51.2189
23.796 48.9514
23.8417 48.2732
23.8872 47.6333
23.9329 47.3054
23.9784 47.1357
24.0241 46.6633
24.0697 46.5124
24.1154 46.196
24.1609 46.0478
24.2066 45.9017
24.2522 45.7183
24.2979 45.5702
24.3434 45.3383
24.3892 45.1636
24.4349 45.1296
24.4805 44.8684
24.5262 45.1206
24.5718 44.9712
24.6175 44.9783
24.6631 44.8339
24.7089 44.5036
24.7545 44.4133
24.8002 44.247
24.8458 44.3645
24.8916 44.0029
24.9372 44.4325
24.983 44.7886
25.0286 44.9994
25.0744 45.3654
25.12 45.5794
25.1658 46.2525
25.2114 46.6951
25.2572 46.5435
25.3029 46.343
25.3487 46.6066
25.3943 46.7027
25.4402 45.9002
25.4858 44.6705
25.5316 43.5542
25.5773 42.9399
25.6231 42.9201
25.669 42.5028
25.7147 42.515
25.7605 42.5512
25.8062 42.5038
25.8521 42.5339
25.8977 42.5061
25.9436 42.7111
25.9893 42.654
26.0352 43.07
26.0809 43.1659
26.1268 43.5195
26.1725 43.4598
26.2184 42.9805
26.2641 42.4495
26.31 42.17
26.3557 42.0763
26.4017 42.0298
26.4474 42.5186
26.4933 42.5793
26.5391 42.8354
26.585 43.2191
26.6308 43.746
26.6767 43.9231
26.7225 43.83
26.7684 43.5046
26.8142 42.9052
26.8601 42.3738
26.9059 41.9206
26.9519 41.4373
26.9979 41.0889
27.0437 40.7151
27.0896 40.6107
27.1354 40.5226
27.1814 40.4101
27.2272 40.4623
27.2732 40.3333
27.3191 40.1198
27.3651 40.2528
27.4109 40.0734
27.4569 40.2573
27.5027 40.2028
27.5488 40.3529
27.5946 40.2865
27.6407 40.1409
27.6865 39.9055
27.7326 39.676
27.7784 39.7703
27.8245 39.6028
27.8703 39.7783
27.9164 39.9017
27.9623 39.9386
28.0084 40.2819
28.0543 40.6407
28.1003 40.7815
28.1462 40.6013
28.1923 40.1245
28.2384 39.8648
28.2843 39.535
28.3304 38.9117
28.3764 38.3857
28.4225 38.1254
28.4684 37.9643
28.5145 37.6355
28.5605 37.5191
28.6066 37.3604
28.6526 37.2717
28.6987 37.2884
28.7447 37.1379
28.7908 37.0644
28.8368 36.9402
28.8829 37.0163
28.9289 36.8335
28.9751 36.7903
29.0211 36.7284
29.0673 36.2282
29.1133 36.1822
29.1595 35.8756
29.2055 35.9696
29.2517 35.9286
29.2977 35.7726
29.3439 35.7269
29.3899 35.6339
29.4361 35.569
29.4824 35.629
29.5284 35.3111
29.5746 34.9598
29.6207 34.5785
29.6669 34.5514
29.713 34.4605
29.7593 34.3305
29.8053 34.4483
29.8516 34.2412
29.8977 34.1471
29.9439 34.131
29.99 34.0866
30.0363 33.8982
30.0824 33.9783
30.1287 33.9134
30.1748 33.8716
30.2211 33.8954
30.2673 33.8073
30.3136 33.825
30.3597 33.8053
30.406 33.6595
30.4522 33.5404
30.4985 33.4642
30.5447 33.5558
30.591 33.4888
30.6372 33.5417
30.6835 33.5921
30.7297 33.7256
30.7761 33.606
30.8224 33.6106
30.8686 33.4292
30.915 33.1736
30.9612 32.9657
31.0076 32.8265
31.0538 32.7005
31.1002 32.5768
31.1464 32.4299
31.1928 32.3857
31.2391 32.3567
31.2855 32.2478
31.3317 32.1978
31.3781 32.3969
31.4244 32.1912
31.4708 32.2376
31.5171 32.2831
31.5636 32.1547
31.6098 31.9325
31.6563 31.8134
31.7026 31.6629
31.7491 31.4437
31.7953 31.5009
31.8418 31.4644
31.8881 31.5424
31.9346 31.4498
31.9809 31.4475
32.0275 31.3608
32.074 31.0928
32.1203 30.9779
32.1668 30.8876
32.2132 30.7671
32.2597 30.6649
32.306 30.5459
32.3526 30.3252
32.399 30.3703
32.4455 30.1807
32.4919 29.9712
32.5385 30.0522
32.5848 29.8671
32.6314 29.7638
32.6778 29.7281
32.7244 29.5044
32.7708 29.3937
32.8174 29.4476
32.8638 29.3197
32.9104 29.4308
32.9569 29.3928
33.0035 29.1713
33.0499 29.1126
33.0966 29.0294
33.143 29.0504
33.1897 28.9175
33.2361 28.8717
33.2828 28.8198
33.3293 28.6665
33.3759 28.5962
33.4226 28.4053
33.4691 28.3517
33.5158 28.2895
33.5623 28.1184
33.609 27.8985
33.6555 27.9003
33.7022 27.8144
33.7487 27.703
33.7954 27.6811
33.842 27.6375
33.8887 27.4925
33.9353 27.4158
33.982 27.349
34.0286 27.2984
34.0753 27.2569
34.1219 27.0982
34.1687 26.9872
34.2152 27.0105
34.262 26.8838
34.3086 26.7719
34.3554 26.6594
34.402 26.5422
34.4488 26.4747
34.4954 26.5014
34.5422 26.2636
34.5889 26.2012
34.6357 26.066
34.6825 26.0912
34.7292 26.0202
34.776 25.8798
34.8227 25.8842
34.8695 25.7291
34.9162 25.7264
34.9631 25.5333
35.0098 25.6299
35.0566 25.3827
35.1033 25.3128
35.1502 25.3889
35.1969 25.3136
35.2438 25.2679
35.2906 25.2053
35.3375 25.0156
35.3842 25.0481
35.4311 25.0411
35.4779 25.0105
35.5248 24.9217
35.5716 24.7619
35.6185 24.7548
35.6653 24.6449
35.7123 24.5199
35.759 24.5398
35.806 24.3843
35.8528 24.3212
35.8998 24.3461
35.9468 24.1425
35.9936 24.0961
36.0406 24.0772
36.0874 23.9926
36.1345 24.0015
36.1813 23.8369
36.2283 23.8562
36.2752 23.6421
36.3222 23.7295
36.3691 23.6351
36.4161 23.4779
36.463 23.3554
36.5101 23.4841
36.557 23.3602
36.6041 23.2466
36.651 23.2123
36.6981 23.1474
36.745 23.0704
36.7921 23.0557
36.839 22.9509
36.8861 22.7655
36.9331 22.695
36.9802 22.5959
37.0272 22.534
37.0743 22.4793
37.1213 22.3816
37.1684 22.3565
37.2154 22.287
37.2626 22.2227
37.3098 22.1666
37.3568 22.1146
37.404 21.9703
37.451 21.9233
37.4982 21.9163
37.5452 21.7735
37.5924 21.7112
37.6395 21.7657
37.6867 21.6272
37.7337 21.5254
37.781 21.5193
37.8281 21.3378
37.8753 21.3367
37.9224 21.3198
37.9697 21.2034
38.0168 21.1632
38.064 21.0972
38.1111 21.035
38.1584 20.9812
38.2056 20.8725
38.2529 20.7898
38.3 20.7262
38.3473 20.6932
38.3945 20.5575
38.4418 20.5085
38.489 20.4351
38.5363 20.3893
38.5837 20.3215
38.6309 20.3073
38.6782 20.2008
38.7254 20.1222
38.7728 20.0644
38.82 20.0113
38.8674 19.9134
38.9146 19.9189
38.9621 19.8037
39.0093 19.7663
39.0567 19.743
39.104 19.6553
39.1514 19.6163
39.1987 19.5227
39.2461 19.5084
39.2934 19.4349
39.3409 19.2725
39.3882 19.2262
39.4356 19.1668
39.483 19.144
39.5304 19.0789
39.5778 19.1097
39.6253 18.9647
39.6726 18.8774
39.7201 18.8146
39.7675 18.8302
39.815 18.7103
39.8624 18.6081
39.9099 18.5994
39.9575 18.521
40.0049 18.5308
40.0525 18.3723
40.0999 18.428
40.1474 18.3132
40.1949 18.2608
40.2425 18.1886
40.2899 18.1692
40.3375 18.0731
40.385 18.0082
40.4326 17.9429
40.48 17.8894
40.5277 17.903
40.5752 17.7594
40.6228 17.699
40.6703 17.6898
40.718 17.608
40.7655 17.5843
40.8132 17.5397
40.8607 17.5248
40.9084 17.4387
40.9559 17.2961
41.0036 17.3216
41.0512 17.3079
41.0989 17.1798
41.1465 17.1202
41.1942 17.0885
41.242 17.0003
41.2896 16.9377
41.3373 16.8743
41.3849 16.7987
41.4327 16.7484
41.4803 16.6946
41.5281 16.6778
41.5758 16.6155
41.6236 16.5252
41.6712 16.4796
41.7191 16.428
41.7667 16.3659
41.8146 16.3525
41.8622 16.2712
41.9101 16.1808
41.9578 16.0615
42.0057 16.046
42.0534 16.0412
42.1013 16.0181
42.149 15.9012
42.1969 15.8627
42.2446 15.8714
42.2925 15.8238
42.3403 15.7538
42.3882 15.6821
42.436 15.6154
42.4839 15.5828
42.5319 15.5545
42.5797 15.5153
42.6277 15.4206
42.6755 15.3934
42.7235 15.2248
42.7713 15.2479
42.8193 15.2036
42.8671 15.1635
42.9152 15.0856
42.963 15.0348
43.0111 14.9843
43.0589 14.9537
43.107 14.9385
43.1549 14.8305
43.2029 14.7964
43.2508 14.7087
43.2989 14.725
43.3468 14.6166
43.3949 14.593
43.4429 14.5574
43.491 14.4888
43.5389 14.4586
43.5871 14.4421
43.635 14.362
43.6832 14.3255
43.7312 14.1963
43.7793 14.1712
43.8273 14.1752
43.8755 14.0343
43.9237 14.0508
43.9717 13.9928
44.0199 13.9547
44.068 13.8904
44.1162 13.8119
44.1642 13.8507
44.2125 13.7583
44.2606 13.7137
44.3088 13.6736
44.3569 13.5889
44.4052 13.5823
44.4533 13.4822
44.5016 13.4938
44.5497 13.4319
44.598 13.3675
44.6461 13.3115
44.6945 13.2967
44.7426 13.173
44.791 13.1648
44.8391 13.1493
44.8875 13.0567
44.9357 13.0321
44.984 13.0076
45.0322 12.9931
45.0806 12.9416
45.1288 12.8664
45.1773 12.8141
45.2257 12.7898
45.2739 12.7282
45.3224 12.7186
45.3706 12.6221
45.4191 12.5549
45.4673 12.5729
45.5158 12.4856
45.5641 12.4735
45.6126 12.4332
45.6609 12.3568
45.7094 12.2905
45.7577 12.2818
45.8063 12.2289
45.8546 12.1926
45.9031 12.1459
45.9515 12.1096
46.0001 12.0745
46.0484 12.029
46.097 11.9569
46.1454 11.9644
46.194 11.9032
46.2424 11.8183
46.291 11.8389
46.3395 11.7819
46.3881 11.6741
46.4365 11.6808
46.4852 11.6365
46.5337 11.5742
46.5823 11.5679
46.631 11.5589
46.6795 11.4386
46.7282 11.4299
46.7767 11.372
46.8254 11.2939
46.8739 11.2524
46.9226 11.2556
46.9712 11.1992
47.0199 11.155
47.0685 11.1329
47.1173 11.0587
47.1658 10.9892
47.2146 10.9961
47.2632 10.9487
47.312 10.9288
47.3606 10.8913
47.4095 10.85
47.4581 10.8006
47.5069 10.7368
47.5556 10.6976
47.6044 10.6843
47.6531 10.6147
47.702 10.5682
47.7507 10.5545
47.7996 10.5364
47.8483 10.4845
47.8972 10.4458
47.9461 10.4054
47.9948 10.3761
48.0438 10.3391
48.0925 10.3095
48.1415 10.2482
48.1902 10.211
48.2392 10.2212
48.288 10.194
48.337 10.1427
48.3858 10.0897
48.4348 10.0441
48.4837 10.0308
48.5327 9.95442
48.5815 9.92408
48.6306 9.87161
48.6795 9.87418
48.7285 9.83203
48.7774 9.7931
48.8265 9.76666
48.8754 9.68363
48.9245 9.64938
48.9734 9.67498
49.0226 9.62797
49.0715 9.54597
49.1206 9.56585
49.1696 9.48351
49.2188 9.48939
49.2679 9.44943
49.3169 9.37286
49.3661 9.30408
49.4151 9.35315
49.4643 9.28807
49.5134 9.22372
49.5626 9.1902
49.6117 9.1871
49.6609 9.15178
49.71 9.06725
49.7592 9.06043
49.8083 9.00525
49.8576 9.02125
49.9067 8.95702
49.956 8.92812
50.0052 8.8948
50.0545 8.84839
50.1036 8.82323
50.153 8.79703
50.2022 8.74588
50.2515 8.73103
50.3007 8.68766
50.3501 8.6448
50.3993 8.62955
50.4487 8.58566
50.498 8.55857
50.5474 8.51487
50.5966 8.51212
50.6461 8.44212
50.6955 8.4222
50.7448 8.37136
50.7943 8.3976
50.8436 8.33624
50.8931 8.30137
50.9424 8.26074
50.9919 8.224
51.0413 8.19645
51.0908 8.17467
51.1402 8.13308
51.1897 8.05705
51.2391 8.05281
51.2887 8.01637
51.3381 7.99218
51.3877 7.94565
51.4371 7.96628
51.4867 7.90623
51.5362 7.86601
51.5858 7.81399
51.6353 7.76547
51.6849 7.77527
51.7344 7.71289
51.7841 7.73633
51.8336 7.68581
51.8833 7.65175
51.9328 7.55409
51.9826 7.58729
52.0323 7.5524
52.0818 7.52925
52.1316 7.47772
52.1812 7.47444
52.231 7.41187
52.2806 7.40643
52.3304 7.3396
52.38 7.34035
52.4298 7.31098
52.4794 7.24282
52.5293 7.20896
52.5789 7.2298
52.6288 7.18574
52.6785 7.14558
52.7284 7.11373
52.7781 7.09806
52.828 7.07374
52.8777 7.06061
52.9276 7.01679
52.9774 6.97423
53.0273 6.98912
53.0771 6.93069
53.1271 6.89233
53.1769 6.83851
53.2269 6.86267
53.2767 6.78908
53.3267 6.76691
53.3765 6.74351
53.4266 6.71999
53.4766 6.72392
53.5265 6.65553
53.5765 6.62983
53.6264 6.60377
53.6765 6.5696
53.7264 6.53219
53.7765 6.52254
53.8265 6.48512
53.8766 6.40952
53.9266 6.42383
53.9767 6.38523
54.0267 6.37424
54.0769 6.31732
54.1269 6.30228
54.1771 6.25137
54.2271 6.2092
54.2773 6.20564
54.3274 6.18748
54.3776 6.11648
54.4277 6.13334
54.478 6.11208
54.528 6.04496
54.5783 5.94703
54.6285 5.93788
54.6788 5.84385
54.7289 5.84117
54.7792 5.86526
54.8296 5.7454
54.8798 5.68529
54.9301 5.65294
54.9803 5.65792
55.0307 5.65836
55.0809 5.51551
55.1314 5.54612
55.1816 5.46648
55.232 5.41235
55.2823 5.41354
55.3328 5.32075
55.383 5.27223
55.4335 5.23224
55.4838 5.18295
55.5344 5.1029
55.5847 5.0842
55.6352 5.03201
55.6856 5.01508
55.7361 5.00287