File: XRD/Ni3Fe_FD0005.xy
TT I
1.27165 35.3144
1.31627 35.8308
1.36089 35.0219
1.40551 32.6277
1.45013 31.9988
1.49476 31.4953
1.53938 30.5069
1.584 29.2943
1.62863 28.4395
1.67325 27.1022
1.71787 27.1552
1.7625 26.7568
1.80712 26.1386
1.85174 25.312
1.89636 25.1427
1.94099 25.7119
1.98562 25.8692
2.03025 25.5843
2.07487 25.8688
2.11949 25.1273
2.16411 25.8528
2.20874 26.1841
2.25338 26.6962
2.298 26.9897
2.34263 25.9102
2.38725 25.8584
2.43188 25.8321
2.4765 26.1312
2.52115 25.9319
2.56577 27.234
2.6104 27.6387
2.65503 28.4965
2.69965 29.8937
2.7443 31.5438
2.78893 33.5914
2.83356 36.6449
2.87818 40.2046
2.92281 44.4814
2.96744 49.6911
3.01209 58.1152
3.05672 65.738
3.10135 76.4098
3.14599 83.7022
3.19062 86.2873
3.23527 81.4971
3.2799 71.7311
3.32454 60.3551
3.36917 52.1372
3.4138 45.8668
3.45844 42.5593
3.50309 40.4958
3.54773 39.3628
3.59237 40.375
3.637 40.6016
3.68164 41.2809
3.7263 41.9014
3.77094 42.1665
3.81558 41.7394
3.86022 41.6625
3.90486 43.2227
3.9495 44.2552
3.99416 45.5537
4.0388 48.0735
4.08344 51.1177
4.12809 54.6956
4.17273 59.6517
4.21738 66.2942
4.26204 72.4569
4.30669 77.7656
4.35133 79.7477
4.39598 76.9469
4.44063 72.8546
4.4853 69.8826
4.52995 66.1056
4.5746 61.0573
4.61925 58.0286
4.6639 55.3576
4.70855 54.988
4.75322 55.9385
4.79788 57.6012
4.84253 60.358
4.88719 64.2586
4.93184 69.3509
4.97652 77.8432
5.02118 90.3423
5.06583 113.254
5.11049 135.259
5.15515 170.541
5.19981 248.09
5.24449 471.893
5.28916 971.051
5.33382 2500.68
5.37848 4153.47
5.42315 1623.25
5.46783 446.364
5.5125 236.116
5.55716 165.18
5.60183 129.278
5.6465 112.649
5.69117 105.018
5.73586 99.2461
5.78053 94.8274
5.8252 93.5681
5.86988 97.2638
5.91455 105.598
5.95924 121.158
6.00392 155.239
6.0486 233.916
6.09328 393.488
6.13795 665.793
6.18263 1232.8
6.22733 942.862
6.27201 387.464
6.3167 190.19
6.36138 117.649
6.40606 87.4029
6.45075 74.0353
6.49545 65.1512
6.54014 59.5093
6.58483 56.3699
6.62952 54.42
6.67421 53.4302
6.71892 52.642
6.76361 52.2955
6.8083 51.5698
6.853 50.7276
6.89769 50.0128
6.94239 49.0921
6.98711 48.0116
7.03181 48.1355
7.07651 48.4825
7.12121 49.8854
7.16591 51.5921
7.21063 54.0659
7.25533 57.0757
7.30004 63.1959
7.34475 69.7147
7.38945 72.017
7.43416 68.1525
7.47889 64.0096
7.5236 64.0358
7.56831 87.1423
7.61303 167.875
7.65774 108.799
7.70247 53.634
7.74719 44.2513
7.79191 41.4489
7.83663 39.7281
7.88135 38.9736
7.92607 38.7736
7.97081 38.7685
8.01553 38.9713
8.06026 39.4986
8.10498 40.017
8.14971 41.0499
8.19446 41.8194
8.23919 43.4614
8.28392 45.2758
8.32865 47.1906
8.37339 50.1326
8.41812 53.8481
8.46288 60.7037
8.50761 70.6761
8.55235 90.9396
8.59709 136.795
8.64183 193.24
8.68658 292.744
8.73134 597.597
8.77609 785.009
8.82083 402.145
8.86558 172.972
8.91033 107.518
8.9551 81.8699
8.99985 70.9398
9.04461 64.4828
9.08936 60.5145
9.13412 58.2452
9.17888 57.8432
9.22365 62.6281
9.26841 95.1252
9.31318 230.558
9.35794 219.991
9.4027 84.7639
9.44749 56.2277
9.49226 50.9639
9.53703 48.815
9.5818 48.2343
9.62657 48.1529
9.67134 49.0099
9.71614 49.7618
9.76091 50.7089
9.80569 52.0131
9.85047 54.2643
9.89525 57.6298
9.94005 61.7848
9.98484 70.1901
10.0296 84.7207
10.0744 116.883
10.1192 164.352
10.164 204.977
10.2088 351.728
10.2536 710.253
10.2984 760.321
10.3432 372.661
10.388 165.549
10.4328 105.566
10.4776 84.2733
10.5224 80.7901
10.5672 87.2471
10.612 92.0873
10.6568 119.6
10.7017 218.83
10.7465 304.193
10.7913 208.387
10.8361 96.9035
10.8809 58.8049
10.9257 49.0194
10.9706 45.214
11.0154 42.8719
11.0602 41.6513
11.105 40.9735
11.1499 39.9999
11.1947 39.7728
11.2395 39.5164
11.2844 39.3491
11.3292 38.9298
11.374 38.7992
11.4189 38.6755
11.4637 37.8807
11.5086 37.1703
11.5534 36.9872
11.5983 37.1718
11.6431 36.9957
11.688 36.5371
11.7328 36.7991
11.7777 36.3756
11.8225 36.781
11.8674 36.8313
11.9122 38.1004
11.9571 41.9119
12.002 60.1974
12.0468 95.1931
12.0917 81.0637
12.1366 50.5079
12.1814 45.5127
12.2263 46.9476
12.2712 50.668
12.3161 60.7834
12.3609 83.3558
12.4058 99.3298
12.4507 79.9536
12.4956 57.4294
12.5405 46.8098
12.5853 42.0848
12.6302 39.7563
12.6751 38.8366
12.72 38.7057
12.7649 38.8945
12.8098 38.9399
12.8547 38.6772
12.8996 38.5402
12.9445 38.4876
12.9894 38.5764
13.0343 38.9264
13.0792 40.1079
13.1242 42.4407
13.1691 50.8172
13.214 61.0568
13.2589 61.0452
13.3038 64.4919
13.3487 69.1893
13.3937 80.0555
13.4386 113.157
13.4835 188.108
13.5285 236.659
13.5734 173.489
13.6183 108.412
13.6633 86.6678
13.7082 79.5308
13.7531 85.6038
13.7981 121.348
13.843 197.012
13.888 214.824
13.9329 132.229
13.9779 75.3374
14.0228 54.7548
14.0678 46.2889
14.1127 43.4037
14.1577 43.7367
14.2027 53.774
14.2476 81.5332
14.2926 88.2284
14.3376 56.5982
14.3825 40.4853
14.4275 36.971
14.4725 36.0647
14.5175 35.5504
14.5624 35.1502
14.6074 34.9229
14.6524 35.077
14.6974 35.2058
14.7424 35.7137
14.7874 36.0953
14.8324 37.3611
14.8774 39.2731
14.9224 43.1186
14.9674 46.7848
15.0124 48.831
15.0574 53.2601
15.1024 66.3139
15.1474 97.2226
15.1924 133.743
15.2374 123.455
15.2824 82.4244
15.3274 56.3102
15.3725 45.5584
15.4175 41.0702
15.4625 38.7833
15.5076 37.5813
15.5526 36.7666
15.5976 36.4455
15.6426 36.0727
15.6877 36.426
15.7327 37.0338
15.7778 38.3889
15.8228 41.1293
15.8679 44.7862
15.9129 46.6054
15.958 49.4114
16.003 57.4933
16.0481 77.7475
16.0931 114.747
16.1382 139.674
16.1833 117.945
16.2283 78.8288
16.2734 52.448
16.3185 41.6654
16.3636 37.013
16.4086 34.5564
16.4537 33.241
16.4988 32.2738
16.5439 31.8465
16.589 31.192
16.6341 30.7676
16.6792 30.4713
16.7243 30.2489
16.7694 30.1167
16.8145 29.9387
16.8596 30.1091
16.9047 30.3504
16.9498 30.7778
16.9949 32.5647
17.04 37.3668
17.0851 40.1943
17.1302 36.084
17.1754 32.3718
17.2205 31.7805
17.2656 32.205
17.3108 32.9438
17.3559 33.0886
17.401 33.8138
17.4462 36.0347
17.4913 41.0623
17.5365 49.5171
17.5815 52.8558
17.6268 46.1089
17.6718 38.2807
17.7171 34.6548
17.7622 33.4835
17.8074 33.8389
17.8525 36.3402
17.8977 40.7949
17.9428 41.4463
17.9881 38.0698
18.0331 38.3206
18.0784 39.9329
18.1237 41.6388
18.1688 42.7133
18.214 46.2223
18.2591 54.559
18.3044 73.6278
18.3495 101.95
18.3948 111.196
18.4399 87.7252
18.4852 63.9755
18.5303 57.4474
18.5756 63.5033
18.6207 77.5621
18.666 79.3472
18.7112 65.4651
18.7565 49.7181
18.8016 40.4183
18.8469 36.0012
18.892 34.1235
18.9374 33.0193
18.9825 32.3378
19.0278 31.7776
19.073 31.6235
19.1183 31.313
19.1635 31.4028
19.2088 31.5651
19.254 32.1313
19.2993 32.7647
19.3447 34.0679
19.3898 36.2656
19.4352 42.226
19.4804 48.8811
19.5257 48.8195
19.5709 45.7846
19.6163 48.7407
19.6615 51.693
19.7068 46.6491
19.752 39.1858
19.7974 34.6768
19.8426 32.4058
19.888 31.2804
19.9332 30.6415
19.9786 30.5717
20.0238 30.7776
20.0692 31.1732
20.1144 31.1642
20.1598 31.7243
20.205 32.2187
20.2504 34.4021
20.2957 38.2488
20.3411 44.426
20.3863 49.4765
20.4318 47.2774
20.477 41.5032
20.5224 39.5055
20.5677 42.4182
20.6131 46.4714
20.6586 45.1678
20.7038 38.5098
20.7493 33.1779
20.7945 31.0403
20.84 30.4319
20.8853 31.7212
20.9307 33.7862
20.976 33.4949
21.0215 30.2083
21.0668 28.2321
21.1122 27.4921
21.1575 27.3142
21.203 27.1392
21.2483 27.2461
21.2938 27.2846
21.3391 27.2114
21.3846 27.4541
21.4299 27.9737
21.4754 29.1571
21.5207 31.3802
21.5662 32.4012
21.6116 31.7775
21.6571 30.3248
21.7024 29.0677
21.7479 28.4131
21.7933 28.5324
21.8388 29.0539
21.8843 29.8111
21.9297 29.8434
21.9752 30.4973
22.0206 31.8714
22.0661 33.8307
22.1115 37.1889
22.157 43.2068
22.2024 50.7542
22.248 53.584
22.2933 50.2157
22.3389 45.0156
22.3843 41.997
22.4299 41.1324
22.4753 39.6245
22.5208 35.691
22.5662 32.2894
22.6118 30.5293
22.6572 29.4179
22.7028 28.8412
22.7483 28.6477
22.7939 28.5724
22.8393 28.7654
22.8849 29.6959
22.9303 31.0132
22.9759 31.9026
23.0214 31.1929
23.067 30.4993
23.1126 30.7133
23.1581 32.192
23.2037 35.4603
23.2492 40.8899
23.2948 45.5727
23.3403 44.255
23.3859 38.6022
23.4314 34.0506
23.477 32.3275
23.5225 32.6471
23.5682 34.3306
23.6137 35.3392
23.6593 34.0984
23.7048 32.5159
23.7505 32.4986
23.796 34.6641
23.8417 38.7799
23.8872 45.2681
23.9329 48.779
23.9784 44.9171
24.0241 37.54
24.0697 32.3576
24.1154 29.7664
24.1609 28.6703
24.2066 28.4242
24.2522 27.944
24.2979 26.9252
24.3434 26.1497
24.3892 25.7422
24.4349 25.5965
24.4805 25.4043
24.5262 25.3224
24.5718 25.1826
24.6175 25.1158
24.6631 25.2652
24.7089 25.3373
24.7545 25.9217
24.8002 27.0698
24.8458 27.7343
24.8916 27.2579
24.9372 26.4184
24.983 25.8475
25.0286 25.5214
25.0744 25.225
25.12 25.128
25.1658 25.1267
25.2114 25.3071
25.2572 25.5427
25.3029 26.0069
25.3487 26.6338
25.3943 27.5719
25.4402 28.8622
25.4858 30.2344
25.5316 31.1058
25.5773 30.9813
25.6231 31.4538
25.669 32.7972
25.7147 33.9873
25.7605 32.3935
25.8062 29.6063
25.8521 27.3744
25.8977 26.2695
25.9436 26.2475
25.9893 26.4941
26.0352 26.4917
26.0809 25.7568
26.1268 25.1501
26.1725 24.8549
26.2184 24.8108
26.2641 25.1276
26.31 25.4471
26.3557 26.3352
26.4017 27.6406
26.4474 29.3187
26.4933 29.5441
26.5391 28.518
26.585 27.2258
26.6308 26.2106
26.6767 25.6294
26.7225 25.3968
26.7684 25.4599
26.8142 25.7501
26.8601 26.4913
26.9059 27.5572
26.9519 29.2855
26.9979 31.5716
27.0437 32.8689
27.0896 32.5979
27.1354 31.7798
27.1814 30.5523
27.2272 28.9628
27.2732 27.1699
27.3191 25.7218
27.3651 24.8963
27.4109 24.3732
27.4569 24.1519
27.5027 23.9272
27.5488 23.7549
27.5946 23.8422
27.6407 23.9539
27.6865 24.2415
27.7326 24.0489
27.7784 24.2669
27.8245 24.4168
27.8703 25.1113
27.9164 25.8733
27.9623 25.7957
28.0084 25.3337
28.0543 24.9286
28.1003 24.7259
28.1462 25.1829
28.1923 26.0256
28.2384 26.4351
28.2843 26.2643
28.3304 26.5044
28.3764 27.7456
28.4225 29.5827
28.4684 30.6722
28.5145 30.0468
28.5605 28.696
28.6066 28.246
28.6526 27.7702
28.6987 26.8986
28.7447 25.5203
28.7908 24.4229
28.8368 23.4638
28.8829 23.0075
28.9289 22.5155
28.9751 22.239
29.0211 22.1189
29.0673 22.0595
29.1133 22.0905
29.1595 22.153
29.2055 22.4066
29.2517 23.0034
29.2977 23.4603
29.3439 23.3252
29.3899 22.813
29.4361 22.2408
29.4824 21.6939
29.5284 21.5142
29.5746 21.482
29.6207 21.5302
29.6669 21.6298
29.713 22.0064
29.7593 22.5776
29.8053 23.084
29.8516 23.0734
29.8977 22.545
29.9439 21.7051
29.99 21.297
30.0363 20.8931
30.0824 20.8293
30.1287 20.7727
30.1748 20.826
30.2211 21.1484
30.2673 21.272
30.3136 21.3985
30.3597 21.0021
30.406 20.6336
30.4522 20.6349
30.4985 20.6093
30.5447 20.8553
30.591 21.1523
30.6372 21.4296
30.6835 21.5745
30.7297 21.2609
30.7761 20.9564
30.8224 20.8219
30.8686 20.7945
30.915 20.8406
30.9612 21.0897
31.0076 21.5274
31.0538 22.3715
31.1002 23.3597
31.1464 23.9585
31.1928 23.9959
31.2391 23.743
31.2855 23.0871
31.3317 22.4338
31.3781 21.7078
31.4244 21.0502
31.4708 20.5605
31.5171 20.3539
31.5636 20.2634
31.6098 20.1829
31.6563 20.2534
31.7026 20.4609
31.7491 20.7532
31.7953 21.0103
31.8418 21.3926
31.8881 21.8366
31.9346 22.294
31.9809 22.0491
32.0275 21.354
32.074 20.8377
32.1203 20.3439
32.1668 20.462
32.2132 20.6096
32.2597 20.6819
32.306 20.9534
32.3526 21.3127
32.399 21.6785
32.4455 21.6268
32.4919 21.2591
32.5385 20.6211
32.5848 20.2405
32.6314 20.0136
32.6778 19.5222
32.7244 19.254
32.7708 18.895
32.8174 18.7412
32.8638 18.5698
32.9104 18.5322
32.9569 18.4785
33.0035 18.4433
33.0499 18.5401
33.0966 18.6613
33.143 18.8781
33.1897 18.8584
33.2361 18.603
33.2828 18.3846
33.3293 18.1908
33.3759 18.2225
33.4226 18.302
33.4691 18.3868
33.5158 18.6194
33.5623 18.9085
33.609 19.2709
33.6555 19.5131
33.7022 19.5577
33.7487 19.6012
33.7954 19.4589
33.842 19.0112
33.8887 18.5582
33.9353 18.1824
33.982 17.8813
34.0286 17.7423
34.0753 17.672
34.1219 17.6582
34.1687 17.4978
34.2152 17.4744
34.262 17.5126
34.3086 17.5774
34.3554 17.7213
34.402 17.6579
34.4488 17.4845
34.4954 17.2786
34.5422 17.0544
34.5889 17.0346
34.6357 16.8824
34.6825 16.8886
34.7292 17.0257
34.776 16.997
34.8227 17.1188
34.8695 17.0668
34.9162 16.9125
34.9631 16.6499
35.0098 16.5806
35.0566 16.3139
35.1033 16.2565
35.1502 16.2246
35.1969 16.1263
35.2438 16.1501
35.2906 16.1422
35.3375 16.203
35.3842 16.2009
35.4311 16.2462
35.4779 16.2733
35.5248 16.1871
35.5716 16.2188
35.6185 16.196
35.6653 16.2503
35.7123 16.1908
35.759 16.4477
35.806 16.6347
35.8528 16.8493
35.8998 17.1202
35.9468 17.3705
35.9936 17.4432
36.0406 17.2224
36.0874 16.9477
36.1345 16.6682
36.1813 16.3404
36.2283 16.0396
36.2752 15.8567
36.3222 15.7502
36.3691 15.6183
36.4161 15.5471
36.463 15.5093
36.5101 15.6293
36.557 15.6849
36.6041 15.6946
36.651 15.8903
36.6981 15.8728
36.745 15.7101
36.7921 15.4842
36.839 15.2551
36.8861 15.2339
36.9331 15.2555
36.9802 15.2928
37.0272 15.4308
37.0743 15.4932
37.1213 15.5313
37.1684 15.5089
37.2154 15.2751
37.2626 15.1519
37.3098 14.9336
37.3568 14.7691
37.404 14.6242
37.451 14.5906
37.4982 14.5918
37.5452 14.4114
37.5924 14.4751
37.6395 14.4287
37.6867 14.4542
37.7337 14.3719
37.781 14.3426
37.8281 14.2516
37.8753 14.1647
37.9224 14.1198
37.9697 14.0028
38.0168 14.0042
38.064 14.0393
38.1111 14.0525
38.1584 14.1425
38.2056 14.1318
38.2529 14.1043
38.3 14.0145
38.3473 13.869
38.3945 13.8222
38.4418 13.6359
38.489 13.6235
38.5363 13.4983
38.5837 13.4931
38.6309 13.4826
38.6782 13.426
38.7254 13.5019
38.7728 13.5109
38.82 13.5067
38.8674 13.5463
38.9146 13.5197
38.9621 13.3364
39.0093 13.3247
39.0567 13.3067
39.104 13.2761
39.1514 13.2991
39.1987 13.3275
39.2461 13.3855
39.2934 13.2924
39.3409 13.058
39.3882 12.9146
39.4356 12.8183
39.483 12.7507
39.5304 12.7569
39.5778 12.6891
39.6253 12.6521
39.6726 12.5471
39.7201 12.5621
39.7675 12.5449
39.815 12.5403
39.8624 12.4846
39.9099 12.4792
39.9575 12.4286
40.0049 12.4222
40.0525 12.2817
40.0999 12.2857
40.1474 12.3278
40.1949 12.2877
40.2425 12.3443
40.2899 12.4112
40.3375 12.4176
40.385 12.3789
40.4326 12.3907
40.48 12.2726
40.5277 12.1763
40.5752 12.0772
40.6228 12.0398
40.6703 12.0332
40.718 11.9907
40.7655 11.9358
40.8132 11.9263
40.8607 11.9622
40.9084 11.8526
40.9559 11.8598
41.0036 11.87
41.0512 11.805
41.0989 11.7825
41.1465 11.6823
41.1942 11.7049
41.242 11.7523
41.2896 11.7466
41.3373 11.8015
41.3849 11.7005
41.4327 11.6113
41.4803 11.5098
41.5281 11.4531
41.5758 11.3508
41.6236 11.2033
41.6712 11.2193
41.7191 11.1966
41.7667 11.0924
41.8146 11.1048
41.8622 11.1352
41.9101 11.1356
41.9578 11.0246
42.0057 11.0194
42.0534 10.9535
42.1013 11.0026
42.149 10.8988
42.1969 10.9561
42.2446 10.9871
42.2925 11.0591
42.3403 10.9579
42.3882 10.9085
42.436 10.8807
42.4839 10.824
42.5319 10.6562
42.5797 10.597
42.6277 10.5616
42.6755 10.5109
42.7235 10.4467
42.7713 10.4338
42.8193 10.3944
42.8671 10.3633
42.9152 10.3493
42.963 10.2965
43.0111 10.2555
43.0589 10.1883
43.107 10.1267
43.1549 10.1309
43.2029 10.0947
43.2508 10.0452
43.2989 10.0494
43.3468 9.97903
43.3949 9.94354
43.4429 9.85895
43.491 9.85815
43.5389 9.81601
43.5871 9.82097
43.635 9.7626
43.6832 9.7576
43.7312 9.69148
43.7793 9.69093
43.8273 9.65329
43.8755 9.63069
43.9237 9.65593
43.9717 9.55121
44.0199 9.55326
44.068 9.52107
44.1162 9.49981
44.1642 9.54393
44.2125 9.52145
44.2606 9.46146
44.3088 9.49545
44.3569 9.40108
44.4052 9.39762
44.4533 9.326
44.5016 9.29674
44.5497 9.2223
44.598 9.22782
44.6461 9.20212
44.6945 9.14261
44.7426 9.13675
44.791 9.13696
44.8391 9.11004
44.8875 9.11628
44.9357 9.08904
44.984 9.04278
45.0322 8.97738
45.0806 8.97793
45.1288 8.97162
45.1773 8.94069
45.2257 8.92044
45.2739 8.86141
45.3224 8.84199
45.3706 8.7663
45.4191 8.73533
45.4673 8.67439
45.5158 8.68037
45.5641 8.61472
45.6126 8.60806
45.6609 8.56371
45.7094 8.53267
45.7577 8.49142
45.8063 8.45584
45.8546 8.48867
45.9031 8.42718
45.9515 8.41393
46.0001 8.38528
46.0484 8.36844
46.097 8.3351
46.1454 8.38392
46.194 8.28943
46.2424 8.29946
46.291 8.22965
46.3395 8.19764
46.3881 8.1414
46.4365 8.14249
46.4852 8.09722
46.5337 8.08879
46.5823 8.06209
46.631 8.04182
46.6795 8.00584
46.7282 7.98083
46.7767 7.98684
46.8254 7.91207
46.8739 7.86807
46.9226 7.85568
46.9712 7.84001
47.0199 7.79785
47.0685 7.77626
47.1173 7.74419
47.1658 7.73533
47.2146 7.68208
47.2632 7.65089
47.312 7.5954
47.3606 7.56255
47.4095 7.52375
47.4581 7.4727
47.5069 7.47502
47.5556 7.45422
47.6044 7.43193
47.6531 7.42822
47.702 7.42387
47.7507 7.38704
47.7996 7.32203
47.8483 7.35242
47.8972 7.33076
47.9461 7.30772
47.9948 7.27158
48.0438 7.23347
48.0925 7.21149
48.1415 7.1965
48.1902 7.14625
48.2392 7.14467
48.288 7.08543
48.337 7.04762
48.3858 7.00471
48.4348 7.02519
48.4837 6.99938
48.5327 6.9461
48.5815 6.95465
48.6306 6.897
48.6795 6.88737
48.7285 6.86653
48.7774 6.83351
48.8265 6.82564
48.8754 6.78388
48.9245 6.78601
48.9734 6.73503
49.0226 6.71905
49.0715 6.71082
49.1206 6.65697
49.1696 6.65734
49.2188 6.63169
49.2679 6.58441
49.3169 6.58223
49.3661 6.55255
49.4151 6.51815
49.4643 6.49317
49.5134 6.47117
49.5626 6.42345
49.6117 6.46644
49.6609 6.44984
49.71 6.39328
49.7592 6.3976
49.8083 6.37101
49.8576 6.37183
49.9067 6.31038
49.956 6.32872
50.0052 6.30739
50.0545 6.23569
50.1036 6.21543
50.153 6.22014
50.2022 6.19394
50.2515 6.16564
50.3007 6.13736
50.3501 6.1116
50.3993 6.10553
50.4487 6.10751
50.498 6.09287
50.5474 6.05538
50.5966 6.04057
50.6461 6.03763
50.6955 5.97463
50.7448 5.97657
50.7943 5.9246
50.8436 5.88441
50.8931 5.89676
50.9424 5.8806
50.9919 5.81833
51.0413 5.80673
51.0908 5.79288
51.1402 5.78212
51.1897 5.75367
51.2391 5.7203
51.2887 5.6854
51.3381 5.64968
51.3877 5.6783
51.4371 5.66447
51.4867 5.6086
51.5362 5.60767
51.5858 5.54761
51.6353 5.53866
51.6849 5.51014
51.7344 5.49913
51.7841 5.50426
51.8336 5.46238
51.8833 5.43851
51.9328 5.40917
51.9826 5.42547
52.0323 5.38355
52.0818 5.34227
52.1316 5.31682
52.1812 5.30191
52.231 5.29934
52.2806 5.29216
52.3304 5.23176
52.38 5.20552
52.4298 5.2018
52.4794 5.16762
52.5293 5.1897
52.5789 5.14731
52.6288 5.12548
52.6785 5.10651
52.7284 5.06191
52.7781 5.067
52.828 5.05048
52.8777 5.02418
52.9276 4.98364
52.9774 4.95214
53.0273 4.95114
53.0771 4.96021
53.1271 4.95898
53.1769 4.91863
53.2269 4.89516
53.2767 4.85904
53.3267 4.86682
53.3765 4.82636
53.4266 4.8446
53.4766 4.78721
53.5265 4.74681
53.5765 4.70347
53.6264 4.693
53.6765 4.68217
53.7264 4.70282
53.7765 4.64082
53.8265 4.60526
53.8766 4.61322
53.9266 4.6023
53.9767 4.56628
54.0267 4.53719
54.0769 4.52095
54.1269 4.5367
54.1771 4.46585
54.2271 4.43962
54.2773 4.40855
54.3274 4.38587
54.3776 4.36992
54.4277 4.33955
54.478 4.28879
54.528 4.27576
54.5783 4.26124
54.6285 4.18074
54.6788 4.17932
54.7289 4.12437
54.7792 4.07551
54.8296 4.05991
54.8798 4.05412
54.9301 4.03691
54.9803 3.97408
55.0307 3.99376
55.0809 3.94178
55.1314 3.85365
55.1816 3.89987
55.232 3.84336
55.2823 3.81922
55.3328 3.75417
55.383 3.71155
55.4335 3.68712
55.4838 3.63815
55.5344 3.60846
55.5847 3.52574
55.6352 3.62586
55.6856 3.53131
55.7361 3.51863