File: XRD/Ni3Fe_FD1040.xy
TT I
1.27165 6.92054
1.31627 6.35596
1.36089 6.52736
1.40551 5.99399
1.45013 5.75638
1.49476 5.56088
1.53938 5.33653
1.584 5.4625
1.62863 5.05681
1.67325 4.77367
1.71787 4.23767
1.7625 4.69549
1.80712 4.62727
1.85174 3.80277
1.89636 4.70677
1.94099 4.39001
1.98562 4.44798
2.03025 4.35467
2.07487 3.55597
2.11949 4.02766
2.16411 4.85105
2.20874 5.35188
2.25338 6.15967
2.298 5.80953
2.34263 5.61869
2.38725 5.66499
2.43188 5.25172
2.4765 7.003
2.52115 7.55919
2.56577 7.69564
2.6104 8.93122
2.65503 8.2424
2.69965 8.76877
2.7443 8.91427
2.78893 8.48991
2.83356 8.44327
2.87818 9.0572
2.92281 9.14958
2.96744 9.92286
3.01209 10.147
3.05672 10.6423
3.10135 11.906
3.14599 12.3717
3.19062 14.1932
3.23527 14.2727
3.2799 15.0822
3.32454 16.3042
3.36917 16.7396
3.4138 18.1085
3.45844 19.0569
3.50309 19.5355
3.54773 20.1609
3.59237 21.2746
3.637 27.5052
3.68164 26.935
3.7263 24.0986
3.77094 25.0361
3.81558 25.1184
3.86022 26.3591
3.90486 27.5096
3.9495 28.2002
3.99416 28.9532
4.0388 29.9707
4.08344 31.4822
4.12809 32.5461
4.17273 34.1813
4.21738 35.6118
4.26204 52.6238
4.30669 57.0838
4.35133 40.3243
4.39598 40.9447
4.44063 42.988
4.4853 46.8075
4.52995 46.6286
4.5746 48.5012
4.61925 50.8274
4.6639 52.409
4.70855 55.2533
4.75322 58.0441
4.79788 60.6678
4.84253 63.7971
4.88719 67.6674
4.93184 71.6461
4.97652 76.9317
5.02118 83.2983
5.06583 89.1489
5.11049 98.0144
5.15515 117.785
5.19981 231.869
5.24449 2478.06
5.28916 13506.3
5.33382 3287.17
5.37848 215.782
5.42315 124.356
5.46783 108.067
5.5125 100.534
5.55716 97.0776
5.60183 93.2079
5.6465 91.098
5.69117 88.9377
5.73586 87.6399
5.78053 87.0363
5.8252 86.0814
5.86988 86.7715
5.91455 88.9337
5.95924 94.6977
6.00392 162.948
6.0486 887.585
6.09328 4566.7
6.13795 3563.95
6.18263 239.086
6.22733 87.3877
6.27201 75.9516
6.3167 72.7465
6.36138 68.4713
6.40606 64.6441
6.45075 63.6598
6.49545 61.6839
6.54014 60.2404
6.58483 58.942
6.62952 57.8264
6.67421 58.47
6.71892 63.9941
6.76361 56.7512
6.8083 54.9511
6.853 53.8248
6.89769 53.4459
6.94239 53.2775
6.98711 52.4733
7.03181 52.431
7.07651 52.0107
7.12121 51.7154
7.16591 51.7366
7.21063 51.1968
7.25533 51.9109
7.30004 62.1239
7.34475 56.2879
7.38945 51.9542
7.43416 51.0401
7.47889 51.3314
7.5236 59.5215
7.56831 76.0878
7.61303 57.3359
7.65774 52.6425
7.70247 52.8013
7.74719 53.2016
7.79191 53.8393
7.83663 53.8007
7.88135 54.5229
7.92607 55.8987
7.97081 56.6868
8.01553 57.6999
8.06026 58.9668
8.10498 59.9204
8.14971 62.1924
8.19446 64.0472
8.23919 66.0309
8.28392 68.1962
8.32865 70.1875
8.37339 73.7537
8.41812 77.7158
8.46288 86.3329
8.50761 127.954
8.55235 366.494
8.59709 1074.36
8.64183 2253.71
8.68658 1091.4
8.73134 175.423
8.77609 94.8446
8.82083 88.1432
8.86558 85.866
8.91033 83.0451
8.9551 82.1948
8.99985 81.1103
9.04461 80.4692
9.08936 79.5395
9.13412 79.2101
9.17888 79.6836
9.22365 92.572
9.26841 116.915
9.31318 90.3571
9.35794 80.1372
9.4027 79.7124
9.44749 80.453
9.49226 81.0828
9.53703 81.7799
9.5818 83.1926
9.62657 84.1896
9.67134 86.2594
9.71614 87.5558
9.76091 89.4015
9.80569 91.4897
9.85047 93.893
9.89525 98.5048
9.94005 106.416
9.98484 146.485
10.0296 344.129
10.0744 769.216
10.1192 1751.97
10.164 1670.98
10.2088 439.196
10.2536 125.038
10.2984 103.052
10.3432 100.513
10.388 97.7258
10.4328 107.293
10.4776 159.652
10.5224 267.178
10.5672 505.214
10.612 555.326
10.6568 226.43
10.7017 105.11
10.7465 86.5551
10.7913 80.0276
10.8361 77.9131
10.8809 75.545
10.9257 73.4256
10.9706 72.2838
11.0154 70.727
11.0602 69.1144
11.105 67.9014
11.1499 66.8197
11.1947 66.9231
11.2395 65.866
11.2844 64.8115
11.3292 63.8409
11.374 62.8361
11.4189 62.5235
11.4637 61.7179
11.5086 61.0855
11.5534 61.1153
11.5983 60.7476
11.6431 60.5526
11.688 60.0422
11.7328 59.839
11.7777 59.8254
11.8225 59.4539
11.8674 59.8498
11.9122 62.3079
11.9571 69.1878
12.002 67.2121
12.0468 64.3228
12.0917 76.7431
12.1366 98.274
12.1814 146.958
12.2263 206.395
12.2712 178.488
12.3161 98.2421
12.3609 64.351
12.4058 60.9361
12.4507 61.1736
12.4956 61.3665
12.5405 61.4286
12.5853 61.8555
12.6302 62.735
12.6751 63.9115
12.72 63.8048
12.7649 64.3199
12.8098 65.0297
12.8547 66.2539
12.8996 67.9835
12.9445 69.0684
12.9894 71.0171
13.0343 72.5292
13.0792 76.5741
13.1242 82.2098
13.1691 107.197
13.214 146.47
13.2589 226.839
13.3038 363.291
13.3487 441.41
13.3937 279.58
13.4386 126.935
13.4835 98.8351
13.5285 119.297
13.5734 155.364
13.6183 235.719
13.6633 353.808
13.7082 361.334
13.7531 205.552
13.7981 100.308
13.843 79.2595
13.888 76.8122
13.9329 74.3801
13.9779 73.4229
14.0228 71.719
14.0678 70.594
14.1127 71.8441
14.1577 75.7842
14.2027 74.0262
14.2476 68.8444
14.2926 67.467
14.3376 67.0305
14.3825 66.7065
14.4275 66.0871
14.4725 66.0079
14.5175 66.1954
14.5624 65.9897
14.6074 66.5491
14.6524 67.001
14.6974 67.5781
14.7424 68.2268
14.7874 74.4781
14.8324 88.1669
14.8774 109.153
14.9224 147.271
14.9674 207.978
15.0124 227.522
15.0574 161.189
15.1024 93.6135
15.1474 70.8657
15.1924 67.6569
15.2374 66.5306
15.2824 65.5174
15.3274 64.6336
15.3725 64.1858
15.4175 63.9406
15.4625 63.4416
15.5076 63.1507
15.5526 63.4229
15.5976 63.3153
15.6426 63.8251
15.6877 68.4156
15.7327 79.0182
15.7778 93.7516
15.8228 121.54
15.8679 168.117
15.9129 200.525
15.958 166.864
16.003 102.641
16.0481 69.1043
16.0931 63.1283
16.1382 60.0391
16.1833 58.283
16.2283 56.7913
16.2734 56.2265
16.3185 55.4616
16.3636 54.9551
16.4086 54.277
16.4537 53.8135
16.4988 53.3617
16.5439 53.3809
16.589 52.8991
16.6341 52.8668
16.6792 52.5723
16.7243 52.762
16.7694 52.701
16.8145 52.4036
16.8596 52.8057
16.9047 53.5724
16.9498 54.2246
16.9949 53.8697
17.04 53.6784
17.0851 54.713
17.1302 57.2467
17.1754 59.8256
17.2205 64.6424
17.2656 72.1588
17.3108 81.4818
17.3559 82.6351
17.401 71.6219
17.4462 61.4626
17.4913 57.409
17.5365 57.1072
17.5815 57.2022
17.6268 57.5875
17.6718 57.978
17.7171 58.6509
17.7622 59.8343
17.8074 60.6451
17.8525 61.7957
17.8977 66.1305
17.9428 72.94
17.9881 81.2371
18.0331 96.9887
18.0784 120.617
18.1237 141.838
18.1688 136.488
18.214 108.416
18.2591 87.9455
18.3044 88.479
18.3495 98.9933
18.3948 106.957
18.4399 97.8333
18.4852 79.1724
18.5303 65.5804
18.5756 61.241
18.6207 59.9821
18.666 58.7843
18.7112 57.8538
18.7565 57.1932
18.8016 56.9067
18.8469 56.188
18.892 55.7474
18.9374 55.356
18.9825 55.1588
19.0278 54.942
19.073 54.9551
19.1183 55.1448
19.1635 56.0875
19.2088 57.8246
19.254 60.4176
19.2993 65.4566
19.3447 71.9989
19.3898 76.1175
19.4352 72.2779
19.4804 63.1038
19.5257 55.9978
19.5709 53.028
19.6163 52.186
19.6615 52.3022
19.7068 51.7546
19.752 51.7652
19.7974 51.8346
19.8426 52.4531
19.888 53.3965
19.9332 54.9049
19.9786 57.2422
20.0238 60.7503
20.0692 66.5429
20.1144 70.1912
20.1598 68.908
20.205 63.7422
20.2504 61.6192
20.2957 63.1019
20.3411 65.5
20.3863 63.8555
20.4318 58.1109
20.477 52.7503
20.5224 49.8046
20.5677 49.0928
20.6131 48.7437
20.6586 48.2251
20.7038 48.0736
20.7493 48.0508
20.7945 48.1276
20.84 47.6681
20.8853 47.1827
20.9307 47.1925
20.976 47.2558
21.0215 47.2128
21.0668 47.5831
21.1122 47.9733
21.1575 48.6615
21.203 49.4498
21.2483 50.3573
21.2938 50.4161
21.3391 48.9452
21.3846 47.6881
21.4299 47.0382
21.4754 47.1166
21.5207 47.4309
21.5662 47.4204
21.6116 47.7353
21.6571 48.7205
21.7024 49.8807
21.7479 51.7058
21.7933 54.0395
21.8388 57.9906
21.8843 62.6783
21.9297 65.1759
21.9752 63.7946
22.0206 59.7213
22.0661 56.1632
22.1115 55.8581
22.157 55.7014
22.2024 54.1475
22.248 50.9666
22.2933 48.9824
22.3389 47.8998
22.3843 47.6467
22.4299 47.3043
22.4753 47.4955
22.5208 47.4023
22.5662 47.2232
22.6118 47.4617
22.6572 47.5909
22.7028 48.2551
22.7483 48.7889
22.7939 49.6829
22.8393 50.9473
22.8849 53.1562
22.9303 55.4279
22.9759 57.7259
23.0214 57.3481
23.067 54.5584
23.1126 50.8949
23.1581 48.4276
23.2037 47.5937
23.2492 47.6945
23.2948 47.7983
23.3403 48.2943
23.3859 49.3359
23.4314 50.231
23.477 51.9716
23.5225 54.4406
23.5682 57.1245
23.6137 58.3192
23.6593 56.3023
23.7048 51.9435
23.7505 47.8866
23.796 45.9524
23.8417 45.0993
23.8872 44.4746
23.9329 44.1334
23.9784 43.9053
24.0241 43.6206
24.0697 43.4969
24.1154 43.1567
24.1609 42.9303
24.2066 42.7574
24.2522 42.4554
24.2979 42.2976
24.3434 42.2969
24.3892 41.9588
24.4349 42.0104
24.4805 42.0486
24.5262 42.1416
24.5718 41.8968
24.6175 42.1122
24.6631 41.9135
24.7089 41.5144
24.7545 41.3761
24.8002 41.1182
24.8458 41.2567
24.8916 41.0154
24.9372 41.1491
24.983 41.5502
25.0286 42.0364
25.0744 42.5223
25.12 43.0354
25.1658 43.8583
25.2114 44.2063
25.2572 44.202
25.3029 44.3215
25.3487 44.6017
25.3943 44.2313
25.4402 43.1491
25.4858 41.8901
25.5316 40.752
25.5773 39.9774
25.6231 40.0948
25.669 39.5937
25.7147 39.6067
25.7605 39.5496
25.8062 39.5506
25.8521 39.7308
25.8977 39.7369
25.9436 39.912
25.9893 40.0852
26.0352 40.7148
26.0809 40.8605
26.1268 41.2082
26.1725 40.9472
26.2184 40.205
26.2641 39.5637
26.31 39.2222
26.3557 39.332
26.4017 39.2323
26.4474 39.6046
26.4933 39.9012
26.5391 40.3976
26.585 41.0594
26.6308 41.6555
26.6767 41.7477
26.7225 41.7126
26.7684 41.0505
26.8142 40.3654
26.8601 40.0262
26.9059 39.4922
26.9519 38.9596
26.9979 38.5717
27.0437 38.2121
27.0896 38.0419
27.1354 37.9868
27.1814 37.8164
27.2272 37.7273
27.2732 37.8841
27.3191 37.6351
27.3651 37.7132
27.4109 37.579
27.4569 37.9224
27.5027 37.8421
27.5488 38.0254
27.5946 37.809
27.6407 37.512
27.6865 37.4648
27.7326 37.2122
27.7784 37.2827
27.8245 37.0984
27.8703 37.289
27.9164 37.6875
27.9623 37.8242
28.0084 38.3076
28.0543 38.8296
28.1003 38.6611
28.1462 38.516
28.1923 38.1826
28.2384 37.6528
28.2843 37.1905
28.3304 36.6591
28.3764 36.1919
28.4225 35.802
28.4684 35.6014
28.5145 35.3068
28.5605 35.2402
28.6066 35.0252
28.6526 35.07
28.6987 34.9748
28.7447 34.8419
28.7908 34.6238
28.8368 34.7801
28.8829 34.6609
28.9289 34.7303
28.9751 34.4845
29.0211 34.3998
29.0673 34.1057
29.1133 33.7992
29.1595 33.8504
29.2055 33.6609
29.2517 33.6871
29.2977 33.6403
29.3439 33.712
29.3899 33.645
29.4361 33.6347
29.4824 33.353
29.5284 33.2507
29.5746 32.7866
29.6207 32.4968
29.6669 32.4219
29.713 32.2875
29.7593 32.2647
29.8053 32.207
29.8516 32.0825
29.8977 31.9843
29.9439 32.0075
29.99 31.9164
30.0363 31.8888
30.0824 31.8518
30.1287 31.6882
30.1748 31.8492
30.2211 31.861
30.2673 31.5818
30.3136 31.743
30.3597 31.6629
30.406 31.5965
30.4522 31.4904
30.4985 31.3458
30.5447 31.5426
30.591 31.599
30.6372 31.6041
30.6835 31.6769
30.7297 31.7982
30.7761 31.7127
30.8224 31.5169
30.8686 31.3411
30.915 31.16
30.9612 30.9986
31.0076 30.7191
31.0538 30.5627
31.1002 30.607
31.1464 30.3973
31.1928 30.4867
31.2391 30.5112
31.2855 30.4271
31.3317 30.3614
31.3781 30.3479
31.4244 30.4323
31.4708 30.3489
31.5171 30.243
31.5636 30.2324
31.6098 30.0835
31.6563 29.8783
31.7026 29.8156
31.7491 29.6846
31.7953 29.6651
31.8418 29.7535
31.8881 29.7093
31.9346 29.7519
31.9809 29.6175
32.0275 29.4579
32.074 29.4321
32.1203 29.1986
32.1668 29.0438
32.2132 28.77
32.2597 28.7247
32.306 28.7956
32.3526 28.5065
32.399 28.3896
32.4455 28.2677
32.4919 28.1816
32.5385 28.1387
32.5848 27.9741
32.6314 27.9563
32.6778 27.8898
32.7244 27.7528
32.7708 27.6159
32.8174 27.777
32.8638 27.5508
32.9104 27.6418
32.9569 27.487
33.0035 27.392
33.0499 27.3668
33.0966 27.2749
33.143 27.3468
33.1897 27.252
33.2361 27.1535
33.2828 27.0855
33.3293 26.9573
33.3759 26.9883
33.4226 26.8132
33.4691 26.6475
33.5158 26.5683
33.5623 26.461
33.609 26.2167
33.6555 26.2145
33.7022 26.1302
33.7487 25.9848
33.7954 25.9475
33.842 25.9539
33.8887 25.8679
33.9353 25.7973
33.982 25.5964
34.0286 25.6161
34.0753 25.485
34.1219 25.5303
34.1687 25.3851
34.2152 25.4072
34.262 25.1662
34.3086 25.1385
34.3554 25.098
34.402 24.9632
34.4488 24.8218
34.4954 24.7994
34.5422 24.7329
34.5889 24.5556
34.6357 24.5374
34.6825 24.4572
34.7292 24.3829
34.776 24.307
34.8227 24.2447
34.8695 24.2034
34.9162 24.1485
34.9631 24.0841
35.0098 24.1056
35.0566 23.9075
35.1033 23.8982
35.1502 23.8918
35.1969 23.7959
35.2438 23.779
35.2906 23.6624
35.3375 23.6402
35.3842 23.6214
35.4311 23.5744
35.4779 23.5252
35.5248 23.4912
35.5716 23.3606
35.6185 23.2506
35.6653 23.2153
35.7123 23.162
35.759 23.0586
35.806 22.9346
35.8528 22.8825
35.8998 22.7859
35.9468 22.7406
35.9936 22.6833
36.0406 22.575
36.0874 22.6603
36.1345 22.5937
36.1813 22.3624
36.2283 22.3249
36.2752 22.2426
36.3222 22.2071
36.3691 22.1694
36.4161 22.0388
36.463 22.0732
36.5101 22.0601
36.557 22.0403
36.6041 21.8312
36.651 21.8371
36.6981 21.7666
36.745 21.6084
36.7921 21.6088
36.839 21.4833
36.8861 21.484
36.9331 21.4003
36.9802 21.2759
37.0272 21.2187
37.0743 21.1773
37.1213 21.1182
37.1684 21.1177
37.2154 20.9998
37.2626 20.8727
37.3098 20.8576
37.3568 20.7809
37.404 20.6696
37.451 20.5744
37.4982 20.5735
37.5452 20.468
37.5924 20.3984
37.6395 20.4751
37.6867 20.3469
37.7337 20.2518
37.781 20.215
37.8281 20.11
37.8753 20.0462
37.9224 19.9228
37.9697 19.9222
38.0168 19.8704
38.064 19.7853
38.1111 19.7367
38.1584 19.7254
38.2056 19.5976
38.2529 19.5395
38.3 19.547
38.3473 19.4781
38.3945 19.3135
38.4418 19.2615
38.489 19.2492
38.5363 19.1995
38.5837 19.1294
38.6309 19.039
38.6782 19.0027
38.7254 18.9765
38.7728 18.8892
38.82 18.83
38.8674 18.6901
38.9146 18.6486
38.9621 18.5746
39.0093 18.577
39.0567 18.5131
39.104 18.4469
39.1514 18.3666
39.1987 18.3261
39.2461 18.2569
39.2934 18.2431
39.3409 18.1882
39.3882 18.0468
39.4356 18.0098
39.483 17.9596
39.5304 17.8927
39.5778 17.895
39.6253 17.8043
39.6726 17.7766
39.7201 17.7204
39.7675 17.6505
39.815 17.642
39.8624 17.5188
39.9099 17.5652
39.9575 17.4153
40.0049 17.4081
40.0525 17.3013
40.0999 17.3169
40.1474 17.1798
40.1949 17.1208
40.2425 17.0845
40.2899 17.0772
40.3375 16.9682
40.385 16.997
40.4326 16.8807
40.48 16.8072
40.5277 16.8016
40.5752 16.7495
40.6228 16.7111
40.6703 16.5732
40.718 16.5528
40.7655 16.4905
40.8132 16.492
40.8607 16.4999
40.9084 16.3746
40.9559 16.327
41.0036 16.2875
41.0512 16.2788
41.0989 16.2059
41.1465 16.0889
41.1942 16.077
41.242 15.9536
41.2896 15.9486
41.3373 15.8473
41.3849 15.8193
41.4327 15.7963
41.4803 15.7812
41.5281 15.6512
41.5758 15.6052
41.6236 15.5083
41.6712 15.5249
41.7191 15.4555
41.7667 15.441
41.8146 15.3875
41.8622 15.2962
41.9101 15.2808
41.9578 15.1805
42.0057 15.1712
42.0534 15.1272
42.1013 15.0933
42.149 15.0052
42.1969 14.9469
42.2446 14.9271
42.2925 14.8357
42.3403 14.7752
42.3882 14.7869
42.436 14.67
42.4839 14.6713
42.5319 14.6202
42.5797 14.5675
42.6277 14.4889
42.6755 14.4146
42.7235 14.443
42.7713 14.3571
42.8193 14.3221
42.8671 14.276
42.9152 14.2248
42.963 14.1659
43.0111 14.0826
43.0589 14.1216
43.107 13.9801
43.1549 13.9638
43.2029 13.9295
43.2508 13.8676
43.2989 13.8252
43.3468 13.7502
43.3949 13.7168
43.4429 13.6553
43.491 13.6148
43.5389 13.5977
43.5871 13.575
43.635 13.4737
43.6832 13.4638
43.7312 13.3738
43.7793 13.3464
43.8273 13.3218
43.8755 13.2914
43.9237 13.2364
43.9717 13.1583
44.0199 13.122
44.068 13.1108
44.1162 12.9968
44.1642 12.9937
44.2125 12.972
44.2606 12.8616
44.3088 12.8873
44.3569 12.8005
44.4052 12.7915
44.4533 12.724
44.5016 12.6744
44.5497 12.6231
44.598 12.618
44.6461 12.5163
44.6945 12.5253
44.7426 12.5196
44.791 12.4069
44.8391 12.3685
44.8875 12.3426
44.9357 12.2833
44.984 12.2711
45.0322 12.1921
45.0806 12.1508
45.1288 12.0687
45.1773 12.0696
45.2257 12.0131
45.2739 11.9768
45.3224 11.9201
45.3706 11.9612
45.4191 11.8518
45.4673 11.8061
45.5158 11.8088
45.5641 11.7043
45.6126 11.7133
45.6609 11.6329
45.7094 11.5836
45.7577 11.5746
45.8063 11.4801
45.8546 11.459
45.9031 11.4881
45.9515 11.439
46.0001 11.3548
46.0484 11.3086
46.097 11.3324
46.1454 11.2456
46.194 11.2256
46.2424 11.1542
46.291 11.0916
46.3395 11.0753
46.3881 11.025
46.4365 11.0097
46.4852 10.9507
46.5337 10.904
46.5823 10.8921
46.631 10.8774
46.6795 10.7804
46.7282 10.8145
46.7767 10.7413
46.8254 10.623
46.8739 10.6218
46.9226 10.6015
46.9712 10.5784
47.0199 10.4981
47.0685 10.4458
47.1173 10.4643
47.1658 10.3798
47.2146 10.3697
47.2632 10.2964
47.312 10.2841
47.3606 10.2627
47.4095 10.1797
47.4581 10.185
47.5069 10.1487
47.5556 10.0986
47.6044 10.079
47.6531 9.99193
47.702 9.9554
47.7507 9.95918
47.7996 9.89384
47.8483 9.89472
47.8972 9.88346
47.9461 9.8109
47.9948 9.82191
48.0438 9.75206
48.0925 9.70756
48.1415 9.69256
48.1902 9.65309
48.2392 9.61681
48.288 9.60259
48.337 9.55964
48.3858 9.51336
48.4348 9.45147
48.4837 9.44338
48.5327 9.37827
48.5815 9.35164
48.6306 9.34755
48.6795 9.27054
48.7285 9.22287
48.7774 9.26
48.8265 9.20574
48.8754 9.12349
48.9245 9.13891
48.9734 9.093
49.0226 9.05755
49.0715 8.97366
49.1206 8.97681
49.1696 8.97831
49.2188 8.92917
49.2679 8.87308
49.3169 8.80455
49.3661 8.77505
49.4151 8.80794
49.4643 8.75048
49.5134 8.70306
49.5626 8.64971
49.6117 8.627
49.6609 8.60432
49.71 8.58242
49.7592 8.53184
49.8083 8.47798
49.8576 8.52635
49.9067 8.42302
49.956 8.43122
50.0052 8.34719
50.0545 8.34568
50.1036 8.31522
50.153 8.27934
50.2022 8.24691
50.2515 8.19971
50.3007 8.1679
50.3501 8.14981
50.3993 8.15032
50.4487 8.08477
50.498 8.09329
50.5474 7.98553
50.5966 7.99036
50.6461 7.96611
50.6955 7.96889
50.7448 7.90927
50.7943 7.88949
50.8436 7.8479
50.8931 7.82735
50.9424 7.81295
50.9919 7.77431
51.0413 7.7351
51.0908 7.70157
51.1402 7.65913
51.1897 7.6241
51.2391 7.59772
51.2887 7.56809
51.3381 7.53761
51.3877 7.48399
51.4371 7.4716
51.4867 7.4277
51.5362 7.44431
51.5858 7.42675
51.6353 7.3564
51.6849 7.30001
51.7344 7.29484
51.7841 7.27632
51.8336 7.25183
51.8833 7.21285
51.9328 7.15516
51.9826 7.14635
52.0323 7.10485
52.0818 7.0972
52.1316 7.05251
52.1812 6.99324
52.231 6.99223
52.2806 6.95354
52.3304 6.95366
52.38 6.90703
52.4298 6.89505
52.4794 6.81441
52.5293 6.80958
52.5789 6.81723
52.6288 6.79127
52.6785 6.73076
52.7284 6.69404
52.7781 6.68236
52.828 6.65633
52.8777 6.62097
52.9276 6.57701
52.9774 6.59139
53.0273 6.592
53.0771 6.49772
53.1271 6.52313
53.1769 6.46798
53.2269 6.4458
53.2767 6.39107
53.3267 6.39994
53.3765 6.33414
53.4266 6.31199
53.4766 6.32495
53.5265 6.2697
53.5765 6.24857
53.6264 6.2101
53.6765 6.18678
53.7264 6.14981
53.7765 6.13433
53.8265 6.08703
53.8766 6.06979
53.9266 6.07968
53.9767 6.0122
54.0267 6.01845
54.0769 5.98789
54.1269 5.93745
54.1771 5.97968
54.2271 5.8854
54.2773 5.85835
54.3274 5.81785
54.3776 5.81762
54.4277 5.79104
54.478 5.79309
54.528 5.70458
54.5783 5.67179
54.6285 5.68043
54.6788 5.58548
54.7289 5.47873
54.7792 5.48797
54.8296 5.46736
54.8798 5.42203
54.9301 5.41979
54.9803 5.37599
55.0307 5.35958
55.0809 5.23269
55.1314 5.26506
55.1816 5.18187
55.232 5.13073
55.2823 5.14579
55.3328 5.05904
55.383 5.02827
55.4335 5.01125
55.4838 4.96744
55.5344 4.87931
55.5847 4.86767
55.6352 4.81373
55.6856 4.78372
55.7361 4.73023