File: XRD/Ni3Fe_FD0711.xy
TT I
1.27165 7.13093
1.31627 7.1236
1.36089 6.15219
1.40551 5.98913
1.45013 6.36702
1.49476 5.79382
1.53938 5.89817
1.584 5.26212
1.62863 5.65014
1.67325 5.34318
1.71787 4.59719
1.7625 4.68955
1.80712 4.9823
1.85174 4.96305
1.89636 4.73221
1.94099 4.62991
1.98562 4.93886
2.03025 4.33442
2.07487 4.65321
2.11949 5.08223
2.16411 4.48069
2.20874 8.76145
2.25338 10.5581
2.298 5.41682
2.34263 5.41503
2.38725 5.86402
2.43188 6.46388
2.4765 6.9756
2.52115 6.95544
2.56577 7.65502
2.6104 7.95195
2.65503 8.28946
2.69965 8.44843
2.7443 8.59197
2.78893 7.8269
2.83356 8.62288
2.87818 8.72108
2.92281 9.09822
2.96744 8.90618
3.01209 10.1384
3.05672 11.0185
3.10135 12.1159
3.14599 12.31
3.19062 14.0623
3.23527 15.6079
3.2799 15.54
3.32454 16.8203
3.36917 17.4363
3.4138 18.517
3.45844 19.0532
3.50309 20.2865
3.54773 21.7795
3.59237 22.6597
3.637 48.9288
3.68164 36.1752
3.7263 25.4327
3.77094 25.7347
3.81558 26.2337
3.86022 27.2361
3.90486 28.5021
3.9495 29.4516
3.99416 30.5992
4.0388 31.6901
4.08344 33.2379
4.12809 33.8369
4.17273 35.614
4.21738 39.1959
4.26204 117.101
4.30669 101.733
4.35133 44.2724
4.39598 43.5712
4.44063 48.39
4.4853 53.5665
4.52995 56.6624
4.5746 57.1344
4.61925 53.3033
4.6639 55.5478
4.70855 57.8729
4.75322 61.9389
4.79788 68.2084
4.84253 68.6389
4.88719 75.5231
4.93184 76.8775
4.97652 81.4331
5.02118 87.9606
5.06583 94.9717
5.11049 107.433
5.15515 156.864
5.19981 431.725
5.24449 3056.01
5.28916 12617.4
5.33382 2643.22
5.37848 198.357
5.42315 131.528
5.46783 119.933
5.5125 112.334
5.55716 101.96
5.60183 98.2036
5.6465 96.8589
5.69117 94.4136
5.73586 93.0871
5.78053 98.421
5.8252 98.253
5.86988 101.197
5.91455 96.0284
5.95924 106.181
6.00392 256.954
6.0486 1038.59
6.09328 4612.76
6.13795 3094.37
6.18263 220.954
6.22733 90.8295
6.27201 80.6951
6.3167 83.9036
6.36138 74.1375
6.40606 69.8535
6.45075 69.551
6.49545 65.2517
6.54014 63.3569
6.58483 62.7033
6.62952 62.9642
6.67421 72.6553
6.71892 89.0915
6.76361 61.8086
6.8083 59.2379
6.853 59.7294
6.89769 56.2577
6.94239 56.1134
6.98711 55.2205
7.03181 55.7089
7.07651 54.659
7.12121 54.3646
7.16591 56.0642
7.21063 55.1636
7.25533 60.0573
7.30004 97.4319
7.34475 67.3981
7.38945 54.5951
7.43416 53.5066
7.47889 53.4156
7.5236 53.9875
7.56831 55.0073
7.61303 55.5073
7.65774 56.005
7.70247 56.5958
7.74719 56.2223
7.79191 56.6801
7.83663 57.0235
7.88135 57.4669
7.92607 58.3368
7.97081 59.7584
8.01553 60.9241
8.06026 62.3979
8.10498 64.1021
8.14971 70.7128
8.19446 70.8585
8.23919 69.2776
8.28392 72.0745
8.32865 74.3205
8.37339 78.795
8.41812 84.1551
8.46288 103.884
8.50761 188.903
8.55235 410.831
8.59709 1250.25
8.64183 2164.89
8.68658 850.054
8.73134 148.509
8.77609 98.1014
8.82083 92.2503
8.86558 92.2484
8.91033 92.1206
8.9551 89.6231
8.99985 85.0877
9.04461 84.1279
9.08936 83.8679
9.13412 83.2138
9.17888 82.1764
9.22365 82.2524
9.26841 81.9768
9.31318 84.5972
9.35794 86.7005
9.4027 85.8247
9.44749 85.1896
9.49226 84.6404
9.53703 86.0984
9.5818 89.2354
9.62657 94.4086
9.67134 95.1571
9.71614 92.7225
9.76091 95.0991
9.80569 99.8467
9.85047 101.638
9.89525 112.374
9.94005 128.831
9.98484 199.778
10.0296 365.688
10.0744 850.952
10.1192 1806.99
10.164 1540.72
10.2088 360.654
10.2536 121.899
10.2984 109.856
10.3432 108.121
10.388 106.12
10.4328 124.732
10.4776 166.029
10.5224 295.105
10.5672 517.16
10.612 491.436
10.6568 191.746
10.7017 93.9161
10.7465 86.2004
10.7913 82.6534
10.8361 80.5821
10.8809 78.723
10.9257 77.6828
10.9706 77.7036
11.0154 75.4279
11.0602 72.502
11.105 71.3253
11.1499 71.877
11.1947 73.4881
11.2395 70.0672
11.2844 68.1677
11.3292 66.8753
11.374 65.7544
11.4189 65.4107
11.4637 64.7327
11.5086 64.3963
11.5534 65.4198
11.5983 64.1993
11.6431 63.1692
11.688 62.5388
11.7328 62.9396
11.7777 62.5514
11.8225 62.426
11.8674 62.1351
11.9122 62.6744
11.9571 62.9922
12.002 64.4268
12.0468 69.4227
12.0917 79.669
12.1366 105.337
12.1814 155.033
12.2263 207.692
12.2712 156.662
12.3161 87.3642
12.3609 66.6269
12.4058 63.8175
12.4507 64.0124
12.4956 64.4741
12.5405 65.0027
12.5853 65.0206
12.6302 67.8257
12.6751 70.5506
12.72 68.2077
12.7649 67.6867
12.8098 68.1894
12.8547 69.8015
12.8996 71.4709
12.9445 72.8566
12.9894 74.7048
13.0343 76.1694
13.0792 80.7206
13.1242 94.3232
13.1691 114.516
13.214 153.551
13.2589 250.998
13.3038 380.571
13.3487 414.909
13.3937 246.392
13.4386 120.937
13.4835 108.579
13.5285 123.769
13.5734 165.946
13.6183 260.921
13.6633 360.633
13.7082 328.04
13.7531 173.588
13.7981 94.3715
13.843 81.4433
13.888 79.5472
13.9329 76.99
13.9779 75.7363
14.0228 74.3839
14.0678 73.008
14.1127 72.2495
14.1577 71.6698
14.2027 71.1292
14.2476 70.4044
14.2926 69.8906
14.3376 70.1112
14.3825 69.6644
14.4275 68.7037
14.4725 68.8344
14.5175 68.6326
14.5624 68.9407
14.6074 69.9103
14.6524 70.6286
14.6974 70.8815
14.7424 74.2597
14.7874 80.6195
14.8324 90.5393
14.8774 114.589
14.9224 159.992
14.9674 213.215
15.0124 215.636
15.0574 139.642
15.1024 86.4364
15.1474 71.5619
15.1924 69.8494
15.2374 69.427
15.2824 68.5729
15.3274 67.2994
15.3725 66.7324
15.4175 66.3287
15.4625 65.6034
15.5076 65.7226
15.5526 65.8392
15.5976 65.7608
15.6426 68.674
15.6877 73.9696
15.7327 81.047
15.7778 97.2268
15.8228 130.512
15.8679 174.648
15.9129 193.311
15.958 148.346
16.003 91.3118
16.0481 66.2053
16.0931 62.7542
16.1382 61.2804
16.1833 59.8909
16.2283 58.6264
16.2734 58.0038
16.3185 57.6645
16.3636 57.5813
16.4086 56.3657
16.4537 55.9297
16.4988 55.4078
16.5439 55.1063
16.589 55.062
16.6341 54.7253
16.6792 54.3688
16.7243 54.6031
16.7694 54.6591
16.8145 54.4879
16.8596 54.733
16.9047 55.4724
16.9498 55.7254
16.9949 55.3045
17.04 55.8929
17.0851 57.2386
17.1302 58.7373
17.1754 61.8438
17.2205 67.4113
17.2656 75.4476
17.3108 83.6896
17.3559 81.4676
17.401 69.5679
17.4462 61.5892
17.4913 59.1349
17.5365 59.0776
17.5815 59.1696
17.6268 59.4936
17.6718 60.1578
17.7171 60.539
17.7622 61.4116
17.8074 62.6507
17.8525 65.5115
17.8977 69.0037
17.9428 74.3195
17.9881 84.0884
18.0331 102.786
18.0784 125.954
18.1237 142.264
18.1688 130.425
18.214 101.156
18.2591 86.1651
18.3044 91.6924
18.3495 100.961
18.3948 105.926
18.4399 93.4223
18.4852 74.8667
18.5303 64.8054
18.5756 61.9456
18.6207 61.0229
18.666 60.2514
18.7112 59.7023
18.7565 58.9411
18.8016 58.4326
18.8469 58.1432
18.892 57.7257
18.9374 57.1414
18.9825 56.8949
19.0278 56.494
19.073 57.105
19.1183 57.2834
19.1635 57.6531
19.2088 59.2209
19.254 62.7096
19.2993 67.143
19.3447 73.241
19.3898 75.8919
19.4352 71.1062
19.4804 61.9792
19.5257 56.0325
19.5709 53.8688
19.6163 53.6942
19.6615 53.6279
19.7068 53.2551
19.752 53.3333
19.7974 53.8736
19.8426 54.3863
19.888 54.9387
19.9332 56.3182
19.9786 59.1531
20.0238 63.2433
20.0692 67.6647
20.1144 69.6852
20.1598 67.845
20.205 63.3006
20.2504 62.123
20.2957 64.0957
20.3411 65.7357
20.3863 63.0835
20.4318 57.2292
20.477 52.9253
20.5224 51.1011
20.5677 50.5235
20.6131 50.0902
20.6586 49.5934
20.7038 49.4448
20.7493 48.8394
20.7945 48.7537
20.84 48.8982
20.8853 48.5738
20.9307 48.4375
20.976 48.7441
21.0215 48.4595
21.0668 48.9546
21.1122 49.4848
21.1575 50.1482
21.203 50.7787
21.2483 51.3934
21.2938 51.3546
21.3391 49.7538
21.3846 48.7978
21.4299 48.3868
21.4754 48.4421
21.5207 48.5402
21.5662 48.9886
21.6116 49.4962
21.6571 50.0283
21.7024 50.8939
21.7479 52.9285
21.7933 55.9639
21.8388 59.5518
21.8843 63.3279
21.9297 64.9287
21.9752 62.7
22.0206 58.8383
22.0661 56.1501
22.1115 56.0746
22.157 55.7487
22.2024 53.8305
22.248 51.0092
22.2933 49.4924
22.3389 48.8386
22.3843 48.712
22.4299 48.4973
22.4753 48.5274
22.5208 48.5233
22.5662 48.422
22.6118 48.6719
22.6572 48.8567
22.7028 49.2694
22.7483 49.7064
22.7939 50.4561
22.8393 52.1323
22.8849 54.5494
22.9303 56.388
22.9759 57.8546
23.0214 56.9662
23.067 53.9061
23.1126 50.6442
23.1581 48.9902
23.2037 48.8079
23.2492 48.8664
23.2948 48.7454
23.3403 49.236
23.3859 49.7058
23.4314 51.1147
23.477 53.006
23.5225 55.2219
23.5682 57.2696
23.6137 57.661
23.6593 54.9529
23.7048 50.9158
23.7505 47.6139
23.796 46.3322
23.8417 45.8324
23.8872 45.3542
23.9329 45.2557
23.9784 44.6842
24.0241 44.479
24.0697 44.3534
24.1154 43.9514
24.1609 43.9457
24.2066 43.5908
24.2522 43.5516
24.2979 43.2118
24.3434 43.1854
24.3892 43.0237
24.4349 43.0753
24.4805 42.8456
24.5262 43.1416
24.5718 42.9234
24.6175 42.7023
24.6631 42.6199
24.7089 42.2691
24.7545 42.164
24.8002 42.0604
24.8458 42.1396
24.8916 42.0884
24.9372 42.1854
24.983 42.5222
25.0286 42.916
25.0744 43.3089
25.12 43.7291
25.1658 44.3788
25.2114 44.7565
25.2572 44.7817
25.3029 44.7012
25.3487 44.8051
25.3943 44.3377
25.4402 43.1284
25.4858 42.2047
25.5316 41.2224
25.5773 40.606
25.6231 40.8817
25.669 40.3498
25.7147 40.4703
25.7605 40.3746
25.8062 40.3797
25.8521 40.4762
25.8977 40.5398
25.9436 40.779
25.9893 40.8839
26.0352 41.4147
26.0809 41.4945
26.1268 41.5113
26.1725 41.1995
26.2184 40.7631
26.2641 40.0442
26.31 40.0155
26.3557 40.0451
26.4017 40.009
26.4474 40.369
26.4933 40.5416
26.5391 41.2133
26.585 41.6537
26.6308 42.0944
26.6767 42.1822
26.7225 41.7649
26.7684 41.2055
26.8142 40.6711
26.8601 40.3582
26.9059 39.9485
26.9519 39.3134
26.9979 39.1199
27.0437 38.8687
27.0896 38.6907
27.1354 38.7108
27.1814 38.4481
27.2272 38.3542
27.2732 38.5551
27.3191 38.4208
27.3651 38.4435
27.4109 38.2213
27.4569 38.418
27.5027 38.6055
27.5488 38.4751
27.5946 38.3423
27.6407 37.9599
27.6865 38.1061
27.7326 37.756
27.7784 37.8082
27.8245 37.6534
27.8703 37.8791
27.9164 38.33
27.9623 38.3832
28.0084 38.6697
28.0543 38.9883
28.1003 38.8382
28.1462 38.7415
28.1923 38.3527
28.2384 37.7861
28.2843 37.5434
28.3304 36.9317
28.3764 36.4819
28.4225 36.2271
28.4684 36.115
28.5145 35.7512
28.5605 35.8286
28.6066 35.6183
28.6526 35.4888
28.6987 35.5657
28.7447 35.4801
28.7908 35.3237
28.8368 35.4148
28.8829 35.3166
28.9289 35.2691
28.9751 34.9759
29.0211 34.8085
29.0673 34.4447
29.1133 34.3964
29.1595 34.307
29.2055 34.2209
29.2517 34.1956
29.2977 34.1784
29.3439 34.2146
29.3899 34.2003
29.4361 34.0269
29.4824 33.8743
29.5284 33.6241
29.5746 33.3263
29.6207 33.0413
29.6669 32.9351
29.713 32.8157
29.7593 32.8863
29.8053 32.8036
29.8516 32.7419
29.8977 32.7316
29.9439 32.5742
29.99 32.5205
30.0363 32.3698
30.0824 32.3765
30.1287 32.1727
30.1748 32.3836
30.2211 32.2734
30.2673 32.1041
30.3136 32.2979
30.3597 32.1712
30.406 32.1373
30.4522 32.0625
30.4985 31.9661
30.5447 32.1518
30.591 32.1831
30.6372 32.2075
30.6835 32.0871
30.7297 32.2044
30.7761 31.966
30.8224 31.9018
30.8686 31.7599
30.915 31.4543
30.9612 31.2507
31.0076 31.2308
31.0538 31.158
31.1002 31.0547
31.1464 30.895
31.1928 30.9102
31.2391 30.8936
31.2855 30.8208
31.3317 30.7473
31.3781 30.8945
31.4244 30.8344
31.4708 30.7587
31.5171 30.674
31.5636 30.6975
31.6098 30.3471
31.6563 30.2328
31.7026 30.188
31.7491 30.0978
31.7953 30.1209
31.8418 30.0209
31.8881 30.1447
31.9346 30.0128
31.9809 30.0206
32.0275 29.8355
32.074 29.7727
32.1203 29.5867
32.1668 29.46
32.2132 29.2622
32.2597 29.2027
32.306 29.0864
32.3526 28.8168
32.399 28.8463
32.4455 28.6687
32.4919 28.589
32.5385 28.5722
32.5848 28.4053
32.6314 28.3463
32.6778 28.361
32.7244 28.2054
32.7708 28.1632
32.8174 28.093
32.8638 27.9942
32.9104 27.9368
32.9569 27.9218
33.0035 27.7204
33.0499 27.7968
33.0966 27.8358
33.143 27.7034
33.1897 27.6247
33.2361 27.4964
33.2828 27.4138
33.3293 27.3153
33.3759 27.2929
33.4226 27.1895
33.4691 26.9938
33.5158 26.9065
33.5623 26.8522
33.609 26.627
33.6555 26.5444
33.7022 26.5095
33.7487 26.4706
33.7954 26.4088
33.842 26.2701
33.8887 26.1877
33.9353 26.2722
33.982 26.0563
34.0286 25.9888
34.0753 25.8793
34.1219 25.7763
34.1687 25.7754
34.2152 25.7024
34.262 25.5629
34.3086 25.4907
34.3554 25.485
34.402 25.2594
34.4488 25.2422
34.4954 25.1894
34.5422 25.1474
34.5889 24.9501
34.6357 24.9853
34.6825 24.845
34.7292 24.7839
34.776 24.6695
34.8227 24.6088
34.8695 24.5146
34.9162 24.59
34.9631 24.4574
35.0098 24.4632
35.0566 24.2874
35.1033 24.2155
35.1502 24.1161
35.1969 24.1705
35.2438 24.043
35.2906 24.0027
35.3375 23.9748
35.3842 23.9115
35.4311 23.947
35.4779 23.8973
35.5248 23.8016
35.5716 23.7679
35.6185 23.5728
35.6653 23.5391
35.7123 23.4033
35.759 23.3905
35.806 23.2885
35.8528 23.1812
35.8998 23.1911
35.9468 23.0374
35.9936 23.0301
36.0406 22.8926
36.0874 22.9517
36.1345 22.7871
36.1813 22.8454
36.2283 22.7418
36.2752 22.551
36.3222 22.5321
36.3691 22.5057
36.4161 22.357
36.463 22.3583
36.5101 22.3266
36.557 22.3168
36.6041 22.0903
36.651 22.1078
36.6981 22.067
36.745 21.9835
36.7921 21.9255
36.839 21.7915
36.8861 21.7079
36.9331 21.675
36.9802 21.6338
37.0272 21.5712
37.0743 21.4323
37.1213 21.46
37.1684 21.376
37.2154 21.2376
37.2626 21.1718
37.3098 21.1733
37.3568 21.0975
37.404 21.0388
37.451 20.9094
37.4982 20.8559
37.5452 20.7319
37.5924 20.7519
37.6395 20.7712
37.6867 20.6225
37.7337 20.5758
37.781 20.4999
37.8281 20.4368
37.8753 20.2855
37.9224 20.2417
37.9697 20.2158
38.0168 20.1733
38.064 20.0712
38.1111 20.077
38.1584 19.9448
38.2056 19.9721
38.2529 19.8684
38.3 19.7375
38.3473 19.725
38.3945 19.6017
38.4418 19.6152
38.489 19.4922
38.5363 19.4457
38.5837 19.3971
38.6309 19.37
38.6782 19.3134
38.7254 19.1828
38.7728 19.1064
38.82 19.0708
38.8674 19.0168
38.9146 19.0092
38.9621 18.8699
39.0093 18.8992
39.0567 18.8218
39.104 18.7436
39.1514 18.6276
39.1987 18.5861
39.2461 18.6158
39.2934 18.5474
39.3409 18.4141
39.3882 18.3997
39.4356 18.3354
39.483 18.2547
39.5304 18.2024
39.5778 18.1773
39.6253 18.0916
39.6726 17.9838
39.7201 18.0413
39.7675 17.9078
39.815 17.8742
39.8624 17.7502
39.9099 17.7717
39.9575 17.7094
40.0049 17.5913
40.0525 17.5764
40.0999 17.5203
40.1474 17.524
40.1949 17.436
40.2425 17.3195
40.2899 17.2811
40.3375 17.2157
40.385 17.1584
40.4326 17.116
40.48 17.0575
40.5277 17.066
40.5752 16.9687
40.6228 16.9637
40.6703 16.8887
40.718 16.7991
40.7655 16.7681
40.8132 16.7364
40.8607 16.6818
40.9084 16.608
40.9559 16.5493
41.0036 16.4742
41.0512 16.4717
41.0989 16.4161
41.1465 16.3478
41.1942 16.3198
41.242 16.2297
41.2896 16.1668
41.3373 16.0573
41.3849 16.0488
41.4327 15.9265
41.4803 15.8865
41.5281 15.8876
41.5758 15.7888
41.6236 15.7054
41.6712 15.7463
41.7191 15.6351
41.7667 15.6496
41.8146 15.5707
41.8622 15.5532
41.9101 15.4907
41.9578 15.4025
42.0057 15.3565
42.0534 15.2756
42.1013 15.2809
42.149 15.2197
42.1969 15.1488
42.2446 15.1225
42.2925 15.0768
42.3403 15.0236
42.3882 14.9731
42.436 14.9453
42.4839 14.8672
42.5319 14.868
42.5797 14.7654
42.6277 14.7106
42.6755 14.6913
42.7235 14.6284
42.7713 14.5884
42.8193 14.498
42.8671 14.4869
42.9152 14.441
42.963 14.354
43.0111 14.3141
43.0589 14.2777
43.107 14.2019
43.1549 14.179
43.2029 14.101
43.2508 14.1083
43.2989 13.9996
43.3468 13.9455
43.3949 13.926
43.4429 13.9311
43.491 13.8326
43.5389 13.8256
43.5871 13.763
43.635 13.712
43.6832 13.6863
43.7312 13.5785
43.7793 13.5516
43.8273 13.5238
43.8755 13.4544
43.9237 13.3872
43.9717 13.3699
44.0199 13.2933
44.068 13.2891
44.1162 13.204
44.1642 13.2099
44.2125 13.1699
44.2606 13.1593
44.3088 13.0037
44.3569 13.0127
44.4052 12.9747
44.4533 12.901
44.5016 12.8312
44.5497 12.8121
44.598 12.7755
44.6461 12.6992
44.6945 12.7237
44.7426 12.6384
44.791 12.5815
44.8391 12.5422
44.8875 12.52
44.9357 12.4619
44.984 12.4025
45.0322 12.3595
45.0806 12.3133
45.1288 12.2692
45.1773 12.236
45.2257 12.2196
45.2739 12.1262
45.3224 12.1122
45.3706 12.0762
45.4191 12.0628
45.4673 12.0038
45.5158 11.9412
45.5641 11.8281
45.6126 11.8797
45.6609 11.8011
45.7094 11.7415
45.7577 11.7336
45.8063 11.6543
45.8546 11.6266
45.9031 11.5951
45.9515 11.5558
46.0001 11.5265
46.0484 11.5107
46.097 11.47
46.1454 11.432
46.194 11.3715
46.2424 11.327
46.291 11.2727
46.3395 11.2434
46.3881 11.1827
46.4365 11.1672
46.4852 11.1207
46.5337 11.0948
46.5823 11.0405
46.631 10.9679
46.6795 10.9337
46.7282 10.9475
46.7767 10.8916
46.8254 10.8171
46.8739 10.7994
46.9226 10.7882
46.9712 10.7379
47.0199 10.6716
47.0685 10.6594
47.1173 10.5971
47.1658 10.5457
47.2146 10.4913
47.2632 10.4481
47.312 10.4322
47.3606 10.3715
47.4095 10.3465
47.4581 10.3351
47.5069 10.32
47.5556 10.2379
47.6044 10.198
47.6531 10.175
47.702 10.0876
47.7507 10.1022
47.7996 10.0237
47.8483 10.0482
47.8972 9.98848
47.9461 9.94416
47.9948 9.89614
48.0438 9.89341
48.0925 9.86768
48.1415 9.80173
48.1902 9.77699
48.2392 9.78578
48.288 9.7017
48.337 9.68335
48.3858 9.5885
48.4348 9.6143
48.4837 9.62467
48.5327 9.54555
48.5815 9.44181
48.6306 9.49148
48.6795 9.4195
48.7285 9.33437
48.7774 9.34403
48.8265 9.33613
48.8754 9.27579
48.9245 9.2695
48.9734 9.20379
49.0226 9.20819
49.0715 9.15736
49.1206 9.10634
49.1696 9.05589
49.2188 9.02128
49.2679 9.00159
49.3169 8.95706
49.3661 8.90824
49.4151 8.92411
49.4643 8.86886
49.5134 8.85257
49.5626 8.75981
49.6117 8.75757
49.6609 8.71021
49.71 8.65907
49.7592 8.65286
49.8083 8.60681
49.8576 8.61011
49.9067 8.5197
49.956 8.53895
50.0052 8.50945
50.0545 8.46995
50.1036 8.40908
50.153 8.41689
50.2022 8.37469
50.2515 8.31735
50.3007 8.28315
50.3501 8.28288
50.3993 8.26416
50.4487 8.22606
50.498 8.21621
50.5474 8.11893
50.5966 8.12798
50.6461 8.06075
50.6955 8.04385
50.7448 8.05363
50.7943 8.00168
50.8436 7.94083
50.8931 7.95789
50.9424 7.89923
50.9919 7.82933
51.0413 7.88916
51.0908 7.83945
51.1402 7.76263
51.1897 7.75957
51.2391 7.72554
51.2887 7.64138
51.3381 7.61377
51.3877 7.65305
51.4371 7.5981
51.4867 7.5517
51.5362 7.5036
51.5858 7.51072
51.6353 7.41421
51.6849 7.41985
51.7344 7.40933
51.7841 7.38822
51.8336 7.37217
51.8833 7.29905
51.9328 7.25736
51.9826 7.25834
52.0323 7.22654
52.0818 7.19484
52.1316 7.15366
52.1812 7.12302
52.231 7.12777
52.2806 7.07599
52.3304 7.0663
52.38 7.02042
52.4298 6.9906
52.4794 6.94586
52.5293 6.90417
52.5789 6.90233
52.6288 6.87063
52.6785 6.8266
52.7284 6.83729
52.7781 6.79385
52.828 6.76001
52.8777 6.74056
52.9276 6.67459
52.9774 6.67691
53.0273 6.61112
53.0771 6.62004
53.1271 6.55554
53.1769 6.54663
53.2269 6.5614
53.2767 6.51078
53.3267 6.45515
53.3765 6.44966
53.4266 6.4145
53.4766 6.42607
53.5265 6.35565
53.5765 6.31492
53.6264 6.27486
53.6765 6.3038
53.7264 6.21197
53.7765 6.18894
53.8265 6.20221
53.8766 6.15641
53.9266 6.11621
53.9767 6.12602
54.0267 6.07843
54.0769 6.05748
54.1269 6.05829
54.1771 5.96307
54.2271 6.00595
54.2773 5.95123
54.3274 5.94529
54.3776 5.87322
54.4277 5.91608
54.478 5.83568
54.528 5.7673
54.5783 5.79937
54.6285 5.73102
54.6788 5.66879
54.7289 5.62185
54.7792 5.60108
54.8296 5.53264
54.8798 5.52119
54.9301 5.47611
54.9803 5.41897
55.0307 5.39283
55.0809 5.37289
55.1314 5.34201
55.1816 5.28922
55.232 5.24804
55.2823 5.19074
55.3328 5.11714
55.383 5.07219
55.4335 5.06309
55.4838 4.96163
55.5344 4.94261
55.5847 4.93174
55.6352 4.91063
55.6856 4.82745
55.7361 4.81307