File: XRD/Ni3Fe_FD0137.xy
TT I
1.27165 8.0849
1.31627 6.70811
1.36089 7.14087
1.40551 6.39766
1.45013 6.49532
1.49476 6.70477
1.53938 6.47454
1.584 6.1962
1.62863 6.32508
1.67325 6.00454
1.71787 5.3778
1.7625 5.76318
1.80712 5.40736
1.85174 5.67084
1.89636 5.3245
1.94099 5.80192
1.98562 5.05855
2.03025 4.95458
2.07487 4.90229
2.11949 5.06771
2.16411 4.55989
2.20874 4.66875
2.25338 4.52073
2.298 4.54696
2.34263 4.64564
2.38725 4.19824
2.43188 4.0448
2.4765 4.73045
2.52115 4.54994
2.56577 4.66997
2.6104 5.51108
2.65503 4.90493
2.69965 5.85986
2.7443 6.1719
2.78893 6.45656
2.83356 7.36702
2.87818 8.23441
2.92281 8.93215
2.96744 9.87668
3.01209 10.4832
3.05672 11.1906
3.10135 12.4109
3.14599 13.4543
3.19062 14.0528
3.23527 14.8592
3.2799 15.8387
3.32454 16.4919
3.36917 17.7163
3.4138 18.983
3.45844 19.4424
3.50309 20.764
3.54773 20.9516
3.59237 21.7763
3.637 22.4751
3.68164 23.0779
3.7263 24.3529
3.77094 24.5865
3.81558 25.9773
3.86022 26.7453
3.90486 27.3715
3.9495 28.6729
3.99416 29.3509
4.0388 30.2332
4.08344 31.5238
4.12809 32.7716
4.17273 34.0416
4.21738 35.6055
4.26204 36.4606
4.30669 37.4783
4.35133 39.8203
4.39598 40.9195
4.44063 42.7572
4.4853 44.8074
4.52995 47.2046
4.5746 49.0445
4.61925 51.1393
4.6639 53.7338
4.70855 56.3661
4.75322 59.0211
4.79788 62.5399
4.84253 65.695
4.88719 70.11
4.93184 75.3604
4.97652 82.2329
5.02118 90.9491
5.06583 100.855
5.11049 117.995
5.15515 156.882
5.19981 569.165
5.24449 3781.34
5.28916 8021.14
5.33382 6384.83
5.37848 474.908
5.42315 165.52
5.46783 128.774
5.5125 114.574
5.55716 107.955
5.60183 101.531
5.6465 98.6327
5.69117 97.5345
5.73586 95.459
5.78053 94.847
5.8252 95.705
5.86988 98.4673
5.91455 105.683
5.95924 125.207
6.00392 295.197
6.0486 1393.09
6.09328 2640.05
6.13795 3965.27
6.18263 713.271
6.22733 124.745
6.27201 89.3309
6.3167 78.5488
6.36138 72.6605
6.40606 68.0904
6.45075 66.2544
6.49545 64.193
6.54014 62.1862
6.58483 60.3488
6.62952 59.5215
6.67421 58.1429
6.71892 57.4658
6.76361 56.528
6.8083 55.3488
6.853 54.6205
6.89769 53.9815
6.94239 53.8379
6.98711 53.1731
7.03181 52.8264
7.07651 52.7448
7.12121 52.5449
7.16591 52.1913
7.21063 51.7707
7.25533 51.6703
7.30004 51.386
7.34475 52.0313
7.38945 52.1325
7.43416 51.675
7.47889 51.8874
7.5236 56.258
7.56831 64.6682
7.61303 55.4589
7.65774 53.2739
7.70247 53.8635
7.74719 53.8384
7.79191 54.3815
7.83663 54.9877
7.88135 55.888
7.92607 56.8502
7.97081 58.1972
8.01553 58.7237
8.06026 60.4149
8.10498 61.8997
8.14971 63.3557
8.19446 65.0289
8.23919 67.5198
8.28392 70.7014
8.32865 73.1977
8.37339 78.0948
8.41812 83.5366
8.46288 95.7026
8.50761 175.717
8.55235 610.064
8.59709 865.492
8.64183 1434.42
8.68658 1658.68
8.73134 427.098
8.77609 117.337
8.82083 97.1793
8.86558 90.8372
8.91033 87.4392
8.9551 84.72
8.99985 83.4733
9.04461 82.4051
9.08936 81.8429
9.13412 81.1508
9.17888 81.0093
9.22365 87.3786
9.26841 99.3796
9.31318 87.4388
9.35794 81.8874
9.4027 81.5851
9.44749 82.5381
9.49226 82.8122
9.53703 84.3103
9.5818 85.7728
9.62657 86.5082
9.67134 88.4892
9.71614 90.3008
9.76091 92.4668
9.80569 95.0402
9.85047 98.3116
9.89525 103.544
9.94005 113.742
9.98484 188.331
10.0296 551.046
10.0744 723.201
10.1192 991.874
10.164 1635.3
10.2088 1002.23
10.2536 224.057
10.2984 116.504
10.3432 107.895
10.388 104.166
10.4328 121.498
10.4776 216.672
10.5224 258.301
10.5672 319.718
10.612 488.207
10.6568 384.196
10.7017 137.112
10.7465 90.7902
10.7913 83.5662
10.8361 80.4037
10.8809 77.7056
10.9257 75.3552
10.9706 73.9291
11.0154 72.2271
11.0602 71.0886
11.105 69.8042
11.1499 68.3546
11.1947 67.3768
11.2395 66.4714
11.2844 65.9913
11.3292 64.7626
11.374 64.0396
11.4189 63.7902
11.4637 62.8181
11.5086 62.4342
11.5534 61.983
11.5983 61.7731
11.6431 61.7751
11.688 61.1185
11.7328 60.9808
11.7777 60.8686
11.8225 60.8114
11.8674 60.9546
11.9122 62.3152
11.9571 66.3136
12.002 65.4378
12.0468 67.6659
12.0917 90.9283
12.1366 107.179
12.1814 114.759
12.2263 146.343
12.2712 190.858
12.3161 142.017
12.3609 75.8192
12.4058 63.7608
12.4507 63.1519
12.4956 62.8504
12.5405 62.6603
12.5853 63.3177
12.6302 63.6043
12.6751 64.2835
12.72 65.1483
12.7649 65.9177
12.8098 66.638
12.8547 67.6724
12.8996 69.3957
12.9445 70.6866
12.9894 72.9789
13.0343 74.5194
13.0792 78.727
13.1242 86.2359
13.1691 133.791
13.214 187.595
13.2589 201.269
13.3038 237.105
13.3487 339.032
13.3937 381.94
13.4386 218.032
13.4835 120.551
13.5285 154.948
13.5734 181.809
13.6183 187.735
13.6633 230.288
13.7082 321.954
13.7531 307.454
13.7981 159.414
13.843 88.3977
13.888 80.0994
13.9329 77.1869
13.9779 75.7974
14.0228 73.8471
14.0678 72.627
14.1127 72.4286
14.1577 74.2574
14.2027 72.8563
14.2476 70.2276
14.2926 69.0473
14.3376 68.4502
14.3825 68.2317
14.4275 68.0943
14.4725 67.7969
14.5175 68.0219
14.5624 67.8192
14.6074 68.2504
14.6524 68.626
14.6974 69.2256
14.7424 71.2507
14.7874 80.5141
14.8324 107.055
14.8774 120.447
14.9224 124.593
14.9674 144.126
15.0124 186.523
15.0574 203.961
15.1024 140.181
15.1474 82.2043
15.1924 71.099
15.2374 68.5948
15.2824 67.8121
15.3274 66.4073
15.3725 65.8864
15.4175 65.8766
15.4625 65.341
15.5076 65.0953
15.5526 65.0724
15.5976 65.2157
15.6426 66.3644
15.6877 73.3614
15.7327 95.3643
15.7778 106.918
15.8228 109.003
15.8679 121.127
15.9129 150.113
15.958 182.875
16.003 153.954
16.0481 89.4019
16.0931 66.2052
16.1382 61.5818
16.1833 59.8874
16.2283 58.6678
16.2734 57.5268
16.3185 57.2293
16.3636 56.4192
16.4086 55.6227
16.4537 55.4376
16.4988 54.6732
16.5439 54.5975
16.589 54.3717
16.6341 54.3563
16.6792 53.5556
16.7243 53.8418
16.7694 53.8021
16.8145 53.6511
16.8596 53.9869
16.9047 54.3442
16.9498 54.7275
16.9949 54.817
17.04 55.1029
17.0851 56.4245
17.1302 60.6538
17.1754 63.9893
17.2205 64.684
17.2656 66.2437
17.3108 71.3927
17.3559 78.2924
17.401 81.265
17.4462 71.516
17.4913 61.5304
17.5365 58.9451
17.5815 58.6734
17.6268 59.0231
17.6718 59.4079
17.7171 60.0201
17.7622 60.9874
17.8074 62.0114
17.8525 63.6566
17.8977 71.6764
17.9428 83.6125
17.9881 88.1511
18.0331 89.6598
18.0784 95.9673
18.1237 112.329
18.1688 138.534
18.214 142.247
18.2591 112.02
18.3044 87.6672
18.3495 85.2977
18.3948 93.4045
18.4399 102.385
18.4852 95.1806
18.5303 76.5881
18.5756 64.7162
18.6207 62.033
18.666 60.644
18.7112 59.725
18.7565 59.0503
18.8016 58.5585
18.8469 57.9119
18.892 57.6023
18.9374 56.9574
18.9825 56.725
19.0278 56.237
19.073 56.401
19.1183 56.8569
19.1635 59.2996
19.2088 61.6459
19.254 62.0058
19.2993 62.5205
19.3447 64.3607
19.3898 68.0465
19.4352 73.0727
19.4804 72.4393
19.5257 63.9538
19.5709 56.3269
19.6163 54.0273
19.6615 53.6346
19.7068 53.1275
19.752 53.0082
19.7974 53.3359
19.8426 54.4633
19.888 56.4922
19.9332 57.8206
19.9786 58.4749
20.0238 58.4854
20.0692 61.1238
20.1144 66.0774
20.1598 71.8332
20.205 70.5638
20.2504 64.8373
20.2957 60.701
20.3411 60.7962
20.3863 63.9826
20.4318 64.3611
20.477 59.2444
20.5224 53.2511
20.5677 50.987
20.6131 50.1163
20.6586 49.4817
20.7038 49.4884
20.7493 49.082
20.7945 49.0798
20.84 48.789
20.8853 48.5608
20.9307 48.4467
20.976 48.5906
21.0215 48.834
21.0668 49.151
21.1122 49.2934
21.1575 49.3602
21.203 49.4424
21.2483 50.0777
21.2938 51.1067
21.3391 51.2142
21.3846 50.3274
21.4299 49.0241
21.4754 48.4374
21.5207 48.4284
21.5662 48.7756
21.6116 49.2019
21.6571 51.0623
21.7024 53.0236
21.7479 53.9152
21.7933 54.0693
21.8388 55.2747
21.8843 57.8648
21.9297 61.2242
21.9752 65.1483
22.0206 65.3395
22.0661 60.6969
22.1115 56.0736
22.157 55.1354
22.2024 55.9084
22.248 54.8924
22.2933 52.2673
22.3389 50.072
22.3843 49.0254
22.4299 48.5771
22.4753 48.6718
22.5208 48.4727
22.5662 48.3157
22.6118 48.7311
22.6572 48.8647
22.7028 49.9665
22.7483 51.1652
22.7939 51.5022
22.8393 51.7396
22.8849 52.1588
22.9303 52.8915
22.9759 54.5405
23.0214 56.6323
23.067 57.932
23.1126 55.9508
23.1581 52.073
23.2037 49.7378
23.2492 48.9397
23.2948 49.5764
23.3403 50.6026
23.3859 51.5993
23.4314 51.5263
23.477 51.5222
23.5225 52.0476
23.5682 53.1303
23.6137 55.3036
23.6593 57.3248
23.7048 57.0964
23.7505 53.3006
23.796 49.0468
23.8417 46.8034
23.8872 45.8684
23.9329 45.4868
23.9784 45.0003
24.0241 44.7027
24.0697 44.5567
24.1154 44.1894
24.1609 44.034
24.2066 43.7216
24.2522 43.6986
24.2979 43.4055
24.3434 43.3578
24.3892 43.1504
24.4349 43.0354
24.4805 42.692
24.5262 43.0171
24.5718 42.7882
24.6175 42.7117
24.6631 43.0028
24.7089 42.5636
24.7545 42.4641
24.8002 42.3784
24.8458 42.3274
24.8916 42.178
24.9372 42.4444
24.983 42.5928
25.0286 42.9057
25.0744 43.3337
25.12 43.6892
25.1658 43.9994
25.2114 44.4224
25.2572 44.736
25.3029 44.7126
25.3487 44.5401
25.3943 44.6452
25.4402 44.7134
25.4858 44.502
25.5316 43.0923
25.5773 41.6095
25.6231 41.1719
25.669 40.7069
25.7147 40.662
25.7605 40.6708
25.8062 40.7052
25.8521 40.898
25.8977 40.6743
25.9436 40.8609
25.9893 40.5853
26.0352 40.9051
26.0809 41.0171
26.1268 41.4403
26.1725 41.7966
26.2184 41.8045
26.2641 41.2899
26.31 40.785
26.3557 40.707
26.4017 40.5786
26.4474 40.707
26.4933 40.7575
26.5391 41.0245
26.585 41.0701
26.6308 41.357
26.6767 41.7809
26.7225 42.4293
26.7684 42.3635
26.8142 41.7849
26.8601 41.095
26.9059 40.7111
26.9519 40.0957
26.9979 40.063
27.0437 39.3317
27.0896 39.0763
27.1354 39.0264
27.1814 38.7779
27.2272 38.7169
27.2732 38.8121
27.3191 38.5288
27.3651 38.4882
27.4109 38.4514
27.4569 38.4135
27.5027 38.4958
27.5488 38.585
27.5946 38.6075
27.6407 38.6111
27.6865 38.726
27.7326 38.4318
27.7784 38.2187
27.8245 38.2409
27.8703 38.2008
27.9164 38.4094
27.9623 38.2324
28.0084 38.4323
28.0543 38.6562
28.1003 38.741
28.1462 39.0819
28.1923 39.1763
28.2384 38.6728
28.2843 38.2145
28.3304 37.8057
28.3764 37.4429
28.4225 37.0107
28.4684 36.7069
28.5145 36.2358
28.5605 36.0011
28.6066 35.7928
28.6526 35.7752
28.6987 35.7525
28.7447 35.5832
28.7908 35.484
28.8368 35.4442
28.8829 35.3512
28.9289 35.2695
28.9751 35.2079
29.0211 35.1739
29.0673 35.0508
29.1133 34.9139
29.1595 34.7043
29.2055 34.4907
29.2517 34.36
29.2977 34.2431
29.3439 34.1339
29.3899 34.1354
29.4361 34.0365
29.4824 34.0824
29.5284 34.1451
29.5746 33.7848
29.6207 33.4206
29.6669 33.1476
29.713 33.0585
29.7593 32.9176
29.8053 32.9351
29.8516 32.8071
29.8977 32.8327
29.9439 32.6913
29.99 32.6241
30.0363 32.5995
30.0824 32.611
30.1287 32.3658
30.1748 32.3377
30.2211 32.3314
30.2673 32.2478
30.3136 32.5116
30.3597 32.4349
30.406 32.4475
30.4522 32.2792
30.4985 32.1824
30.5447 32.182
30.591 32.1783
30.6372 32.0574
30.6835 32.1016
30.7297 32.1331
30.7761 32.2927
30.8224 32.2702
30.8686 32.1072
30.915 31.9323
30.9612 31.8294
31.0076 31.5782
31.0538 31.3806
31.1002 31.3005
31.1464 31.17
31.1928 31.1302
31.2391 31.1188
31.2855 30.9212
31.3317 30.9558
31.3781 30.9387
31.4244 30.9799
31.4708 30.6901
31.5171 30.8654
31.5636 30.8943
31.6098 30.8283
31.6563 30.6269
31.7026 30.4793
31.7491 30.4132
31.7953 30.3011
31.8418 30.1516
31.8881 30.1117
31.9346 30.1634
31.9809 30.081
32.0275 30.099
32.074 30.0352
32.1203 29.9261
32.1668 29.7866
32.2132 29.6488
32.2597 29.5168
32.306 29.39
32.3526 29.1368
32.399 28.9505
32.4455 28.8883
32.4919 28.8125
32.5385 28.7258
32.5848 28.5534
32.6314 28.671
32.6778 28.5773
32.7244 28.3146
32.7708 28.1969
32.8174 28.323
32.8638 28.1299
32.9104 28.1464
32.9569 28.124
33.0035 27.9407
33.0499 27.909
33.0966 27.9173
33.143 27.8446
33.1897 27.7137
33.2361 27.681
33.2828 27.7281
33.3293 27.4962
33.3759 27.5224
33.4226 27.3124
33.4691 27.3193
33.5158 27.2756
33.5623 27.0812
33.609 26.9158
33.6555 26.7434
33.7022 26.7313
33.7487 26.5504
33.7954 26.507
33.842 26.4354
33.8887 26.3563
33.9353 26.4062
33.982 26.26
34.0286 26.1339
34.0753 26.1804
34.1219 26.0159
34.1687 25.8521
34.2152 25.9149
34.262 25.6875
34.3086 25.581
34.3554 25.555
34.402 25.4375
34.4488 25.4192
34.4954 25.292
34.5422 25.2279
34.5889 25.085
34.6357 25.074
34.6825 24.9605
34.7292 24.8245
34.776 24.6982
34.8227 24.6623
34.8695 24.6387
34.9162 24.671
34.9631 24.464
35.0098 24.5538
35.0566 24.362
35.1033 24.2419
35.1502 24.3405
35.1969 24.2293
35.2438 24.2567
35.2906 24.1726
35.3375 24.0241
35.3842 24.0535
35.4311 23.9967
35.4779 23.9341
35.5248 23.9201
35.5716 23.8065
35.6185 23.8253
35.6653 23.6863
35.7123 23.592
35.759 23.5727
35.806 23.4495
35.8528 23.3025
35.8998 23.303
35.9468 23.1757
35.9936 23.1776
36.0406 23.0686
36.0874 23.0908
36.1345 22.9193
36.1813 22.8383
36.2283 22.7458
36.2752 22.705
36.3222 22.6627
36.3691 22.674
36.4161 22.427
36.463 22.5483
36.5101 22.4079
36.557 22.3589
36.6041 22.3006
36.651 22.2289
36.6981 22.2409
36.745 22.1259
36.7921 22.0558
36.839 21.936
36.8861 21.8123
36.9331 21.8213
36.9802 21.7282
37.0272 21.597
37.0743 21.5679
37.1213 21.5353
37.1684 21.4953
37.2154 21.436
37.2626 21.3365
37.3098 21.2441
37.3568 21.1779
37.404 21.1402
37.451 21.0323
37.4982 20.9878
37.5452 20.924
37.5924 20.8428
37.6395 20.8641
37.6867 20.7373
37.7337 20.6565
37.781 20.5982
37.8281 20.5547
37.8753 20.4335
37.9224 20.3958
37.9697 20.3102
38.0168 20.2292
38.064 20.216
38.1111 20.1821
38.1584 20.0536
38.2056 19.9449
38.2529 19.9643
38.3 19.9039
38.3473 19.9121
38.3945 19.7035
38.4418 19.6825
38.489 19.6456
38.5363 19.5381
38.5837 19.4803
38.6309 19.4657
38.6782 19.3499
38.7254 19.3057
38.7728 19.174
38.82 19.1727
38.8674 19.1582
38.9146 19.0624
38.9621 19.0363
39.0093 18.9876
39.0567 18.9506
39.104 18.8222
39.1514 18.7853
39.1987 18.7283
39.2461 18.7095
39.2934 18.6519
39.3409 18.5189
39.3882 18.4401
39.4356 18.397
39.483 18.3498
39.5304 18.2422
39.5778 18.2582
39.6253 18.1768
39.6726 18.0807
39.7201 18.0825
39.7675 18.0256
39.815 17.9943
39.8624 17.9138
39.9099 17.885
39.9575 17.7656
40.0049 17.6916
40.0525 17.691
40.0999 17.6376
40.1474 17.544
40.1949 17.4869
40.2425 17.507
40.2899 17.3728
40.3375 17.2867
40.385 17.2219
40.4326 17.2128
40.48 17.1718
40.5277 17.1215
40.5752 17.0454
40.6228 16.9629
40.6703 16.9986
40.718 16.9326
40.7655 16.893
40.8132 16.8054
40.8607 16.7583
40.9084 16.7273
40.9559 16.6446
41.0036 16.6317
41.0512 16.5685
41.0989 16.4824
41.1465 16.438
41.1942 16.3899
41.242 16.3433
41.2896 16.2435
41.3373 16.1493
41.3849 16.1984
41.4327 16.0775
41.4803 16.0444
41.5281 15.9587
41.5758 15.9216
41.6236 15.8402
41.6712 15.818
41.7191 15.7484
41.7667 15.6709
41.8146 15.6848
41.8622 15.661
41.9101 15.5615
41.9578 15.5041
42.0057 15.4567
42.0534 15.4445
42.1013 15.3645
42.149 15.2924
42.1969 15.2117
42.2446 15.1773
42.2925 15.141
42.3403 15.1421
42.3882 15.0997
42.436 15.0673
42.4839 14.9455
42.5319 14.9109
42.5797 14.8536
42.6277 14.816
42.6755 14.7736
42.7235 14.6916
42.7713 14.6735
42.8193 14.6312
42.8671 14.5326
42.9152 14.5224
42.963 14.4623
43.0111 14.4065
43.0589 14.3589
43.107 14.2484
43.1549 14.2479
43.2029 14.2169
43.2508 14.1853
43.2989 14.0787
43.3468 14.0342
43.3949 13.9858
43.4429 13.9449
43.491 13.873
43.5389 13.8229
43.5871 13.8199
43.635 13.7993
43.6832 13.693
43.7312 13.6601
43.7793 13.5822
43.8273 13.5764
43.8755 13.5509
43.9237 13.4895
43.9717 13.4579
44.0199 13.3892
44.068 13.326
44.1162 13.287
44.1642 13.271
44.2125 13.2167
44.2606 13.1259
44.3088 13.1024
44.3569 13.0493
44.4052 13.0242
44.4533 12.9552
44.5016 12.9266
44.5497 12.9084
44.598 12.841
44.6461 12.7845
44.6945 12.7606
44.7426 12.7015
44.791 12.6236
44.8391 12.6092
44.8875 12.5631
44.9357 12.5212
44.984 12.4588
45.0322 12.4238
45.0806 12.3846
45.1288 12.3881
45.1773 12.2794
45.2257 12.2829
45.2739 12.189
45.3224 12.1927
45.3706 12.171
45.4191 12.0285
45.4673 12.068
45.5158 11.9962
45.5641 11.9556
45.6126 11.8932
45.6609 11.8249
45.7094 11.8372
45.7577 11.7554
45.8063 11.7202
45.8546 11.7223
45.9031 11.6557
45.9515 11.6095
46.0001 11.5812
46.0484 11.5771
46.097 11.5212
46.1454 11.4488
46.194 11.4336
46.2424 11.4065
46.291 11.3067
46.3395 11.3036
46.3881 11.2209
46.4365 11.2321
46.4852 11.1362
46.5337 11.1195
46.5823 11.0838
46.631 11.0309
46.6795 11.019
46.7282 10.9889
46.7767 10.9271
46.8254 10.871
46.8739 10.8128
46.9226 10.79
46.9712 10.7586
47.0199 10.6969
47.0685 10.6938
47.1173 10.6435
47.1658 10.617
47.2146 10.5485
47.2632 10.5126
47.312 10.469
47.3606 10.45
47.4095 10.409
47.4581 10.3793
47.5069 10.3367
47.5556 10.2801
47.6044 10.2733
47.6531 10.2006
47.702 10.1543
47.7507 10.1527
47.7996 10.0936
47.8483 10.0764
47.8972 10.0465
47.9461 9.99577
47.9948 9.93995
48.0438 9.92954
48.0925 9.90696
48.1415 9.87089
48.1902 9.81582
48.2392 9.78017
48.288 9.77097
48.337 9.74051
48.3858 9.65064
48.4348 9.64232
48.4837 9.63935
48.5327 9.60289
48.5815 9.55278
48.6306 9.52469
48.6795 9.49389
48.7285 9.4238
48.7774 9.40911
48.8265 9.41156
48.8754 9.34775
48.9245 9.29288
48.9734 9.2519
49.0226 9.23712
49.0715 9.21103
49.1206 9.17036
49.1696 9.09661
49.2188 9.07127
49.2679 9.10217
49.3169 9.00449
49.3661 8.98106
49.4151 8.91518
49.4643 8.92321
49.5134 8.92208
49.5626 8.82727
49.6117 8.83119
49.6609 8.77807
49.71 8.73402
49.7592 8.69698
49.8083 8.66588
49.8576 8.63953
49.9067 8.62299
49.956 8.60022
50.0052 8.57513
50.0545 8.49463
50.1036 8.50263
50.153 8.44183
50.2022 8.41258
50.2515 8.3956
50.3007 8.33716
50.3501 8.31355
50.3993 8.27187
50.4487 8.26883
50.498 8.24536
50.5474 8.19105
50.5966 8.15307
50.6461 8.17736
50.6955 8.1083
50.7448 8.05897
50.7943 8.0359
50.8436 8.00271
50.8931 7.95585
50.9424 7.95149
50.9919 7.92263
51.0413 7.88308
51.0908 7.8345
51.1402 7.82766
51.1897 7.77293
51.2391 7.73989
51.2887 7.7373
51.3381 7.65598
51.3877 7.63577
51.4371 7.63569
51.4867 7.59315
51.5362 7.58159
51.5858 7.535
51.6353 7.52516
51.6849 7.46228
51.7344 7.42604
51.7841 7.43055
51.8336 7.39454
51.8833 7.34771
51.9328 7.29658
51.9826 7.27445
52.0323 7.26958
52.0818 7.22313
52.1316 7.20431
52.1812 7.18141
52.231 7.11299
52.2806 7.13113
52.3304 7.12515
52.38 7.03291
52.4298 7.05868
52.4794 7.00786
52.5293 6.98361
52.5789 6.96231
52.6288 6.93226
52.6785 6.87428
52.7284 6.86278
52.7781 6.8233
52.828 6.79649
52.8777 6.76635
52.9276 6.71907
52.9774 6.73249
53.0273 6.70182
53.0771 6.69314
53.1271 6.66323
53.1769 6.59716
53.2269 6.57218
53.2767 6.59345
53.3267 6.51894
53.3765 6.48156
53.4266 6.46632
53.4766 6.42998
53.5265 6.3926
53.5765 6.39246
53.6264 6.37264
53.6765 6.34212
53.7264 6.28717
53.7765 6.27502
53.8265 6.24539
53.8766 6.2229
53.9266 6.19046
53.9767 6.13664
54.0267 6.12949
54.0769 6.10807
54.1269 6.04986
54.1771 6.03104
54.2271 5.97042
54.2773 5.93238
54.3274 5.92487
54.3776 5.87555
54.4277 5.86592
54.478 5.8319
54.528 5.75846
54.5783 5.71104
54.6285 5.66846
54.6788 5.65562
54.7289 5.57965
54.7792 5.56538
54.8296 5.53488
54.8798 5.43228
54.9301 5.41031
54.9803 5.3865
55.0307 5.41654
55.0809 5.29612
55.1314 5.30089
55.1816 5.16588
55.232 5.21083
55.2823 5.09387
55.3328 5.06785
55.383 5.01606
55.4335 4.97805
55.4838 4.88353
55.5344 4.9131
55.5847 4.84426
55.6352 4.79286
55.6856 4.75935
55.7361 4.70977