File: XRD/Ni3Fe_FD0418.xy
TT I
1.27165 7.98786
1.31627 7.16648
1.36089 7.01033
1.40551 7.03276
1.45013 6.55174
1.49476 6.37483
1.53938 6.40315
1.584 5.50656
1.62863 5.38762
1.67325 4.82756
1.71787 5.45667
1.7625 5.56839
1.80712 4.99299
1.85174 5.19506
1.89636 4.40492
1.94099 5.35618
1.98562 4.94921
2.03025 4.69905
2.07487 5.11582
2.11949 4.99541
2.16411 5.39779
2.20874 17.5496
2.25338 29.7152
2.298 6.28956
2.34263 5.068
2.38725 5.41137
2.43188 5.35381
2.4765 5.90332
2.52115 6.74738
2.56577 5.92788
2.6104 7.72488
2.65503 7.10265
2.69965 7.67077
2.7443 7.59028
2.78893 7.11823
2.83356 7.96974
2.87818 8.64671
2.92281 8.79515
2.96744 9.4176
3.01209 10.1885
3.05672 11.0323
3.10135 12.4663
3.14599 13.3917
3.19062 13.8815
3.23527 15.2375
3.2799 15.822
3.32454 17.0449
3.36917 17.63
3.4138 19.3282
3.45844 20.0802
3.50309 21.1511
3.54773 22.5083
3.59237 25.2563
3.637 121.617
3.68164 74.1494
3.7263 27.2053
3.77094 26.6946
3.81558 27.0709
3.86022 28.2667
3.90486 29.6592
3.9495 30.5659
3.99416 31.3564
4.0388 33.0444
4.08344 34.7853
4.12809 35.7903
4.17273 38.3768
4.21738 46.0196
4.26204 329.918
4.30669 290.711
4.35133 52.3981
4.39598 46.1757
4.44063 57.9569
4.4853 73.9564
4.52995 52.0315
4.5746 52.2436
4.61925 54.283
4.6639 56.4268
4.70855 58.8933
4.75322 61.5621
4.79788 64.8927
4.84253 68.0757
4.88719 72.7751
4.93184 76.038
4.97652 81.871
5.02118 88.6939
5.06583 96.3896
5.11049 109.984
5.15515 202.816
5.19981 423.842
5.24449 2866.14
5.28916 11452.8
5.33382 3549.29
5.37848 222.423
5.42315 137.672
5.46783 118.462
5.5125 109.906
5.55716 104.921
5.60183 101.419
5.6465 98.7333
5.69117 96.8755
5.73586 94.1857
5.78053 93.5836
5.8252 93.4844
5.86988 94.3352
5.91455 96.7943
5.95924 106.19
6.00392 228.282
6.0486 998.743
6.09328 3832.97
6.13795 3523.92
6.18263 307.801
6.22733 100.452
6.27201 87.3674
6.3167 115.308
6.36138 86.3111
6.40606 71.3241
6.45075 69.3808
6.49545 67.4642
6.54014 65.8128
6.58483 64.8435
6.62952 64.7203
6.67421 106.709
6.71892 179.797
6.76361 73.831
6.8083 60.3128
6.853 58.8089
6.89769 58.6206
6.94239 57.859
6.98711 57.3625
7.03181 57.2153
7.07651 56.6797
7.12121 56.6726
7.16591 57.3499
7.21063 57.5715
7.25533 77.1655
7.30004 232.438
7.34475 108.458
7.38945 58.7417
7.43416 56.251
7.47889 55.5176
7.5236 56.1744
7.56831 56.6991
7.61303 59.2136
7.65774 59.4614
7.70247 57.5444
7.74719 57.4154
7.79191 57.9052
7.83663 58.0709
7.88135 58.7891
7.92607 60.1732
7.97081 61.0231
8.01553 62.1906
8.06026 63.5672
8.10498 65.3151
8.14971 78.1076
8.19446 75.8167
8.23919 71.0521
8.28392 73.1042
8.32865 75.5456
8.37339 79.8573
8.41812 88.0529
8.46288 126.219
8.50761 176.259
8.55235 398.617
8.59709 1063.68
8.64183 2093.73
8.68658 1129.62
8.73134 192.265
8.77609 104.096
8.82083 95.6481
8.86558 91.9771
8.91033 92.6618
8.9551 95.7148
8.99985 87.2918
9.04461 84.9888
9.08936 84.3036
9.13412 82.8995
9.17888 83.4348
9.22365 84.8152
9.26841 83.5742
9.31318 84.3736
9.35794 84.0458
9.4027 84.6173
9.44749 85.3927
9.49226 86.0893
9.53703 87.2051
9.5818 89.0559
9.62657 95.1376
9.67134 104.086
9.71614 96.2927
9.76091 95.7934
9.80569 98.341
9.85047 102.173
9.89525 133.677
9.94005 150.116
9.98484 184.842
10.0296 353.522
10.0744 743.622
10.1192 1574.73
10.164 1769.82
10.2088 507.821
10.2536 140.221
10.2984 119.429
10.3432 122.191
10.388 108.186
10.4328 121.828
10.4776 163.17
10.5224 262.071
10.5672 473.078
10.612 524.997
10.6568 230.484
10.7017 102.395
10.7465 89.2483
10.7913 85.3926
10.8361 82.9735
10.8809 80.728
10.9257 80.8575
10.9706 82.3876
11.0154 77.3942
11.0602 74.2886
11.105 73.62
11.1499 79.951
11.1947 91.0465
11.2395 78.4578
11.2844 73.1606
11.3292 68.9681
11.374 67.6551
11.4189 67.431
11.4637 66.5355
11.5086 67.1177
11.5534 71.7986
11.5983 67.7183
11.6431 65.2753
11.688 64.4358
11.7328 64.5651
11.7777 64.4917
11.8225 63.8032
11.8674 63.8421
11.9122 63.878
11.9571 64.2101
12.002 64.9981
12.0468 69.4696
12.0917 81.3956
12.1366 102.356
12.1814 141.955
12.2263 199.75
12.2712 184.862
12.3161 110.607
12.3609 74.8607
12.4058 66.6116
12.4507 66.0381
12.4956 66.3058
12.5405 66.0661
12.5853 67.1108
12.6302 77.9268
12.6751 85.6224
12.72 72.9331
12.7649 69.5138
12.8098 69.9329
12.8547 71.164
12.8996 72.4514
12.9445 73.6087
12.9894 75.5215
13.0343 76.9346
13.0792 80.3986
13.1242 90.3267
13.1691 115.747
13.214 149.697
13.2589 221.464
13.3038 335.759
13.3487 432.739
13.3937 299.785
13.4386 138.43
13.4835 109.333
13.5285 123.392
13.5734 155.806
13.6183 226.504
13.6633 328.222
13.7082 364.04
13.7531 217.104
13.7981 105.982
13.843 84.0353
13.888 81.2982
13.9329 78.7328
13.9779 77.471
14.0228 75.8374
14.0678 74.4781
14.1127 73.9653
14.1577 74.5203
14.2027 73.3671
14.2476 71.7902
14.2926 72.3413
14.3376 74.2321
14.3825 72.1211
14.4275 70.4422
14.4725 70.0273
14.5175 70.1725
14.5624 70.4625
14.6074 73.2391
14.6524 74.1482
14.6974 72.2699
14.7424 73.4152
14.7874 80.3299
14.8324 90.7189
14.8774 109.279
14.9224 143.905
14.9674 193.46
15.0124 223.293
15.0574 164.901
15.1024 99.4992
15.1474 75.1927
15.1924 72.405
15.2374 73.6186
15.2824 73.1621
15.3274 70.2215
15.3725 68.4529
15.4175 67.8816
15.4625 67.3877
15.5076 68.0944
15.5526 68.024
15.5976 67.14
15.6426 68.061
15.6877 73.6334
15.7327 81.6138
15.7778 94.8714
15.8228 119.074
15.8679 157.439
15.9129 193.27
15.958 171.674
16.003 107.685
16.0481 71.8905
16.0931 67.4496
16.1382 65.1434
16.1833 62.3198
16.2283 60.7109
16.2734 60.0007
16.3185 60.5819
16.3636 61.9092
16.4086 59.8335
16.4537 57.635
16.4988 56.9553
16.5439 56.7878
16.589 56.5564
16.6341 56.1293
16.6792 55.8918
16.7243 56.2587
16.7694 56.4447
16.8145 56.082
16.8596 56.8492
16.9047 58.7934
16.9498 59.0744
16.9949 57.2855
17.04 57.1021
17.0851 58.2426
17.1302 60.0584
17.1754 62.8844
17.2205 66.8873
17.2656 72.8628
17.3108 81.3417
17.3559 84.0806
17.401 74.8603
17.4462 64.6606
17.4913 60.6104
17.5365 60.555
17.5815 60.5173
17.6268 60.6795
17.6718 61.9219
17.7171 62.4516
17.7622 62.6081
17.8074 62.9436
17.8525 65.4112
17.8977 69.9088
17.9428 75.141
17.9881 82.5599
18.0331 96.1332
18.0784 114.918
18.1237 136.773
18.1688 137.547
18.214 111.97
18.2591 89.3072
18.3044 89.0652
18.3495 97.6091
18.3948 107.184
18.4399 102.306
18.4852 82.937
18.5303 68.7837
18.5756 63.9865
18.6207 62.8544
18.666 62.0169
18.7112 61.187
18.7565 60.1314
18.8016 59.9697
18.8469 59.2178
18.892 59.0427
18.9374 58.6738
18.9825 58.3941
19.0278 58.1702
19.073 58.2315
19.1183 58.9846
19.1635 59.7999
19.2088 60.9604
19.254 62.8541
19.2993 66.276
19.3447 72.4252
19.3898 77.5108
19.4352 75.6494
19.4804 66.5021
19.5257 58.9187
19.5709 55.6927
19.6163 55.2162
19.6615 54.9847
19.7068 54.6891
19.752 54.5548
19.7974 54.7437
19.8426 55.6194
19.888 56.5267
19.9332 57.4539
19.9786 59.4992
20.0238 62.1922
20.0692 66.6667
20.1144 70.5962
20.1598 70.5901
20.205 65.639
20.2504 63.0018
20.2957 63.732
20.3411 66.481
20.3863 66.2161
20.4318 61.1017
20.477 55.9269
20.5224 53.2489
20.5677 52.4962
20.6131 51.4911
20.6586 50.9413
20.7038 50.8218
20.7493 50.3335
20.7945 49.9909
20.84 50.0926
20.8853 49.6679
20.9307 49.7277
20.976 49.898
21.0215 49.6341
21.0668 50.1495
21.1122 50.3103
21.1575 50.8028
21.203 51.77
21.2483 52.4452
21.2938 52.9683
21.3391 51.525
21.3846 50.2575
21.4299 49.5879
21.4754 49.4821
21.5207 49.7005
21.5662 49.7786
21.6116 50.167
21.6571 51.1385
21.7024 51.9668
21.7479 53.4604
21.7933 55.8012
21.8388 58.9228
21.8843 62.5366
21.9297 65.5488
21.9752 65.5359
22.0206 61.8876
22.0661 58.0553
22.1115 56.8943
22.157 57.3756
22.2024 56.3482
22.248 53.3765
22.2933 51.351
22.3389 50.423
22.3843 50.1881
22.4299 50.2347
22.4753 50.3357
22.5208 49.7468
22.5662 49.6675
22.6118 49.6335
22.6572 49.9365
22.7028 50.4176
22.7483 50.8466
22.7939 51.2625
22.8393 52.6876
22.8849 54.3747
22.9303 56.3051
22.9759 58.5427
23.0214 59.0648
23.067 56.8525
23.1126 53.078
23.1581 50.7182
23.2037 50.0105
23.2492 49.9264
23.2948 49.9328
23.3403 50.2388
23.3859 50.6832
23.4314 51.5079
23.477 52.9691
23.5225 54.9814
23.5682 57.1303
23.6137 58.9461
23.6593 57.6854
23.7048 53.9617
23.7505 50.1611
23.796 47.8294
23.8417 47.2269
23.8872 46.6499
23.9329 46.2745
23.9784 45.9845
24.0241 45.7282
24.0697 45.4886
24.1154 45.2875
24.1609 45.1049
24.2066 44.7553
24.2522 44.6691
24.2979 44.4695
24.3434 44.402
24.3892 44.1943
24.4349 44.2013
24.4805 43.994
24.5262 43.9355
24.5718 43.7908
24.6175 43.9704
24.6631 43.9563
24.7089 43.6088
24.7545 43.3779
24.8002 43.3671
24.8458 43.3048
24.8916 42.9627
24.9372 43.2145
24.983 43.4485
25.0286 43.6947
25.0744 44.1194
25.12 44.4689
25.1658 45.1207
25.2114 45.5455
25.2572 45.617
25.3029 45.6032
25.3487 45.7942
25.3943 45.7979
25.4402 44.9055
25.4858 43.7092
25.5316 42.7357
25.5773 41.9258
25.6231 41.7785
25.669 41.5689
25.7147 41.5467
25.7605 41.377
25.8062 41.5138
25.8521 41.6662
25.8977 41.4621
25.9436 41.7483
25.9893 41.7744
26.0352 42.1898
26.0809 42.3318
26.1268 42.7509
26.1725 42.5859
26.2184 42.0103
26.2641 41.2146
26.31 41.0946
26.3557 41.129
26.4017 40.9727
26.4474 41.329
26.4933 41.7334
26.5391 41.9622
26.585 42.455
26.6308 42.7637
26.6767 43.0668
26.7225 43.0279
26.7684 42.3982
26.8142 41.8906
26.8601 41.4629
26.9059 41.0775
26.9519 40.4932
26.9979 40.1138
27.0437 39.8675
27.0896 39.6986
27.1354 39.5906
27.1814 39.5826
27.2272 39.4012
27.2732 39.4536
27.3191 39.1887
27.3651 39.2571
27.4109 39.3188
27.4569 39.3183
27.5027 39.3517
27.5488 39.476
27.5946 39.3181
27.6407 39.0719
27.6865 39.1359
27.7326 38.7128
27.7784 38.6357
27.8245 38.6276
27.8703 38.7838
27.9164 39.0178
27.9623 39.2075
28.0084 39.388
28.0543 39.7933
28.1003 39.8958
28.1462 39.8887
28.1923 39.4874
28.2384 38.7122
28.2843 38.56
28.3304 38.1973
28.3764 37.5921
28.4225 37.33
28.4684 37.1693
28.5145 36.8828
28.5605 36.7918
28.6066 36.5835
28.6526 36.3765
28.6987 36.4675
28.7447 36.2484
28.7908 36.319
28.8368 36.2962
28.8829 36.223
28.9289 36.099
28.9751 35.9266
29.0211 35.8247
29.0673 35.4555
29.1133 35.4728
29.1595 35.2337
29.2055 35.0253
29.2517 35.1345
29.2977 34.9957
29.3439 35.0731
29.3899 35.0502
29.4361 34.9391
29.4824 34.8036
29.5284 34.6069
29.5746 34.167
29.6207 33.8876
29.6669 33.8745
29.713 33.7699
29.7593 33.7641
29.8053 33.653
29.8516 33.5708
29.8977 33.6341
29.9439 33.325
29.99 33.4225
30.0363 33.2201
30.0824 33.2285
30.1287 33.1863
30.1748 33.1559
30.2211 33.0857
30.2673 33.0523
30.3136 33.1038
30.3597 32.9683
30.406 32.935
30.4522 32.8566
30.4985 32.7512
30.5447 32.919
30.591 32.7886
30.6372 32.9685
30.6835 32.8499
30.7297 32.8944
30.7761 32.8565
30.8224 32.8078
30.8686 32.5805
30.915 32.4343
30.9612 32.2893
31.0076 32.0053
31.0538 31.8546
31.1002 31.8956
31.1464 31.6672
31.1928 31.633
31.2391 31.5587
31.2855 31.514
31.3317 31.5525
31.3781 31.6496
31.4244 31.5811
31.4708 31.5532
31.5171 31.3925
31.5636 31.448
31.6098 31.3284
31.6563 31.0176
31.7026 30.9667
31.7491 30.8372
31.7953 30.7837
31.8418 30.8181
31.8881 30.8329
31.9346 30.7966
31.9809 30.7291
32.0275 30.6367
32.074 30.5612
32.1203 30.323
32.1668 30.3151
32.2132 30.1147
32.2597 29.8961
32.306 29.8885
32.3526 29.6548
32.399 29.5413
32.4455 29.508
32.4919 29.3526
32.5385 29.2515
32.5848 29.1753
32.6314 29.1435
32.6778 29.0305
32.7244 28.9406
32.7708 28.6927
32.8174 28.7656
32.8638 28.6349
32.9104 28.7481
32.9569 28.6014
33.0035 28.4638
33.0499 28.5651
33.0966 28.4087
33.143 28.4183
33.1897 28.2873
33.2361 28.2027
33.2828 28.2738
33.3293 28.1414
33.3759 28.0274
33.4226 27.8883
33.4691 27.7455
33.5158 27.5972
33.5623 27.5991
33.609 27.3265
33.6555 27.3139
33.7022 27.1331
33.7487 27.1441
33.7954 27.1158
33.842 27.0524
33.8887 26.9529
33.9353 26.9088
33.982 26.7206
34.0286 26.6799
34.0753 26.6223
34.1219 26.4957
34.1687 26.459
34.2152 26.3016
34.262 26.2362
34.3086 26.1661
34.3554 26.1259
34.402 25.9519
34.4488 25.9061
34.4954 25.8889
34.5422 25.7208
34.5889 25.6708
34.6357 25.6349
34.6825 25.5124
34.7292 25.4126
34.776 25.2911
34.8227 25.3089
34.8695 25.2131
34.9162 25.173
34.9631 25.0715
35.0098 25.0795
35.0566 24.9423
35.1033 24.8178
35.1502 24.8015
35.1969 24.7905
35.2438 24.6431
35.2906 24.6664
35.3375 24.6097
35.3842 24.5052
35.4311 24.4838
35.4779 24.4762
35.5248 24.4608
35.5716 24.3427
35.6185 24.3173
35.6653 24.1442
35.7123 24.0808
35.759 24.1447
35.806 23.9439
35.8528 23.8295
35.8998 23.6345
35.9468 23.6538
35.9936 23.5756
36.0406 23.5479
36.0874 23.4765
36.1345 23.441
36.1813 23.3573
36.2283 23.278
36.2752 23.1999
36.3222 23.2531
36.3691 23.133
36.4161 22.8976
36.463 22.8968
36.5101 22.8407
36.557 22.8851
36.6041 22.6566
36.651 22.671
36.6981 22.6122
36.745 22.5654
36.7921 22.4692
36.839 22.3604
36.8861 22.2995
36.9331 22.3505
36.9802 22.1726
37.0272 22.0887
37.0743 21.957
37.1213 21.9692
37.1684 21.9344
37.2154 21.7959
37.2626 21.7861
37.3098 21.7511
37.3568 21.689
37.404 21.5829
37.451 21.4438
37.4982 21.4661
37.5452 21.2721
37.5924 21.3034
37.6395 21.3213
37.6867 21.1672
37.7337 20.9898
37.781 20.9805
37.8281 20.9747
37.8753 20.8781
37.9224 20.8166
37.9697 20.7263
38.0168 20.6461
38.064 20.6209
38.1111 20.5677
38.1584 20.4481
38.2056 20.4156
38.2529 20.4099
38.3 20.3797
38.3473 20.2695
38.3945 20.1777
38.4418 20.1004
38.489 20.0478
38.5363 19.9331
38.5837 19.8875
38.6309 19.7818
38.6782 19.783
38.7254 19.7327
38.7728 19.6035
38.82 19.5985
38.8674 19.5382
38.9146 19.4923
38.9621 19.3537
39.0093 19.3525
39.0567 19.2801
39.104 19.1928
39.1514 19.1655
39.1987 19.1653
39.2461 19.0094
39.2934 19.0101
39.3409 18.8194
39.3882 18.7991
39.4356 18.8096
39.483 18.7526
39.5304 18.6698
39.5778 18.719
39.6253 18.5574
39.6726 18.5531
39.7201 18.4573
39.7675 18.3868
39.815 18.3344
39.8624 18.2879
39.9099 18.1793
39.9575 18.1716
40.0049 18.0717
40.0525 18.0135
40.0999 17.9596
40.1474 17.956
40.1949 17.8341
40.2425 17.7947
40.2899 17.8015
40.3375 17.7154
40.385 17.6275
40.4326 17.5457
40.48 17.4688
40.5277 17.5465
40.5752 17.4252
40.6228 17.2801
40.6703 17.2707
40.718 17.2258
40.7655 17.2572
40.8132 17.1619
40.8607 17.1184
40.9084 17.0601
40.9559 17.0072
41.0036 16.9594
41.0512 16.9141
41.0989 16.8476
41.1465 16.7517
41.1942 16.7018
41.242 16.6394
41.2896 16.6243
41.3373 16.5264
41.3849 16.4856
41.4327 16.3984
41.4803 16.2731
41.5281 16.3142
41.5758 16.2446
41.6236 16.2119
41.6712 16.1468
41.7191 16.0839
41.7667 16.0652
41.8146 16.0157
41.8622 15.9437
41.9101 15.8953
41.9578 15.7931
42.0057 15.8088
42.0534 15.7112
42.1013 15.6844
42.149 15.6395
42.1969 15.5444
42.2446 15.4849
42.2925 15.4598
42.3403 15.4517
42.3882 15.4179
42.436 15.3698
42.4839 15.2458
42.5319 15.1533
42.5797 15.1547
42.6277 15.1617
42.6755 15.0675
42.7235 14.9562
42.7713 14.9925
42.8193 14.9409
42.8671 14.8479
42.9152 14.8174
42.963 14.7644
43.0111 14.6665
43.0589 14.647
43.107 14.5893
43.1549 14.5933
43.2029 14.4567
43.2508 14.4426
43.2989 14.376
43.3468 14.3416
43.3949 14.3409
43.4429 14.2243
43.491 14.2351
43.5389 14.1707
43.5871 14.128
43.635 14.0433
43.6832 14.024
43.7312 13.9737
43.7793 13.9266
43.8273 13.8654
43.8755 13.8301
43.9237 13.7559
43.9717 13.7433
44.0199 13.6989
44.068 13.605
44.1162 13.6193
44.1642 13.5402
44.2125 13.4835
44.2606 13.4125
44.3088 13.4085
44.3569 13.3437
44.4052 13.2679
44.4533 13.2606
44.5016 13.2004
44.5497 13.1603
44.598 13.0888
44.6461 13.0842
44.6945 12.9827
44.7426 12.9936
44.791 12.908
44.8391 12.8995
44.8875 12.8657
44.9357 12.8244
44.984 12.7292
45.0322 12.726
45.0806 12.6068
45.1288 12.5984
45.1773 12.6206
45.2257 12.5509
45.2739 12.5027
45.3224 12.4475
45.3706 12.4197
45.4191 12.3395
45.4673 12.3054
45.5158 12.2265
45.5641 12.2215
45.6126 12.1858
45.6609 12.0991
45.7094 12.0812
45.7577 12.0252
45.8063 12.0041
45.8546 11.9489
45.9031 11.921
45.9515 11.8624
46.0001 11.8162
46.0484 11.7975
46.097 11.7664
46.1454 11.6869
46.194 11.6883
46.2424 11.603
46.291 11.5763
46.3395 11.5421
46.3881 11.4987
46.4365 11.4577
46.4852 11.4607
46.5337 11.3431
46.5823 11.3114
46.631 11.2518
46.6795 11.2134
46.7282 11.1883
46.7767 11.1952
46.8254 11.0903
46.8739 11.1066
46.9226 11.0174
46.9712 11.0214
47.0199 10.9132
47.0685 10.9097
47.1173 10.8681
47.1658 10.8052
47.2146 10.8022
47.2632 10.7478
47.312 10.7186
47.3606 10.6507
47.4095 10.6118
47.4581 10.5824
47.5069 10.5359
47.5556 10.5001
47.6044 10.4788
47.6531 10.4571
47.702 10.4035
47.7507 10.3358
47.7996 10.3308
47.8483 10.3002
47.8972 10.2873
47.9461 10.2097
47.9948 10.1875
48.0438 10.1336
48.0925 10.1017
48.1415 10.0828
48.1902 10.0374
48.2392 9.99467
48.288 9.99813
48.337 9.93548
48.3858 9.88895
48.4348 9.86314
48.4837 9.86178
48.5327 9.78461
48.5815 9.72349
48.6306 9.7374
48.6795 9.69352
48.7285 9.64798
48.7774 9.62381
48.8265 9.58907
48.8754 9.51545
48.9245 9.56181
48.9734 9.47793
49.0226 9.47282
49.0715 9.40574
49.1206 9.36548
49.1696 9.30701
49.2188 9.34107
49.2679 9.23294
49.3169 9.19253
49.3661 9.18742
49.4151 9.14684
49.4643 9.15171
49.5134 9.10418
49.5626 9.00816
49.6117 9.02009
49.6609 8.97977
49.71 8.93857
49.7592 8.87018
49.8083 8.89252
49.8576 8.86457
49.9067 8.77349
49.956 8.80163
50.0052 8.71052
50.0545 8.69966
50.1036 8.6653
50.153 8.66252
50.2022 8.61452
50.2515 8.55733
50.3007 8.49128
50.3501 8.50677
50.3993 8.47965
50.4487 8.40352
50.498 8.40385
50.5474 8.33841
50.5966 8.32911
50.6461 8.31147
50.6955 8.26865
50.7448 8.2718
50.7943 8.20016
50.8436 8.16968
50.8931 8.14877
50.9424 8.10781
50.9919 8.07583
51.0413 8.03329
51.0908 8.02495
51.1402 7.97413
51.1897 7.95447
51.2391 7.92063
51.2887 7.88835
51.3381 7.89423
51.3877 7.82569
51.4371 7.78878
51.4867 7.71809
51.5362 7.75172
51.5858 7.68051
51.6353 7.66408
51.6849 7.63664
51.7344 7.57834
51.7841 7.59668
51.8336 7.54039
51.8833 7.48752
51.9328 7.44291
51.9826 7.41567
52.0323 7.41358
52.0818 7.3783
52.1316 7.33904
52.1812 7.33322
52.231 7.30174
52.2806 7.26386
52.3304 7.24615
52.38 7.19868
52.4298 7.19931
52.4794 7.13726
52.5293 7.12321
52.5789 7.06019
52.6288 7.05328
52.6785 6.99878
52.7284 6.9945
52.7781 6.97381
52.828 6.9302
52.8777 6.87162
52.9276 6.94167
52.9774 6.84483
53.0273 6.82222
53.0771 6.80138
53.1271 6.79159
53.1769 6.75103
53.2269 6.75618
53.2767 6.70519
53.3267 6.6104
53.3765 6.63081
53.4266 6.59216
53.4766 6.55562
53.5265 6.51813
53.5765 6.5263
53.6264 6.5018
53.6765 6.46434
53.7264 6.44162
53.7765 6.3903
53.8265 6.34184
53.8766 6.33846
53.9266 6.31805
53.9767 6.30203
54.0267 6.29972
54.0769 6.28381
54.1269 6.22494
54.1771 6.18882
54.2271 6.17521
54.2773 6.06158
54.3274 6.06796
54.3776 6.00194
54.4277 6.06429
54.478 5.9971
54.528 5.94374
54.5783 5.95377
54.6285 5.87411
54.6788 5.84683
54.7289 5.74409
54.7792 5.72022
54.8296 5.65009
54.8798 5.58453
54.9301 5.56042
54.9803 5.57882
55.0307 5.51002
55.0809 5.48014
55.1314 5.49507
55.1816 5.39614
55.232 5.3981
55.2823 5.33727
55.3328 5.25799
55.383 5.24611
55.4335 5.1325
55.4838 5.16264
55.5344 5.06991
55.5847 5.05714
55.6352 4.98751
55.6856 4.96751
55.7361 4.94773