File: XRD/Ni3Fe_FD0004.xy
TT I
1.27165 36.0991
1.31627 36.5439
1.36089 35.8269
1.40551 33.4359
1.45013 31.6908
1.49476 31.1654
1.53938 29.9286
1.584 29.1728
1.62863 28.0491
1.67325 27.0781
1.71787 27.4321
1.7625 26.2262
1.80712 26.3683
1.85174 25.3002
1.89636 25.5724
1.94099 25.1587
1.98562 25.5845
2.03025 25.4236
2.07487 25.181
2.11949 25.0144
2.16411 25.9784
2.20874 25.4553
2.25338 25.8067
2.298 27.0086
2.34263 26.5787
2.38725 25.6711
2.43188 26.2822
2.4765 27.0572
2.52115 26.2023
2.56577 26.5818
2.6104 28.3805
2.65503 28.3295
2.69965 30.0969
2.7443 31.2405
2.78893 33.8528
2.83356 36.2523
2.87818 39.4579
2.92281 44.0538
2.96744 49.0511
3.01209 57.4336
3.05672 65.9423
3.10135 76.766
3.14599 83.184
3.19062 86.3468
3.23527 81.1068
3.2799 71.6997
3.32454 61.3186
3.36917 52.5182
3.4138 45.9029
3.45844 42.2655
3.50309 40.8972
3.54773 39.2778
3.59237 40.0945
3.637 40.8641
3.68164 41.1155
3.7263 42.0539
3.77094 42.019
3.81558 41.5804
3.86022 41.8253
3.90486 43.0279
3.9495 43.7911
3.99416 45.0582
4.0388 47.7477
4.08344 51.2508
4.12809 54.0318
4.17273 59.4891
4.21738 65.5488
4.26204 72.0837
4.30669 77.4476
4.35133 79.2132
4.39598 76.9212
4.44063 72.8012
4.4853 69.3939
4.52995 65.813
4.5746 60.8562
4.61925 58.4399
4.6639 55.4869
4.70855 55.0864
4.75322 55.4214
4.79788 56.7699
4.84253 60.3591
4.88719 64.2988
4.93184 69.6172
4.97652 77.3691
5.02118 90.3631
5.06583 112.617
5.11049 135.224
5.15515 170.332
5.19981 246.056
5.24449 468.222
5.28916 963.981
5.33382 2473.74
5.37848 4165.38
5.42315 1648.11
5.46783 451.384
5.5125 237.052
5.55716 165.252
5.60183 129.483
5.6465 112.776
5.69117 104.937
5.73586 99.4755
5.78053 94.2686
5.8252 93.2686
5.86988 96.5608
5.91455 105.508
5.95924 120.617
6.00392 154.74
6.0486 232.4
6.09328 391.405
6.13795 662.905
6.18263 1229.86
6.22733 953.117
6.27201 390.893
6.3167 191.412
6.36138 117.773
6.40606 87.1756
6.45075 73.5791
6.49545 65.1432
6.54014 59.2969
6.58483 56.1964
6.62952 54.2192
6.67421 53.1399
6.71892 52.3967
6.76361 52.3085
6.8083 51.8286
6.853 50.6469
6.89769 49.7627
6.94239 48.9853
6.98711 47.5354
7.03181 48.2321
7.07651 48.4766
7.12121 49.3003
7.16591 51.5852
7.21063 53.9367
7.25533 56.8304
7.30004 62.7786
7.34475 69.5599
7.38945 72.1476
7.43416 68.1255
7.47889 63.9799
7.5236 63.6411
7.56831 86.4739
7.61303 167.464
7.65774 110.402
7.70247 53.6653
7.74719 44.156
7.79191 41.1104
7.83663 39.6174
7.88135 39.4042
7.92607 38.5528
7.97081 38.7745
8.01553 38.7061
8.06026 39.0817
8.10498 39.8926
8.14971 40.6875
8.19446 41.9851
8.23919 43.3513
8.28392 45.1582
8.32865 46.7896
8.37339 49.8961
8.41812 53.7132
8.46288 60.1949
8.50761 70.2071
8.55235 90.1129
8.59709 136.056
8.64183 192.466
8.68658 290.59
8.73134 590.911
8.77609 790.624
8.82083 409.705
8.86558 175.386
8.91033 107.486
8.9551 82.1348
8.99985 71.0777
9.04461 64.3868
9.08936 60.5133
9.13412 57.7498
9.17888 57.8499
9.22365 62.1455
9.26841 93.1085
9.31318 228.006
9.35794 223.132
9.4027 86.0005
9.44749 55.9675
9.49226 51.0506
9.53703 48.897
9.5818 48.0755
9.62657 47.8103
9.67134 48.5795
9.71614 49.5114
9.76091 50.579
9.80569 51.8543
9.85047 54.0984
9.89525 57.4285
9.94005 61.7799
9.98484 69.4891
10.0296 84.2366
10.0744 115.818
10.1192 162.712
10.164 204.466
10.2088 347.611
10.2536 704.607
10.2984 768.392
10.3432 381.68
10.388 167.481
10.4328 105.838
10.4776 84.2236
10.5224 80.578
10.5672 87.0372
10.612 91.7522
10.6568 118.291
10.7017 216.714
10.7465 305.781
10.7913 212.443
10.8361 98.2565
10.8809 59.2987
10.9257 48.6459
10.9706 44.9922
11.0154 42.4626
11.0602 41.4073
11.105 40.653
11.1499 39.769
11.1947 39.1948
11.2395 39.2113
11.2844 39.2276
11.3292 39.0735
11.374 38.4303
11.4189 38.4613
11.4637 37.751
11.5086 37.2012
11.5534 36.7458
11.5983 36.9075
11.6431 36.7861
11.688 36.5832
11.7328 36.625
11.7777 36.2741
11.8225 36.3293
11.8674 36.5315
11.9122 37.8533
11.9571 41.736
12.002 59.6219
12.0468 94.7708
12.0917 82.2956
12.1366 50.5478
12.1814 45.5636
12.2263 46.8933
12.2712 50.389
12.3161 60.6355
12.3609 82.8009
12.4058 99.3435
12.4507 80.9044
12.4956 57.7488
12.5405 46.8572
12.5853 42.1434
12.6302 39.7258
12.6751 38.5042
12.72 38.6631
12.7649 38.8457
12.8098 38.8626
12.8547 38.4533
12.8996 38.4238
12.9445 38.1855
12.9894 38.5267
13.0343 38.631
13.0792 39.9574
13.1242 42.1705
13.1691 50.4791
13.214 60.7
13.2589 61.3864
13.3038 64.0698
13.3487 69.057
13.3937 79.6073
13.4386 111.939
13.4835 186.515
13.5285 237.874
13.5734 175.997
13.6183 109.58
13.6633 86.8379
13.7082 79.5791
13.7531 85.3088
13.7981 120.101
13.843 195.525
13.888 217.336
13.9329 134.902
13.9779 76.2551
14.0228 54.694
14.0678 46.3349
14.1127 43.1757
14.1577 43.4555
14.2027 52.8435
14.2476 80.7837
14.2926 88.9992
14.3376 57.2422
14.3825 40.4019
14.4275 37.0197
14.4725 35.9594
14.5175 35.2425
14.5624 34.6886
14.6074 34.6346
14.6524 34.6012
14.6974 34.8115
14.7424 35.4476
14.7874 35.767
14.8324 37.13
14.8774 39.1763
14.9224 42.6859
14.9674 46.7501
15.0124 48.7907
15.0574 52.9647
15.1024 65.619
15.1474 96.3242
15.1924 133.787
15.2374 124.79
15.2824 83.9228
15.3274 56.7503
15.3725 45.5788
15.4175 40.9894
15.4625 38.6573
15.5076 37.3109
15.5526 36.8671
15.5976 36.399
15.6426 36.1317
15.6877 36.2464
15.7327 36.9651
15.7778 38.0616
15.8228 41.0712
15.8679 44.891
15.9129 46.6971
15.958 49.4333
16.003 57.2087
16.0481 76.9535
16.0931 113.736
16.1382 140.392
16.1833 119.595
16.2283 80.3691
16.2734 53.0563
16.3185 41.7835
16.3636 37.1002
16.4086 34.5316
16.4537 33.0961
16.4988 32.1852
16.5439 31.6238
16.589 31.217
16.6341 30.756
16.6792 30.2565
16.7243 30.1994
16.7694 29.9675
16.8145 29.9531
16.8596 29.9524
16.9047 30.0669
16.9498 30.5449
16.9949 32.4265
17.04 36.894
17.0851 40.0984
17.1302 36.0503
17.1754 32.2079
17.2205 31.6925
17.2656 31.9832
17.3108 32.8252
17.3559 32.8782
17.401 33.6534
17.4462 35.8171
17.4913 40.9145
17.5365 49.3382
17.5815 53.0519
17.6268 46.4012
17.6718 38.4477
17.7171 34.5424
17.7622 33.3986
17.8074 33.6819
17.8525 36.0412
17.8977 40.5963
17.9428 41.6449
17.9881 37.9593
18.0331 38.1837
18.0784 39.7761
18.1237 41.5732
18.1688 42.3979
18.214 45.7341
18.2591 53.9058
18.3044 73.2078
18.3495 101.619
18.3948 112.37
18.4399 89.189
18.4852 64.6084
18.5303 57.7529
18.5756 63.0447
18.6207 77.2367
18.666 80.1712
18.7112 66.3002
18.7565 50.4605
18.8016 40.4586
18.8469 35.9764
18.892 34.0032
18.9374 32.8361
18.9825 32.2796
19.0278 31.8127
19.073 31.4537
19.1183 31.2185
19.1635 31.04
19.2088 31.4805
19.254 31.9261
19.2993 32.6512
19.3447 33.9637
19.3898 35.945
19.4352 41.8645
19.4804 48.8185
19.5257 49.348
19.5709 45.8691
19.6163 48.6752
19.6615 51.6948
19.7068 47.1414
19.752 39.7052
19.7974 34.7294
19.8426 32.4753
19.888 31.2431
19.9332 30.4902
19.9786 30.6712
20.0238 30.5974
20.0692 31.0623
20.1144 31.0591
20.1598 31.5061
20.205 32.0247
20.2504 34.3692
20.2957 38.0978
20.3411 44.1181
20.3863 49.5639
20.4318 47.6158
20.477 41.9221
20.5224 39.4135
20.5677 42.2026
20.6131 46.8315
20.6586 45.5657
20.7038 38.8475
20.7493 33.488
20.7945 30.8095
20.84 30.0849
20.8853 31.523
20.9307 33.5001
20.976 33.4287
21.0215 30.5261
21.0668 28.1271
21.1122 27.4662
21.1575 27.2657
21.203 27.1489
21.2483 27.0533
21.2938 27.1691
21.3391 27.111
21.3846 27.2798
21.4299 27.7626
21.4754 29.0926
21.5207 31.0948
21.5662 32.5132
21.6116 31.955
21.6571 30.4008
21.7024 28.9608
21.7479 28.3949
21.7933 28.4285
21.8388 29.0416
21.8843 29.6743
21.9297 29.8024
21.9752 30.3957
22.0206 31.7039
22.0661 33.6019
22.1115 37.1404
22.157 42.988
22.2024 50.8174
22.248 53.8182
22.2933 50.6531
22.3389 45.4659
22.3843 42.1027
22.4299 41.347
22.4753 39.8488
22.5208 36.1849
22.5662 32.2965
22.6118 30.4884
22.6572 29.3555
22.7028 28.7794
22.7483 28.4549
22.7939 28.5204
22.8393 28.801
22.8849 29.6671
22.9303 30.9337
22.9759 31.8354
23.0214 31.231
23.067 30.4007
23.1126 30.6875
23.1581 31.9822
23.2037 35.2546
23.2492 40.645
23.2948 45.5904
23.3403 44.7756
23.3859 38.9919
23.4314 34.2717
23.477 32.3301
23.5225 32.6803
23.5682 34.3258
23.6137 35.3275
23.6593 34.1222
23.7048 32.4091
23.7505 32.6376
23.796 34.4068
23.8417 38.7993
23.8872 45.3204
23.9329 49.1973
23.9784 45.514
24.0241 37.9985
24.0697 32.546
24.1154 29.7744
24.1609 28.6603
24.2066 28.2591
24.2522 27.782
24.2979 26.9333
24.3434 26.1617
24.3892 25.7373
24.4349 25.4477
24.4805 25.2562
24.5262 25.2662
24.5718 25.0132
24.6175 25.0039
24.6631 25.0014
24.7089 25.1519
24.7545 25.769
24.8002 26.9766
24.8458 27.5412
24.8916 27.2162
24.9372 26.3045
24.983 25.9631
25.0286 25.3768
25.0744 25.1313
25.12 24.9912
25.1658 25.1913
25.2114 25.1124
25.2572 25.3851
25.3029 25.961
25.3487 26.533
25.3943 27.5023
25.4402 28.8113
25.4858 30.2997
25.5316 31.1405
25.5773 31.0472
25.6231 31.4579
25.669 32.8106
25.7147 34.1376
25.7605 32.8753
25.8062 29.9376
25.8521 27.4754
25.8977 26.3736
25.9436 26.2883
25.9893 26.5129
26.0352 26.6335
26.0809 25.7178
26.1268 25.2041
26.1725 24.8506
26.2184 24.7613
26.2641 24.9127
26.31 25.3797
26.3557 26.2503
26.4017 27.6276
26.4474 29.1842
26.4933 29.6803
26.5391 28.6973
26.585 27.1897
26.6308 26.2521
26.6767 25.5668
26.7225 25.4594
26.7684 25.5039
26.8142 25.7464
26.8601 26.294
26.9059 27.2983
26.9519 29.1924
26.9979 31.6915
27.0437 32.9454
27.0896 32.8362
27.1354 32.0392
27.1814 30.7026
27.2272 29.0666
27.2732 27.4194
27.3191 25.7973
27.3651 24.8548
27.4109 24.2716
27.4569 23.938
27.5027 23.7735
27.5488 23.7936
27.5946 23.712
27.6407 23.9304
27.6865 24.0661
27.7326 24.0939
27.7784 24.2187
27.8245 24.3258
27.8703 25.1176
27.9164 25.8207
27.9623 25.7175
28.0084 25.3246
28.0543 24.8919
28.1003 24.6553
28.1462 25.1119
28.1923 25.906
28.2384 26.3607
28.2843 26.3547
28.3304 26.4425
28.3764 27.5998
28.4225 29.6208
28.4684 30.9073
28.5145 30.2754
28.5605 28.995
28.6066 28.3568
28.6526 27.8621
28.6987 26.8882
28.7447 25.7253
28.7908 24.4353
28.8368 23.5224
28.8829 22.873
28.9289 22.5652
28.9751 22.2483
29.0211 22.0743
29.0673 21.8677
29.1133 21.9644
29.1595 22.0941
29.2055 22.3659
29.2517 22.984
29.2977 23.4429
29.3439 23.344
29.3899 22.898
29.4361 22.1354
29.4824 21.7641
29.5284 21.4575
29.5746 21.4322
29.6207 21.4313
29.6669 21.6256
29.713 22.0159
29.7593 22.4787
29.8053 23.0173
29.8516 23.1102
29.8977 22.6395
29.9439 21.6494
29.99 21.1893
30.0363 20.831
30.0824 20.7346
30.1287 20.6977
30.1748 20.6991
30.2211 21.0975
30.2673 21.3274
30.3136 21.3433
30.3597 21.0326
30.406 20.6506
30.4522 20.4974
30.4985 20.6234
30.5447 21.0094
30.591 21.1797
30.6372 21.3572
30.6835 21.4853
30.7297 21.2718
30.7761 20.9898
30.8224 20.7764
30.8686 20.8473
30.915 20.8423
30.9612 21.0423
31.0076 21.5832
31.0538 22.2111
31.1002 23.1798
31.1464 23.9506
31.1928 24.167
31.2391 23.7762
31.2855 23.26
31.3317 22.5534
31.3781 21.8185
31.4244 21.083
31.4708 20.6161
31.5171 20.3519
31.5636 20.2936
31.6098 20.2162
31.6563 20.2232
31.7026 20.4616
31.7491 20.6989
31.7953 21.0412
31.8418 21.3432
31.8881 21.868
31.9346 22.274
31.9809 22.0601
32.0275 21.3749
32.074 20.783
32.1203 20.4252
32.1668 20.412
32.2132 20.4875
32.2597 20.6027
32.306 20.9144
32.3526 21.245
32.399 21.6981
32.4455 21.6589
32.4919 21.2597
32.5385 20.7951
32.5848 20.3396
32.6314 20.0525
32.6778 19.6408
32.7244 19.2103
32.7708 18.8306
32.8174 18.7461
32.8638 18.4646
32.9104 18.4457
32.9569 18.4157
33.0035 18.3281
33.0499 18.5187
33.0966 18.708
33.143 18.8304
33.1897 18.7494
33.2361 18.4978
33.2828 18.3548
33.3293 18.2097
33.3759 18.2115
33.4226 18.1794
33.4691 18.3233
33.5158 18.553
33.5623 18.9125
33.609 19.1876
33.6555 19.4954
33.7022 19.5824
33.7487 19.6175
33.7954 19.5169
33.842 19.1149
33.8887 18.5753
33.9353 18.1602
33.982 17.9014
34.0286 17.8317
34.0753 17.6695
34.1219 17.5671
34.1687 17.4865
34.2152 17.4593
34.262 17.4351
34.3086 17.6014
34.3554 17.7323
34.402 17.646
34.4488 17.5288
34.4954 17.2416
34.5422 17.0705
34.5889 16.8837
34.6357 16.8536
34.6825 16.9343
34.7292 17.0132
34.776 17.0844
34.8227 17.1037
34.8695 17.0452
34.9162 16.8742
34.9631 16.7068
35.0098 16.5902
35.0566 16.2779
35.1033 16.2058
35.1502 16.1949
35.1969 16.07
35.2438 16.0711
35.2906 16.131
35.3375 16.1315
35.3842 16.1697
35.4311 16.3138
35.4779 16.2324
35.5248 16.273
35.5716 16.2272
35.6185 16.2428
35.6653 16.2183
35.7123 16.2455
35.759 16.4458
35.806 16.6867
35.8528 16.864
35.8998 17.2332
35.9468 17.3703
35.9936 17.4578
36.0406 17.2405
36.0874 17.0395
36.1345 16.6831
36.1813 16.3673
36.2283 16.1001
36.2752 15.7913
36.3222 15.8211
36.3691 15.6146
36.4161 15.4594
36.463 15.5246
36.5101 15.6076
36.557 15.6405
36.6041 15.7312
36.651 15.8727
36.6981 15.8912
36.745 15.727
36.7921 15.5804
36.839 15.322
36.8861 15.315
36.9331 15.2693
36.9802 15.3638
37.0272 15.3944
37.0743 15.4959
37.1213 15.5471
37.1684 15.4849
37.2154 15.3527
37.2626 15.135
37.3098 14.9365
37.3568 14.8445
37.404 14.6761
37.451 14.5597
37.4982 14.5767
37.5452 14.4967
37.5924 14.4109
37.6395 14.4122
37.6867 14.3846
37.7337 14.3104
37.781 14.3476
37.8281 14.2812
37.8753 14.1603
37.9224 14.1035
37.9697 14.0149
38.0168 13.9932
38.064 13.9999
38.1111 14.0554
38.1584 14.1025
38.2056 14.103
38.2529 14.1201
38.3 14.0298
38.3473 13.9873
38.3945 13.7563
38.4418 13.685
38.489 13.5528
38.5363 13.5038
38.5837 13.4984
38.6309 13.4864
38.6782 13.4594
38.7254 13.4428
38.7728 13.5461
38.82 13.5731
38.8674 13.554
38.9146 13.475
38.9621 13.3791
39.0093 13.2602
39.0567 13.2567
39.104 13.2647
39.1514 13.304
39.1987 13.322
39.2461 13.4144
39.2934 13.2585
39.3409 13.1031
39.3882 12.9468
39.4356 12.9109
39.483 12.8024
39.5304 12.7132
39.5778 12.7318
39.6253 12.5666
39.6726 12.5837
39.7201 12.5136
39.7675 12.553
39.815 12.4833
39.8624 12.4845
39.9099 12.5085
39.9575 12.4483
40.0049 12.362
40.0525 12.3289
40.0999 12.288
40.1474 12.3256
40.1949 12.2849
40.2425 12.2962
40.2899 12.4067
40.3375 12.4502
40.385 12.3589
40.4326 12.3676
40.48 12.3471
40.5277 12.17
40.5752 12.1364
40.6228 12.0205
40.6703 12.054
40.718 12.0198
40.7655 11.9799
40.8132 11.8682
40.8607 11.9131
40.9084 11.8766
40.9559 11.848
41.0036 11.8237
41.0512 11.7557
41.0989 11.7317
41.1465 11.706
41.1942 11.7908
41.242 11.7172
41.2896 11.7626
41.3373 11.7619
41.3849 11.7542
41.4327 11.6029
41.4803 11.4919
41.5281 11.4886
41.5758 11.3267
41.6236 11.2818
41.6712 11.1889
41.7191 11.1928
41.7667 11.1628
41.8146 11.1342
41.8622 11.1168
41.9101 11.1444
41.9578 11.0082
42.0057 11.0092
42.0534 10.9204
42.1013 10.9849
42.149 10.931
42.1969 10.9715
42.2446 11.0175
42.2925 11.0585
42.3403 10.9984
42.3882 10.9662
42.436 10.8559
42.4839 10.7713
42.5319 10.6615
42.5797 10.6472
42.6277 10.5697
42.6755 10.4893
42.7235 10.413
42.7713 10.3838
42.8193 10.4276
42.8671 10.3468
42.9152 10.3423
42.963 10.3023
43.0111 10.2584
43.0589 10.2593
43.107 10.1434
43.1549 10.1815
43.2029 10.0871
43.2508 10.0586
43.2989 10.026
43.3468 9.96907
43.3949 9.92992
43.4429 9.89253
43.491 9.86498
43.5389 9.80283
43.5871 9.82339
43.635 9.74995
43.6832 9.77177
43.7312 9.7066
43.7793 9.66139
43.8273 9.61822
43.8755 9.62606
43.9237 9.57143
43.9717 9.5592
44.0199 9.55696
44.068 9.55996
44.1162 9.5327
44.1642 9.49716
44.2125 9.53179
44.2606 9.51012
44.3088 9.45775
44.3569 9.43558
44.4052 9.44619
44.4533 9.32732
44.5016 9.31034
44.5497 9.24076
44.598 9.20113
44.6461 9.16356
44.6945 9.16693
44.7426 9.15003
44.791 9.14643
44.8391 9.11406
44.8875 9.05045
44.9357 9.08266
44.984 9.01834
45.0322 8.95743
45.0806 8.99031
45.1288 8.96882
45.1773 8.97016
45.2257 8.95186
45.2739 8.87083
45.3224 8.803
45.3706 8.83784
45.4191 8.71319
45.4673 8.68921
45.5158 8.65246
45.5641 8.65145
45.6126 8.56164
45.6609 8.54876
45.7094 8.52591
45.7577 8.46637
45.8063 8.49174
45.8546 8.51261
45.9031 8.4242
45.9515 8.4231
46.0001 8.41856
46.0484 8.38502
46.097 8.38645
46.1454 8.33893
46.194 8.30455
46.2424 8.30769
46.291 8.25278
46.3395 8.21258
46.3881 8.14091
46.4365 8.1257
46.4852 8.0861
46.5337 8.05024
46.5823 8.06268
46.631 8.04806
46.6795 7.98241
46.7282 8.04435
46.7767 8.00186
46.8254 7.89738
46.8739 7.87675
46.9226 7.84106
46.9712 7.85194
47.0199 7.82753
47.0685 7.80699
47.1173 7.76238
47.1658 7.69857
47.2146 7.69262
47.2632 7.67542
47.312 7.62334
47.3606 7.60508
47.4095 7.57432
47.4581 7.48877
47.5069 7.49468
47.5556 7.47621
47.6044 7.41078
47.6531 7.43804
47.702 7.38988
47.7507 7.34806
47.7996 7.33922
47.8483 7.34568
47.8972 7.36102
47.9461 7.29493
47.9948 7.26168
48.0438 7.21197
48.0925 7.22227
48.1415 7.16481
48.1902 7.11865
48.2392 7.08169
48.288 7.09462
48.337 7.03286
48.3858 7.02069
48.4348 7.00032
48.4837 6.96613
48.5327 6.96567
48.5815 6.93738
48.6306 6.94499
48.6795 6.89746
48.7285 6.84021
48.7774 6.85296
48.8265 6.81281
48.8754 6.78854
48.9245 6.79928
48.9734 6.75865
49.0226 6.73487
49.0715 6.68494
49.1206 6.68053
49.1696 6.63834
49.2188 6.62022
49.2679 6.58475
49.3169 6.56301
49.3661 6.57246
49.4151 6.54598
49.4643 6.49774
49.5134 6.45482
49.5626 6.43128
49.6117 6.46955
49.6609 6.42312
49.71 6.41542
49.7592 6.42307
49.8083 6.38216
49.8576 6.34834
49.9067 6.34509
49.956 6.30163
50.0052 6.24921
50.0545 6.23677
50.1036 6.23423
50.153 6.22504
50.2022 6.1843
50.2515 6.20207
50.3007 6.13538
50.3501 6.1354
50.3993 6.09806
50.4487 6.11082
50.498 6.10183
50.5474 6.05468
50.5966 6.0147
50.6461 5.99275
50.6955 5.98753
50.7448 5.94199
50.7943 5.95056
50.8436 5.90007
50.8931 5.89248
50.9424 5.85252
50.9919 5.83521
51.0413 5.81509
51.0908 5.80699
51.1402 5.79003
51.1897 5.74621
51.2391 5.74528
51.2887 5.69783
51.3381 5.68928
51.3877 5.66761
51.4371 5.64293
51.4867 5.64037
51.5362 5.58748
51.5858 5.5728
51.6353 5.50106
51.6849 5.55662
51.7344 5.49678
51.7841 5.48862
51.8336 5.45785
51.8833 5.401
51.9328 5.38967
51.9826 5.39929
52.0323 5.37638
52.0818 5.35617
52.1316 5.29335
52.1812 5.31256
52.231 5.31133
52.2806 5.27835
52.3304 5.23776
52.38 5.19911
52.4298 5.17897
52.4794 5.19244
52.5293 5.12973
52.5789 5.13143
52.6288 5.12005
52.6785 5.10082
52.7284 5.06349
52.7781 5.08873
52.828 5.0393
52.8777 5.01735
52.9276 4.99551
52.9774 4.9511
53.0273 4.97535
53.0771 4.9285
53.1271 4.91216
53.1769 4.9018
53.2269 4.85788
53.2767 4.83138
53.3267 4.84193
53.3765 4.8125
53.4266 4.80956
53.4766 4.75964
53.5265 4.75628
53.5765 4.74304
53.6264 4.70114
53.6765 4.68291
53.7264 4.67464
53.7765 4.67191
53.8265 4.63843
53.8766 4.61644
53.9266 4.56107
53.9767 4.5856
54.0267 4.53715
54.0769 4.52431
54.1269 4.49734
54.1771 4.44858
54.2271 4.4577
54.2773 4.43716
54.3274 4.40145
54.3776 4.37165
54.4277 4.29803
54.478 4.33023
54.528 4.28073
54.5783 4.21765
54.6285 4.21262
54.6788 4.14026
54.7289 4.18246
54.7792 4.13871
54.8296 4.08982
54.8798 4.02404
54.9301 4.04908
54.9803 4.0368
55.0307 4.01963
55.0809 3.95499
55.1314 3.92587
55.1816 3.84124
55.232 3.85008
55.2823 3.79979
55.3328 3.75552
55.383 3.69591
55.4335 3.74588
55.4838 3.59555
55.5344 3.63841
55.5847 3.60643
55.6352 3.57403
55.6856 3.59639
55.7361 3.48446