File: XRD/Ni3Fe_FD0529.xy
TT I
1.27165 7.46262
1.31627 6.82613
1.36089 6.21493
1.40551 5.98114
1.45013 6.83377
1.49476 6.15774
1.53938 5.66737
1.584 5.46324
1.62863 5.14773
1.67325 5.19485
1.71787 5.26089
1.7625 4.99533
1.80712 4.79278
1.85174 4.7244
1.89636 4.79705
1.94099 5.01591
1.98562 4.87076
2.03025 4.38189
2.07487 4.65837
2.11949 5.31903
2.16411 5.20695
2.20874 16.7016
2.25338 27.5343
2.298 6.23124
2.34263 5.18725
2.38725 5.79838
2.43188 6.76384
2.4765 5.45599
2.52115 6.33877
2.56577 7.09888
2.6104 8.34766
2.65503 7.66765
2.69965 8.2898
2.7443 7.79723
2.78893 7.93804
2.83356 8.30728
2.87818 8.4273
2.92281 9.44321
2.96744 10.2533
3.01209 10.1597
3.05672 11.4136
3.10135 12.324
3.14599 12.9247
3.19062 14.4565
3.23527 15.1325
3.2799 15.4281
3.32454 17.0482
3.36917 18.05
3.4138 19.3304
3.45844 20.2659
3.50309 20.7581
3.54773 22.3597
3.59237 24.603
3.637 112.167
3.68164 68.8444
3.7263 27.0304
3.77094 26.654
3.81558 27.4251
3.86022 27.951
3.90486 29.1463
3.9495 30.4056
3.99416 31.4471
4.0388 32.9309
4.08344 34.5003
4.12809 35.0157
4.17273 37.8948
4.21738 45.2266
4.26204 305.618
4.30669 271.767
4.35133 51.0925
4.39598 45.4328
4.44063 57.1233
4.4853 71.2515
4.52995 51.4841
4.5746 51.1905
4.61925 53.6581
4.6639 55.6507
4.70855 58.4303
4.75322 61.3631
4.79788 64.2021
4.84253 67.9537
4.88719 71.6731
4.93184 75.4188
4.97652 80.9242
5.02118 87.3029
5.06583 94.8402
5.11049 106.766
5.15515 191.137
5.19981 374.143
5.24449 2772.69
5.28916 11963.7
5.33382 3348.73
5.37848 205.952
5.42315 133.986
5.46783 116.059
5.5125 107.631
5.55716 103.101
5.60183 100.219
5.6465 98.2368
5.69117 95.262
5.73586 93.293
5.78053 92.7505
5.8252 91.677
5.86988 93.2884
5.91455 95.2522
5.95924 102.947
6.00392 208.431
6.0486 953.276
6.09328 4135.08
6.13795 3513.03
6.18263 300.308
6.22733 97.6192
6.27201 85.4325
6.3167 111.306
6.36138 84.4293
6.40606 70.382
6.45075 68.4027
6.49545 66.5834
6.54014 64.9756
6.58483 63.8549
6.62952 63.7575
6.67421 102.928
6.71892 170.009
6.76361 72.4787
6.8083 59.5872
6.853 58.519
6.89769 57.8461
6.94239 57.5434
6.98711 56.8618
7.03181 56.3926
7.07651 56.2305
7.12121 56.0476
7.16591 56.4152
7.21063 56.6173
7.25533 74.4071
7.30004 215.148
7.34475 104.235
7.38945 57.8902
7.43416 55.6218
7.47889 55.3891
7.5236 55.6253
7.56831 56.0901
7.61303 58.4795
7.65774 59.0518
7.70247 57.0183
7.74719 57.114
7.79191 57.526
7.83663 57.6725
7.88135 58.5959
7.92607 59.4763
7.97081 60.4377
8.01553 61.6252
8.06026 62.9904
8.10498 64.604
8.14971 76.2927
8.19446 74.7231
8.23919 70.1024
8.28392 72.66
8.32865 74.7754
8.37339 78.8715
8.41812 86.521
8.46288 121.386
8.50761 165.24
8.55235 380.491
8.59709 1101.92
8.64183 2156.1
8.68658 1072.32
8.73134 194.851
8.77609 102.262
8.82083 94.1116
8.86558 90.5301
8.91033 91.3236
8.9551 94.1184
8.99985 87.0245
9.04461 84.3374
9.08936 83.5094
9.13412 82.6571
9.17888 83.0427
9.22365 83.7444
9.26841 82.7424
9.31318 83.3991
9.35794 83.5396
9.4027 83.5385
9.44749 84.3375
9.49226 85.2194
9.53703 86.179
9.5818 88.0237
9.62657 93.5403
9.67134 102.183
9.71614 94.7995
9.76091 94.8529
9.80569 96.9421
9.85047 100.656
9.89525 130.359
9.94005 144.584
9.98484 174.819
10.0296 334.625
10.0744 764.712
10.1192 1651.03
10.164 1675.18
10.2088 464.861
10.2536 134.727
10.2984 117.042
10.3432 119.67
10.388 106.245
10.4328 117.931
10.4776 158.598
10.5224 270.156
10.5672 494.409
10.612 541.794
10.6568 225.51
10.7017 100.207
10.7465 87.8721
10.7913 84.384
10.8361 82.3167
10.8809 79.8903
10.9257 79.9602
10.9706 80.8776
11.0154 76.2887
11.0602 73.7335
11.105 72.8892
11.1499 78.9105
11.1947 88.5991
11.2395 77.1201
11.2844 72.113
11.3292 68.2447
11.374 67.0129
11.4189 66.4692
11.4637 65.8842
11.5086 66.3218
11.5534 70.3646
11.5983 66.9472
11.6431 64.6328
11.688 63.8143
11.7328 63.7507
11.7777 63.921
11.8225 63.2201
11.8674 63.1072
11.9122 63.7364
11.9571 63.648
12.002 64.1903
12.0468 68.4202
12.0917 79.4342
12.1366 102.149
12.1814 146.899
12.2263 202.829
12.2712 176.998
12.3161 103.907
12.3609 73.3433
12.4058 65.9803
12.4507 65.3508
12.4956 65.4177
12.5405 65.5018
12.5853 66.355
12.6302 76.3543
12.6751 83.8736
12.72 72.0375
12.7649 68.4865
12.8098 69.0221
12.8547 70.524
12.8996 71.8262
12.9445 72.8133
12.9894 74.6965
13.0343 76.386
13.0792 79.4517
13.1242 88.1556
13.1691 112.17
13.214 147.391
13.2589 226.486
13.3038 349.979
13.3487 436.502
13.3937 290.158
13.4386 131.839
13.4835 106.816
13.5285 120.376
13.5734 155.616
13.6183 237.185
13.6633 338.238
13.7082 353.165
13.7531 202.153
13.7981 103.322
13.843 83.2857
13.888 80.5958
13.9329 77.7943
13.9779 76.7308
14.0228 75.177
14.0678 73.9712
14.1127 73.3902
14.1577 73.4664
14.2027 72.3092
14.2476 71.4968
14.2926 71.762
14.3376 72.9965
14.3825 71.4246
14.4275 69.58
14.4725 69.3332
14.5175 69.3265
14.5624 69.9765
14.6074 72.4121
14.6524 73.0052
14.6974 71.2441
14.7424 72.485
14.7874 79.122
14.8324 88.7409
14.8774 108.941
14.9224 147.126
14.9674 198.204
15.0124 219.205
15.0574 158.918
15.1024 95.7516
15.1474 73.7084
15.1924 71.5024
15.2374 72.7916
15.2824 71.9078
15.3274 69.3487
15.3725 67.7615
15.4175 67.2343
15.4625 66.7337
15.5076 67.3986
15.5526 67.146
15.5976 66.498
15.6426 67.1056
15.6877 72.4253
15.7327 79.6791
15.7778 94.0807
15.8228 121.652
15.8679 164.671
15.9129 194.669
15.958 164.589
16.003 103.441
16.0481 70.7946
16.0931 66.3023
16.1382 64.3425
16.1833 61.4976
16.2283 60.0273
16.2734 59.2931
16.3185 59.7382
16.3636 60.9479
16.4086 59.0037
16.4537 56.9794
16.4988 56.3878
16.5439 56.2566
16.589 55.9853
16.6341 55.4363
16.6792 55.1916
16.7243 55.7386
16.7694 55.8075
16.8145 55.6655
16.8596 55.8874
16.9047 57.9774
16.9498 58.4181
16.9949 56.765
17.04 56.5695
17.0851 57.4948
17.1302 59.1306
17.1754 62.099
17.2205 66.231
17.2656 73.5847
17.3108 82.2351
17.3559 82.8986
17.401 73.4988
17.4462 63.5504
17.4913 59.9499
17.5365 59.6097
17.5815 60.0163
17.6268 60.2215
17.6718 61.0594
17.7171 61.6461
17.7622 61.9395
17.8074 62.3436
17.8525 64.6073
17.8977 68.6239
17.9428 74.0991
17.9881 81.9223
18.0331 97.4454
18.0784 117.812
18.1237 137.638
18.1688 135.183
18.214 108.684
18.2591 88.4232
18.3044 89.8916
18.3495 98.7339
18.3948 107.275
18.4399 100.424
18.4852 81.1558
18.5303 67.7702
18.5756 63.3635
18.6207 62.0746
18.666 61.2013
18.7112 60.454
18.7565 59.7993
18.8016 59.3875
18.8469 58.8254
18.892 58.5397
18.9374 57.9346
18.9825 57.6562
19.0278 57.7542
19.073 57.6505
19.1183 58.1844
19.1635 58.9699
19.2088 60.1963
19.254 62.5645
19.2993 66.44
19.3447 72.4346
19.3898 76.9014
19.4352 74.0644
19.4804 65.0607
19.5257 58.0109
19.5709 55.0112
19.6163 54.4498
19.6615 54.5825
19.7068 53.9358
19.752 54.0736
19.7974 54.3102
19.8426 55.0857
19.888 55.6444
19.9332 56.8441
19.9786 58.873
20.0238 62.2635
20.0692 66.7146
20.1144 70.4208
20.1598 69.5331
20.205 64.7357
20.2504 62.6502
20.2957 63.8198
20.3411 66.1276
20.3863 65.4483
20.4318 59.8137
20.477 54.713
20.5224 52.71
20.5677 51.6852
20.6131 50.8714
20.6586 50.4696
20.7038 50.1572
20.7493 49.6943
20.7945 49.5876
20.84 49.3499
20.8853 49.2483
20.9307 49.113
20.976 49.1613
21.0215 49.2274
21.0668 49.5526
21.1122 49.9106
21.1575 50.6767
21.203 51.0883
21.2483 51.8889
21.2938 52.044
21.3391 50.9587
21.3846 49.7269
21.4299 49.0535
21.4754 48.7681
21.5207 49.2209
21.5662 49.2455
21.6116 49.6531
21.6571 50.3881
21.7024 51.2825
21.7479 52.9374
21.7933 55.4887
21.8388 58.5279
21.8843 62.311
21.9297 64.9622
21.9752 64.7808
22.0206 61.0103
22.0661 57.413
22.1115 56.4762
22.157 56.629
22.2024 55.3467
22.248 52.3847
22.2933 50.8117
22.3389 49.727
22.3843 49.9049
22.4299 49.7129
22.4753 49.6971
22.5208 49.2235
22.5662 49.0897
22.6118 49.2648
22.6572 49.4071
22.7028 49.8482
22.7483 50.2181
22.7939 50.8707
22.8393 52.1962
22.8849 54.0613
22.9303 56.1728
22.9759 58.2133
23.0214 58.2622
23.067 55.6702
23.1126 52.1315
23.1581 49.9903
23.2037 49.4059
23.2492 49.3268
23.2948 49.3634
23.3403 49.4693
23.3859 50.2331
23.4314 51.2181
23.477 52.7533
23.5225 54.8076
23.5682 56.9201
23.6137 58.4644
23.6593 56.9725
23.7048 52.8992
23.7505 49.2499
23.796 47.4222
23.8417 46.6195
23.8872 46.2354
23.9329 45.7243
23.9784 45.4566
24.0241 45.2499
24.0697 45.0735
24.1154 44.6138
24.1609 44.6805
24.2066 44.3404
24.2522 44.1619
24.2979 43.8755
24.3434 43.8556
24.3892 43.7085
24.4349 43.5968
24.4805 43.3898
24.5262 43.7596
24.5718 43.2731
24.6175 43.527
24.6631 43.4712
24.7089 43.1206
24.7545 42.9485
24.8002 42.7806
24.8458 42.7402
24.8916 42.5811
24.9372 42.6588
24.983 42.9033
25.0286 43.1191
25.0744 43.7055
25.12 44.0022
25.1658 44.6546
25.2114 45.1168
25.2572 45.181
25.3029 45.259
25.3487 45.3423
25.3943 45.2702
25.4402 44.2102
25.4858 43.1513
25.5316 42.0647
25.5773 41.4469
25.6231 41.4336
25.669 41.0833
25.7147 41.0803
25.7605 40.9412
25.8062 41.0633
25.8521 41.1914
25.8977 41.0996
25.9436 41.3637
25.9893 41.3735
26.0352 41.8239
26.0809 42.0467
26.1268 42.337
26.1725 41.9913
26.2184 41.3725
26.2641 40.9173
26.31 40.6162
26.3557 40.5612
26.4017 40.5013
26.4474 40.982
26.4933 41.1295
26.5391 41.6565
26.585 42.1201
26.6308 42.4349
26.6767 42.6039
26.7225 42.6399
26.7684 42.0368
26.8142 41.5184
26.8601 40.9522
26.9059 40.6123
26.9519 40.0252
26.9979 39.7082
27.0437 39.3197
27.0896 39.2958
27.1354 39.1419
27.1814 39.0154
27.2272 39.0086
27.2732 38.9287
27.3191 38.769
27.3651 38.9563
27.4109 38.8384
27.4569 38.884
27.5027 38.8787
27.5488 38.9487
27.5946 38.9676
27.6407 38.6606
27.6865 38.6901
27.7326 38.3449
27.7784 38.2768
27.8245 38.1657
27.8703 38.4719
27.9164 38.8044
27.9623 38.9181
28.0084 39.1051
28.0543 39.4196
28.1003 39.5944
28.1462 39.2341
28.1923 38.8908
28.2384 38.5256
28.2843 38.0829
28.3304 37.7457
28.3764 37.2052
28.4225 36.9826
28.4684 36.6723
28.5145 36.3501
28.5605 36.2671
28.6066 36.0665
28.6526 36.0712
28.6987 35.9983
28.7447 35.987
28.7908 35.9941
28.8368 35.869
28.8829 35.912
28.9289 35.7994
28.9751 35.6231
29.0211 35.5268
29.0673 35.0379
29.1133 35.0677
29.1595 34.8762
29.2055 34.72
29.2517 34.7624
29.2977 34.6449
29.3439 34.7224
29.3899 34.682
29.4361 34.5554
29.4824 34.3492
29.5284 34.2918
29.5746 33.7623
29.6207 33.6642
29.6669 33.5456
29.713 33.3968
29.7593 33.2414
29.8053 33.265
29.8516 33.1859
29.8977 33.3091
29.9439 32.9962
29.99 32.9959
30.0363 32.9033
30.0824 32.9356
30.1287 32.7625
30.1748 32.8609
30.2211 32.7438
30.2673 32.6339
30.3136 32.8821
30.3597 32.7007
30.406 32.5743
30.4522 32.443
30.4985 32.4798
30.5447 32.463
30.591 32.5323
30.6372 32.6014
30.6835 32.544
30.7297 32.5997
30.7761 32.5145
30.8224 32.2706
30.8686 32.308
30.915 32.02
30.9612 31.9043
31.0076 31.7142
31.0538 31.499
31.1002 31.4985
31.1464 31.2704
31.1928 31.2821
31.2391 31.3307
31.2855 31.3138
31.3317 31.2042
31.3781 31.325
31.4244 31.1839
31.4708 31.1174
31.5171 31.1555
31.5636 31.0522
31.6098 30.9404
31.6563 30.6571
31.7026 30.6765
31.7491 30.4886
31.7953 30.5531
31.8418 30.4126
31.8881 30.5225
31.9346 30.4475
31.9809 30.3706
32.0275 30.3465
32.074 30.1654
32.1203 30.0179
32.1668 29.9087
32.2132 29.7824
32.2597 29.6458
32.306 29.5468
32.3526 29.3859
32.399 29.2664
32.4455 29.0827
32.4919 28.9919
32.5385 28.9712
32.5848 28.8414
32.6314 28.8291
32.6778 28.8166
32.7244 28.6408
32.7708 28.5157
32.8174 28.4766
32.8638 28.3934
32.9104 28.3855
32.9569 28.3903
33.0035 28.2272
33.0499 28.1538
33.0966 28.2135
33.143 28.1811
33.1897 28.116
33.2361 27.9262
33.2828 27.988
33.3293 27.7474
33.3759 27.6677
33.4226 27.5647
33.4691 27.4658
33.5158 27.4001
33.5623 27.2238
33.609 26.9905
33.6555 27.0865
33.7022 26.9598
33.7487 26.8626
33.7954 26.8488
33.842 26.7041
33.8887 26.66
33.9353 26.5531
33.982 26.4536
34.0286 26.3908
34.0753 26.4182
34.1219 26.2363
34.1687 26.1432
34.2152 26.1824
34.262 25.9669
34.3086 25.9023
34.3554 25.8369
34.402 25.7423
34.4488 25.5958
34.4954 25.6112
34.5422 25.4927
34.5889 25.3303
34.6357 25.2871
34.6825 25.2562
34.7292 25.1059
34.776 25.0464
34.8227 24.9699
34.8695 24.9299
34.9162 24.8639
34.9631 24.7654
35.0098 24.8656
35.0566 24.6303
35.1033 24.5839
35.1502 24.5553
35.1969 24.5041
35.2438 24.5018
35.2906 24.4888
35.3375 24.3353
35.3842 24.271
35.4311 24.2859
35.4779 24.2228
35.5248 24.2282
35.5716 24.0551
35.6185 24.0557
35.6653 23.9812
35.7123 23.8305
35.759 23.7696
35.806 23.6921
35.8528 23.5656
35.8998 23.4552
35.9468 23.3526
35.9936 23.4307
36.0406 23.304
36.0874 23.2284
36.1345 23.186
36.1813 23.1041
36.2283 22.9788
36.2752 22.9354
36.3222 22.9259
36.3691 22.8967
36.4161 22.715
36.463 22.6922
36.5101 22.699
36.557 22.6185
36.6041 22.4496
36.651 22.4571
36.6981 22.4233
36.745 22.3049
36.7921 22.2571
36.839 22.1394
36.8861 22.0452
36.9331 22.0175
36.9802 21.9345
37.0272 21.8933
37.0743 21.7519
37.1213 21.7895
37.1684 21.7173
37.2154 21.6064
37.2626 21.4235
37.3098 21.5198
37.3568 21.4607
37.404 21.3152
37.451 21.2788
37.4982 21.1857
37.5452 21.0455
37.5924 21.0476
37.6395 21.1158
37.6867 20.9494
37.7337 20.911
37.781 20.7934
37.8281 20.7262
37.8753 20.6599
37.9224 20.6464
37.9697 20.527
38.0168 20.4855
38.064 20.3956
38.1111 20.342
38.1584 20.2371
38.2056 20.2268
38.2529 20.1432
38.3 20.0874
38.3473 20.0858
38.3945 19.8952
38.4418 19.856
38.489 19.8847
38.5363 19.744
38.5837 19.6981
38.6309 19.6204
38.6782 19.6074
38.7254 19.4865
38.7728 19.4526
38.82 19.3635
38.8674 19.2633
38.9146 19.2442
38.9621 19.2349
39.0093 19.1792
39.0567 19.1215
39.104 19.0616
39.1514 18.949
39.1987 18.8866
39.2461 18.9235
39.2934 18.8369
39.3409 18.6941
39.3882 18.611
39.4356 18.6131
39.483 18.5201
39.5304 18.462
39.5778 18.4874
39.6253 18.4154
39.6726 18.2963
39.7201 18.2982
39.7675 18.2579
39.815 18.0967
39.8624 18.0886
39.9099 18.12
39.9575 17.9882
40.0049 17.9334
40.0525 17.8431
40.0999 17.8125
40.1474 17.7208
40.1949 17.6699
40.2425 17.6559
40.2899 17.6043
40.3375 17.5411
40.385 17.475
40.4326 17.3983
40.48 17.3405
40.5277 17.3211
40.5752 17.2418
40.6228 17.1967
40.6703 17.1221
40.718 17.0795
40.7655 17.0059
40.8132 16.9853
40.8607 16.9471
40.9084 16.9398
40.9559 16.7868
41.0036 16.8034
41.0512 16.6861
41.0989 16.7324
41.1465 16.6089
41.1942 16.6198
41.242 16.4641
41.2896 16.3681
41.3373 16.3692
41.3849 16.293
41.4327 16.2876
41.4803 16.1993
41.5281 16.0972
41.5758 16.0634
41.6236 16.0299
41.6712 16.0249
41.7191 15.9182
41.7667 15.8814
41.8146 15.8682
41.8622 15.8002
41.9101 15.7591
41.9578 15.7058
42.0057 15.6155
42.0534 15.6096
42.1013 15.5392
42.149 15.4861
42.1969 15.3958
42.2446 15.3999
42.2925 15.3856
42.3403 15.2523
42.3882 15.2196
42.436 15.1796
42.4839 15.1403
42.5319 15.0874
42.5797 15.0577
42.6277 14.9549
42.6755 14.9366
42.7235 14.8481
42.7713 14.8095
42.8193 14.7368
42.8671 14.6892
42.9152 14.6758
42.963 14.5905
43.0111 14.5441
43.0589 14.4924
43.107 14.4888
43.1549 14.3942
43.2029 14.3411
43.2508 14.3736
43.2989 14.2448
43.3468 14.2206
43.3949 14.1582
43.4429 14.1561
43.491 14.0695
43.5389 13.9994
43.5871 13.9755
43.635 13.8985
43.6832 13.8554
43.7312 13.8325
43.7793 13.7815
43.8273 13.7052
43.8755 13.6601
43.9237 13.6151
43.9717 13.6006
44.0199 13.6035
44.068 13.5012
44.1162 13.4336
44.1642 13.4456
44.2125 13.3436
44.2606 13.3281
44.3088 13.2612
44.3569 13.2161
44.4052 13.1624
44.4533 13.1281
44.5016 13.0426
44.5497 13.0493
44.598 12.9494
44.6461 12.9521
44.6945 12.9338
44.7426 12.8353
44.791 12.7657
44.8391 12.7935
44.8875 12.7296
44.9357 12.6727
44.984 12.6701
45.0322 12.5822
45.0806 12.5313
45.1288 12.5049
45.1773 12.445
45.2257 12.4281
45.2739 12.3655
45.3224 12.2799
45.3706 12.2896
45.4191 12.2043
45.4673 12.1531
45.5158 12.1369
45.5641 12.0639
45.6126 12.1054
45.6609 12.0129
45.7094 11.9521
45.7577 11.9196
45.8063 11.8388
45.8546 11.8808
45.9031 11.8268
45.9515 11.7758
46.0001 11.7029
46.0484 11.6765
46.097 11.6296
46.1454 11.592
46.194 11.548
46.2424 11.5625
46.291 11.476
46.3395 11.4342
46.3881 11.363
46.4365 11.3561
46.4852 11.3196
46.5337 11.272
46.5823 11.2192
46.631 11.1795
46.6795 11.1378
46.7282 11.0748
46.7767 11.0936
46.8254 11.0215
46.8739 10.9516
46.9226 10.9057
46.9712 10.9131
47.0199 10.8557
47.0685 10.8544
47.1173 10.7779
47.1658 10.7675
47.2146 10.6941
47.2632 10.6415
47.312 10.6171
47.3606 10.5434
47.4095 10.548
47.4581 10.4793
47.5069 10.4501
47.5556 10.4339
47.6044 10.3813
47.6531 10.3384
47.702 10.2877
47.7507 10.2831
47.7996 10.2161
47.8483 10.1878
47.8972 10.1571
47.9461 10.0948
47.9948 10.0088
48.0438 10.0658
48.0925 10.0004
48.1415 9.95809
48.1902 9.91772
48.2392 9.93785
48.288 9.85308
48.337 9.82746
48.3858 9.75418
48.4348 9.77476
48.4837 9.74078
48.5327 9.69621
48.5815 9.66253
48.6306 9.6209
48.6795 9.61021
48.7285 9.50525
48.7774 9.50785
48.8265 9.49488
48.8754 9.45253
48.9245 9.4416
48.9734 9.37839
49.0226 9.34294
49.0715 9.31556
49.1206 9.2338
49.1696 9.25167
49.2188 9.19851
49.2679 9.15134
49.3169 9.12156
49.3661 9.06666
49.4151 9.06127
49.4643 9.0161
49.5134 9.00694
49.5626 8.93691
49.6117 8.97185
49.6609 8.86228
49.71 8.8296
49.7592 8.79727
49.8083 8.74095
49.8576 8.7743
49.9067 8.7011
49.956 8.68182
50.0052 8.62141
50.0545 8.63552
50.1036 8.57838
50.153 8.53961
50.2022 8.52321
50.2515 8.51416
50.3007 8.46596
50.3501 8.40526
50.3993 8.38911
50.4487 8.3665
50.498 8.31541
50.5474 8.27299
50.5966 8.22649
50.6461 8.2336
50.6955 8.17865
50.7448 8.16875
50.7943 8.16468
50.8436 8.10294
50.8931 8.06023
50.9424 8.05424
50.9919 7.99575
51.0413 7.97207
51.0908 7.97508
51.1402 7.87757
51.1897 7.88866
51.2391 7.84276
51.2887 7.79658
51.3381 7.76739
51.3877 7.78821
51.4371 7.69543
51.4867 7.68494
51.5362 7.6846
51.5858 7.6306
51.6353 7.54145
51.6849 7.55962
51.7344 7.49091
51.7841 7.51795
51.8336 7.49323
51.8833 7.45293
51.9328 7.38914
51.9826 7.35448
52.0323 7.31953
52.0818 7.33985
52.1316 7.27771
52.1812 7.23865
52.231 7.22666
52.2806 7.20984
52.3304 7.17343
52.38 7.14994
52.4298 7.08866
52.4794 7.08705
52.5293 7.03933
52.5789 7.00049
52.6288 6.97405
52.6785 6.92814
52.7284 6.93749
52.7781 6.93524
52.828 6.86893
52.8777 6.80701
52.9276 6.79936
52.9774 6.7823
53.0273 6.72756
53.0771 6.72737
53.1271 6.69787
53.1769 6.66187
53.2269 6.64186
53.2767 6.62581
53.3267 6.59097
53.3765 6.54853
53.4266 6.58376
53.4766 6.49155
53.5265 6.44624
53.5765 6.41774
53.6264 6.4047
53.6765 6.40619
53.7264 6.36349
53.7765 6.33699
53.8265 6.3336
53.8766 6.26355
53.9266 6.21972
53.9767 6.2213
54.0267 6.17204
54.0769 6.15565
54.1269 6.13399
54.1771 6.11094
54.2271 6.07426
54.2773 6.00654
54.3274 5.99602
54.3776 5.97047
54.4277 5.94392
54.478 5.94932
54.528 5.84985
54.5783 5.82365
54.6285 5.7844
54.6788 5.78406
54.7289 5.7132
54.7792 5.7144
54.8296 5.60611
54.8798 5.55025
54.9301 5.55782
54.9803 5.55592
55.0307 5.48185
55.0809 5.42201
55.1314 5.43219
55.1816 5.34912
55.232 5.28572
55.2823 5.28541
55.3328 5.17368
55.383 5.16545
55.4335 5.17521
55.4838 5.10684
55.5344 5.04905
55.5847 4.99477
55.6352 4.94492
55.6856 4.92164
55.7361 4.86356