File: XRD/Ni3Fe_FD0651.xy
TT I
1.27165 7.46654
1.31627 6.8366
1.36089 6.11363
1.40551 5.8547
1.45013 6.31656
1.49476 6.20659
1.53938 6.07441
1.584 5.60168
1.62863 5.53126
1.67325 5.02277
1.71787 4.97232
1.7625 4.72957
1.80712 4.80505
1.85174 4.47299
1.89636 4.90381
1.94099 5.03925
1.98562 4.59237
2.03025 4.11828
2.07487 4.39511
2.11949 5.0794
2.16411 4.67827
2.20874 17.2097
2.25338 29.4355
2.298 6.1923
2.34263 5.82382
2.38725 5.73528
2.43188 5.81515
2.4765 6.87678
2.52115 7.14188
2.56577 7.19646
2.6104 7.77019
2.65503 7.80847
2.69965 7.92661
2.7443 8.02971
2.78893 7.78828
2.83356 8.51342
2.87818 8.48545
2.92281 8.34005
2.96744 9.36553
3.01209 10.3161
3.05672 11.3357
3.10135 12.4425
3.14599 13.2703
3.19062 14.1239
3.23527 15.165
3.2799 16.0689
3.32454 16.984
3.36917 18.0151
3.4138 18.9355
3.45844 19.5114
3.50309 20.9885
3.54773 22.0085
3.59237 24.6333
3.637 115.972
3.68164 72.3759
3.7263 27.2204
3.77094 26.8246
3.81558 27.11
3.86022 27.6399
3.90486 29.3177
3.9495 30.1796
3.99416 31.5446
4.0388 32.7785
4.08344 34.2679
4.12809 35.2338
4.17273 37.73
4.21738 45.1481
4.26204 322.339
4.30669 284.548
4.35133 51.4331
4.39598 45.5579
4.44063 56.93
4.4853 72.4881
4.52995 50.564
4.5746 51.1765
4.61925 53.0444
4.6639 54.9542
4.70855 57.9716
4.75322 61.1489
4.79788 63.7317
4.84253 66.7124
4.88719 70.4066
4.93184 74.8872
4.97652 80.0798
5.02118 86.8414
5.06583 93.7745
5.11049 104.91
5.15515 187.681
5.19981 330.266
5.24449 2614.13
5.28916 12599.0
5.33382 3203.81
5.37848 196.692
5.42315 130.475
5.46783 113.883
5.5125 106.034
5.55716 102.283
5.60183 99.2318
5.6465 97.4925
5.69117 93.9864
5.73586 92.1834
5.78053 91.2416
5.8252 90.936
5.86988 91.2703
5.91455 93.3028
5.95924 99.9497
6.00392 188.004
6.0486 893.354
6.09328 4346.86
6.13795 3500.51
6.18263 261.8
6.22733 94.6452
6.27201 84.2591
6.3167 112.167
6.36138 84.2588
6.40606 69.4278
6.45075 67.8085
6.49545 65.8766
6.54014 64.2596
6.58483 63.3478
6.62952 63.523
6.67421 105.136
6.71892 175.343
6.76361 72.8829
6.8083 59.3929
6.853 58.1468
6.89769 57.6681
6.94239 57.2612
6.98711 56.3962
7.03181 56.4149
7.07651 56.4034
7.12121 56.0269
7.16591 56.1105
7.21063 56.5742
7.25533 75.822
7.30004 226.64
7.34475 106.551
7.38945 57.8046
7.43416 55.2438
7.47889 54.8735
7.5236 55.6216
7.56831 56.2392
7.61303 58.6329
7.65774 58.6342
7.70247 56.618
7.74719 56.4003
7.79191 57.137
7.83663 57.0064
7.88135 58.4262
7.92607 58.9524
7.97081 59.8801
8.01553 61.1711
8.06026 62.7074
8.10498 64.0508
8.14971 76.0763
8.19446 74.5616
8.23919 69.8211
8.28392 71.8638
8.32865 74.0567
8.37339 78.1445
8.41812 85.7184
8.46288 121.546
8.50761 157.067
8.55235 359.097
8.59709 1088.64
8.64183 2171.57
8.68658 1023.81
8.73134 178.449
8.77609 100.033
8.82083 93.4017
8.86558 89.674
8.91033 90.5859
8.9551 93.8958
8.99985 86.0069
9.04461 83.6455
9.08936 83.1565
9.13412 82.2609
9.17888 82.0906
9.22365 83.0466
9.26841 82.3281
9.31318 82.6922
9.35794 82.7159
9.4027 83.2505
9.44749 83.8194
9.49226 84.7338
9.53703 85.2651
9.5818 87.4338
9.62657 93.0004
9.67134 101.634
9.71614 94.6615
9.76091 94.0561
9.80569 95.6375
9.85047 99.9069
9.89525 130.771
9.94005 144.46
9.98484 166.504
10.0296 317.586
10.0744 747.256
10.1192 1687.8
10.164 1680.47
10.2088 445.658
10.2536 131.593
10.2984 115.943
10.3432 119.531
10.388 105.587
10.4328 115.224
10.4776 153.16
10.5224 264.494
10.5672 494.414
10.612 524.178
10.6568 213.39
10.7017 98.983
10.7465 86.7473
10.7913 83.3339
10.8361 81.4292
10.8809 79.0774
10.9257 79.3394
10.9706 80.8063
11.0154 75.6465
11.0602 73.2718
11.105 72.5732
11.1499 78.6658
11.1947 89.412
11.2395 77.2499
11.2844 71.895
11.3292 67.8261
11.374 66.6954
11.4189 65.9472
11.4637 65.3154
11.5086 66.2627
11.5534 70.6155
11.5983 66.9721
11.6431 64.1135
11.688 63.0711
11.7328 63.2815
11.7777 63.0727
11.8225 62.9405
11.8674 62.8859
11.9122 63.1903
11.9571 63.0112
12.002 63.6763
12.0468 67.3163
12.0917 78.5408
12.1366 100.342
12.1814 145.891
12.2263 203.603
12.2712 175.831
12.3161 103.607
12.3609 73.1411
12.4058 65.3367
12.4507 64.8343
12.4956 64.7008
12.5405 64.8833
12.5853 66.1633
12.6302 76.4934
12.6751 83.7774
12.72 71.8175
12.7649 68.212
12.8098 68.6355
12.8547 69.7339
12.8996 71.226
12.9445 72.2877
12.9894 74.264
13.0343 75.4976
13.0792 78.5951
13.1242 86.3388
13.1691 109.352
13.214 143.919
13.2589 224.397
13.3038 355.57
13.3487 435.613
13.3937 281.639
13.4386 129.63
13.4835 104.407
13.5285 117.337
13.5734 152.46
13.6183 235.647
13.6633 339.947
13.7082 351.095
13.7531 196.576
13.7981 100.299
13.843 82.2079
13.888 79.8686
13.9329 77.303
13.9779 75.6549
14.0228 74.2249
14.0678 73.1074
14.1127 72.8681
14.1577 73.0233
14.2027 71.8047
14.2476 70.5851
14.2926 71.0602
14.3376 72.7075
14.3825 70.9171
14.4275 69.1865
14.4725 68.7206
14.5175 68.9995
14.5624 69.232
14.6074 71.8798
14.6524 72.7163
14.6974 70.4946
14.7424 71.3712
14.7874 77.4898
14.8324 86.8101
14.8774 106.116
14.9224 147.103
14.9674 198.943
15.0124 217.708
15.0574 154.153
15.1024 93.4726
15.1474 72.8236
15.1924 70.9745
15.2374 72.5007
15.2824 71.478
15.3274 68.7551
15.3725 67.0999
15.4175 66.6381
15.4625 66.3639
15.5076 66.558
15.5526 66.5354
15.5976 65.9702
15.6426 66.2674
15.6877 71.2184
15.7327 78.1352
15.7778 92.0108
15.8228 120.964
15.8679 163.252
15.9129 194.054
15.958 163.112
16.003 102.305
16.0481 69.4069
16.0931 65.7744
16.1382 63.5759
16.1833 60.8866
16.2283 59.2725
16.2734 58.6719
16.3185 59.2346
16.3636 60.5621
16.4086 58.6993
16.4537 56.6647
16.4988 55.6817
16.5439 55.6874
16.589 55.4661
16.6341 55.0037
16.6792 54.5975
16.7243 55.2469
16.7694 55.3161
16.8145 55.2759
16.8596 55.5905
16.9047 57.678
16.9498 57.9966
16.9949 56.0606
17.04 55.9404
17.0851 56.9316
17.1302 58.504
17.1754 61.5487
17.2205 66.1241
17.2656 73.2778
17.3108 81.8837
17.3559 83.5091
17.401 72.3324
17.4462 62.8222
17.4913 59.2656
17.5365 59.2226
17.5815 59.4208
17.6268 59.5103
17.6718 60.5767
17.7171 61.1806
17.7622 61.5335
17.8074 61.8369
17.8525 63.6632
17.8977 67.5103
17.9428 72.6013
17.9881 80.802
18.0331 96.5744
18.0784 117.864
18.1237 138.428
18.1688 133.667
18.214 105.88
18.2591 86.4645
18.3044 89.2215
18.3495 99.1645
18.3948 106.616
18.4399 99.143
18.4852 79.9317
18.5303 66.8287
18.5756 62.3858
18.6207 61.5499
18.666 60.8267
18.7112 59.9857
18.7565 59.2521
18.8016 58.8055
18.8469 58.1486
18.892 57.8143
18.9374 57.481
18.9825 57.1553
19.0278 57.0803
19.073 57.1142
19.1183 57.3519
19.1635 58.5333
19.2088 59.4886
19.254 61.7599
19.2993 65.8061
19.3447 72.2753
19.3898 77.1038
19.4352 73.6647
19.4804 64.5007
19.5257 57.385
19.5709 54.6932
19.6163 54.1465
19.6615 53.7537
19.7068 53.5113
19.752 53.5203
19.7974 53.6456
19.8426 54.6159
19.888 55.1513
19.9332 56.0725
19.9786 58.4563
20.0238 61.5872
20.0692 66.5526
20.1144 69.7856
20.1598 68.9813
20.205 63.8058
20.2504 61.871
20.2957 63.3803
20.3411 65.7411
20.3863 64.6847
20.4318 59.4211
20.477 54.1624
20.5224 52.1402
20.5677 51.324
20.6131 50.5585
20.6586 49.9731
20.7038 49.8896
20.7493 49.3896
20.7945 49.0927
20.84 48.9935
20.8853 48.9043
20.9307 48.7072
20.976 48.9016
21.0215 48.7465
21.0668 49.0499
21.1122 49.5451
21.1575 50.035
21.203 50.9657
21.2483 51.5143
21.2938 51.7048
21.3391 50.2032
21.3846 49.2501
21.4299 48.6395
21.4754 48.4112
21.5207 48.6923
21.5662 48.8075
21.6116 49.1571
21.6571 49.94
21.7024 50.805
21.7479 52.4224
21.7933 55.0304
21.8388 58.3248
21.8843 62.2921
21.9297 64.6117
21.9752 64.0522
22.0206 60.0795
22.0661 56.8475
22.1115 56.222
22.157 56.0751
22.2024 54.6796
22.248 51.863
22.2933 50.1835
22.3389 49.3264
22.3843 49.1998
22.4299 49.2425
22.4753 49.0806
22.5208 48.7387
22.5662 48.7071
22.6118 48.8116
22.6572 48.7844
22.7028 49.3842
22.7483 49.5731
22.7939 50.3051
22.8393 51.7962
22.8849 53.719
22.9303 55.6632
22.9759 57.7738
23.0214 57.9804
23.067 55.4611
23.1126 51.591
23.1581 49.3778
23.2037 49.0416
23.2492 48.9266
23.2948 48.9625
23.3403 49.1618
23.3859 49.6922
23.4314 50.6016
23.477 52.3223
23.5225 54.4718
23.5682 56.9008
23.6137 58.0944
23.6593 56.4136
23.7048 52.3395
23.7505 48.714
23.796 46.7621
23.8417 46.2656
23.8872 45.7843
23.9329 45.4457
23.9784 45.0137
24.0241 44.7689
24.0697 44.6774
24.1154 44.3467
24.1609 44.3634
24.2066 44.0933
24.2522 43.8988
24.2979 43.7003
24.3434 43.4128
24.3892 43.3088
24.4349 43.2836
24.4805 43.0219
24.5262 43.1825
24.5718 43.0196
24.6175 43.2033
24.6631 43.0138
24.7089 42.5727
24.7545 42.5795
24.8002 42.5123
24.8458 42.3613
24.8916 42.2045
24.9372 42.3808
24.983 42.5506
25.0286 42.8989
25.0744 43.1918
25.12 43.8302
25.1658 44.3726
25.2114 44.8309
25.2572 44.7234
25.3029 44.9257
25.3487 45.0623
25.3943 44.8121
25.4402 44.0392
25.4858 42.7869
25.5316 41.7009
25.5773 41.0011
25.6231 41.1056
25.669 40.6589
25.7147 40.6027
25.7605 40.6619
25.8062 40.7874
25.8521 40.8426
25.8977 40.5828
25.9436 40.9469
25.9893 41.0276
26.0352 41.5572
26.0809 41.6948
26.1268 41.8128
26.1725 41.5792
26.2184 40.8775
26.2641 40.4926
26.31 40.2422
26.3557 40.2459
26.4017 40.179
26.4474 40.4124
26.4933 40.8494
26.5391 41.1787
26.585 41.8072
26.6308 42.0525
26.6767 42.4104
26.7225 42.2627
26.7684 41.6828
26.8142 41.0776
26.8601 40.5929
26.9059 40.1554
26.9519 39.6869
26.9979 39.2946
27.0437 38.9588
27.0896 38.9509
27.1354 38.8947
27.1814 38.6736
27.2272 38.6406
27.2732 38.6144
27.3191 38.4102
27.3651 38.5878
27.4109 38.6056
27.4569 38.5224
27.5027 38.6864
27.5488 38.6571
27.5946 38.5644
27.6407 38.4575
27.6865 38.2067
27.7326 37.9498
27.7784 37.9247
27.8245 37.7374
27.8703 38.0678
27.9164 38.3377
27.9623 38.4731
28.0084 38.7968
28.0543 39.0875
28.1003 39.0444
28.1462 38.8846
28.1923 38.6324
28.2384 38.1215
28.2843 37.8968
28.3304 37.3701
28.3764 36.9851
28.4225 36.5544
28.4684 36.3421
28.5145 36.0867
28.5605 36.0141
28.6066 35.7509
28.6526 35.7367
28.6987 35.7481
28.7447 35.6191
28.7908 35.6123
28.8368 35.4735
28.8829 35.516
28.9289 35.5166
28.9751 35.284
29.0211 35.1292
29.0673 34.8898
29.1133 34.6613
29.1595 34.5701
29.2055 34.4716
29.2517 34.4196
29.2977 34.2965
29.3439 34.3256
29.3899 34.3326
29.4361 34.3492
29.4824 34.1928
29.5284 33.9347
29.5746 33.5674
29.6207 33.2482
29.6669 33.1363
29.713 33.1094
29.7593 33.0787
29.8053 33.0991
29.8516 32.9527
29.8977 32.9057
29.9439 32.7179
29.99 32.7418
30.0363 32.613
30.0824 32.6459
30.1287 32.5954
30.1748 32.6219
30.2211 32.5365
30.2673 32.3793
30.3136 32.4931
30.3597 32.5139
30.406 32.2935
30.4522 32.215
30.4985 32.2045
30.5447 32.1826
30.591 32.1366
30.6372 32.312
30.6835 32.1838
30.7297 32.3781
30.7761 32.2841
30.8224 32.1702
30.8686 32.029
30.915 31.8339
30.9612 31.7012
31.0076 31.4163
31.0538 31.2564
31.1002 31.3215
31.1464 31.0395
31.1928 31.1224
31.2391 31.0607
31.2855 31.0113
31.3317 30.9569
31.3781 31.019
31.4244 30.9649
31.4708 30.9792
31.5171 30.9227
31.5636 30.891
31.6098 30.6465
31.6563 30.4154
31.7026 30.3266
31.7491 30.2646
31.7953 30.2529
31.8418 30.2595
31.8881 30.2317
31.9346 30.1903
31.9809 30.1752
32.0275 30.0532
32.074 29.9857
32.1203 29.8331
32.1668 29.6824
32.2132 29.5138
32.2597 29.3709
32.306 29.2937
32.3526 29.0572
32.399 29.0256
32.4455 28.8958
32.4919 28.7989
32.5385 28.6776
32.5848 28.6411
32.6314 28.5975
32.6778 28.5857
32.7244 28.4448
32.7708 28.2613
32.8174 28.3497
32.8638 28.1578
32.9104 28.1819
32.9569 28.0505
33.0035 27.89
33.0499 27.9834
33.0966 27.8969
33.143 27.8708
33.1897 27.7617
33.2361 27.6588
33.2828 27.6488
33.3293 27.5154
33.3759 27.5671
33.4226 27.3365
33.4691 27.3255
33.5158 27.138
33.5623 26.9281
33.609 26.8121
33.6555 26.8683
33.7022 26.7218
33.7487 26.5633
33.7954 26.6615
33.842 26.4823
33.8887 26.4264
33.9353 26.3505
33.982 26.2274
34.0286 26.1766
34.0753 26.1975
34.1219 26.0732
34.1687 25.8942
34.2152 25.8687
34.262 25.6858
34.3086 25.6937
34.3554 25.6234
34.402 25.5192
34.4488 25.4127
34.4954 25.3136
34.5422 25.312
34.5889 25.2141
34.6357 25.0436
34.6825 25.0583
34.7292 24.9124
34.776 24.8554
34.8227 24.8492
34.8695 24.7264
34.9162 24.6259
34.9631 24.6048
35.0098 24.6266
35.0566 24.4289
35.1033 24.4236
35.1502 24.4394
35.1969 24.2958
35.2438 24.2175
35.2906 24.1662
35.3375 24.1246
35.3842 24.0423
35.4311 24.1306
35.4779 24.0172
35.5248 23.9298
35.5716 23.8497
35.6185 23.8734
35.6653 23.7002
35.7123 23.6021
35.759 23.5781
35.806 23.504
35.8528 23.3745
35.8998 23.2818
35.9468 23.1976
35.9936 23.2034
36.0406 23.1436
36.0874 23.0269
36.1345 23.0604
36.1813 22.8373
36.2283 22.831
36.2752 22.7851
36.3222 22.8294
36.3691 22.7217
36.4161 22.5526
36.463 22.547
36.5101 22.471
36.557 22.377
36.6041 22.2924
36.651 22.2042
36.6981 22.1804
36.745 22.1465
36.7921 22.0645
36.839 21.9647
36.8861 21.8765
36.9331 21.8459
36.9802 21.7265
37.0272 21.6563
37.0743 21.5934
37.1213 21.5765
37.1684 21.5373
37.2154 21.4412
37.2626 21.3525
37.3098 21.2965
37.3568 21.2245
37.404 21.2326
37.451 21.0559
37.4982 21.0528
37.5452 20.87
37.5924 20.8087
37.6395 20.9806
37.6867 20.8102
37.7337 20.7023
37.781 20.6225
37.8281 20.5192
37.8753 20.4502
37.9224 20.4052
37.9697 20.3526
38.0168 20.3331
38.064 20.225
38.1111 20.2302
38.1584 20.0564
38.2056 20.0468
38.2529 20.0584
38.3 19.9259
38.3473 19.8951
38.3945 19.732
38.4418 19.7463
38.489 19.6438
38.5363 19.5724
38.5837 19.5588
38.6309 19.4744
38.6782 19.433
38.7254 19.3738
38.7728 19.3392
38.82 19.2214
38.8674 19.2202
38.9146 19.123
38.9621 19.0613
39.0093 19.0444
39.0567 18.9223
39.104 18.9092
39.1514 18.7658
39.1987 18.6898
39.2461 18.679
39.2934 18.6473
39.3409 18.562
39.3882 18.4923
39.4356 18.4868
39.483 18.4341
39.5304 18.3078
39.5778 18.3087
39.6253 18.2813
39.6726 18.1306
39.7201 18.1604
39.7675 18.0769
39.815 18.0527
39.8624 17.9422
39.9099 17.853
39.9575 17.7941
40.0049 17.728
40.0525 17.7197
40.0999 17.6488
40.1474 17.5663
40.1949 17.5615
40.2425 17.5234
40.2899 17.4499
40.3375 17.3882
40.385 17.3139
40.4326 17.2417
40.48 17.2062
40.5277 17.18
40.5752 17.138
40.6228 17.0105
40.6703 16.9434
40.718 16.8751
40.7655 16.9603
40.8132 16.8442
40.8607 16.7993
40.9084 16.7776
40.9559 16.6724
41.0036 16.6681
41.0512 16.55
41.0989 16.5098
41.1465 16.4381
41.1942 16.4394
41.242 16.3088
41.2896 16.3217
41.3373 16.2215
41.3849 16.1585
41.4327 16.1759
41.4803 16.0996
41.5281 16.0356
41.5758 15.9594
41.6236 15.9306
41.6712 15.8245
41.7191 15.8794
41.7667 15.7548
41.8146 15.7166
41.8622 15.6273
41.9101 15.6073
41.9578 15.5415
42.0057 15.4923
42.0534 15.473
42.1013 15.4236
42.149 15.3396
42.1969 15.2832
42.2446 15.1919
42.2925 15.2325
42.3403 15.1283
42.3882 15.1032
42.436 15.0611
42.4839 14.9863
42.5319 14.9909
42.5797 14.8911
42.6277 14.8244
42.6755 14.8173
42.7235 14.7142
42.7713 14.6473
42.8193 14.6304
42.8671 14.6096
42.9152 14.5556
42.963 14.5234
43.0111 14.4127
43.0589 14.3929
43.107 14.3417
43.1549 14.2799
43.2029 14.2492
43.2508 14.221
43.2989 14.1573
43.3468 14.0843
43.3949 14.0982
43.4429 14.0717
43.491 13.9523
43.5389 13.9054
43.5871 13.9231
43.635 13.8262
43.6832 13.819
43.7312 13.6971
43.7793 13.6368
43.8273 13.5566
43.8755 13.5921
43.9237 13.534
43.9717 13.488
44.0199 13.442
44.068 13.371
44.1162 13.347
44.1642 13.329
44.2125 13.2437
44.2606 13.2349
44.3088 13.1603
44.3569 13.0806
44.4052 13.0517
44.4533 13.0167
44.5016 12.9321
44.5497 12.8912
44.598 12.8763
44.6461 12.8357
44.6945 12.8071
44.7426 12.7589
44.791 12.6894
44.8391 12.676
44.8875 12.632
44.9357 12.5638
44.984 12.5402
45.0322 12.4529
45.0806 12.4248
45.1288 12.3843
45.1773 12.3709
45.2257 12.2864
45.2739 12.2514
45.3224 12.1728
45.3706 12.2167
45.4191 12.097
45.4673 12.0617
45.5158 12.0433
45.5641 11.9779
45.6126 11.9529
45.6609 11.9219
45.7094 11.8706
45.7577 11.8374
45.8063 11.7426
45.8546 11.7847
45.9031 11.725
45.9515 11.6798
46.0001 11.6552
46.0484 11.6336
46.097 11.5498
46.1454 11.5272
46.194 11.4559
46.2424 11.4076
46.291 11.379
46.3395 11.3679
46.3881 11.281
46.4365 11.291
46.4852 11.2075
46.5337 11.1558
46.5823 11.1508
46.631 11.0864
46.6795 11.0326
46.7282 11.0142
46.7767 10.9309
46.8254 10.8603
46.8739 10.8891
46.9226 10.8586
46.9712 10.7814
47.0199 10.7531
47.0685 10.7596
47.1173 10.6735
47.1658 10.6162
47.2146 10.6287
47.2632 10.5567
47.312 10.5343
47.3606 10.4885
47.4095 10.4227
47.4581 10.3999
47.5069 10.3783
47.5556 10.3521
47.6044 10.284
47.6531 10.2236
47.702 10.1936
47.7507 10.1845
47.7996 10.1376
47.8483 10.1336
47.8972 10.1024
47.9461 10.0528
47.9948 9.97809
48.0438 9.98129
48.0925 9.9471
48.1415 9.89356
48.1902 9.84759
48.2392 9.84837
48.288 9.81934
48.337 9.77521
48.3858 9.69354
48.4348 9.66844
48.4837 9.64592
48.5327 9.6312
48.5815 9.56615
48.6306 9.57946
48.6795 9.53158
48.7285 9.46417
48.7774 9.41184
48.8265 9.39808
48.8754 9.35998
48.9245 9.34531
48.9734 9.32064
49.0226 9.30828
49.0715 9.23817
49.1206 9.19988
49.1696 9.14174
49.2188 9.0968
49.2679 9.08185
49.3169 9.0221
49.3661 9.0117
49.4151 8.95287
49.4643 8.91996
49.5134 8.93781
49.5626 8.85619
49.6117 8.88261
49.6609 8.82422
49.71 8.78393
49.7592 8.76068
49.8083 8.70068
49.8576 8.66339
49.9067 8.68052
49.956 8.60787
50.0052 8.53991
50.0545 8.54083
50.1036 8.52055
50.153 8.48171
50.2022 8.45477
50.2515 8.37813
50.3007 8.36632
50.3501 8.35335
50.3993 8.30753
50.4487 8.28764
50.498 8.28515
50.5474 8.20816
50.5966 8.17555
50.6461 8.17712
50.6955 8.12677
50.7448 8.09958
50.7943 8.07476
50.8436 8.02482
50.8931 7.96133
50.9424 7.99449
50.9919 7.94601
51.0413 7.9242
51.0908 7.87488
51.1402 7.85022
51.1897 7.82276
51.2391 7.75891
51.2887 7.782
51.3381 7.6924
51.3877 7.68851
51.4371 7.68628
51.4867 7.6363
51.5362 7.58006
51.5858 7.55469
51.6353 7.49178
51.6849 7.4981
51.7344 7.43757
51.7841 7.44249
51.8336 7.41612
51.8833 7.43177
51.9328 7.31306
51.9826 7.33773
52.0323 7.3142
52.0818 7.27278
52.1316 7.17547
52.1812 7.1844
52.231 7.15088
52.2806 7.124
52.3304 7.14143
52.38 7.09642
52.4298 7.04351
52.4794 6.98525
52.5293 6.96073
52.5789 6.95911
52.6288 6.92385
52.6785 6.88854
52.7284 6.89816
52.7781 6.86551
52.828 6.83816
52.8777 6.79855
52.9276 6.76142
52.9774 6.71688
53.0273 6.70271
53.0771 6.67482
53.1271 6.64981
53.1769 6.61916
53.2269 6.58299
53.2767 6.5757
53.3267 6.54138
53.3765 6.52127
53.4266 6.49877
53.4766 6.47612
53.5265 6.40227
53.5765 6.38402
53.6264 6.35473
53.6765 6.31673
53.7264 6.26155
53.7765 6.27904
53.8265 6.20568
53.8766 6.21082
53.9266 6.20024
53.9767 6.20778
54.0267 6.13876
54.0769 6.13945
54.1269 6.09762
54.1771 6.04893
54.2271 6.04276
54.2773 5.97137
54.3274 6.01308
54.3776 5.94244
54.4277 5.88882
54.478 5.87199
54.528 5.86335
54.5783 5.81835
54.6285 5.76294
54.6788 5.72873
54.7289 5.66148
54.7792 5.63063
54.8296 5.59682
54.8798 5.53771
54.9301 5.52548
54.9803 5.49462
55.0307 5.42468
55.0809 5.42979
55.1314 5.37213
55.1816 5.33212
55.232 5.26508
55.2823 5.26085
55.3328 5.175
55.383 5.10385
55.4335 5.0735
55.4838 4.99908
55.5344 4.97074
55.5847 4.9549
55.6352 4.87356
55.6856 4.85168
55.7361 4.86632