File: XRD/Ni3Fe_FD0166.xy
TT I
1.27165 7.7942
1.31627 7.35377
1.36089 6.64176
1.40551 6.38701
1.45013 6.62385
1.49476 7.32727
1.53938 6.19695
1.584 5.62524
1.62863 5.47115
1.67325 5.38589
1.71787 5.22809
1.7625 5.60687
1.80712 5.68139
1.85174 5.06465
1.89636 5.35528
1.94099 4.92943
1.98562 4.39413
2.03025 5.18641
2.07487 4.47461
2.11949 5.30213
2.16411 4.62992
2.20874 4.6622
2.25338 4.49252
2.298 4.36483
2.34263 4.51071
2.38725 4.86769
2.43188 4.24893
2.4765 4.46454
2.52115 4.53204
2.56577 4.70998
2.6104 4.93159
2.65503 5.43438
2.69965 5.91305
2.7443 6.3622
2.78893 6.50753
2.83356 7.37212
2.87818 8.29972
2.92281 8.24839
2.96744 9.23931
3.01209 10.4883
3.05672 11.2487
3.10135 12.3433
3.14599 13.9473
3.19062 14.3585
3.23527 15.0319
3.2799 15.7089
3.32454 16.9498
3.36917 18.2325
3.4138 18.6289
3.45844 19.4804
3.50309 20.047
3.54773 21.2295
3.59237 21.9826
3.637 22.5092
3.68164 23.3073
3.7263 24.4432
3.77094 24.8145
3.81558 26.354
3.86022 26.9131
3.90486 27.8432
3.9495 28.9976
3.99416 29.7189
4.0388 30.9884
4.08344 31.7873
4.12809 32.6916
4.17273 34.2537
4.21738 35.8453
4.26204 36.9358
4.30669 38.0635
4.35133 40.0154
4.39598 41.2671
4.44063 43.2438
4.4853 45.4121
4.52995 47.4478
4.5746 49.4401
4.61925 51.3493
4.6639 53.9142
4.70855 57.4755
4.75322 60.3069
4.79788 62.9383
4.84253 66.8475
4.88719 70.6924
4.93184 75.4306
4.97652 82.483
5.02118 90.953
5.06583 101.205
5.11049 117.61
5.15515 153.839
5.19981 536.502
5.24449 3773.76
5.28916 8502.91
5.33382 6174.7
5.37848 420.245
5.42315 160.82
5.46783 126.544
5.5125 113.756
5.55716 107.749
5.60183 102.308
5.6465 98.9957
5.69117 97.7761
5.73586 96.0964
5.78053 94.7744
5.8252 95.4596
5.86988 98.7562
5.91455 105.236
5.95924 123.365
6.00392 285.239
6.0486 1381.87
6.09328 2825.05
6.13795 4063.3
6.18263 662.88
6.22733 120.965
6.27201 88.8355
6.3167 78.7086
6.36138 72.6704
6.40606 68.6499
6.45075 66.6535
6.49545 64.7883
6.54014 62.8103
6.58483 61.4547
6.62952 60.0605
6.67421 58.7002
6.71892 57.9894
6.76361 57.3031
6.8083 55.7566
6.853 55.2154
6.89769 55.2729
6.94239 54.4725
6.98711 53.7907
7.03181 53.3991
7.07651 53.2756
7.12121 52.7902
7.16591 52.8803
7.21063 51.9443
7.25533 51.9516
7.30004 52.2871
7.34475 52.4556
7.38945 52.299
7.43416 51.7541
7.47889 51.9577
7.5236 56.082
7.56831 62.6957
7.61303 55.6301
7.65774 53.5983
7.70247 54.2735
7.74719 54.5341
7.79191 54.8961
7.83663 55.5867
7.88135 56.4718
7.92607 57.4
7.97081 58.4941
8.01553 59.4417
8.06026 60.7321
8.10498 62.298
8.14971 63.976
8.19446 65.8481
8.23919 68.4006
8.28392 70.9269
8.32865 73.5648
8.37339 78.7254
8.41812 84.1624
8.46288 95.2857
8.50761 172.427
8.55235 597.478
8.59709 907.648
8.64183 1534.05
8.68658 1624.72
8.73134 393.776
8.77609 115.561
8.82083 96.8008
8.86558 91.4521
8.91033 87.9862
8.9551 85.5767
8.99985 84.1938
9.04461 83.5712
9.08936 82.9818
9.13412 81.9626
9.17888 81.8396
9.22365 86.8382
9.26841 95.5896
9.31318 86.2723
9.35794 82.8541
9.4027 82.5859
9.44749 83.1929
9.49226 84.0489
9.53703 85.1874
9.5818 86.1521
9.62657 87.729
9.67134 89.1747
9.71614 91.1202
9.76091 93.393
9.80569 96.4699
9.85047 98.9145
9.89525 104.368
9.94005 114.218
9.98484 185.116
10.0296 541.439
10.0744 745.981
10.1192 1067.58
10.164 1690.35
10.2088 958.715
10.2536 210.307
10.2984 116.153
10.3432 108.118
10.388 105.176
10.4328 121.703
10.4776 214.287
10.5224 264.49
10.5672 342.147
10.612 502.937
10.6568 366.596
10.7017 133.054
10.7465 90.4297
10.7913 84.48
10.8361 81.1982
10.8809 78.3016
10.9257 76.1086
10.9706 74.8243
11.0154 73.2744
11.0602 71.8743
11.105 70.3676
11.1499 69.1588
11.1947 67.9864
11.2395 67.2189
11.2844 66.7171
11.3292 65.7899
11.374 64.9516
11.4189 64.5117
11.4637 63.9025
11.5086 63.0755
11.5534 62.6216
11.5983 62.6
11.6431 62.5257
11.688 61.9726
11.7328 61.7548
11.7777 61.3989
11.8225 61.6333
11.8674 61.551
11.9122 62.7163
11.9571 65.9321
12.002 65.4377
12.0468 67.9185
12.0917 90.7565
12.1366 108.505
12.1814 120.319
12.2263 153.596
12.2712 196.438
12.3161 138.847
12.3609 74.7012
12.4058 64.1646
12.4507 63.5162
12.4956 63.4278
12.5405 63.4443
12.5853 63.9674
12.6302 64.3134
12.6751 64.8597
12.72 65.5211
12.7649 66.388
12.8098 67.1708
12.8547 68.4745
12.8996 70.3785
12.9445 71.5928
12.9894 73.4559
13.0343 75.3499
13.0792 79.2423
13.1242 86.5862
13.1691 132.591
13.214 186.622
13.2589 208.351
13.3038 251.971
13.3487 355.14
13.3937 376.014
13.4386 205.501
13.4835 118.803
13.5285 153.831
13.5734 182.407
13.6183 196.707
13.6633 244.895
13.7082 336.556
13.7531 303.971
13.7981 155.195
13.843 88.444
13.888 80.8041
13.9329 77.9272
13.9779 76.455
14.0228 74.6231
14.0678 73.2766
14.1127 73.2011
14.1577 74.0859
14.2027 72.7011
14.2476 70.827
14.2926 69.717
14.3376 69.2527
14.3825 69.0251
14.4275 68.4933
14.4725 68.4244
14.5175 68.6217
14.5624 68.4731
14.6074 69.1444
14.6524 69.4513
14.6974 70.1979
14.7424 71.9493
14.7874 80.988
14.8324 106.909
14.8774 121.42
14.9224 128.76
14.9674 151.809
15.0124 197.017
15.0574 205.446
15.1024 137.663
15.1474 81.9317
15.1924 71.4893
15.2374 68.9995
15.2824 68.2657
15.3274 67.2683
15.3725 66.8413
15.4175 66.6285
15.4625 65.7969
15.5076 65.5646
15.5526 65.6306
15.5976 65.8876
15.6426 66.8198
15.6877 73.8818
15.7327 94.8634
15.7778 107.441
15.8228 112.473
15.8679 127.191
15.9129 157.705
15.958 186.093
16.003 148.952
16.0481 87.8214
16.0931 66.2521
16.1382 61.7536
16.1833 60.772
16.2283 59.212
16.2734 58.2307
16.3185 57.7359
16.3636 56.9371
16.4086 56.0988
16.4537 55.7337
16.4988 55.4086
16.5439 55.3062
16.589 54.8746
16.6341 54.683
16.6792 54.3243
16.7243 54.3877
16.7694 54.4603
16.8145 54.3596
16.8596 54.5611
16.9047 54.9075
16.9498 55.3277
16.9949 54.9618
17.04 55.5251
17.0851 56.8706
17.1302 61.3238
17.1754 64.4829
17.2205 65.6158
17.2656 67.6882
17.3108 73.4267
17.3559 80.4543
17.401 81.0053
17.4462 71.229
17.4913 61.8036
17.5365 59.4311
17.5815 59.4495
17.6268 59.4826
17.6718 60.2277
17.7171 60.4538
17.7622 61.5068
17.8074 62.5107
17.8525 64.0883
17.8977 72.3828
17.9428 83.702
17.9881 88.7189
18.0331 92.0303
18.0784 99.9264
18.1237 116.821
18.1688 142.141
18.214 141.247
18.2591 109.727
18.3044 88.7482
18.3495 87.5524
18.3948 96.4214
18.4399 103.823
18.4852 94.8444
18.5303 75.6857
18.5756 64.9252
18.6207 62.3546
18.666 61.2126
18.7112 60.284
18.7565 59.3879
18.8016 59.0364
18.8469 58.4593
18.892 58.2238
18.9374 57.6307
18.9825 57.266
19.0278 57.0221
19.073 57.0475
19.1183 57.6037
19.1635 60.0178
19.2088 61.9429
19.254 62.6171
19.2993 63.8401
19.3447 65.7047
19.3898 69.9481
19.4352 74.5505
19.4804 72.3582
19.5257 63.5779
19.5709 56.4066
19.6163 54.367
19.6615 54.158
19.7068 53.8101
19.752 53.6316
19.7974 53.799
19.8426 55.0103
19.888 57.1676
19.9332 58.4296
19.9786 59.0121
20.0238 59.6818
20.0692 62.719
20.1144 67.6953
20.1598 73.0181
20.205 71.2912
20.2504 65.382
20.2957 61.5375
20.3411 62.2903
20.3863 65.3127
20.4318 64.4882
20.477 59.0735
20.5224 53.4383
20.5677 51.2989
20.6131 50.5409
20.6586 49.9198
20.7038 49.9504
20.7493 49.4774
20.7945 49.28
20.84 49.1458
20.8853 48.9855
20.9307 48.8735
20.976 49.054
21.0215 49.2181
21.0668 49.694
21.1122 49.6506
21.1575 49.7608
21.203 50.0316
21.2483 50.7223
21.2938 51.7697
21.3391 51.6476
21.3846 50.7542
21.4299 49.5893
21.4754 48.8479
21.5207 48.9836
21.5662 49.2032
21.6116 49.5923
21.6571 51.6086
21.7024 53.3318
21.7479 54.3348
21.7933 54.8346
21.8388 56.2996
21.8843 59.1701
21.9297 62.7653
21.9752 66.5264
22.0206 65.7353
22.0661 60.7042
22.1115 56.4683
22.157 55.9508
22.2024 56.7903
22.248 55.2131
22.2933 52.6127
22.3389 50.2584
22.3843 49.4884
22.4299 49.1399
22.4753 49.0757
22.5208 48.9616
22.5662 48.8549
22.6118 49.1566
22.6572 49.2249
22.7028 50.6073
22.7483 51.5202
22.7939 52.0417
22.8393 52.4299
22.8849 53.1136
22.9303 53.8901
22.9759 55.5436
23.0214 57.6292
23.067 58.7001
23.1126 56.1212
23.1581 52.2761
23.2037 50.0433
23.2492 49.4797
23.2948 49.9906
23.3403 51.1795
23.3859 52.1869
23.4314 52.1146
23.477 52.2566
23.5225 52.9258
23.5682 54.0459
23.6137 56.3231
23.6593 58.1449
23.7048 57.2675
23.7505 53.307
23.796 49.1642
23.8417 47.0824
23.8872 46.3217
23.9329 45.8751
23.9784 45.4126
24.0241 45.3108
24.0697 45.1291
24.1154 44.4894
24.1609 44.3805
24.2066 44.1543
24.2522 44.0671
24.2979 43.8329
24.3434 43.8335
24.3892 43.6421
24.4349 43.6043
24.4805 43.2793
24.5262 43.3161
24.5718 43.1729
24.6175 43.3365
24.6631 43.3662
24.7089 43.1232
24.7545 42.9019
24.8002 42.6394
24.8458 42.7229
24.8916 42.8025
24.9372 42.8562
24.983 43.089
25.0286 43.2229
25.0744 43.8862
25.12 44.1381
25.1658 44.5818
25.2114 44.8836
25.2572 45.401
25.3029 45.182
25.3487 45.106
25.3943 45.1622
25.4402 45.2972
25.4858 44.6105
25.5316 43.2582
25.5773 41.8933
25.6231 41.5644
25.669 41.1368
25.7147 41.0766
25.7605 41.0478
25.8062 41.1943
25.8521 41.2185
25.8977 41.2074
25.9436 41.1788
25.9893 41.2573
26.0352 41.4263
26.0809 41.4149
26.1268 41.8646
26.1725 42.1884
26.2184 42.1776
26.2641 41.5538
26.31 41.1546
26.3557 40.9917
26.4017 41.0039
26.4474 41.1626
26.4933 41.1897
26.5391 41.4445
26.585 41.808
26.6308 42.0833
26.6767 42.3171
26.7225 43.0075
26.7684 42.8439
26.8142 42.2962
26.8601 41.5013
26.9059 41.1119
26.9519 40.5785
26.9979 40.1982
27.0437 39.6629
27.0896 39.4073
27.1354 39.3653
27.1814 39.1998
27.2272 39.1714
27.2732 39.2258
27.3191 38.9128
27.3651 39.1028
27.4109 38.9326
27.4569 38.8015
27.5027 38.8147
27.5488 39.1502
27.5946 38.9618
27.6407 38.939
27.6865 38.9044
27.7326 38.6578
27.7784 38.6289
27.8245 38.6029
27.8703 38.5175
27.9164 38.7317
27.9623 38.8412
28.0084 38.8648
28.0543 39.2066
28.1003 39.2661
28.1462 39.5768
28.1923 39.4965
28.2384 39.0993
28.2843 38.6368
28.3304 38.0707
28.3764 37.7682
28.4225 37.3558
28.4684 36.9248
28.5145 36.5303
28.5605 36.4814
28.6066 36.2889
28.6526 36.189
28.6987 36.1082
28.7447 35.9184
28.7908 35.79
28.8368 35.6974
28.8829 35.6918
28.9289 35.7941
28.9751 35.6951
29.0211 35.5564
29.0673 35.2312
29.1133 35.2601
29.1595 34.9959
29.2055 34.7278
29.2517 34.7321
29.2977 34.6724
29.3439 34.4818
29.3899 34.5639
29.4361 34.4625
29.4824 34.4695
29.5284 34.495
29.5746 34.1658
29.6207 33.812
29.6669 33.6988
29.713 33.3445
29.7593 33.3259
29.8053 33.282
29.8516 33.1266
29.8977 33.1176
29.9439 33.0078
29.99 32.9922
30.0363 32.9011
30.0824 32.8492
30.1287 32.7575
30.1748 32.7751
30.2211 32.7852
30.2673 32.6744
30.3136 32.8226
30.3597 32.759
30.406 32.6436
30.4522 32.6085
30.4985 32.5497
30.5447 32.5631
30.591 32.4504
30.6372 32.5331
30.6835 32.495
30.7297 32.5635
30.7761 32.6142
30.8224 32.6542
30.8686 32.5136
30.915 32.2657
30.9612 32.1319
31.0076 31.8013
31.0538 31.714
31.1002 31.712
31.1464 31.456
31.1928 31.4382
31.2391 31.4506
31.2855 31.2928
31.3317 31.2696
31.3781 31.3218
31.4244 31.2049
31.4708 31.0974
31.5171 31.1762
31.5636 31.2831
31.6098 31.1968
31.6563 31.1264
31.7026 30.8137
31.7491 30.6507
31.7953 30.6424
31.8418 30.5313
31.8881 30.5254
31.9346 30.4219
31.9809 30.4529
32.0275 30.4
32.074 30.393
32.1203 30.1542
32.1668 30.1058
32.2132 29.8718
32.2597 29.7985
32.306 29.6837
32.3526 29.4643
32.399 29.2839
32.4455 29.2296
32.4919 29.0638
32.5385 28.963
32.5848 28.8988
32.6314 28.894
32.6778 28.869
32.7244 28.6523
32.7708 28.513
32.8174 28.4781
32.8638 28.3451
32.9104 28.5441
32.9569 28.4199
33.0035 28.3324
33.0499 28.285
33.0966 28.1739
33.143 28.0746
33.1897 28.0765
33.2361 27.9504
33.2828 28.0216
33.3293 27.7556
33.3759 27.7899
33.4226 27.6994
33.4691 27.5192
33.5158 27.4427
33.5623 27.3344
33.609 27.1008
33.6555 26.9888
33.7022 26.895
33.7487 26.8859
33.7954 26.7808
33.842 26.6461
33.8887 26.6559
33.9353 26.5352
33.982 26.4818
34.0286 26.4597
34.0753 26.3672
34.1219 26.2607
34.1687 26.116
34.2152 26.0972
34.262 26.0159
34.3086 25.8369
34.3554 25.8529
34.402 25.6912
34.4488 25.6128
34.4954 25.6492
34.5422 25.4871
34.5889 25.3627
34.6357 25.2566
34.6825 25.248
34.7292 25.1647
34.776 25.0767
34.8227 24.9884
34.8695 24.952
34.9162 24.8679
34.9631 24.7641
35.0098 24.7729
35.0566 24.6258
35.1033 24.6385
35.1502 24.6088
35.1969 24.5437
35.2438 24.4161
35.2906 24.3533
35.3375 24.3362
35.3842 24.2186
35.4311 24.2257
35.4779 24.2172
35.5248 24.2459
35.5716 24.0635
35.6185 24.0709
35.6653 24.0288
35.7123 23.9012
35.759 23.8147
35.806 23.774
35.8528 23.5448
35.8998 23.5711
35.9468 23.3876
35.9936 23.435
36.0406 23.3534
36.0874 23.328
36.1345 23.1936
36.1813 23.1171
36.2283 22.8997
36.2752 22.9155
36.3222 22.981
36.3691 22.8555
36.4161 22.783
36.463 22.7812
36.5101 22.7313
36.557 22.6449
36.6041 22.4654
36.651 22.4745
36.6981 22.4209
36.745 22.3239
36.7921 22.3328
36.839 22.1826
36.8861 22.0447
36.9331 22.0641
36.9802 21.9478
37.0272 21.8448
37.0743 21.7703
37.1213 21.7826
37.1684 21.66
37.2154 21.6242
37.2626 21.5316
37.3098 21.496
37.3568 21.4403
37.404 21.4095
37.451 21.2981
37.4982 21.2452
37.5452 21.1502
37.5924 21.0879
37.6395 21.0514
37.6867 20.9505
37.7337 20.8293
37.781 20.8202
37.8281 20.7983
37.8753 20.7033
37.9224 20.5676
37.9697 20.5941
38.0168 20.505
38.064 20.4786
38.1111 20.3576
38.1584 20.2945
38.2056 20.2381
38.2529 20.1477
38.3 20.0652
38.3473 20.0281
38.3945 19.9835
38.4418 19.9114
38.489 19.791
38.5363 19.7476
38.5837 19.7073
38.6309 19.6116
38.6782 19.5838
38.7254 19.5008
38.7728 19.4352
38.82 19.3685
38.8674 19.4019
38.9146 19.3061
38.9621 19.227
39.0093 19.1472
39.0567 19.0543
39.104 19.0667
39.1514 18.9407
39.1987 18.8842
39.2461 18.9021
39.2934 18.7611
39.3409 18.6811
39.3882 18.621
39.4356 18.5876
39.483 18.5705
39.5304 18.4371
39.5778 18.4966
39.6253 18.3845
39.6726 18.3352
39.7201 18.287
39.7675 18.2867
39.815 18.1578
39.8624 18.1165
39.9099 18.0359
39.9575 17.9356
40.0049 17.9561
40.0525 17.7979
40.0999 17.7963
40.1474 17.7563
40.1949 17.7138
40.2425 17.6583
40.2899 17.5951
40.3375 17.5424
40.385 17.4536
40.4326 17.4319
40.48 17.3303
40.5277 17.3409
40.5752 17.3061
40.6228 17.1407
40.6703 17.1601
40.718 17.009
40.7655 17.0097
40.8132 16.9578
40.8607 16.9186
40.9084 16.9331
40.9559 16.8226
41.0036 16.8019
41.0512 16.6958
41.0989 16.6771
41.1465 16.5927
41.1942 16.5769
41.242 16.4452
41.2896 16.4565
41.3373 16.4308
41.3849 16.29
41.4327 16.2615
41.4803 16.2319
41.5281 16.1781
41.5758 16.1099
41.6236 16.0685
41.6712 16.0297
41.7191 15.9687
41.7667 15.8446
41.8146 15.8661
41.8622 15.7627
41.9101 15.8013
41.9578 15.6599
42.0057 15.6279
42.0534 15.6071
42.1013 15.5211
42.149 15.4511
42.1969 15.419
42.2446 15.4254
42.2925 15.3417
42.3403 15.221
42.3882 15.2385
42.436 15.1639
42.4839 15.0814
42.5319 15.0736
42.5797 14.9859
42.6277 14.9574
42.6755 14.9303
42.7235 14.8655
42.7713 14.8014
42.8193 14.7345
42.8671 14.6351
42.9152 14.6536
42.963 14.5377
43.0111 14.5294
43.0589 14.4884
43.107 14.3967
43.1549 14.3891
43.2029 14.3449
43.2508 14.2965
43.2989 14.2429
43.3468 14.2178
43.3949 14.1544
43.4429 14.0888
43.491 14.0607
43.5389 14.0021
43.5871 13.9134
43.635 13.854
43.6832 13.8995
43.7312 13.8378
43.7793 13.814
43.8273 13.7666
43.8755 13.67
43.9237 13.6143
43.9717 13.5602
44.0199 13.5342
44.068 13.5092
44.1162 13.4162
44.1642 13.4109
44.2125 13.3774
44.2606 13.3407
44.3088 13.2022
44.3569 13.2062
44.4052 13.14
44.4533 13.1213
44.5016 13.0387
44.5497 13.0368
44.598 12.9845
44.6461 12.9347
44.6945 12.8687
44.7426 12.8234
44.791 12.7771
44.8391 12.7608
44.8875 12.7153
44.9357 12.661
44.984 12.6226
45.0322 12.5431
45.0806 12.5476
45.1288 12.4762
45.1773 12.4405
45.2257 12.3894
45.2739 12.3476
45.3224 12.3071
45.3706 12.2629
45.4191 12.2175
45.4673 12.1677
45.5158 12.1231
45.5641 12.1168
45.6126 12.0369
45.6609 12.0085
45.7094 11.9545
45.7577 11.9287
45.8063 11.8428
45.8546 11.8291
45.9031 11.8098
45.9515 11.7196
46.0001 11.7135
46.0484 11.6882
46.097 11.6034
46.1454 11.5801
46.194 11.5484
46.2424 11.5295
46.291 11.4627
46.3395 11.3811
46.3881 11.3553
46.4365 11.3476
46.4852 11.3284
46.5337 11.285
46.5823 11.1742
46.631 11.1352
46.6795 11.1086
46.7282 11.0472
46.7767 11.0255
46.8254 10.9697
46.8739 10.9417
46.9226 10.9394
46.9712 10.8829
47.0199 10.8258
47.0685 10.8175
47.1173 10.7165
47.1658 10.7119
47.2146 10.6826
47.2632 10.6581
47.312 10.6125
47.3606 10.5382
47.4095 10.5133
47.4581 10.4796
47.5069 10.4399
47.5556 10.4138
47.6044 10.3458
47.6531 10.3517
47.702 10.26
47.7507 10.2738
47.7996 10.2029
47.8483 10.1844
47.8972 10.147
47.9461 10.1005
47.9948 10.0372
48.0438 10.0067
48.0925 9.99575
48.1415 9.97828
48.1902 9.91226
48.2392 9.94236
48.288 9.87218
48.337 9.8295
48.3858 9.81797
48.4348 9.75855
48.4837 9.75239
48.5327 9.69844
48.5815 9.69029
48.6306 9.6273
48.6795 9.5828
48.7285 9.53563
48.7774 9.48782
48.8265 9.48864
48.8754 9.42434
48.9245 9.41635
48.9734 9.38256
49.0226 9.34301
49.0715 9.28913
49.1206 9.26249
49.1696 9.24727
49.2188 9.15716
49.2679 9.15422
49.3169 9.14351
49.3661 9.07207
49.4151 9.03708
49.4643 8.99999
49.5134 8.99243
49.5626 8.94637
49.6117 8.89252
49.6609 8.90332
49.71 8.82479
49.7592 8.83958
49.8083 8.75174
49.8576 8.76845
49.9067 8.69834
49.956 8.68203
50.0052 8.64475
50.0545 8.62409
50.1036 8.5275
50.153 8.5459
50.2022 8.51478
50.2515 8.48218
50.3007 8.45379
50.3501 8.40629
50.3993 8.38415
50.4487 8.35285
50.498 8.32678
50.5474 8.25298
50.5966 8.25978
50.6461 8.21402
50.6955 8.2085
50.7448 8.16825
50.7943 8.15608
50.8436 8.08512
50.8931 8.05927
50.9424 8.01844
50.9919 8.02372
51.0413 8.00947
51.0908 7.94515
51.1402 7.93732
51.1897 7.86067
51.2391 7.84965
51.2887 7.79433
51.3381 7.78217
51.3877 7.73479
51.4371 7.70558
51.4867 7.65094
51.5362 7.6706
51.5858 7.6227
51.6353 7.58239
51.6849 7.5662
51.7344 7.51389
51.7841 7.52483
51.8336 7.49207
51.8833 7.44822
51.9328 7.39798
51.9826 7.37169
52.0323 7.36886
52.0818 7.30867
52.1316 7.29987
52.1812 7.24692
52.231 7.23277
52.2806 7.16901
52.3304 7.12882
52.38 7.14892
52.4298 7.13077
52.4794 7.09285
52.5293 7.05823
52.5789 7.00487
52.6288 6.99054
52.6785 6.9423
52.7284 6.93922
52.7781 6.90353
52.828 6.86335
52.8777 6.81821
52.9276 6.81891
52.9774 6.77266
53.0273 6.74381
53.0771 6.71643
53.1271 6.68359
53.1769 6.67953
53.2269 6.65689
53.2767 6.61482
53.3267 6.58863
53.3765 6.5774
53.4266 6.55905
53.4766 6.52443
53.5265 6.4888
53.5765 6.47242
53.6264 6.42523
53.6765 6.38622
53.7264 6.37081
53.7765 6.38921
53.8265 6.29179
53.8766 6.26546
53.9266 6.23599
53.9767 6.22976
54.0267 6.22868
54.0769 6.16651
54.1269 6.13818
54.1771 6.15135
54.2271 6.10296
54.2773 6.02437
54.3274 6.00563
54.3776 5.99267
54.4277 5.88541
54.478 5.85346
54.528 5.86057
54.5783 5.75508
54.6285 5.73629
54.6788 5.73608
54.7289 5.68724
54.7792 5.62614
54.8296 5.50901
54.8798 5.5476
54.9301 5.50536
54.9803 5.40702
55.0307 5.46063
55.0809 5.35312
55.1314 5.34272
55.1816 5.27838
55.232 5.22522
55.2823 5.19729
55.3328 5.15495
55.383 5.09924
55.4335 5.05591
55.4838 4.9844
55.5344 4.92096
55.5847 4.84387
55.6352 4.86733
55.6856 4.89648
55.7361 4.81695