File: XRD/Ni3Fe_FD0297.xy
TT I
1.27165 7.82772
1.31627 7.39257
1.36089 6.95515
1.40551 6.33746
1.45013 7.03553
1.49476 5.9628
1.53938 6.17402
1.584 6.03842
1.62863 5.55767
1.67325 5.49744
1.71787 5.16111
1.7625 4.80558
1.80712 5.04615
1.85174 4.93194
1.89636 5.53271
1.94099 5.41965
1.98562 4.46654
2.03025 5.06664
2.07487 5.15277
2.11949 4.82146
2.16411 5.00241
2.20874 17.9796
2.25338 30.9462
2.298 6.52216
2.34263 5.27059
2.38725 4.92834
2.43188 5.35293
2.4765 5.79357
2.52115 5.74348
2.56577 6.26546
2.6104 6.95851
2.65503 6.38758
2.69965 7.14631
2.7443 7.13741
2.78893 7.0248
2.83356 8.40595
2.87818 8.56159
2.92281 8.76604
2.96744 9.53405
3.01209 10.3396
3.05672 11.3764
3.10135 12.3457
3.14599 12.8545
3.19062 14.2889
3.23527 15.4068
3.2799 16.0545
3.32454 17.2768
3.36917 17.917
3.4138 19.4226
3.45844 20.3066
3.50309 21.5142
3.54773 22.4129
3.59237 25.4034
3.637 120.703
3.68164 74.8693
3.7263 27.5837
3.77094 27.0017
3.81558 27.2605
3.86022 28.2399
3.90486 29.8156
3.9495 31.0245
3.99416 31.5625
4.0388 33.1752
4.08344 34.831
4.12809 36.5314
4.17273 38.6537
4.21738 46.5404
4.26204 330.012
4.30669 296.939
4.35133 53.1241
4.39598 46.7776
4.44063 58.3332
4.4853 75.0891
4.52995 53.4045
4.5746 53.6171
4.61925 54.7974
4.6639 57.3239
4.70855 59.5773
4.75322 62.8009
4.79788 66.0635
4.84253 69.1342
4.88719 73.8695
4.93184 77.9419
4.97652 83.624
5.02118 90.9987
5.06583 99.6531
5.11049 114.202
5.15515 212.314
5.19981 496.344
5.24449 3028.89
5.28916 11063.7
5.33382 4275.07
5.37848 258.425
5.42315 145.873
5.46783 123.864
5.5125 113.183
5.55716 107.368
5.60183 103.431
5.6465 101.65
5.69117 98.5661
5.73586 96.1273
5.78053 96.5406
5.8252 96.7428
5.86988 97.8486
5.91455 100.467
5.95924 111.324
6.00392 254.694
6.0486 1055.28
6.09328 3649.63
6.13795 3814.27
6.18263 365.448
6.22733 106.516
6.27201 90.2573
6.3167 117.842
6.36138 88.3291
6.40606 72.5792
6.45075 70.4846
6.49545 67.9131
6.54014 66.5102
6.58483 65.5554
6.62952 65.6416
6.67421 107.677
6.71892 183.042
6.76361 75.6119
6.8083 61.7066
6.853 60.0634
6.89769 58.9349
6.94239 58.6579
6.98711 58.0815
7.03181 58.2898
7.07651 57.2323
7.12121 57.774
7.16591 57.8376
7.21063 58.2154
7.25533 77.1704
7.30004 233.279
7.34475 110.789
7.38945 59.5825
7.43416 56.7958
7.47889 56.318
7.5236 56.9886
7.56831 57.5898
7.61303 59.5337
7.65774 60.4077
7.70247 58.4606
7.74719 58.3045
7.79191 58.528
7.83663 59.1083
7.88135 59.702
7.92607 60.862
7.97081 61.7442
8.01553 62.8333
8.06026 64.2263
8.10498 66.3602
8.14971 79.1453
8.19446 77.1471
8.23919 72.2809
8.28392 74.0896
8.32865 76.659
8.37339 81.0413
8.41812 90.0315
8.46288 129.725
8.50761 190.017
8.55235 431.507
8.59709 995.071
8.64183 2078.53
8.68658 1280.95
8.73134 224.953
8.77609 108.094
8.82083 97.8969
8.86558 93.8749
8.91033 94.4738
8.9551 97.5669
8.99985 88.6802
9.04461 86.5743
9.08936 85.7951
9.13412 84.3259
9.17888 84.6124
9.22365 85.8895
9.26841 84.5633
9.31318 85.6204
9.35794 85.9529
9.4027 85.7318
9.44749 86.935
9.49226 87.22
9.53703 88.3451
9.5818 90.6853
9.62657 96.4198
9.67134 105.282
9.71614 97.6696
9.76091 97.3118
9.80569 100.157
9.85047 103.863
9.89525 136.24
9.94005 154.301
9.98484 198.091
10.0296 379.11
10.0744 709.166
10.1192 1478.59
10.164 1799.27
10.2088 581.403
10.2536 152.986
10.2984 122.268
10.3432 124.833
10.388 110.534
10.4328 126.45
10.4776 172.266
10.5224 253.615
10.5672 450.332
10.612 559.224
10.6568 262.108
10.7017 106.922
10.7465 90.979
10.7913 86.6121
10.8361 84.0647
10.8809 81.9901
10.9257 81.9415
10.9706 83.5524
11.0154 77.9923
11.0602 75.3404
11.105 74.4702
11.1499 81.1808
11.1947 92.26
11.2395 80.0927
11.2844 74.2478
11.3292 69.9996
11.374 68.7168
11.4189 68.2879
11.4637 67.2193
11.5086 67.9967
11.5534 72.7156
11.5983 68.8574
11.6431 65.7542
11.688 65.0411
11.7328 65.421
11.7777 65.5962
11.8225 64.9091
11.8674 64.7714
11.9122 65.0872
11.9571 65.2832
12.002 66.1354
12.0468 70.9033
12.0917 83.9885
12.1366 102.532
12.1814 137.312
12.2263 195.746
12.2712 194.617
12.3161 118.366
12.3609 77.1861
12.4058 67.8261
12.4507 66.7563
12.4956 67.3973
12.5405 67.2904
12.5853 67.9961
12.6302 78.8868
12.6751 86.8482
12.72 74.0616
12.7649 70.4255
12.8098 70.775
12.8547 72.0112
12.8996 73.4751
12.9445 74.8558
12.9894 76.52
13.0343 78.469
13.0792 81.6803
13.1242 92.675
13.1691 121.156
13.214 153.217
13.2589 211.484
13.3038 322.875
13.3487 440.458
13.3937 324.024
13.4386 148.879
13.4835 114.388
13.5285 129.548
13.5734 155.975
13.6183 213.686
13.6633 313.106
13.7082 371.542
13.7531 237.933
13.7981 113.097
13.843 85.9481
13.888 82.8941
13.9329 79.9557
13.9779 78.6364
14.0228 77.0967
14.0678 75.5655
14.1127 75.4033
14.1577 75.5082
14.2027 74.5676
14.2476 72.8615
14.2926 73.5699
14.3376 74.8902
14.3825 73.4578
14.4275 71.1667
14.4725 71.0393
14.5175 71.1707
14.5624 71.391
14.6074 74.2206
14.6524 75.1312
14.6974 73.2292
14.7424 74.7474
14.7874 82.5348
14.8324 94.0799
14.8774 109.236
14.9224 137.605
14.9674 188.174
15.0124 227.439
15.0574 176.593
15.1024 104.713
15.1474 76.6856
15.1924 73.5947
15.2374 74.6538
15.2824 74.0936
15.3274 71.2649
15.3725 69.2983
15.4175 68.9974
15.4625 68.6383
15.5076 68.9768
15.5526 68.9047
15.5976 68.1781
15.6426 69.3853
15.6877 75.6224
15.7327 84.3929
15.7778 95.4863
15.8228 116.124
15.8679 151.925
15.9129 192.73
15.958 178.878
16.003 116.534
16.0481 74.7866
16.0931 68.7511
16.1382 66.1848
16.1833 63.6564
16.2283 61.4278
16.2734 60.7458
16.3185 61.2854
16.3636 62.6446
16.4086 60.7892
16.4537 58.6913
16.4988 57.6479
16.5439 57.542
16.589 57.4441
16.6341 57.0058
16.6792 56.6123
16.7243 56.9448
16.7694 57.1989
16.8145 56.9495
16.8596 57.3546
16.9047 59.5557
16.9498 59.8283
16.9949 58.0694
17.04 57.9456
17.0851 59.3062
17.1302 61.0431
17.1754 63.7447
17.2205 66.9071
17.2656 72.4203
17.3108 81.6547
17.3559 85.7163
17.401 77.2844
17.4462 66.1837
17.4913 61.6426
17.5365 61.2263
17.5815 61.3439
17.6268 61.7779
17.6718 62.6714
17.7171 63.2036
17.7622 63.5249
17.8074 63.9638
17.8525 66.6545
17.8977 71.5123
17.9428 76.9664
17.9881 83.0065
18.0331 94.4119
18.0784 112.641
18.1237 137.961
18.1688 143.073
18.214 117.311
18.2591 92.2115
18.3044 88.6571
18.3495 96.9191
18.3948 108.189
18.4399 104.629
18.4852 85.686
18.5303 70.2792
18.5756 64.9495
18.6207 63.6491
18.666 62.8965
18.7112 61.9672
18.7565 61.0194
18.8016 60.7024
18.8469 60.3785
18.892 59.9276
18.9374 59.3783
18.9825 59.2926
19.0278 59.1357
19.073 59.2128
19.1183 59.7974
19.1635 60.9939
19.2088 61.9706
19.254 63.0813
19.2993 66.1663
19.3447 71.9191
19.3898 78.2442
19.4352 77.6443
19.4804 68.7282
19.5257 60.2907
19.5709 56.5053
19.6163 56.0386
19.6615 55.6668
19.7068 55.3038
19.752 55.2642
19.7974 55.7165
19.8426 56.7403
19.888 57.3826
19.9332 58.1669
19.9786 59.6997
20.0238 62.2584
20.0692 66.9458
20.1144 71.2957
20.1598 72.2975
20.205 67.1422
20.2504 63.5643
20.2957 63.9014
20.3411 67.0054
20.3863 67.6673
20.4318 62.6574
20.477 56.927
20.5224 54.306
20.5677 53.18
20.6131 52.3758
20.6586 51.4786
20.7038 51.5544
20.7493 51.1194
20.7945 50.5888
20.84 50.6814
20.8853 50.4018
20.9307 50.2564
20.976 50.6069
21.0215 50.5541
21.0668 50.8482
21.1122 51.0622
21.1575 51.4941
21.203 52.0536
21.2483 52.9396
21.2938 53.3757
21.3391 52.3062
21.3846 51.0918
21.4299 50.2784
21.4754 50.1883
21.5207 50.3306
21.5662 50.444
21.6116 51.1049
21.6571 51.9544
21.7024 52.8347
21.7479 54.0462
21.7933 55.9385
21.8388 58.8458
21.8843 62.5931
21.9297 66.2773
21.9752 67.1503
22.0206 63.1601
22.0661 58.7232
22.1115 57.4792
22.157 57.8815
22.2024 56.9324
22.248 54.2218
22.2933 52.2157
22.3389 51.0115
22.3843 50.991
22.4299 50.8753
22.4753 50.8423
22.5208 50.3614
22.5662 50.2664
22.6118 50.5244
22.6572 50.6574
22.7028 51.1782
22.7483 51.5809
22.7939 52.007
22.8393 53.1416
22.8849 54.617
22.9303 56.4966
22.9759 59.1894
23.0214 60.1101
23.067 58.1573
23.1126 54.2575
23.1581 51.5486
23.2037 50.8794
23.2492 50.8136
23.2948 50.6569
23.3403 50.9942
23.3859 51.3202
23.4314 51.9471
23.477 53.2729
23.5225 54.9289
23.5682 57.1872
23.6137 59.762
23.6593 58.77
23.7048 55.0357
23.7505 50.8946
23.796 48.7661
23.8417 47.9077
23.8872 47.2313
23.9329 46.9569
23.9784 46.6171
24.0241 46.4046
24.0697 46.1035
24.1154 45.7327
24.1609 45.7717
24.2066 45.576
24.2522 45.3303
24.2979 45.0763
24.3434 45.053
24.3892 44.6152
24.4349 44.6129
24.4805 44.4166
24.5262 44.5144
24.5718 44.3446
24.6175 44.5915
24.6631 44.4069
24.7089 44.0619
24.7545 44.1217
24.8002 43.8525
24.8458 43.8492
24.8916 43.6299
24.9372 43.8758
24.983 44.0247
25.0286 44.2357
25.0744 44.4168
25.12 44.8734
25.1658 45.7651
25.2114 45.8876
25.2572 46.2417
25.3029 46.0481
25.3487 46.3319
25.3943 46.4447
25.4402 45.4822
25.4858 44.557
25.5316 43.3087
25.5773 42.463
25.6231 42.3606
25.669 42.1004
25.7147 42.0649
25.7605 41.8811
25.8062 41.9946
25.8521 42.2304
25.8977 41.9706
25.9436 42.0676
25.9893 42.1777
26.0352 42.5888
26.0809 42.8563
26.1268 43.1607
26.1725 43.0056
26.2184 42.5718
26.2641 41.9697
26.31 41.531
26.3557 41.5131
26.4017 41.5748
26.4474 41.8109
26.4933 42.0176
26.5391 42.3661
26.585 42.7997
26.6308 43.2802
26.6767 43.6114
26.7225 43.6731
26.7684 43.1224
26.8142 42.3282
26.8601 41.9261
26.9059 41.6971
26.9519 40.963
26.9979 40.7489
27.0437 40.3607
27.0896 40.1322
27.1354 40.0963
27.1814 39.9304
27.2272 39.8977
27.2732 39.9071
27.3191 39.6138
27.3651 39.8887
27.4109 39.5839
27.4569 39.747
27.5027 39.8271
27.5488 39.8456
27.5946 39.8352
27.6407 39.5683
27.6865 39.5051
27.7326 39.1366
27.7784 39.3285
27.8245 39.1218
27.8703 39.3045
27.9164 39.4523
27.9623 39.5848
28.0084 39.9061
28.0543 40.1504
28.1003 40.4288
28.1462 40.3285
28.1923 40.0181
28.2384 39.3696
28.2843 39.171
28.3304 38.6935
28.3764 38.2319
28.4225 37.8684
28.4684 37.604
28.5145 37.2077
28.5605 37.2055
28.6066 36.9221
28.6526 36.871
28.6987 36.8808
28.7447 36.7101
28.7908 36.5895
28.8368 36.5706
28.8829 36.6145
28.9289 36.6145
28.9751 36.4084
29.0211 36.3185
29.0673 36.0107
29.1133 35.8872
29.1595 35.77
29.2055 35.5186
29.2517 35.4715
29.2977 35.4481
29.3439 35.5252
29.3899 35.4829
29.4361 35.3164
29.4824 35.375
29.5284 35.0593
29.5746 34.7071
29.6207 34.2844
29.6669 34.26
29.713 34.2545
29.7593 34.1463
29.8053 34.0583
29.8516 33.9461
29.8977 33.8808
29.9439 33.8604
29.99 33.6944
30.0363 33.6474
30.0824 33.5895
30.1287 33.5323
30.1748 33.6339
30.2211 33.5585
30.2673 33.4082
30.3136 33.6392
30.3597 33.5391
30.406 33.3204
30.4522 33.1311
30.4985 33.068
30.5447 33.1774
30.591 33.0741
30.6372 33.1965
30.6835 33.1584
30.7297 33.3534
30.7761 33.2534
30.8224 33.0745
30.8686 33.0195
30.915 32.7046
30.9612 32.7394
31.0076 32.344
31.0538 32.3147
31.1002 32.1906
31.1464 31.9699
31.1928 32.0641
31.2391 32.0879
31.2855 31.9381
31.3317 31.874
31.3781 31.9702
31.4244 31.9466
31.4708 31.9148
31.5171 31.9274
31.5636 31.9781
31.6098 31.6652
31.6563 31.4411
31.7026 31.3524
31.7491 31.1705
31.7953 31.2632
31.8418 31.1135
31.8881 31.1485
31.9346 31.1284
31.9809 31.0709
32.0275 31.0894
32.074 30.8984
32.1203 30.6679
32.1668 30.6211
32.2132 30.4776
32.2597 30.3572
32.306 30.2033
32.3526 30.0996
32.399 30.0385
32.4455 29.8452
32.4919 29.7797
32.5385 29.6992
32.5848 29.474
32.6314 29.6252
32.6778 29.4555
32.7244 29.3346
32.7708 29.2085
32.8174 29.218
32.8638 29.0696
32.9104 29.1613
32.9569 29.0861
33.0035 28.7642
33.0499 28.8826
33.0966 28.7727
33.143 28.7991
33.1897 28.6827
33.2361 28.5426
33.2828 28.5667
33.3293 28.45
33.3759 28.445
33.4226 28.298
33.4691 28.1121
33.5158 28.0996
33.5623 27.8983
33.609 27.7566
33.6555 27.6386
33.7022 27.5902
33.7487 27.4125
33.7954 27.4179
33.842 27.3622
33.8887 27.2342
33.9353 27.2762
33.982 27.1037
34.0286 27.0149
34.0753 26.9235
34.1219 26.8453
34.1687 26.7356
34.2152 26.7249
34.262 26.5854
34.3086 26.4527
34.3554 26.4227
34.402 26.2944
34.4488 26.2747
34.4954 26.1685
34.5422 26.0595
34.5889 25.984
34.6357 25.9045
34.6825 25.8904
34.7292 25.7578
34.776 25.7081
34.8227 25.5361
34.8695 25.5617
34.9162 25.4475
34.9631 25.3516
35.0098 25.375
35.0566 25.2184
35.1033 25.1796
35.1502 25.1682
35.1969 25.0712
35.2438 25.078
35.2906 24.9532
35.3375 24.8673
35.3842 24.84
35.4311 24.8676
35.4779 24.8214
35.5248 24.7722
35.5716 24.6501
35.6185 24.4997
35.6653 24.5245
35.7123 24.3797
35.759 24.3189
35.806 24.1374
35.8528 24.0678
35.8998 24.0892
35.9468 23.9082
35.9936 23.9948
36.0406 23.8197
36.0874 23.8224
36.1345 23.7007
36.1813 23.6996
36.2283 23.5605
36.2752 23.4039
36.3222 23.4568
36.3691 23.3919
36.4161 23.2545
36.463 23.2981
36.5101 23.207
36.557 23.0616
36.6041 22.9888
36.651 23.0134
36.6981 22.9367
36.745 22.9003
36.7921 22.7738
36.839 22.6927
36.8861 22.6459
36.9331 22.5214
36.9802 22.5149
37.0272 22.4427
37.0743 22.265
37.1213 22.2963
37.1684 22.1833
37.2154 22.1479
37.2626 22.0368
37.3098 22.0424
37.3568 21.9353
37.404 21.9004
37.451 21.8219
37.4982 21.6493
37.5452 21.6133
37.5924 21.5409
37.6395 21.5624
37.6867 21.4351
37.7337 21.3673
37.781 21.3969
37.8281 21.2869
37.8753 21.0962
37.9224 21.1374
37.9697 20.9987
38.0168 20.9669
38.064 20.886
38.1111 20.8274
38.1584 20.7014
38.2056 20.6493
38.2529 20.6374
38.3 20.4993
38.3473 20.5558
38.3945 20.3937
38.4418 20.3873
38.489 20.3241
38.5363 20.2342
38.5837 20.1479
38.6309 20.1188
38.6782 20.0072
38.7254 19.9393
38.7728 19.8902
38.82 19.8373
38.8674 19.8024
38.9146 19.7703
38.9621 19.6264
39.0093 19.5745
39.0567 19.5438
39.104 19.4967
39.1514 19.4306
39.1987 19.3765
39.2461 19.339
39.2934 19.2541
39.3409 19.0783
39.3882 19.1043
39.4356 19.0891
39.483 18.9629
39.5304 18.9091
39.5778 18.9326
39.6253 18.8217
39.6726 18.6767
39.7201 18.7
39.7675 18.6821
39.815 18.6717
39.8624 18.5337
39.9099 18.5018
39.9575 18.3516
40.0049 18.3773
40.0525 18.2564
40.0999 18.1997
40.1474 18.1724
40.1949 18.063
40.2425 18.0479
40.2899 17.9403
40.3375 17.9498
40.385 17.8529
40.4326 17.8462
40.48 17.7281
40.5277 17.7329
40.5752 17.6584
40.6228 17.5846
40.6703 17.5914
40.718 17.4927
40.7655 17.4641
40.8132 17.358
40.8607 17.3909
40.9084 17.2487
40.9559 17.2347
41.0036 17.229
41.0512 17.1704
41.0989 17.1141
41.1465 16.9727
41.1942 16.9253
41.242 16.8455
41.2896 16.825
41.3373 16.7342
41.3849 16.6956
41.4327 16.6449
41.4803 16.5582
41.5281 16.5815
41.5758 16.4708
41.6236 16.4173
41.6712 16.379
41.7191 16.3224
41.7667 16.3114
41.8146 16.2871
41.8622 16.1712
41.9101 16.118
41.9578 16.071
42.0057 16.0041
42.0534 15.9255
42.1013 15.8756
42.149 15.8021
42.1969 15.8208
42.2446 15.748
42.2925 15.6626
42.3403 15.6471
42.3882 15.5877
42.436 15.5383
42.4839 15.3872
42.5319 15.3732
42.5797 15.4082
42.6277 15.3333
42.6755 15.2575
42.7235 15.1792
42.7713 15.1236
42.8193 15.082
42.8671 15.0588
42.9152 15.0359
42.963 14.9856
43.0111 14.8701
43.0589 14.8444
43.107 14.8043
43.1549 14.7705
43.2029 14.6848
43.2508 14.6585
43.2989 14.5931
43.3468 14.5111
43.3949 14.4609
43.4429 14.4453
43.491 14.369
43.5389 14.3605
43.5871 14.3132
43.635 14.2278
43.6832 14.2147
43.7312 14.176
43.7793 14.0961
43.8273 14.0523
43.8755 13.9619
43.9237 13.9636
43.9717 13.8799
44.0199 13.86
44.068 13.8179
44.1162 13.7957
44.1642 13.7446
44.2125 13.7185
44.2606 13.5884
44.3088 13.5442
44.3569 13.5612
44.4052 13.4648
44.4533 13.4279
44.5016 13.4053
44.5497 13.3443
44.598 13.3152
44.6461 13.2591
44.6945 13.1868
44.7426 13.1539
44.791 13.0947
44.8391 13.0661
44.8875 13.0246
44.9357 12.9873
44.984 12.9291
45.0322 12.844
45.0806 12.8515
45.1288 12.7998
45.1773 12.7095
45.2257 12.7115
45.2739 12.6425
45.3224 12.6008
45.3706 12.5479
45.4191 12.5462
45.4673 12.4654
45.5158 12.4106
45.5641 12.3523
45.6126 12.3035
45.6609 12.3299
45.7094 12.2464
45.7577 12.2135
45.8063 12.1304
45.8546 12.1557
45.9031 12.0758
45.9515 11.9648
46.0001 11.9744
46.0484 11.9395
46.097 11.8904
46.1454 11.8407
46.194 11.8512
46.2424 11.7856
46.291 11.7316
46.3395 11.6924
46.3881 11.635
46.4365 11.6478
46.4852 11.6001
46.5337 11.4986
46.5823 11.5421
46.631 11.4089
46.6795 11.3992
46.7282 11.3704
46.7767 11.3302
46.8254 11.2525
46.8739 11.2338
46.9226 11.1531
46.9712 11.1247
47.0199 11.1066
47.0685 11.1075
47.1173 10.9879
47.1658 10.9737
47.2146 10.9425
47.2632 10.9031
47.312 10.9067
47.3606 10.7962
47.4095 10.7886
47.4581 10.727
47.5069 10.7023
47.5556 10.6154
47.6044 10.6157
47.6531 10.614
47.702 10.4907
47.7507 10.5043
47.7996 10.4511
47.8483 10.4218
47.8972 10.3744
47.9461 10.3456
47.9948 10.3186
48.0438 10.2798
48.0925 10.2511
48.1415 10.2054
48.1902 10.1688
48.2392 10.1578
48.288 10.1476
48.337 10.0856
48.3858 10.035
48.4348 9.99964
48.4837 9.94127
48.5327 9.92324
48.5815 9.86321
48.6306 9.83654
48.6795 9.79142
48.7285 9.76522
48.7774 9.71503
48.8265 9.70692
48.8754 9.61669
48.9245 9.65302
48.9734 9.63771
49.0226 9.56069
49.0715 9.48952
49.1206 9.49302
49.1696 9.45043
49.2188 9.41648
49.2679 9.38941
49.3169 9.37862
49.3661 9.29051
49.4151 9.26278
49.4643 9.21086
49.5134 9.16961
49.5626 9.13679
49.6117 9.12678
49.6609 9.06815
49.71 9.04614
49.7592 9.01804
49.8083 8.97797
49.8576 8.96663
49.9067 8.94488
49.956 8.88222
50.0052 8.86222
50.0545 8.82399
50.1036 8.77978
50.153 8.76535
50.2022 8.68537
50.2515 8.68671
50.3007 8.64747
50.3501 8.62163
50.3993 8.61701
50.4487 8.50483
50.498 8.51697
50.5474 8.4826
50.5966 8.45017
50.6461 8.43444
50.6955 8.40368
50.7448 8.39896
50.7943 8.33221
50.8436 8.27688
50.8931 8.27821
50.9424 8.247
50.9919 8.17979
51.0413 8.18648
51.0908 8.13384
51.1402 8.11691
51.1897 8.05543
51.2391 8.02236
51.2887 7.98769
51.3381 7.93876
51.3877 7.93828
51.4371 7.86917
51.4867 7.84606
51.5362 7.8335
51.5858 7.80577
51.6353 7.75061
51.6849 7.70838
51.7344 7.68647
51.7841 7.68714
51.8336 7.6599
51.8833 7.62844
51.9328 7.58304
51.9826 7.50323
52.0323 7.51022
52.0818 7.47655
52.1316 7.43736
52.1812 7.43479
52.231 7.39691
52.2806 7.38137
52.3304 7.34357
52.38 7.27759
52.4298 7.29298
52.4794 7.23963
52.5293 7.18201
52.5789 7.14058
52.6288 7.14465
52.6785 7.09935
52.7284 7.13254
52.7781 7.07168
52.828 7.02372
52.8777 7.00546
52.9276 6.97667
52.9774 6.91841
53.0273 6.91051
53.0771 6.90985
53.1271 6.88887
53.1769 6.82744
53.2269 6.82488
53.2767 6.77537
53.3267 6.72894
53.3765 6.69683
53.4266 6.67242
53.4766 6.63761
53.5265 6.63719
53.5765 6.59588
53.6264 6.57104
53.6765 6.54004
53.7264 6.48226
53.7765 6.4958
53.8265 6.46364
53.8766 6.44624
53.9266 6.3838
53.9767 6.35581
54.0267 6.35504
54.0769 6.29767
54.1269 6.26575
54.1771 6.23182
54.2271 6.20125
54.2773 6.18939
54.3274 6.21163
54.3776 6.09303
54.4277 6.05619
54.478 6.04342
54.528 6.01027
54.5783 5.92581
54.6285 5.91657
54.6788 5.9126
54.7289 5.86723
54.7792 5.82927
54.8296 5.72054
54.8798 5.68855
54.9301 5.63357
54.9803 5.63731
55.0307 5.63077
55.0809 5.58237
55.1314 5.51421
55.1816 5.46045
55.232 5.45922
55.2823 5.41426
55.3328 5.33074
55.383 5.25921
55.4335 5.2412
55.4838 5.17586
55.5344 5.13383
55.5847 5.06173
55.6352 5.06776
55.6856 4.9768
55.7361 4.96189