File: XRD/Ni3Fe_FD0521.xy
TT I
1.27165 7.74896
1.31627 6.52864
1.36089 6.78491
1.40551 5.72005
1.45013 6.12172
1.49476 6.43326
1.53938 5.40772
1.584 5.61851
1.62863 5.51413
1.67325 4.90921
1.71787 5.41258
1.7625 4.58452
1.80712 4.83229
1.85174 5.15502
1.89636 5.02458
1.94099 4.72325
1.98562 4.8098
2.03025 4.94984
2.07487 4.81066
2.11949 4.88165
2.16411 4.7483
2.20874 16.1961
2.25338 26.2636
2.298 6.45152
2.34263 5.46632
2.38725 5.51664
2.43188 6.0743
2.4765 6.91989
2.52115 6.42688
2.56577 7.42596
2.6104 8.49836
2.65503 7.67058
2.69965 8.46641
2.7443 7.67551
2.78893 8.21649
2.83356 8.95021
2.87818 8.61433
2.92281 8.66655
2.96744 9.89887
3.01209 10.1426
3.05672 11.3238
3.10135 12.2474
3.14599 13.0473
3.19062 14.5862
3.23527 15.2087
3.2799 15.6724
3.32454 16.9875
3.36917 17.9992
3.4138 19.1967
3.45844 20.5287
3.50309 21.2798
3.54773 22.3597
3.59237 24.6795
3.637 105.548
3.68164 66.4033
3.7263 26.5169
3.77094 26.5447
3.81558 26.9948
3.86022 27.718
3.90486 29.4365
3.9495 30.4057
3.99416 31.4461
4.0388 32.6705
4.08344 33.9384
4.12809 35.6819
4.17273 37.6757
4.21738 45.0385
4.26204 285.207
4.30669 250.772
4.35133 50.491
4.39598 45.2222
4.44063 55.8935
4.4853 70.1327
4.52995 51.4222
4.5746 51.5867
4.61925 53.9666
4.6639 55.8693
4.70855 58.8394
4.75322 61.6583
4.79788 64.3404
4.84253 68.0527
4.88719 72.0644
4.93184 75.611
4.97652 81.1833
5.02118 88.1151
5.06583 95.0518
5.11049 107.703
5.15515 186.819
5.19981 380.756
5.24449 2839.95
5.28916 11895.3
5.33382 3290.43
5.37848 205.664
5.42315 133.836
5.46783 116.189
5.5125 107.805
5.55716 103.487
5.60183 99.9982
5.6465 98.114
5.69117 95.6668
5.73586 93.314
5.78053 92.7176
5.8252 92.7932
5.86988 93.2148
5.91455 95.2542
5.95924 103.196
6.00392 210.881
6.0486 975.754
6.09328 4144.19
6.13795 3498.23
6.18263 297.962
6.22733 97.2936
6.27201 85.7065
6.3167 108.846
6.36138 83.9719
6.40606 69.9611
6.45075 68.0598
6.49545 66.7234
6.54014 64.8794
6.58483 63.8318
6.62952 64.0003
6.67421 100.954
6.71892 161.124
6.76361 71.6147
6.8083 59.6364
6.853 57.9967
6.89769 58.1923
6.94239 57.3079
6.98711 56.8926
7.03181 56.3503
7.07651 56.0539
7.12121 56.2962
7.16591 56.4605
7.21063 56.8866
7.25533 73.2716
7.30004 205.539
7.34475 100.339
7.38945 58.1139
7.43416 55.6449
7.47889 55.0964
7.5236 55.869
7.56831 56.1095
7.61303 58.0799
7.65774 58.5136
7.70247 57.064
7.74719 56.7131
7.79191 57.4472
7.83663 57.5673
7.88135 58.2885
7.92607 59.3269
7.97081 60.3143
8.01553 61.6156
8.06026 63.1673
8.10498 64.6009
8.14971 75.6146
8.19446 74.1056
8.23919 70.2345
8.28392 72.4673
8.32865 74.6869
8.37339 79.1566
8.41812 86.8323
8.46288 120.152
8.50761 165.972
8.55235 387.689
8.59709 1132.46
8.64183 2140.11
8.68658 1063.8
8.73134 191.11
8.77609 102.187
8.82083 94.9038
8.86558 91.1363
8.91033 91.3381
8.9551 94.018
8.99985 86.5717
9.04461 84.5508
9.08936 83.4771
9.13412 82.8106
9.17888 83.1187
9.22365 83.9211
9.26841 82.7173
9.31318 83.2511
9.35794 83.8044
9.4027 84.1109
9.44749 85.0164
9.49226 85.4324
9.53703 86.3567
9.5818 87.8592
9.62657 93.364
9.67134 101.174
9.71614 94.8266
9.76091 94.9241
9.80569 97.2058
9.85047 101.144
9.89525 128.825
9.94005 142.409
9.98484 176.926
10.0296 342.712
10.0744 771.769
10.1192 1627.84
10.164 1645.82
10.2088 450.086
10.2536 135.172
10.2984 116.597
10.3432 118.807
10.388 106.208
10.4328 118.8
10.4776 160.01
10.5224 274.342
10.5672 492.319
10.612 532.896
10.6568 224.669
10.7017 99.8554
10.7465 88.081
10.7913 84.5835
10.8361 82.3092
10.8809 80.3251
10.9257 79.794
10.9706 80.7423
11.0154 75.8699
11.0602 73.9723
11.105 72.8151
11.1499 78.2126
11.1947 87.3756
11.2395 76.9118
11.2844 71.9371
11.3292 68.178
11.374 66.8935
11.4189 66.5751
11.4637 65.9012
11.5086 66.4609
11.5534 70.1966
11.5983 66.9431
11.6431 64.5706
11.688 63.7789
11.7328 63.9223
11.7777 63.5263
11.8225 63.3517
11.8674 63.0646
11.9122 63.4678
11.9571 63.7559
12.002 64.1382
12.0468 68.4346
12.0917 80.3785
12.1366 103.278
12.1814 149.885
12.2263 203.907
12.2712 176.832
12.3161 103.334
12.3609 73.0152
12.4058 65.7371
12.4507 65.2982
12.4956 65.3216
12.5405 65.2258
12.5853 66.5468
12.6302 75.4001
12.6751 82.3391
12.72 71.5708
12.7649 68.6606
12.8098 69.1384
12.8547 70.5448
12.8996 71.877
12.9445 72.6503
12.9894 74.6578
13.0343 76.5242
13.0792 79.6939
13.1242 88.5156
13.1691 112.904
13.214 148.811
13.2589 230.183
13.3038 352.445
13.3487 432.601
13.3937 285.803
13.4386 132.201
13.4835 107.04
13.5285 121.226
13.5734 156.693
13.6183 237.983
13.6633 334.033
13.7082 344.087
13.7531 202.371
13.7981 103.268
13.843 83.1129
13.888 80.5122
13.9329 78.1078
13.9779 76.5796
14.0228 75.1503
14.0678 73.8924
14.1127 73.7482
14.1577 73.5478
14.2027 72.4984
14.2476 71.3139
14.2926 71.6032
14.3376 72.9481
14.3825 71.3635
14.4275 69.5867
14.4725 69.3031
14.5175 69.5384
14.5624 70.1152
14.6074 72.4379
14.6524 72.9701
14.6974 71.4031
14.7424 72.8444
14.7874 79.0219
14.8324 89.4503
14.8774 109.631
14.9224 148.767
14.9674 199.004
15.0124 217.09
15.0574 156.175
15.1024 95.0034
15.1474 73.8291
15.1924 71.6793
15.2374 72.4209
15.2824 71.6889
15.3274 69.0767
15.3725 67.7165
15.4175 67.161
15.4625 66.8473
15.5076 67.4543
15.5526 67.1578
15.5976 66.506
15.6426 67.3895
15.6877 72.7724
15.7327 80.3556
15.7778 94.5699
15.8228 123.282
15.8679 165.365
15.9129 193.981
15.958 163.222
16.003 103.468
16.0481 70.5617
16.0931 66.1615
16.1382 64.0713
16.1833 61.5371
16.2283 59.8186
16.2734 59.0835
16.3185 59.838
16.3636 60.4813
16.4086 58.8616
16.4537 57.1042
16.4988 56.3548
16.5439 56.2332
16.589 55.7945
16.6341 55.6765
16.6792 55.1198
16.7243 55.7237
16.7694 55.7625
16.8145 55.671
16.8596 56.1058
16.9047 57.6705
16.9498 57.9843
16.9949 56.4975
17.04 56.2881
17.0851 57.5539
17.1302 59.2001
17.1754 62.195
17.2205 66.8638
17.2656 73.8284
17.3108 82.1405
17.3559 82.4242
17.401 72.7323
17.4462 63.5651
17.4913 59.9626
17.5365 59.8103
17.5815 60.0863
17.6268 60.2811
17.6718 60.9945
17.7171 61.7716
17.7622 61.9728
17.8074 62.4209
17.8525 64.8555
17.8977 68.7822
17.9428 74.2994
17.9881 82.5876
18.0331 98.2722
18.0784 118.35
18.1237 137.495
18.1688 135.304
18.214 108.073
18.2591 88.0778
18.3044 90.2179
18.3495 99.5679
18.3948 106.477
18.4399 99.352
18.4852 80.5002
18.5303 67.5632
18.5756 63.2941
18.6207 62.0913
18.666 61.2001
18.7112 60.318
18.7565 59.8009
18.8016 59.3859
18.8469 58.7801
18.892 58.2981
18.9374 58.0045
18.9825 57.7342
19.0278 57.5989
19.073 57.6078
19.1183 57.8876
19.1635 59.0681
19.2088 60.2491
19.254 62.5856
19.2993 66.3401
19.3447 72.4241
19.3898 76.8093
19.4352 73.8887
19.4804 64.9591
19.5257 58.0322
19.5709 54.7938
19.6163 54.5817
19.6615 54.4508
19.7068 54.1505
19.752 53.8869
19.7974 54.2453
19.8426 55.0016
19.888 55.8404
19.9332 56.7566
19.9786 59.1322
20.0238 62.3569
20.0692 66.937
20.1144 70.4296
20.1598 69.473
20.205 64.5476
20.2504 62.658
20.2957 64.019
20.3411 66.2529
20.3863 65.1095
20.4318 59.4918
20.477 54.7338
20.5224 52.6295
20.5677 51.7818
20.6131 50.9578
20.6586 50.4572
20.7038 50.188
20.7493 49.7336
20.7945 49.6864
20.84 49.4119
20.8853 49.2729
20.9307 49.1653
20.976 49.4749
21.0215 49.1592
21.0668 49.6278
21.1122 49.8956
21.1575 50.5244
21.203 51.3597
21.2483 51.9922
21.2938 52.162
21.3391 51.0282
21.3846 49.7854
21.4299 49.0154
21.4754 49.0865
21.5207 49.1286
21.5662 49.3258
21.6116 49.6938
21.6571 50.2944
21.7024 51.3744
21.7479 53.0093
21.7933 55.5006
21.8388 58.8974
21.8843 62.5716
21.9297 64.9862
21.9752 64.5592
22.0206 60.7237
22.0661 57.4479
22.1115 56.5224
22.157 56.4307
22.2024 55.2971
22.248 52.3499
22.2933 50.6995
22.3389 49.7492
22.3843 49.7169
22.4299 49.6853
22.4753 49.5159
22.5208 49.1895
22.5662 49.2004
22.6118 49.2245
22.6572 49.4004
22.7028 49.7875
22.7483 50.3805
22.7939 50.9379
22.8393 52.2677
22.8849 54.3311
22.9303 56.1167
22.9759 58.171
23.0214 58.3788
23.067 55.723
23.1126 52.1389
23.1581 49.8721
23.2037 49.4048
23.2492 49.4576
23.2948 49.339
23.3403 49.6577
23.3859 50.3144
23.4314 51.1249
23.477 52.7785
23.5225 54.8354
23.5682 57.0923
23.6137 58.2722
23.6593 56.8469
23.7048 52.7938
23.7505 49.1073
23.796 47.3389
23.8417 46.6599
23.8872 46.1583
23.9329 45.9629
23.9784 45.3827
24.0241 45.2759
24.0697 44.96
24.1154 44.6204
24.1609 44.6385
24.2066 44.4354
24.2522 44.3023
24.2979 43.9958
24.3434 43.7669
24.3892 43.7377
24.4349 43.6865
24.4805 43.2686
24.5262 43.6453
24.5718 43.4511
24.6175 43.4478
24.6631 43.3381
24.7089 43.055
24.7545 42.8888
24.8002 42.858
24.8458 42.718
24.8916 42.642
24.9372 42.7231
24.983 42.9367
25.0286 43.3852
25.0744 43.7938
25.12 44.1556
25.1658 44.8463
25.2114 45.033
25.2572 45.3794
25.3029 45.3617
25.3487 45.4158
25.3943 45.233
25.4402 44.1901
25.4858 43.1456
25.5316 42.0828
25.5773 41.384
25.6231 41.3948
25.669 40.9949
25.7147 40.9836
25.7605 40.927
25.8062 41.044
25.8521 41.4233
25.8977 41.1984
25.9436 41.3299
25.9893 41.474
26.0352 41.8355
26.0809 41.9404
26.1268 42.2281
26.1725 42.0812
26.2184 41.3381
26.2641 40.7377
26.31 40.6027
26.3557 40.6457
26.4017 40.5013
26.4474 40.8755
26.4933 41.2743
26.5391 41.6862
26.585 41.9788
26.6308 42.4142
26.6767 42.5305
26.7225 42.4884
26.7684 41.9546
26.8142 41.3793
26.8601 40.9651
26.9059 40.614
26.9519 40.1575
26.9979 39.6897
27.0437 39.3832
27.0896 39.158
27.1354 39.2249
27.1814 39.0044
27.2272 38.9456
27.2732 38.9869
27.3191 38.7708
27.3651 38.9386
27.4109 38.7552
27.4569 38.9552
27.5027 38.9402
27.5488 38.9414
27.5946 38.9401
27.6407 38.5168
27.6865 38.5295
27.7326 38.3545
27.7784 38.2229
27.8245 38.1452
27.8703 38.5366
27.9164 38.6835
27.9623 38.703
28.0084 39.0175
28.0543 39.4939
28.1003 39.4089
28.1462 39.2913
28.1923 38.9313
28.2384 38.5749
28.2843 38.0969
28.3304 37.5445
28.3764 37.3427
28.4225 36.9708
28.4684 36.7603
28.5145 36.5075
28.5605 36.3052
28.6066 36.0378
28.6526 36.1664
28.6987 36.1945
28.7447 35.8396
28.7908 35.9831
28.8368 35.9221
28.8829 35.9044
28.9289 35.8854
28.9751 35.5166
29.0211 35.4218
29.0673 35.1246
29.1133 35.0525
29.1595 34.8962
29.2055 34.6957
29.2517 34.7641
29.2977 34.6588
29.3439 34.6114
29.3899 34.6962
29.4361 34.5256
29.4824 34.4786
29.5284 34.1916
29.5746 33.7993
29.6207 33.5978
29.6669 33.445
29.713 33.3535
29.7593 33.1658
29.8053 33.3294
29.8516 33.2411
29.8977 33.1977
29.9439 33.0249
29.99 32.9545
30.0363 32.8656
30.0824 32.8427
30.1287 32.7922
30.1748 32.91
30.2211 32.7671
30.2673 32.6565
30.3136 32.7863
30.3597 32.6717
30.406 32.6263
30.4522 32.4014
30.4985 32.4377
30.5447 32.5836
30.591 32.425
30.6372 32.5922
30.6835 32.4789
30.7297 32.6382
30.7761 32.536
30.8224 32.2943
30.8686 32.244
30.915 31.9797
30.9612 31.8699
31.0076 31.7943
31.0538 31.496
31.1002 31.5081
31.1464 31.3593
31.1928 31.29
31.2391 31.2979
31.2855 31.336
31.3317 31.1706
31.3781 31.265
31.4244 31.1843
31.4708 31.1753
31.5171 31.2273
31.5636 31.0858
31.6098 30.9417
31.6563 30.7025
31.7026 30.5883
31.7491 30.5015
31.7953 30.5621
31.8418 30.4831
31.8881 30.554
31.9346 30.495
31.9809 30.4281
32.0275 30.3368
32.074 30.1859
32.1203 29.992
32.1668 29.9028
32.2132 29.7769
32.2597 29.6559
32.306 29.5291
32.3526 29.3821
32.399 29.3305
32.4455 29.1246
32.4919 29.0418
32.5385 28.9772
32.5848 28.8303
32.6314 28.7884
32.6778 28.7495
32.7244 28.5647
32.7708 28.5392
32.8174 28.4448
32.8638 28.3806
32.9104 28.4046
32.9569 28.2855
33.0035 28.1917
33.0499 28.1201
33.0966 28.1668
33.143 28.1145
33.1897 28.0182
33.2361 27.9431
33.2828 27.9621
33.3293 27.7667
33.3759 27.7066
33.4226 27.6584
33.4691 27.4301
33.5158 27.3473
33.5623 27.2852
33.609 27.085
33.6555 26.9697
33.7022 26.9725
33.7487 26.8337
33.7954 26.7237
33.842 26.683
33.8887 26.5991
33.9353 26.5552
33.982 26.4521
34.0286 26.3778
34.0753 26.2949
34.1219 26.2049
34.1687 26.1706
34.2152 26.1617
34.262 25.9437
34.3086 25.9149
34.3554 25.8068
34.402 25.7927
34.4488 25.6768
34.4954 25.5244
34.5422 25.5099
34.5889 25.3598
34.6357 25.2908
34.6825 25.2542
34.7292 25.0847
34.776 25.1667
34.8227 25.0161
34.8695 24.9763
34.9162 24.8536
34.9631 24.7449
35.0098 24.8138
35.0566 24.6655
35.1033 24.7069
35.1502 24.532
35.1969 24.504
35.2438 24.4437
35.2906 24.4021
35.3375 24.4248
35.3842 24.2737
35.4311 24.2958
35.4779 24.2313
35.5248 24.1598
35.5716 24.0767
35.6185 24.0092
35.6653 23.8727
35.7123 23.8653
35.759 23.6955
35.806 23.6696
35.8528 23.5548
35.8998 23.5169
35.9468 23.3448
35.9936 23.3629
36.0406 23.3335
36.0874 23.2467
36.1345 23.1605
36.1813 23.0808
36.2283 22.9513
36.2752 22.89
36.3222 22.8623
36.3691 22.8364
36.4161 22.716
36.463 22.6878
36.5101 22.6907
36.557 22.6431
36.6041 22.4065
36.651 22.4167
36.6981 22.3554
36.745 22.3289
36.7921 22.2956
36.839 22.14
36.8861 22.0396
36.9331 22.0426
36.9802 21.9866
37.0272 21.8276
37.0743 21.7284
37.1213 21.6969
37.1684 21.6706
37.2154 21.633
37.2626 21.5156
37.3098 21.5537
37.3568 21.4547
37.404 21.3751
37.451 21.2499
37.4982 21.2204
37.5452 21.123
37.5924 21.0549
37.6395 21.0469
37.6867 20.9876
37.7337 20.8899
37.781 20.7884
37.8281 20.7523
37.8753 20.6442
37.9224 20.5822
37.9697 20.5096
38.0168 20.4514
38.064 20.3946
38.1111 20.3897
38.1584 20.2938
38.2056 20.1971
38.2529 20.1479
38.3 20.0328
38.3473 20.107
38.3945 19.891
38.4418 19.8963
38.489 19.7874
38.5363 19.8169
38.5837 19.6792
38.6309 19.63
38.6782 19.5432
38.7254 19.4958
38.7728 19.5035
38.82 19.4062
38.8674 19.2611
38.9146 19.243
38.9621 19.1769
39.0093 19.1626
39.0567 19.1039
39.104 19.0143
39.1514 18.9942
39.1987 18.97
39.2461 18.8889
39.2934 18.8088
39.3409 18.697
39.3882 18.642
39.4356 18.6033
39.483 18.5579
39.5304 18.5045
39.5778 18.4806
39.6253 18.3734
39.6726 18.3111
39.7201 18.2929
39.7675 18.2373
39.815 18.1595
39.8624 18.0206
39.9099 18.0652
39.9575 17.9679
40.0049 17.9596
40.0525 17.8141
40.0999 17.8379
40.1474 17.7578
40.1949 17.6488
40.2425 17.6205
40.2899 17.5903
40.3375 17.5514
40.385 17.4805
40.4326 17.4216
40.48 17.3167
40.5277 17.332
40.5752 17.2604
40.6228 17.1785
40.6703 17.1355
40.718 17.0781
40.7655 17.0734
40.8132 16.9575
40.8607 17.007
40.9084 16.9386
40.9559 16.8323
41.0036 16.759
41.0512 16.7187
41.0989 16.6566
41.1465 16.5743
41.1942 16.5881
41.242 16.4824
41.2896 16.4071
41.3373 16.3166
41.3849 16.3854
41.4327 16.2713
41.4803 16.1324
41.5281 16.1614
41.5758 16.142
41.6236 16.0597
41.6712 15.9941
41.7191 15.9419
41.7667 15.9033
41.8146 15.841
41.8622 15.8105
41.9101 15.7109
41.9578 15.6252
42.0057 15.625
42.0534 15.5506
42.1013 15.561
42.149 15.4704
42.1969 15.3913
42.2446 15.3624
42.2925 15.3518
42.3403 15.239
42.3882 15.2892
42.436 15.1931
42.4839 15.1221
42.5319 15.0711
42.5797 15.0436
42.6277 14.9077
42.6755 14.9688
42.7235 14.8305
42.7713 14.8013
42.8193 14.8145
42.8671 14.7787
42.9152 14.694
42.963 14.6357
43.0111 14.5117
43.0589 14.4508
43.107 14.477
43.1549 14.4141
43.2029 14.3642
43.2508 14.2925
43.2989 14.263
43.3468 14.1756
43.3949 14.1762
43.4429 14.0765
43.491 14.0586
43.5389 13.9969
43.5871 13.9643
43.635 13.9507
43.6832 13.9085
43.7312 13.8094
43.7793 13.7569
43.8273 13.7144
43.8755 13.6448
43.9237 13.6472
43.9717 13.536
44.0199 13.5318
44.068 13.4838
44.1162 13.4769
44.1642 13.4304
44.2125 13.3378
44.2606 13.3154
44.3088 13.2529
44.3569 13.2508
44.4052 13.1958
44.4533 13.1192
44.5016 13.0768
44.5497 13.0542
44.598 12.9938
44.6461 12.976
44.6945 12.8941
44.7426 12.832
44.791 12.7594
44.8391 12.7695
44.8875 12.6619
44.9357 12.6853
44.984 12.5792
45.0322 12.5891
45.0806 12.4724
45.1288 12.5286
45.1773 12.456
45.2257 12.401
45.2739 12.335
45.3224 12.3103
45.3706 12.2936
45.4191 12.2016
45.4673 12.1928
45.5158 12.1732
45.5641 12.0922
45.6126 12.0505
45.6609 11.9856
45.7094 11.9491
45.7577 11.9173
45.8063 11.8431
45.8546 11.8775
45.9031 11.7722
45.9515 11.735
46.0001 11.7281
46.0484 11.6716
46.097 11.6385
46.1454 11.6008
46.194 11.5563
46.2424 11.4841
46.291 11.4307
46.3395 11.425
46.3881 11.3908
46.4365 11.3594
46.4852 11.3201
46.5337 11.2592
46.5823 11.2868
46.631 11.1581
46.6795 11.1507
46.7282 11.1101
46.7767 11.0628
46.8254 10.9935
46.8739 11.0105
46.9226 10.9311
46.9712 10.848
47.0199 10.8253
47.0685 10.8015
47.1173 10.7421
47.1658 10.7204
47.2146 10.7226
47.2632 10.6513
47.312 10.5994
47.3606 10.5891
47.4095 10.5281
47.4581 10.473
47.5069 10.4394
47.5556 10.4101
47.6044 10.34
47.6531 10.3175
47.702 10.235
47.7507 10.2788
47.7996 10.213
47.8483 10.18
47.8972 10.1121
47.9461 10.1112
47.9948 10.0537
48.0438 10.0599
48.0925 10.0366
48.1415 9.95436
48.1902 9.91544
48.2392 9.89701
48.288 9.8897
48.337 9.81571
48.3858 9.77346
48.4348 9.77564
48.4837 9.72414
48.5327 9.66594
48.5815 9.64996
48.6306 9.64682
48.6795 9.60709
48.7285 9.53209
48.7774 9.54964
48.8265 9.50539
48.8754 9.43924
48.9245 9.4083
48.9734 9.37868
49.0226 9.32592
49.0715 9.29862
49.1206 9.26527
49.1696 9.23078
49.2188 9.21849
49.2679 9.17455
49.3169 9.10068
49.3661 9.10737
49.4151 9.03504
49.4643 9.04892
49.5134 8.95139
49.5626 8.93138
49.6117 8.94265
49.6609 8.8959
49.71 8.83026
49.7592 8.79785
49.8083 8.76069
49.8576 8.75169
49.9067 8.68028
49.956 8.68094
50.0052 8.67854
50.0545 8.61204
50.1036 8.64888
50.153 8.55776
50.2022 8.53361
50.2515 8.4736
50.3007 8.43121
50.3501 8.41761
50.3993 8.40405
50.4487 8.35141
50.498 8.32722
50.5474 8.30507
50.5966 8.22536
50.6461 8.23152
50.6955 8.19513
50.7448 8.15136
50.7943 8.11371
50.8436 8.07643
50.8931 8.0831
50.9424 8.05593
50.9919 7.9923
51.0413 8.02047
51.0908 7.93511
51.1402 7.89983
51.1897 7.86963
51.2391 7.87808
51.2887 7.81335
51.3381 7.79113
51.3877 7.7504
51.4371 7.66949
51.4867 7.67731
51.5362 7.64629
51.5858 7.61878
51.6353 7.56792
51.6849 7.57019
51.7344 7.53915
51.7841 7.45864
51.8336 7.42978
51.8833 7.42587
51.9328 7.38062
51.9826 7.33628
52.0323 7.33003
52.0818 7.33211
52.1316 7.25764
52.1812 7.24982
52.231 7.18124
52.2806 7.18461
52.3304 7.15484
52.38 7.10937
52.4298 7.09589
52.4794 7.04957
52.5293 7.00621
52.5789 7.03207
52.6288 7.01667
52.6785 6.96451
52.7284 6.92759
52.7781 6.87873
52.828 6.87339
52.8777 6.82687
52.9276 6.83532
52.9774 6.7961
53.0273 6.78767
53.0771 6.73322
53.1271 6.71335
53.1769 6.6622
53.2269 6.64869
53.2767 6.5771
53.3267 6.59059
53.3765 6.53759
53.4266 6.51772
53.4766 6.4751
53.5265 6.44109
53.5765 6.47384
53.6264 6.43425
53.6765 6.38223
53.7264 6.36983
53.7765 6.31537
53.8265 6.33848
53.8766 6.25559
53.9266 6.2588
53.9767 6.19842
54.0267 6.19943
54.0769 6.17281
54.1269 6.12895
54.1771 6.12291
54.2271 6.07292
54.2773 6.03426
54.3274 6.0497
54.3776 5.95657
54.4277 5.97781
54.478 5.92073
54.528 5.85086
54.5783 5.83194
54.6285 5.76159
54.6788 5.77551
54.7289 5.761
54.7792 5.6549
54.8296 5.66038
54.8798 5.59426
54.9301 5.51718
54.9803 5.49891
55.0307 5.54133
55.0809 5.39247
55.1314 5.42573
55.1816 5.34116
55.232 5.30701
55.2823 5.27598
55.3328 5.23367
55.383 5.1367
55.4335 5.07954
55.4838 5.09407
55.5344 5.02777
55.5847 5.00149
55.6352 4.98449
55.6856 4.97992
55.7361 4.90046