File: XRD/Ni3Fe_FD0477.xy
TT I
1.27165 7.299
1.31627 6.42576
1.36089 6.74413
1.40551 7.15003
1.45013 6.2282
1.49476 5.86369
1.53938 6.32513
1.584 5.39328
1.62863 5.53523
1.67325 5.28138
1.71787 5.04123
1.7625 5.19256
1.80712 5.02742
1.85174 4.8653
1.89636 5.00277
1.94099 5.29975
1.98562 4.98147
2.03025 4.78378
2.07487 4.64442
2.11949 4.00282
2.16411 4.84752
2.20874 8.92401
2.25338 11.7569
2.298 4.90782
2.34263 5.19805
2.38725 5.94128
2.43188 5.63539
2.4765 6.30834
2.52115 5.67812
2.56577 6.96473
2.6104 7.66988
2.65503 7.60188
2.69965 7.80764
2.7443 7.78404
2.78893 7.72252
2.83356 9.11792
2.87818 8.72747
2.92281 8.97695
2.96744 9.88409
3.01209 10.3059
3.05672 11.2572
3.10135 11.8005
3.14599 13.2292
3.19062 13.963
3.23527 14.9837
3.2799 15.5071
3.32454 16.8565
3.36917 17.8309
3.4138 18.9573
3.45844 19.5044
3.50309 20.9654
3.54773 21.6978
3.59237 23.1885
3.637 53.391
3.68164 38.2412
3.7263 25.4706
3.77094 26.3393
3.81558 26.5691
3.86022 27.4523
3.90486 28.8866
3.9495 29.8436
3.99416 30.9871
4.0388 32.3095
4.08344 33.7757
4.12809 34.4407
4.17273 36.7591
4.21738 40.9151
4.26204 129.412
4.30669 113.319
4.35133 45.6397
4.39598 44.2109
4.44063 49.3288
4.4853 55.5566
4.52995 54.1418
4.5746 54.8641
4.61925 54.2756
4.6639 56.7257
4.70855 59.4658
4.75322 62.7865
4.79788 66.9175
4.84253 69.4897
4.88719 75.1061
4.93184 77.8017
4.97652 83.8519
5.02118 90.0987
5.06583 98.5537
5.11049 111.743
5.15515 165.5
5.19981 541.727
5.24449 3533.2
5.28916 11653.3
5.33382 2823.66
5.37848 205.718
5.42315 135.237
5.46783 120.821
5.5125 112.064
5.55716 105.211
5.60183 100.854
5.6465 98.4679
5.69117 96.9609
5.73586 95.2618
5.78053 98.0241
5.8252 97.1933
5.86988 99.4242
5.91455 99.2618
5.95924 112.624
6.00392 300.292
6.0486 1194.58
6.09328 4270.49
6.13795 3272.97
6.18263 247.962
6.22733 95.9955
6.27201 83.6595
6.3167 87.5494
6.36138 76.5677
6.40606 70.7153
6.45075 69.4268
6.49545 66.6707
6.54014 64.9336
6.58483 64.0239
6.62952 63.2679
6.67421 75.5035
6.71892 95.2585
6.76361 63.647
6.8083 59.6716
6.853 59.3297
6.89769 57.3728
6.94239 56.9108
6.98711 56.2084
7.03181 56.4431
7.07651 55.7852
7.12121 55.755
7.16591 56.4736
7.21063 55.7714
7.25533 62.1157
7.30004 106.629
7.34475 70.0733
7.38945 56.1517
7.43416 54.7767
7.47889 54.7423
7.5236 54.8763
7.56831 55.7127
7.61303 57.0265
7.65774 57.3022
7.70247 57.3612
7.74719 57.0303
7.79191 57.3535
7.83663 57.5708
7.88135 58.4908
7.92607 59.4185
7.97081 60.6666
8.01553 62.0063
8.06026 63.4842
8.10498 64.6525
8.14971 71.2246
8.19446 71.1267
8.23919 70.8223
8.28392 73.6019
8.32865 75.9576
8.37339 80.1422
8.41812 86.6887
8.46288 109.242
8.50761 212.588
8.55235 468.32
8.59709 1251.12
8.64183 2181.71
8.68658 948.441
8.73134 164.003
8.77609 101.413
8.82083 95.0975
8.86558 93.0355
8.91033 92.047
8.9551 90.3347
8.99985 86.3924
9.04461 85.3652
9.08936 85.2485
9.13412 84.0625
9.17888 83.3716
9.22365 83.8498
9.26841 83.5261
9.31318 85.5111
9.35794 85.8104
9.4027 86.178
9.44749 86.3183
9.49226 86.0998
9.53703 87.3795
9.5818 90.084
9.62657 93.7559
9.67134 96.1739
9.71614 94.5051
9.76091 96.8973
9.80569 100.23
9.85047 102.845
9.89525 115.887
9.94005 134.52
9.98484 224.936
10.0296 414.098
10.0744 893.123
10.1192 1703.08
10.164 1610.01
10.2088 398.07
10.2536 129.336
10.2984 112.477
10.3432 111.433
10.388 108.679
10.4328 132.092
10.4776 180.479
10.5224 304.299
10.5672 500.846
10.612 490.179
10.6568 197.356
10.7017 97.1965
10.7465 88.2415
10.7913 84.8706
10.8361 82.3266
10.8809 80.3859
10.9257 79.1696
10.9706 78.9624
11.0154 76.0302
11.0602 73.8737
11.105 72.7627
11.1499 73.7857
11.1947 76.322
11.2395 71.5101
11.2844 69.6882
11.3292 68.1665
11.374 67.0873
11.4189 66.5844
11.4637 65.8393
11.5086 65.6587
11.5534 66.7911
11.5983 65.3557
11.6431 64.6084
11.688 63.8218
11.7328 63.9113
11.7777 63.956
11.8225 63.8063
11.8674 63.5936
11.9122 63.7382
11.9571 64.3047
12.002 65.8325
12.0468 72.5649
12.0917 84.4135
12.1366 109.579
12.1814 156.466
12.2263 201.136
12.2712 167.603
12.3161 90.8701
12.3609 68.4469
12.4058 65.2864
12.4507 65.3114
12.4956 65.3824
12.5405 65.666
12.5853 66.3822
12.6302 69.6384
12.6751 72.5462
12.72 69.4038
12.7649 68.874
12.8098 69.6909
12.8547 70.8628
12.8996 72.5072
12.9445 74.1336
12.9894 75.9084
13.0343 77.8143
13.0792 82.3049
13.1242 98.0048
13.1691 122.468
13.214 163.742
13.2589 252.755
13.3038 368.466
13.3487 419.07
13.3937 258.374
13.4386 124.805
13.4835 114.416
13.5285 131.452
13.5734 172.688
13.6183 255.182
13.6633 340.065
13.7082 339.193
13.7531 187.113
13.7981 97.3397
13.843 83.0895
13.888 80.7919
13.9329 78.4253
13.9779 76.9754
14.0228 75.8678
14.0678 74.4327
14.1127 73.6607
14.1577 73.281
14.2027 72.4869
14.2476 71.6341
14.2926 71.21
14.3376 71.5772
14.3825 70.9035
14.4275 70.1596
14.4725 69.7543
14.5175 70.2504
14.5624 70.3214
14.6074 71.2975
14.6524 71.7508
14.6974 71.9471
14.7424 76.3489
14.7874 83.9393
14.8324 95.4534
14.8774 118.833
14.9224 158.069
14.9674 203.233
15.0124 214.714
15.0574 147.343
15.1024 90.4268
15.1474 73.2727
15.1924 71.353
15.2374 70.8671
15.2824 70.1225
15.3274 68.7096
15.3725 67.8479
15.4175 67.6694
15.4625 67.0257
15.5076 67.3381
15.5526 67.3339
15.5976 67.2191
15.6426 70.6083
15.6877 76.8653
15.7327 85.1755
15.7778 101.558
15.8228 131.637
15.8679 169.627
15.9129 190.618
15.958 153.797
16.003 95.1214
16.0481 68.0439
16.0931 64.3402
16.1382 62.5272
16.1833 61.4611
16.2283 59.8004
16.2734 59.2618
16.3185 58.8469
16.3636 58.885
16.4086 57.9225
16.4537 56.9059
16.4988 56.4972
16.5439 56.0638
16.589 55.9133
16.6341 55.7102
16.6792 55.3303
16.7243 55.8188
16.7694 55.689
16.8145 55.5122
16.8596 55.8378
16.9047 56.5135
16.9498 56.7865
16.9949 56.4478
17.04 57.2035
17.0851 58.6701
17.1302 60.3145
17.1754 63.5939
17.2205 68.8757
17.2656 75.2225
17.3108 82.3615
17.3559 81.7314
17.401 71.4508
17.4462 62.9403
17.4913 60.0589
17.5365 60.3093
17.5815 60.2185
17.6268 60.6735
17.6718 61.3399
17.7171 61.7594
17.7622 62.6034
17.8074 63.9021
17.8525 67.4607
17.8977 71.4766
17.9428 77.4532
17.9881 87.0411
18.0331 103.442
18.0784 122.044
18.1237 139.921
18.1688 132.88
18.214 105.395
18.2591 88.7852
18.3044 92.2192
18.3495 100.45
18.3948 106.386
18.4399 96.8316
18.4852 77.9762
18.5303 66.5277
18.5756 63.1792
18.6207 62.2384
18.666 61.3185
18.7112 60.5402
18.7565 59.8877
18.8016 59.7653
18.8469 59.0458
18.892 58.9601
18.9374 58.066
18.9825 57.8995
19.0278 57.7544
19.073 58.1181
19.1183 58.7056
19.1635 59.2495
19.2088 60.7479
19.254 63.7807
19.2993 67.9111
19.3447 72.9393
19.3898 76.4306
19.4352 72.4591
19.4804 63.8647
19.5257 57.329
19.5709 55.0907
19.6163 54.9437
19.6615 54.5877
19.7068 54.152
19.752 54.3617
19.7974 54.9382
19.8426 55.5981
19.888 56.098
19.9332 57.7679
19.9786 60.2831
20.0238 63.6659
20.0692 67.9224
20.1144 70.3887
20.1598 69.2229
20.205 64.7206
20.2504 63.1882
20.2957 64.2637
20.3411 66.1803
20.3863 64.5996
20.4318 58.6394
20.477 54.0374
20.5224 51.9276
20.5677 51.5217
20.6131 50.9872
20.6586 50.5566
20.7038 50.2919
20.7493 49.8042
20.7945 49.9105
20.84 49.6055
20.8853 49.564
20.9307 49.4646
20.976 49.6418
21.0215 49.6453
21.0668 49.9145
21.1122 50.458
21.1575 50.9557
21.203 51.5581
21.2483 51.9453
21.2938 52.219
21.3391 50.8917
21.3846 49.6786
21.4299 49.2279
21.4754 49.247
21.5207 49.4207
21.5662 49.9243
21.6116 50.3629
21.6571 51.22
21.7024 52.1703
21.7479 54.1359
21.7933 56.7973
21.8388 59.9304
21.8843 63.2945
21.9297 65.3327
21.9752 64.0484
22.0206 60.0955
22.0661 56.8489
22.1115 56.5483
22.157 56.5036
22.2024 54.9639
22.248 52.0993
22.2933 50.572
22.3389 49.7539
22.3843 49.6827
22.4299 49.4811
22.4753 49.2743
22.5208 49.3884
22.5662 49.465
22.6118 49.622
22.6572 49.8626
22.7028 50.2397
22.7483 50.8955
22.7939 51.7173
22.8393 53.0563
22.8849 54.801
22.9303 56.7481
22.9759 58.3542
23.0214 57.9127
23.067 54.936
23.1126 51.7604
23.1581 49.8964
23.2037 49.5784
23.2492 49.8364
23.2948 49.8208
23.3403 50.0705
23.3859 51.0751
23.4314 51.9752
23.477 53.753
23.5225 55.3808
23.5682 57.4903
23.6137 58.2248
23.6593 56.0978
23.7048 52.1484
23.7505 48.7689
23.796 47.2491
23.8417 46.7133
23.8872 46.1991
23.9329 45.9765
23.9784 45.6535
24.0241 45.2726
24.0697 45.1873
24.1154 44.9648
24.1609 44.7187
24.2066 44.517
24.2522 44.387
24.2979 44.0826
24.3434 43.9877
24.3892 43.8555
24.4349 43.9569
24.4805 43.5009
24.5262 43.7975
24.5718 43.5713
24.6175 43.6803
24.6631 43.4376
24.7089 43.0131
24.7545 43.1026
24.8002 42.8911
24.8458 42.9198
24.8916 42.7366
24.9372 42.9233
24.983 43.4462
25.0286 43.7047
25.0744 43.9617
25.12 44.4506
25.1658 45.0943
25.2114 45.309
25.2572 45.4357
25.3029 45.3777
25.3487 45.582
25.3943 45.3278
25.4402 44.0245
25.4858 43.0274
25.5316 42.0708
25.5773 41.5889
25.6231 41.5338
25.669 41.2104
25.7147 41.263
25.7605 41.1169
25.8062 41.0818
25.8521 41.2522
25.8977 41.2164
25.9436 41.5367
25.9893 41.695
26.0352 42.1539
26.0809 42.1122
26.1268 42.2896
26.1725 41.8804
26.2184 41.4936
26.2641 40.8771
26.31 40.697
26.3557 40.8149
26.4017 40.8595
26.4474 41.266
26.4933 41.4782
26.5391 41.8147
26.585 42.3125
26.6308 42.7874
26.6767 42.7868
26.7225 42.4809
26.7684 41.9349
26.8142 41.3675
26.8601 40.9324
26.9059 40.5523
26.9519 40.0688
26.9979 39.773
27.0437 39.5478
27.0896 39.3681
27.1354 39.3912
27.1814 39.2683
27.2272 39.0978
27.2732 39.2491
27.3191 38.9995
27.3651 39.1099
27.4109 39.0314
27.4569 39.2465
27.5027 39.0973
27.5488 39.1812
27.5946 38.98
27.6407 38.8188
27.6865 38.7448
27.7326 38.4517
27.7784 38.5433
27.8245 38.5313
27.8703 38.6373
27.9164 39.0183
27.9623 38.882
28.0084 39.3527
28.0543 39.6755
28.1003 39.6241
28.1462 39.3201
28.1923 39.1072
28.2384 38.5606
28.2843 38.2348
28.3304 37.6864
28.3764 37.106
28.4225 36.9571
28.4684 36.869
28.5145 36.5542
28.5605 36.3579
28.6066 36.2823
28.6526 36.21
28.6987 36.1483
28.7447 36.1099
28.7908 36.0459
28.8368 35.9224
28.8829 35.9569
28.9289 35.7638
28.9751 35.7263
29.0211 35.4406
29.0673 35.167
29.1133 35.052
29.1595 34.9721
29.2055 34.8836
29.2517 34.9493
29.2977 34.8359
29.3439 34.6519
29.3899 34.8114
29.4361 34.7146
29.4824 34.4508
29.5284 34.1271
29.5746 33.836
29.6207 33.7408
29.6669 33.4446
29.713 33.5878
29.7593 33.2796
29.8053 33.3679
29.8516 33.2669
29.8977 33.2448
29.9439 33.1168
29.99 33.0644
30.0363 33.0133
30.0824 33.1003
30.1287 32.8766
30.1748 32.847
30.2211 32.9237
30.2673 32.8295
30.3136 32.8146
30.3597 32.8459
30.406 32.6004
30.4522 32.5938
30.4985 32.5665
30.5447 32.5783
30.591 32.7356
30.6372 32.6788
30.6835 32.7171
30.7297 32.6662
30.7761 32.5948
30.8224 32.4553
30.8686 32.3171
30.915 32.1156
30.9612 32.0105
31.0076 31.9029
31.0538 31.5997
31.1002 31.5883
31.1464 31.4756
31.1928 31.386
31.2391 31.4254
31.2855 31.3614
31.3317 31.3145
31.3781 31.3414
31.4244 31.3184
31.4708 31.2701
31.5171 31.234
31.5636 31.2474
31.6098 31.0188
31.6563 30.801
31.7026 30.7311
31.7491 30.5878
31.7953 30.5867
31.8418 30.6137
31.8881 30.5894
31.9346 30.5512
31.9809 30.5982
32.0275 30.3987
32.074 30.263
32.1203 29.9931
32.1668 29.9668
32.2132 29.7805
32.2597 29.7502
32.306 29.749
32.3526 29.4326
32.399 29.3789
32.4455 29.2682
32.4919 29.0454
32.5385 29.0742
32.5848 28.9224
32.6314 28.8235
32.6778 28.9426
32.7244 28.7425
32.7708 28.5654
32.8174 28.5851
32.8638 28.4011
32.9104 28.5084
32.9569 28.5084
33.0035 28.3006
33.0499 28.2592
33.0966 28.2355
33.143 28.2132
33.1897 28.1087
33.2361 27.9828
33.2828 27.9868
33.3293 27.7838
33.3759 27.8861
33.4226 27.6476
33.4691 27.5088
33.5158 27.3612
33.5623 27.3379
33.609 27.1509
33.6555 27.1168
33.7022 27.0721
33.7487 26.921
33.7954 26.885
33.842 26.7717
33.8887 26.7427
33.9353 26.7027
33.982 26.5109
34.0286 26.496
34.0753 26.4159
34.1219 26.2986
34.1687 26.2092
34.2152 26.0955
34.262 26.055
34.3086 25.8815
34.3554 25.9808
34.402 25.7833
34.4488 25.6486
34.4954 25.5476
34.5422 25.4727
34.5889 25.4096
34.6357 25.3354
34.6825 25.344
34.7292 25.1271
34.776 25.0955
34.8227 25.0631
34.8695 24.9446
34.9162 24.9814
34.9631 24.909
35.0098 24.8764
35.0566 24.7338
35.1033 24.673
35.1502 24.5755
35.1969 24.5357
35.2438 24.5311
35.2906 24.4005
35.3375 24.4489
35.3842 24.3518
35.4311 24.3342
35.4779 24.3177
35.5248 24.2977
35.5716 24.0322
35.6185 24.1081
35.6653 23.9682
35.7123 23.8302
35.759 23.8171
35.806 23.6406
35.8528 23.5643
35.8998 23.5581
35.9468 23.4236
35.9936 23.4593
36.0406 23.2991
36.0874 23.3431
36.1345 23.1738
36.1813 23.2053
36.2283 23.0521
36.2752 22.9821
36.3222 23.0138
36.3691 22.8717
36.4161 22.766
36.463 22.8466
36.5101 22.8357
36.557 22.7183
36.6041 22.4734
36.651 22.4864
36.6981 22.4167
36.745 22.3516
36.7921 22.2981
36.839 22.2242
36.8861 22.1062
36.9331 22.0657
36.9802 22.029
37.0272 21.8482
37.0743 21.8387
37.1213 21.7761
37.1684 21.6871
37.2154 21.6337
37.2626 21.6117
37.3098 21.48
37.3568 21.431
37.404 21.4623
37.451 21.2726
37.4982 21.278
37.5452 21.114
37.5924 21.11
37.6395 21.0949
37.6867 20.9902
37.7337 20.9603
37.781 20.8169
37.8281 20.8025
37.8753 20.707
37.9224 20.5696
37.9697 20.4853
38.0168 20.5489
38.064 20.4249
38.1111 20.384
38.1584 20.3164
38.2056 20.2548
38.2529 20.2273
38.3 20.1239
38.3473 20.1478
38.3945 19.9579
38.4418 19.9152
38.489 19.8571
38.5363 19.7804
38.5837 19.6442
38.6309 19.6541
38.6782 19.5842
38.7254 19.5384
38.7728 19.4411
38.82 19.4157
38.8674 19.3371
38.9146 19.3323
38.9621 19.2406
39.0093 19.246
39.0567 19.1531
39.104 19.1073
39.1514 18.9356
39.1987 18.9523
39.2461 18.9168
39.2934 18.8666
39.3409 18.7406
39.3882 18.6417
39.4356 18.6267
39.483 18.568
39.5304 18.5094
39.5778 18.5348
39.6253 18.4249
39.6726 18.3897
39.7201 18.3176
39.7675 18.2501
39.815 18.1986
39.8624 18.1264
39.9099 18.1272
39.9575 17.9838
40.0049 18.0285
40.0525 17.8462
40.0999 17.8285
40.1474 17.7749
40.1949 17.7189
40.2425 17.6479
40.2899 17.5654
40.3375 17.5984
40.385 17.5002
40.4326 17.42
40.48 17.3323
40.5277 17.3753
40.5752 17.3045
40.6228 17.1805
40.6703 17.1421
40.718 17.1334
40.7655 17.0835
40.8132 16.9924
40.8607 16.9925
40.9084 16.855
40.9559 16.8517
41.0036 16.7741
41.0512 16.7481
41.0989 16.731
41.1465 16.6103
41.1942 16.5725
41.242 16.4886
41.2896 16.4311
41.3373 16.3931
41.3849 16.3213
41.4327 16.2976
41.4803 16.1839
41.5281 16.2299
41.5758 16.0935
41.6236 16.0388
41.6712 16.0171
41.7191 15.9493
41.7667 15.9074
41.8146 15.8718
41.8622 15.8413
41.9101 15.7644
41.9578 15.599
42.0057 15.6408
42.0534 15.6186
42.1013 15.5298
42.149 15.5118
42.1969 15.4067
42.2446 15.3763
42.2925 15.321
42.3403 15.2794
42.3882 15.2683
42.436 15.1611
42.4839 15.1281
42.5319 15.0831
42.5797 14.9719
42.6277 15.0399
42.6755 14.8944
42.7235 14.8709
42.7713 14.8319
42.8193 14.7421
42.8671 14.7028
42.9152 14.699
42.963 14.6392
43.0111 14.5843
43.0589 14.5213
43.107 14.4382
43.1549 14.4495
43.2029 14.3769
43.2508 14.3404
43.2989 14.2401
43.3468 14.2006
43.3949 14.1882
43.4429 14.1302
43.491 14.0821
43.5389 14.0096
43.5871 13.9775
43.635 13.9282
43.6832 13.9062
43.7312 13.8666
43.7793 13.7911
43.8273 13.7735
43.8755 13.6722
43.9237 13.6731
43.9717 13.6157
44.0199 13.5636
44.068 13.5236
44.1162 13.4434
44.1642 13.4652
44.2125 13.4102
44.2606 13.3506
44.3088 13.2445
44.3569 13.2371
44.4052 13.1532
44.4533 13.1603
44.5016 13.061
44.5497 13.0348
44.598 13.0133
44.6461 12.9264
44.6945 12.8888
44.7426 12.8503
44.791 12.8192
44.8391 12.7903
44.8875 12.7271
44.9357 12.6651
44.984 12.6247
45.0322 12.5676
45.0806 12.5709
45.1288 12.5207
45.1773 12.4188
45.2257 12.4275
45.2739 12.3734
45.3224 12.3188
45.3706 12.2819
45.4191 12.196
45.4673 12.2161
45.5158 12.1611
45.5641 12.0989
45.6126 12.0175
45.6609 11.9984
45.7094 11.976
45.7577 11.924
45.8063 11.8704
45.8546 11.8665
45.9031 11.7492
45.9515 11.7748
46.0001 11.7162
46.0484 11.6689
46.097 11.684
46.1454 11.6046
46.194 11.5731
46.2424 11.5409
46.291 11.4817
46.3395 11.42
46.3881 11.3786
46.4365 11.3442
46.4852 11.318
46.5337 11.2653
46.5823 11.2391
46.631 11.1773
46.6795 11.1545
46.7282 11.1066
46.7767 11.0682
46.8254 11.001
46.8739 10.9859
46.9226 10.9201
46.9712 10.8708
47.0199 10.8751
47.0685 10.7874
47.1173 10.7714
47.1658 10.7615
47.2146 10.697
47.2632 10.6726
47.312 10.6131
47.3606 10.5656
47.4095 10.5356
47.4581 10.4837
47.5069 10.4709
47.5556 10.4249
47.6044 10.3857
47.6531 10.3423
47.702 10.3003
47.7507 10.287
47.7996 10.2093
47.8483 10.1742
47.8972 10.1606
47.9461 10.1413
47.9948 10.0569
48.0438 10.0344
48.0925 10.0013
48.1415 9.97963
48.1902 9.93272
48.2392 9.92738
48.288 9.88738
48.337 9.84701
48.3858 9.77105
48.4348 9.75793
48.4837 9.74722
48.5327 9.69356
48.5815 9.6639
48.6306 9.669
48.6795 9.56117
48.7285 9.56613
48.7774 9.4971
48.8265 9.49771
48.8754 9.45907
48.9245 9.42612
48.9734 9.41916
49.0226 9.34758
49.0715 9.28566
49.1206 9.2748
49.1696 9.2188
49.2188 9.19205
49.2679 9.15818
49.3169 9.1252
49.3661 9.09369
49.4151 9.01792
49.4643 9.01527
49.5134 8.99948
49.5626 8.93959
49.6117 8.90829
49.6609 8.85341
49.71 8.81259
49.7592 8.81656
49.8083 8.77738
49.8576 8.7246
49.9067 8.69348
49.956 8.69188
50.0052 8.62417
50.0545 8.62272
50.1036 8.54004
50.153 8.55222
50.2022 8.50785
50.2515 8.49896
50.3007 8.45101
50.3501 8.40354
50.3993 8.35935
50.4487 8.37879
50.498 8.33123
50.5474 8.29501
50.5966 8.23004
50.6461 8.21463
50.6955 8.18509
50.7448 8.16233
50.7943 8.1168
50.8436 8.10843
50.8931 8.08182
50.9424 8.0541
50.9919 7.99703
51.0413 7.97518
51.0908 7.92963
51.1402 7.93414
51.1897 7.87405
51.2391 7.85352
51.2887 7.81127
51.3381 7.81871
51.3877 7.75735
51.4371 7.70905
51.4867 7.69789
51.5362 7.65233
51.5858 7.62463
51.6353 7.56043
51.6849 7.54342
51.7344 7.51899
51.7841 7.49635
51.8336 7.4842
51.8833 7.45063
51.9328 7.37014
51.9826 7.40245
52.0323 7.32137
52.0818 7.31036
52.1316 7.27306
52.1812 7.24959
52.231 7.21254
52.2806 7.21962
52.3304 7.18755
52.38 7.1535
52.4298 7.07714
52.4794 7.05844
52.5293 7.02478
52.5789 6.99414
52.6288 6.97524
52.6785 6.936
52.7284 6.93536
52.7781 6.90346
52.828 6.86277
52.8777 6.84045
52.9276 6.80135
52.9774 6.81874
53.0273 6.7158
53.0771 6.71581
53.1271 6.72376
53.1769 6.65004
53.2269 6.62979
53.2767 6.62102
53.3267 6.57722
53.3765 6.61299
53.4266 6.50607
53.4766 6.51253
53.5265 6.46672
53.5765 6.45684
53.6264 6.42787
53.6765 6.41356
53.7264 6.35616
53.7765 6.37586
53.8265 6.29926
53.8766 6.24255
53.9266 6.27286
53.9767 6.25301
54.0267 6.21688
54.0769 6.17281
54.1269 6.12749
54.1771 6.11537
54.2271 6.09782
54.2773 6.0445
54.3274 5.99632
54.3776 5.97295
54.4277 5.92963
54.478 5.93847
54.528 5.91429
54.5783 5.84087
54.6285 5.75627
54.6788 5.75449
54.7289 5.74769
54.7792 5.64124
54.8296 5.59355
54.8798 5.60762
54.9301 5.53701
54.9803 5.55626
55.0307 5.48155
55.0809 5.45212
55.1314 5.42414
55.1816 5.35669
55.232 5.38537
55.2823 5.34663
55.3328 5.19205
55.383 5.21951
55.4335 5.12952
55.4838 5.05149
55.5344 5.02996
55.5847 5.02302
55.6352 4.96532
55.6856 4.92338
55.7361 4.88427