File: XRD/Ni3Fe_FD0492.xy
TT I
1.27165 7.66144
1.31627 6.97934
1.36089 6.64228
1.40551 6.5441
1.45013 6.30886
1.49476 6.02441
1.53938 6.06835
1.584 5.20738
1.62863 5.64524
1.67325 5.16516
1.71787 4.95233
1.7625 5.15738
1.80712 5.31418
1.85174 4.7424
1.89636 5.14384
1.94099 4.78478
1.98562 4.40233
2.03025 4.48798
2.07487 4.15358
2.11949 4.95002
2.16411 4.94417
2.20874 12.737
2.25338 18.3399
2.298 6.12332
2.34263 5.01754
2.38725 5.33453
2.43188 5.94146
2.4765 6.12115
2.52115 6.7982
2.56577 7.0144
2.6104 8.07528
2.65503 7.08746
2.69965 7.60139
2.7443 7.89099
2.78893 7.59349
2.83356 8.1518
2.87818 8.76737
2.92281 8.90668
2.96744 9.53931
3.01209 10.2319
3.05672 11.0087
3.10135 12.3213
3.14599 13.3628
3.19062 14.6179
3.23527 15.0506
3.2799 15.972
3.32454 17.0513
3.36917 17.8089
3.4138 19.1223
3.45844 19.2968
3.50309 21.0327
3.54773 22.2924
3.59237 23.568
3.637 78.3953
3.68164 50.7152
3.7263 26.3257
3.77094 26.4004
3.81558 27.4194
3.86022 27.4488
3.90486 29.3327
3.9495 30.1127
3.99416 30.9533
4.0388 32.4871
4.08344 34.0972
4.12809 34.968
4.17273 37.3809
4.21738 42.9016
4.26204 201.177
4.30669 173.731
4.35133 47.9927
4.39598 44.8908
4.44063 52.4728
4.4853 62.2668
4.52995 51.2533
4.5746 51.9403
4.61925 54.0935
4.6639 56.1284
4.70855 59.0063
4.75322 61.6849
4.79788 64.9122
4.84253 68.3392
4.88719 72.2522
4.93184 76.2452
4.97652 81.7899
5.02118 88.5408
5.06583 96.7628
5.11049 109.672
5.15515 172.779
5.19981 427.83
5.24449 3214.49
5.28916 11984.7
5.33382 3240.14
5.37848 206.175
5.42315 134.297
5.46783 117.201
5.5125 108.895
5.55716 104.283
5.60183 100.478
5.6465 98.8967
5.69117 96.4182
5.73586 94.1801
5.78053 93.8458
5.8252 93.8075
5.86988 94.3023
5.91455 97.1869
5.95924 107.605
6.00392 239.644
6.0486 1084.04
6.09328 4191.9
6.13795 3495.07
6.18263 279.998
6.22733 96.8799
6.27201 84.5927
6.3167 97.6569
6.36138 79.5721
6.40606 70.1147
6.45075 68.4645
6.49545 66.0574
6.54014 64.4597
6.58483 63.7004
6.62952 63.4729
6.67421 87.9081
6.71892 125.083
6.76361 67.4833
6.8083 59.5932
6.853 58.2911
6.89769 57.5768
6.94239 57.3051
6.98711 56.4004
7.03181 56.1478
7.07651 55.9241
7.12121 55.6007
7.16591 55.8675
7.21063 56.16
7.25533 68.1592
7.30004 150.232
7.34475 83.8639
7.38945 56.9126
7.43416 55.1672
7.47889 54.8014
7.5236 55.5392
7.56831 56.0391
7.61303 57.3316
7.65774 57.5281
7.70247 56.6084
7.74719 57.0009
7.79191 56.9951
7.83663 57.2705
7.88135 58.5018
7.92607 59.4035
7.97081 60.9657
8.01553 61.5314
8.06026 63.3793
8.10498 64.7083
8.14971 72.8645
8.19446 71.9881
8.23919 70.5761
8.28392 73.1016
8.32865 75.013
8.37339 79.8687
8.41812 86.3047
8.46288 112.14
8.50761 182.161
8.55235 430.179
8.59709 1207.98
8.64183 2121.08
8.68658 1060.4
8.73134 181.206
8.77609 102.71
8.82083 94.8903
8.86558 91.41
8.91033 91.175
8.9551 91.9018
8.99985 86.3164
9.04461 85.2549
9.08936 84.2502
9.13412 83.5264
9.17888 83.2358
9.22365 83.9099
9.26841 83.2424
9.31318 84.1053
9.35794 83.8933
9.4027 84.3214
9.44749 85.2023
9.49226 85.3835
9.53703 87.0188
9.5818 88.9251
9.62657 92.6308
9.67134 98.0819
9.71614 95.0996
9.76091 95.6086
9.80569 97.9419
9.85047 101.635
9.89525 121.366
9.94005 134.294
9.98484 193.662
10.0296 378.497
10.0744 851.2
10.1192 1649.5
10.164 1647.91
10.2088 462.264
10.2536 136.144
10.2984 114.456
10.3432 114.338
10.388 106.559
10.4328 123.637
10.4776 169.301
10.5224 294.368
10.5672 500.443
10.612 513.051
10.6568 223.035
10.7017 99.7467
10.7465 88.2103
10.7913 84.6797
10.8361 82.569
10.8809 80.28
10.9257 79.2187
10.9706 79.2217
11.0154 75.783
11.0602 73.6758
11.105 72.6523
11.1499 76.2394
11.1947 81.0769
11.2395 74.0087
11.2844 70.7345
11.3292 67.9729
11.374 66.7288
11.4189 66.5653
11.4637 65.8863
11.5086 66.2523
11.5534 68.2064
11.5983 65.9493
11.6431 64.5094
11.688 64.1121
11.7328 63.6368
11.7777 63.568
11.8225 63.3765
11.8674 63.4306
11.9122 63.4844
11.9571 63.7567
12.002 64.632
12.0468 69.8973
12.0917 82.3292
12.1366 107.09
12.1814 156.371
12.2263 200.363
12.2712 170.422
12.3161 99.755
12.3609 70.7924
12.4058 65.4136
12.4507 65.322
12.4956 65.1475
12.5405 65.463
12.5853 66.537
12.6302 72.7194
12.6751 76.9709
12.72 70.0393
12.7649 68.5749
12.8098 69.219
12.8547 70.7495
12.8996 72.0837
12.9445 73.4029
12.9894 75.1312
13.0343 76.9765
13.0792 80.2442
13.1242 91.3711
13.1691 117.105
13.214 156.322
13.2589 246.047
13.3038 360.952
13.3487 417.635
13.3937 278.781
13.4386 132.166
13.4835 110.239
13.5285 126.066
13.5734 166.269
13.6183 249.702
13.6633 330.749
13.7082 338.442
13.7531 203.387
13.7981 103.36
13.843 83.4638
13.888 80.6762
13.9329 78.3245
13.9779 76.8808
14.0228 75.4672
14.0678 74.0291
14.1127 73.7752
14.1577 73.2604
14.2027 72.4874
14.2476 71.58
14.2926 71.4315
14.3376 72.4589
14.3825 71.0378
14.4275 69.7132
14.4725 69.5008
14.5175 70.0563
14.5624 70.0187
14.6074 71.9823
14.6524 72.6249
14.6974 71.4646
14.7424 73.6171
14.7874 81.1666
14.8324 92.2651
14.8774 114.772
14.9224 155.456
14.9674 199.426
15.0124 213.014
15.0574 156.448
15.1024 96.6579
15.1474 73.9745
15.1924 71.438
15.2374 71.7142
15.2824 70.819
15.3274 68.9779
15.3725 67.6949
15.4175 67.5603
15.4625 67.0296
15.5076 66.9598
15.5526 67.196
15.5976 66.8077
15.6426 68.3566
15.6877 74.587
15.7327 82.4833
15.7778 98.5451
15.8228 129.89
15.8679 167.098
15.9129 187.257
15.958 158.224
16.003 101.507
16.0481 70.1775
16.0931 65.2739
16.1382 63.336
16.1833 61.403
16.2283 59.9332
16.2734 59.1486
16.3185 59.341
16.3636 59.7929
16.4086 58.3649
16.4537 57.1181
16.4988 56.349
16.5439 56.1081
16.589 55.7423
16.6341 55.8921
16.6792 55.4397
16.7243 55.8849
16.7694 55.7413
16.8145 55.6456
16.8596 56.0069
16.9047 57.1881
16.9498 57.3689
16.9949 56.4392
17.04 56.8923
17.0851 58.0581
17.1302 59.73
17.1754 63.2611
17.2205 68.2837
17.2656 74.742
17.3108 81.1454
17.3559 81.9692
17.401 72.94
17.4462 63.9335
17.4913 60.3051
17.5365 60.049
17.5815 60.0529
17.6268 60.4793
17.6718 61.2293
17.7171 61.5684
17.7622 62.0661
17.8074 62.9703
17.8525 65.8794
17.8977 70.2695
17.9428 75.6757
17.9881 85.1012
18.0331 101.996
18.0784 119.972
18.1237 135.723
18.1688 133.266
18.214 108.278
18.2591 90.2541
18.3044 91.7004
18.3495 99.5305
18.3948 104.828
18.4399 98.3054
18.4852 80.8054
18.5303 67.8798
18.5756 63.4336
18.6207 62.1382
18.666 61.3573
18.7112 60.5839
18.7565 59.7567
18.8016 59.471
18.8469 58.8172
18.892 58.5783
18.9374 58.1357
18.9825 57.6656
19.0278 57.7026
19.073 57.8425
19.1183 58.3901
19.1635 59.147
19.2088 60.5583
19.254 63.3619
19.2993 67.8488
19.3447 72.5606
19.3898 75.554
19.4352 73.1748
19.4804 64.9659
19.5257 57.9713
19.5709 54.9365
19.6163 54.8571
19.6615 54.4477
19.7068 53.9549
19.752 54.2632
19.7974 54.3008
19.8426 55.3184
19.888 56.0529
19.9332 57.2242
19.9786 59.8777
20.0238 63.4082
20.0692 67.3325
20.1144 69.9062
20.1598 69.3472
20.205 65.343
20.2504 63.2155
20.2957 64.2694
20.3411 65.3865
20.3863 64.7705
20.4318 59.6809
20.477 54.8657
20.5224 52.5028
20.5677 51.626
20.6131 50.9899
20.6586 50.4502
20.7038 50.2975
20.7493 49.6773
20.7945 49.7597
20.84 49.6303
20.8853 49.2963
20.9307 49.2956
20.976 49.521
21.0215 49.5158
21.0668 49.7466
21.1122 50.2649
21.1575 50.8634
21.203 51.5823
21.2483 51.8941
21.2938 52.1842
21.3391 50.9661
21.3846 49.8669
21.4299 49.1821
21.4754 49.0955
21.5207 49.348
21.5662 49.6319
21.6116 50.0608
21.6571 50.7412
21.7024 51.6676
21.7479 53.4577
21.7933 56.395
21.8388 59.6723
21.8843 62.9131
21.9297 64.85
21.9752 64.2426
22.0206 61.0188
22.0661 57.5431
22.1115 56.5394
22.157 56.4236
22.2024 55.2192
22.248 52.3868
22.2933 50.8855
22.3389 49.879
22.3843 49.8097
22.4299 49.6063
22.4753 49.6412
22.5208 49.2033
22.5662 49.0936
22.6118 49.4593
22.6572 49.798
22.7028 50.1385
22.7483 50.584
22.7939 51.2432
22.8393 53.0087
22.8849 54.9269
22.9303 56.5799
22.9759 57.8985
23.0214 57.8066
23.067 55.5103
23.1126 52.305
23.1581 50.1914
23.2037 49.5335
23.2492 49.6861
23.2948 49.6148
23.3403 49.9371
23.3859 50.6084
23.4314 51.5714
23.477 53.3866
23.5225 55.3262
23.5682 57.0359
23.6137 57.9529
23.6593 56.4018
23.7048 52.8353
23.7505 49.43
23.796 47.3833
23.8417 46.7786
23.8872 46.3145
23.9329 45.9002
23.9784 45.5742
24.0241 45.3979
24.0697 45.2071
24.1154 44.7991
24.1609 44.555
24.2066 44.4744
24.2522 44.4655
24.2979 44.0912
24.3434 43.838
24.3892 43.816
24.4349 43.8048
24.4805 43.7161
24.5262 43.5916
24.5718 43.6179
24.6175 43.4529
24.6631 43.4615
24.7089 43.0823
24.7545 42.9804
24.8002 42.9374
24.8458 42.8539
24.8916 42.864
24.9372 42.8092
24.983 43.2514
25.0286 43.6359
25.0744 43.8614
25.12 44.357
25.1658 44.8563
25.2114 45.3821
25.2572 45.432
25.3029 45.2381
25.3487 45.47
25.3943 45.1601
25.4402 44.1811
25.4858 43.2609
25.5316 42.1482
25.5773 41.6242
25.6231 41.6196
25.669 41.0434
25.7147 41.0163
25.7605 41.1774
25.8062 41.1439
25.8521 41.2749
25.8977 41.1123
25.9436 41.4755
25.9893 41.5279
26.0352 42.1299
26.0809 42.0723
26.1268 42.2601
26.1725 41.938
26.2184 41.5417
26.2641 40.9271
26.31 40.6273
26.3557 40.8599
26.4017 40.7594
26.4474 41.0398
26.4933 41.337
26.5391 41.8102
26.585 42.1712
26.6308 42.5715
26.6767 42.5215
26.7225 42.6837
26.7684 42.1042
26.8142 41.4142
26.8601 41.0413
26.9059 40.5945
26.9519 40.0931
26.9979 39.9091
27.0437 39.4818
27.0896 39.3376
27.1354 39.2948
27.1814 39.139
27.2272 39.1439
27.2732 39.0615
27.3191 38.9471
27.3651 39.1231
27.4109 38.9631
27.4569 38.9934
27.5027 39.0002
27.5488 39.0926
27.5946 38.8994
27.6407 38.6069
27.6865 38.6176
27.7326 38.4338
27.7784 38.5652
27.8245 38.4044
27.8703 38.5894
27.9164 38.929
27.9623 38.9692
28.0084 39.1457
28.0543 39.6124
28.1003 39.4083
28.1462 39.4116
28.1923 39.0209
28.2384 38.4721
28.2843 38.1485
28.3304 37.7982
28.3764 37.3588
28.4225 36.9394
28.4684 36.829
28.5145 36.5405
28.5605 36.3152
28.6066 36.0373
28.6526 36.2065
28.6987 36.1031
28.7447 36.104
28.7908 35.9269
28.8368 35.9061
28.8829 35.9682
28.9289 35.7709
28.9751 35.6317
29.0211 35.4662
29.0673 35.1758
29.1133 35.0093
29.1595 35.0129
29.2055 34.831
29.2517 34.8319
29.2977 34.8309
29.3439 34.7455
29.3899 34.7434
29.4361 34.5925
29.4824 34.4691
29.5284 34.2405
29.5746 33.878
29.6207 33.5961
29.6669 33.606
29.713 33.3677
29.7593 33.3305
29.8053 33.417
29.8516 33.2328
29.8977 33.3066
29.9439 32.9964
29.99 33.0959
30.0363 32.9429
30.0824 32.9849
30.1287 33.0182
30.1748 32.8826
30.2211 32.8596
30.2673 32.7634
30.3136 32.7979
30.3597 32.7957
30.406 32.6356
30.4522 32.6014
30.4985 32.4987
30.5447 32.6768
30.591 32.5862
30.6372 32.5863
30.6835 32.6075
30.7297 32.7748
30.7761 32.5493
30.8224 32.4639
30.8686 32.3694
30.915 32.1199
30.9612 32.0146
31.0076 31.8077
31.0538 31.6533
31.1002 31.5326
31.1464 31.439
31.1928 31.4413
31.2391 31.3663
31.2855 31.2756
31.3317 31.2852
31.3781 31.4213
31.4244 31.2904
31.4708 31.2128
31.5171 31.1907
31.5636 31.1877
31.6098 30.959
31.6563 30.7989
31.7026 30.6806
31.7491 30.4042
31.7953 30.5971
31.8418 30.5963
31.8881 30.5375
31.9346 30.3838
31.9809 30.4417
32.0275 30.374
32.074 30.3059
32.1203 30.0735
32.1668 29.9732
32.2132 29.7678
32.2597 29.6155
32.306 29.5787
32.3526 29.3982
32.399 29.3203
32.4455 29.2344
32.4919 29.0456
32.5385 29.1064
32.5848 28.9223
32.6314 28.8726
32.6778 28.8869
32.7244 28.637
32.7708 28.6381
32.8174 28.4411
32.8638 28.4112
32.9104 28.482
32.9569 28.4252
33.0035 28.2823
33.0499 28.236
33.0966 28.2176
33.143 28.2232
33.1897 28.1802
33.2361 27.9808
33.2828 28.0332
33.3293 27.7593
33.3759 27.8263
33.4226 27.7065
33.4691 27.5266
33.5158 27.3848
33.5623 27.2805
33.609 27.0848
33.6555 27.1083
33.7022 26.9734
33.7487 26.8953
33.7954 26.8925
33.842 26.739
33.8887 26.6275
33.9353 26.5781
33.982 26.4284
34.0286 26.441
34.0753 26.3682
34.1219 26.2198
34.1687 26.2371
34.2152 26.1039
34.262 26.0511
34.3086 25.9506
34.3554 25.8872
34.402 25.7575
34.4488 25.7046
34.4954 25.5296
34.5422 25.5417
34.5889 25.4231
34.6357 25.36
34.6825 25.2437
34.7292 25.1851
34.776 25.1466
34.8227 25.0457
34.8695 25.0479
34.9162 24.9286
34.9631 24.8819
35.0098 24.8035
35.0566 24.6665
35.1033 24.6276
35.1502 24.6482
35.1969 24.5094
35.2438 24.5105
35.2906 24.5355
35.3375 24.4429
35.3842 24.3451
35.4311 24.3619
35.4779 24.2307
35.5248 24.2479
35.5716 24.1085
35.6185 23.9519
35.6653 23.9478
35.7123 23.9549
35.759 23.8323
35.806 23.6305
35.8528 23.5923
35.8998 23.6043
35.9468 23.532
35.9936 23.4804
36.0406 23.387
36.0874 23.2613
36.1345 23.2757
36.1813 23.1358
36.2283 23.0513
36.2752 23.0151
36.3222 23.0318
36.3691 22.8894
36.4161 22.7875
36.463 22.8094
36.5101 22.7274
36.557 22.5931
36.6041 22.4927
36.651 22.4772
36.6981 22.4373
36.745 22.3697
36.7921 22.3124
36.839 22.187
36.8861 22.1332
36.9331 22.0825
36.9802 22.0231
37.0272 21.8971
37.0743 21.8396
37.1213 21.7799
37.1684 21.7842
37.2154 21.6223
37.2626 21.5771
37.3098 21.5653
37.3568 21.5006
37.404 21.4161
37.451 21.2873
37.4982 21.2409
37.5452 21.1331
37.5924 21.0813
37.6395 21.0628
37.6867 20.9549
37.7337 20.9117
37.781 20.7907
37.8281 20.8012
37.8753 20.738
37.9224 20.6217
37.9697 20.5077
38.0168 20.4918
38.064 20.4486
38.1111 20.3824
38.1584 20.3024
38.2056 20.1842
38.2529 20.1829
38.3 20.0752
38.3473 20.0601
38.3945 20.0124
38.4418 19.9779
38.489 19.9255
38.5363 19.7997
38.5837 19.8041
38.6309 19.6882
38.6782 19.5978
38.7254 19.5197
38.7728 19.4491
38.82 19.4398
38.8674 19.3446
38.9146 19.2814
38.9621 19.261
39.0093 19.1904
39.0567 19.1375
39.104 19.0718
39.1514 19.0306
39.1987 18.9354
39.2461 18.9147
39.2934 18.8225
39.3409 18.7241
39.3882 18.7207
39.4356 18.6185
39.483 18.5352
39.5304 18.5398
39.5778 18.5075
39.6253 18.4154
39.6726 18.3194
39.7201 18.3469
39.7675 18.2289
39.815 18.1771
39.8624 18.1421
39.9099 18.0569
39.9575 17.9975
40.0049 17.971
40.0525 17.9393
40.0999 17.8177
40.1474 17.7664
40.1949 17.6999
40.2425 17.5927
40.2899 17.6111
40.3375 17.5725
40.385 17.4675
40.4326 17.4413
40.48 17.3349
40.5277 17.3261
40.5752 17.293
40.6228 17.241
40.6703 17.165
40.718 17.0861
40.7655 17.0946
40.8132 16.971
40.8607 16.9527
40.9084 16.9259
40.9559 16.8545
41.0036 16.8267
41.0512 16.7373
41.0989 16.7381
41.1465 16.6396
41.1942 16.5857
41.242 16.4835
41.2896 16.441
41.3373 16.4658
41.3849 16.3663
41.4327 16.3202
41.4803 16.218
41.5281 16.1644
41.5758 16.148
41.6236 16.0689
41.6712 16.0334
41.7191 15.893
41.7667 15.8761
41.8146 15.8833
41.8622 15.7921
41.9101 15.7606
41.9578 15.6624
42.0057 15.6555
42.0534 15.6223
42.1013 15.5001
42.149 15.4892
42.1969 15.4531
42.2446 15.4166
42.2925 15.3492
42.3403 15.2852
42.3882 15.2567
42.436 15.1604
42.4839 15.1423
42.5319 15.0851
42.5797 14.9789
42.6277 14.9648
42.6755 14.9441
42.7235 14.8609
42.7713 14.8253
42.8193 14.7578
42.8671 14.6845
42.9152 14.6803
42.963 14.6165
43.0111 14.5573
43.0589 14.5245
43.107 14.4878
43.1549 14.3692
43.2029 14.3666
43.2508 14.3888
43.2989 14.2901
43.3468 14.1847
43.3949 14.1595
43.4429 14.1252
43.491 14.0736
43.5389 14.0283
43.5871 13.9965
43.635 13.9404
43.6832 13.8744
43.7312 13.8054
43.7793 13.7746
43.8273 13.7505
43.8755 13.6787
43.9237 13.6651
43.9717 13.6167
44.0199 13.5546
44.068 13.5279
44.1162 13.444
44.1642 13.4697
44.2125 13.3826
44.2606 13.3274
44.3088 13.3203
44.3569 13.2168
44.4052 13.1806
44.4533 13.1019
44.5016 13.0739
44.5497 13.047
44.598 13.0452
44.6461 12.9447
44.6945 12.9059
44.7426 12.8665
44.791 12.7642
44.8391 12.7958
44.8875 12.7057
44.9357 12.6724
44.984 12.6478
45.0322 12.5823
45.0806 12.56
45.1288 12.4826
45.1773 12.435
45.2257 12.4193
45.2739 12.4415
45.3224 12.3235
45.3706 12.2697
45.4191 12.2234
45.4673 12.2174
45.5158 12.174
45.5641 12.1078
45.6126 12.0466
45.6609 12.0159
45.7094 11.9332
45.7577 11.9387
45.8063 11.8516
45.8546 11.8864
45.9031 11.7759
45.9515 11.8023
46.0001 11.7129
46.0484 11.7428
46.097 11.6612
46.1454 11.6434
46.194 11.5787
46.2424 11.5344
46.291 11.4946
46.3395 11.4458
46.3881 11.3766
46.4365 11.3536
46.4852 11.2856
46.5337 11.2365
46.5823 11.2641
46.631 11.1829
46.6795 11.1596
46.7282 11.0782
46.7767 11.1302
46.8254 11.0523
46.8739 10.9675
46.9226 10.965
46.9712 10.9048
47.0199 10.8559
47.0685 10.8207
47.1173 10.7881
47.1658 10.7248
47.2146 10.7327
47.2632 10.6292
47.312 10.6486
47.3606 10.5516
47.4095 10.5179
47.4581 10.4676
47.5069 10.4561
47.5556 10.4349
47.6044 10.3541
47.6531 10.3523
47.702 10.2832
47.7507 10.2473
47.7996 10.1982
47.8483 10.178
47.8972 10.1673
47.9461 10.1276
47.9948 10.0694
48.0438 10.0503
48.0925 10.0288
48.1415 10.0111
48.1902 9.91071
48.2392 9.93813
48.288 9.85724
48.337 9.84971
48.3858 9.81816
48.4348 9.78321
48.4837 9.73084
48.5327 9.7224
48.5815 9.64906
48.6306 9.64914
48.6795 9.61076
48.7285 9.54734
48.7774 9.50774
48.8265 9.51619
48.8754 9.47325
48.9245 9.41512
48.9734 9.38378
49.0226 9.34536
49.0715 9.33015
49.1206 9.26906
49.1696 9.2405
49.2188 9.21209
49.2679 9.16658
49.3169 9.13907
49.3661 9.07457
49.4151 9.06196
49.4643 9.02252
49.5134 8.98501
49.5626 8.95451
49.6117 8.94401
49.6609 8.90853
49.71 8.81736
49.7592 8.81964
49.8083 8.7553
49.8576 8.78009
49.9067 8.70766
49.956 8.6825
50.0052 8.64507
50.0545 8.63623
50.1036 8.58951
50.153 8.53803
50.2022 8.54076
50.2515 8.50141
50.3007 8.42715
50.3501 8.40855
50.3993 8.38702
50.4487 8.37923
50.498 8.33441
50.5474 8.2735
50.5966 8.23918
50.6461 8.23225
50.6955 8.18635
50.7448 8.1744
50.7943 8.16916
50.8436 8.10875
50.8931 8.07262
50.9424 8.0546
50.9919 7.98522
51.0413 7.99737
51.0908 7.93582
51.1402 7.92754
51.1897 7.88084
51.2391 7.8131
51.2887 7.84329
51.3381 7.79539
51.3877 7.72982
51.4371 7.6822
51.4867 7.66956
51.5362 7.67452
51.5858 7.63666
51.6353 7.56701
51.6849 7.5397
51.7344 7.50099
51.7841 7.50298
51.8336 7.46549
51.8833 7.40763
51.9328 7.37314
51.9826 7.37667
52.0323 7.34373
52.0818 7.32531
52.1316 7.28512
52.1812 7.28423
52.231 7.2029
52.2806 7.19328
52.3304 7.17482
52.38 7.09093
52.4298 7.10966
52.4794 7.05791
52.5293 7.0321
52.5789 7.04595
52.6288 7.02673
52.6785 6.93865
52.7284 6.94355
52.7781 6.88595
52.828 6.8779
52.8777 6.8058
52.9276 6.85336
52.9774 6.81303
53.0273 6.76207
53.0771 6.74308
53.1271 6.70222
53.1769 6.6665
53.2269 6.65776
53.2767 6.62907
53.3267 6.55359
53.3765 6.5566
53.4266 6.50602
53.4766 6.50711
53.5265 6.48036
53.5765 6.46025
53.6264 6.41946
53.6765 6.39503
53.7264 6.38245
53.7765 6.37051
53.8265 6.31757
53.8766 6.30215
53.9266 6.2561
53.9767 6.22699
54.0267 6.13074
54.0769 6.18521
54.1269 6.17918
54.1771 6.13238
54.2271 6.08255
54.2773 6.00024
54.3274 6.03014
54.3776 5.95818
54.4277 5.90705
54.478 5.94483
54.528 5.86185
54.5783 5.8455
54.6285 5.7785
54.6788 5.74264
54.7289 5.71894
54.7792 5.68574
54.8296 5.64622
54.8798 5.58468
54.9301 5.58442
54.9803 5.52155
55.0307 5.54277
55.0809 5.4795
55.1314 5.45141
55.1816 5.38038
55.232 5.3014
55.2823 5.27346
55.3328 5.22521
55.383 5.15053
55.4335 5.12215
55.4838 5.04256
55.5344 5.00599
55.5847 5.05345
55.6352 4.99545
55.6856 4.93395
55.7361 4.93146