File: XRD/Ni3Fe_FD0226.xy
TT I
1.27165 8.37339
1.31627 7.19629
1.36089 7.23702
1.40551 6.85653
1.45013 6.65818
1.49476 7.18158
1.53938 6.89407
1.584 5.55336
1.62863 5.97049
1.67325 5.69847
1.71787 5.70099
1.7625 5.58293
1.80712 5.17902
1.85174 4.44777
1.89636 4.86026
1.94099 5.07824
1.98562 4.87681
2.03025 4.28482
2.07487 4.55251
2.11949 4.87109
2.16411 4.74802
2.20874 4.5775
2.25338 4.39106
2.298 4.72347
2.34263 4.15857
2.38725 5.08059
2.43188 4.13735
2.4765 4.72867
2.52115 5.24825
2.56577 5.04601
2.6104 5.86536
2.65503 5.45921
2.69965 5.85381
2.7443 6.40602
2.78893 6.86123
2.83356 7.47223
2.87818 8.44125
2.92281 8.75601
2.96744 9.23484
3.01209 10.5363
3.05672 10.9914
3.10135 12.4141
3.14599 12.9461
3.19062 14.4452
3.23527 15.3016
3.2799 15.7787
3.32454 17.0745
3.36917 17.5927
3.4138 18.8604
3.45844 19.6789
3.50309 20.734
3.54773 21.2985
3.59237 22.5399
3.637 22.9695
3.68164 23.7441
3.7263 25.0123
3.77094 25.6586
3.81558 26.6275
3.86022 27.5159
3.90486 29.1479
3.9495 30.2529
3.99416 31.0758
4.0388 32.7388
4.08344 34.0467
4.12809 34.768
4.17273 36.7744
4.21738 38.1302
4.26204 39.1763
4.30669 40.5955
4.35133 42.447
4.39598 44.3878
4.44063 46.9305
4.4853 48.6064
4.52995 52.5371
4.5746 54.0023
4.61925 55.5917
4.6639 58.3703
4.70855 61.0408
4.75322 64.8238
4.79788 68.1966
4.84253 71.499
4.88719 76.8978
4.93184 81.3633
4.97652 88.093
5.02118 96.3094
5.06583 107.643
5.11049 124.336
5.15515 169.291
5.19981 881.217
5.24449 3957.54
5.28916 10592.7
5.33382 4134.4
5.37848 274.547
5.42315 153.803
5.46783 129.18
5.5125 118.293
5.55716 112.335
5.60183 106.578
5.6465 104.473
5.69117 102.863
5.73586 100.978
5.78053 101.798
5.8252 102.197
5.86988 104.959
5.91455 110.192
5.95924 133.282
6.00392 444.84
6.0486 1413.9
6.09328 3633.84
6.13795 3669.96
6.18263 361.651
6.22733 109.589
6.27201 89.0298
6.3167 81.1471
6.36138 76.132
6.40606 72.8434
6.45075 71.0657
6.49545 68.4652
6.54014 66.3603
6.58483 65.3126
6.62952 64.1674
6.67421 62.3835
6.71892 61.5592
6.76361 60.9151
6.8083 60.0142
6.853 59.1393
6.89769 58.5238
6.94239 58.1855
6.98711 57.4251
7.03181 57.405
7.07651 56.6392
7.12121 56.5085
7.16591 56.6601
7.21063 55.9948
7.25533 55.3711
7.30004 55.6776
7.34475 55.6744
7.38945 56.0678
7.43416 55.3028
7.47889 55.5787
7.5236 56.272
7.56831 57.1178
7.61303 56.8327
7.65774 56.9092
7.70247 58.2854
7.74719 58.2956
7.79191 58.6855
7.83663 58.9093
7.88135 60.3692
7.92607 61.3395
7.97081 62.2646
8.01553 63.7382
8.06026 65.1882
8.10498 66.3509
8.14971 68.8319
8.19446 70.285
8.23919 73.004
8.28392 75.8573
8.32865 78.9072
8.37339 84.4106
8.41812 90.2139
8.46288 110.514
8.50761 289.116
8.55235 585.374
8.59709 1060.33
8.64183 1975.29
8.68658 1230.61
8.73134 217.983
8.77609 111.031
8.82083 100.489
8.86558 96.3014
8.91033 93.7138
8.9551 90.8588
8.99985 89.5143
9.04461 88.3065
9.08936 87.8928
9.13412 86.7256
9.17888 86.2044
9.22365 86.5664
9.26841 86.9485
9.31318 88.0039
9.35794 88.2091
9.4027 88.2803
9.44749 88.6872
9.49226 89.062
9.53703 90.8359
9.5818 92.6635
9.62657 94.4121
9.67134 95.5951
9.71614 97.4636
9.76091 99.5982
9.80569 103.316
9.85047 107.031
9.89525 112.715
9.94005 136.718
9.98484 302.668
10.0296 517.057
10.0744 801.134
10.1192 1454.24
10.164 1696.22
10.2088 553.919
10.2536 148.621
10.2984 117.665
10.3432 112.956
10.388 114.64
10.4328 158.849
10.4776 211.626
10.5224 280.13
10.5672 444.244
10.612 535.971
10.6568 254.864
10.7017 108.868
10.7465 92.3037
10.7913 87.729
10.8361 85.6401
10.8809 82.8658
10.9257 80.6368
10.9706 79.5575
11.0154 77.5229
11.0602 76.0666
11.105 74.8111
11.1499 73.0481
11.1947 72.392
11.2395 71.4663
11.2844 70.5132
11.3292 69.851
11.374 69.1086
11.4189 68.5307
11.4637 67.8027
11.5086 67.1498
11.5534 66.6946
11.5983 66.3421
11.6431 66.5847
11.688 65.6993
11.7328 65.6562
11.7777 65.1349
11.8225 65.2138
11.8674 65.3497
11.9122 65.6381
11.9571 66.32
12.002 68.6842
12.0468 79.8878
12.0917 94.2773
12.1366 108.831
12.1814 140.761
12.2263 193.756
12.2712 187.107
12.3161 103.837
12.3609 70.1154
12.4058 67.1024
12.4507 67.1054
12.4956 67.3591
12.5405 67.1992
12.5853 67.6013
12.6302 68.1189
12.6751 68.8597
12.72 69.6954
12.7649 70.8078
12.8098 71.5201
12.8547 73.1446
12.8996 74.9696
12.9445 76.0627
12.9894 78.4566
13.0343 80.5295
13.0792 86.0177
13.1242 110.728
13.1691 147.376
13.214 174.258
13.2589 228.263
13.3038 321.624
13.3487 422.025
13.3937 310.264
13.4386 151.703
13.4835 133.673
13.5285 153.535
13.5734 174.188
13.6183 226.247
13.6633 308.954
13.7082 358.741
13.7531 231.063
13.7981 112.589
13.843 87.3036
13.888 84.3208
13.9329 81.4325
13.9779 79.859
14.0228 78.2134
14.0678 77.1026
14.1127 76.0148
14.1577 75.2153
14.2027 74.5611
14.2476 74.0787
14.2926 73.2904
14.3376 73.2624
14.3825 72.7767
14.4275 72.4532
14.4725 72.3569
14.5175 72.3322
14.5624 72.1346
14.6074 72.9346
14.6524 73.3095
14.6974 74.7194
14.7424 80.7804
14.7874 95.2602
14.8324 106.52
14.8774 119.179
14.9224 144.789
14.9674 186.69
15.0124 222.721
15.0574 172.068
15.1024 102.76
15.1474 77.3894
15.1924 74.006
15.2374 72.3284
15.2824 71.3476
15.3274 70.7197
15.3725 69.9932
15.4175 69.8931
15.4625 69.2119
15.5076 69.2013
15.5526 69.2411
15.5976 69.8442
15.6426 74.6693
15.6877 86.1641
15.7327 94.57
15.7778 103.318
15.8228 121.923
15.8679 152.654
15.9129 190.152
15.958 177.009
16.003 113.231
16.0481 73.2637
16.0931 66.2003
16.1382 63.851
16.1833 63.1727
16.2283 61.6896
16.2734 60.8518
16.3185 60.0644
16.3636 59.6297
16.4086 58.6701
16.4537 58.322
16.4988 58.1181
16.5439 58.1588
16.589 57.6652
16.6341 57.3142
16.6792 57.0635
16.7243 57.395
16.7694 56.8219
16.8145 57.0765
16.8596 57.1639
16.9047 57.6186
16.9498 57.6163
16.9949 57.8555
17.04 59.2804
17.0851 61.8721
17.1302 63.8279
17.1754 65.7021
17.2205 68.8341
17.2656 73.705
17.3108 82.1173
17.3559 85.7241
17.401 77.3542
17.4462 66.773
17.4913 62.5284
17.5365 61.921
17.5815 62.0425
17.6268 62.7872
17.6718 63.1886
17.7171 63.5292
17.7622 64.572
17.8074 66.3748
17.8525 72.3497
17.8977 78.0692
17.9428 82.7058
17.9881 88.1941
18.0331 98.8146
18.0784 115.007
18.1237 139.117
18.1688 145.197
18.214 119.196
18.2591 94.2336
18.3044 90.2375
18.3495 97.1799
18.3948 106.746
18.4399 102.943
18.4852 84.2441
18.5303 70.5236
18.5756 65.5612
18.6207 64.4813
18.666 63.4323
18.7112 62.5954
18.7565 61.9546
18.8016 61.7027
18.8469 60.8322
18.892 60.6243
18.9374 60.1147
18.9825 59.9128
19.0278 59.6786
19.073 60.1849
19.1183 61.2755
19.1635 62.0924
19.2088 62.924
19.254 64.9127
19.2993 67.1586
19.3447 71.2579
19.3898 76.3623
19.4352 76.2178
19.4804 68.6395
19.5257 60.7352
19.5709 57.0652
19.6163 56.4682
19.6615 56.4484
19.7068 56.022
19.752 55.963
19.7974 57.0111
19.8426 58.2441
19.888 58.7877
19.9332 59.5631
19.9786 61.291
20.0238 64.0065
20.0692 68.4338
20.1144 72.4179
20.1598 73.2501
20.205 68.1206
20.2504 64.3508
20.2957 64.5224
20.3411 66.7812
20.3863 67.5038
20.4318 62.3172
20.477 56.7198
20.5224 53.7847
20.5677 52.9576
20.6131 52.4634
20.6586 51.921
20.7038 51.7982
20.7493 51.4605
20.7945 51.3882
20.84 51.2655
20.8853 51.2494
20.9307 51.034
20.976 51.4397
21.0215 51.0839
21.0668 51.4415
21.1122 51.7614
21.1575 52.1787
21.203 52.5867
21.2483 53.3644
21.2938 54.0428
21.3391 52.9402
21.3846 51.629
21.4299 50.933
21.4754 50.9193
21.5207 51.172
21.5662 51.8326
21.6116 52.7026
21.6571 53.5138
21.7024 54.2233
21.7479 55.486
21.7933 57.4683
21.8388 60.1287
21.8843 63.4592
21.9297 66.662
21.9752 66.8961
22.0206 63.361
22.0661 58.9526
22.1115 57.7648
22.157 58.5077
22.2024 57.6646
22.248 54.5851
22.2933 52.5246
22.3389 51.5829
22.3843 51.1653
22.4299 50.9997
22.4753 50.8687
22.5208 50.9277
22.5662 50.9085
22.6118 51.5349
22.6572 52.0406
22.7028 52.4799
22.7483 52.7246
22.7939 53.1211
22.8393 53.9877
22.8849 55.5842
22.9303 57.1706
22.9759 59.1572
23.0214 59.9239
23.067 58.0017
23.1126 54.6726
23.1581 51.9466
23.2037 51.4003
23.2492 51.8703
23.2948 52.022
23.3403 52.2311
23.3859 52.5173
23.4314 53.218
23.477 54.2504
23.5225 55.5447
23.5682 57.5997
23.6137 59.749
23.6593 58.9502
23.7048 55.3553
23.7505 51.4835
23.796 49.1417
23.8417 48.1381
23.8872 47.6715
23.9329 47.3837
23.9784 47.0635
24.0241 46.584
24.0697 46.4486
24.1154 46.085
24.1609 46.0776
24.2066 45.8002
24.2522 45.7569
24.2979 45.5281
24.3434 45.2981
24.3892 45.0964
24.4349 45.1421
24.4805 44.741
24.5262 45.0853
24.5718 44.7564
24.6175 44.9274
24.6631 44.8331
24.7089 44.5202
24.7545 44.4574
24.8002 44.3682
24.8458 44.3713
24.8916 44.1166
24.9372 44.4264
24.983 44.7852
25.0286 45.0626
25.0744 45.2294
25.12 45.6174
25.1658 46.2246
25.2114 46.5252
25.2572 46.4936
25.3029 46.2565
25.3487 46.6838
25.3943 46.6767
25.4402 45.9048
25.4858 44.7713
25.5316 43.3741
25.5773 42.9343
25.6231 42.7769
25.669 42.4872
25.7147 42.5293
25.7605 42.432
25.8062 42.4813
25.8521 42.5245
25.8977 42.4983
25.9436 42.6877
25.9893 42.6844
26.0352 42.9625
26.0809 43.2179
26.1268 43.6088
26.1725 43.423
26.2184 43.0284
26.2641 42.3284
26.31 42.273
26.3557 42.2008
26.4017 42.1561
26.4474 42.4073
26.4933 42.5648
26.5391 42.8249
26.585 43.2692
26.6308 43.5712
26.6767 43.9677
26.7225 43.9452
26.7684 43.5505
26.8142 42.8288
26.8601 42.3872
26.9059 42.0088
26.9519 41.4931
26.9979 41.0386
27.0437 40.7838
27.0896 40.5447
27.1354 40.6515
27.1814 40.5388
27.2272 40.4095
27.2732 40.4752
27.3191 40.244
27.3651 40.2311
27.4109 40.1942
27.4569 40.237
27.5027 40.2902
27.5488 40.331
27.5946 40.2739
27.6407 40.1541
27.6865 40.1117
27.7326 39.7914
27.7784 39.6099
27.8245 39.6994
27.8703 39.7546
27.9164 40.0268
27.9623 40.0154
28.0084 40.2221
28.0543 40.6431
28.1003 40.6258
28.1462 40.6805
28.1923 40.2785
28.2384 39.8528
28.2843 39.4303
28.3304 39.1046
28.3764 38.3577
28.4225 38.1471
28.4684 38.0226
28.5145 37.5942
28.5605 37.4895
28.6066 37.3438
28.6526 37.149
28.6987 37.2616
28.7447 37.1897
28.7908 36.8467
28.8368 36.8889
28.8829 36.9264
28.9289 37.0008
28.9751 36.8144
29.0211 36.5357
29.0673 36.4414
29.1133 36.1749
29.1595 35.9317
29.2055 35.9617
29.2517 35.9037
29.2977 35.7139
29.3439 35.7733
29.3899 35.7709
29.4361 35.6348
29.4824 35.5998
29.5284 35.3607
29.5746 35.0635
29.6207 34.6825
29.6669 34.6221
29.713 34.5208
29.7593 34.3487
29.8053 34.2673
29.8516 34.3496
29.8977 34.2003
29.9439 34.2104
29.99 34.0917
30.0363 33.9548
30.0824 34.0208
30.1287 34.017
30.1748 33.8032
30.2211 33.8905
30.2673 33.6982
30.3136 33.7534
30.3597 33.7417
30.406 33.6126
30.4522 33.7097
30.4985 33.5146
30.5447 33.5663
30.591 33.5221
30.6372 33.5183
30.6835 33.5534
30.7297 33.5903
30.7761 33.6027
30.8224 33.5346
30.8686 33.4115
30.915 33.0914
30.9612 33.0843
31.0076 32.6991
31.0538 32.6401
31.1002 32.5045
31.1464 32.4093
31.1928 32.329
31.2391 32.4655
31.2855 32.2796
31.3317 32.2568
31.3781 32.3295
31.4244 32.2455
31.4708 32.2439
31.5171 32.2398
31.5636 32.1824
31.6098 32.0013
31.6563 31.732
31.7026 31.7334
31.7491 31.5564
31.7953 31.6249
31.8418 31.4828
31.8881 31.4306
31.9346 31.3906
31.9809 31.4451
32.0275 31.3074
32.074 31.2135
32.1203 31.0704
32.1668 30.9755
32.2132 30.7272
32.2597 30.7158
32.306 30.5218
32.3526 30.257
32.399 30.3025
32.4455 30.0617
32.4919 30.069
32.5385 29.9993
32.5848 29.7954
32.6314 29.7538
32.6778 29.8118
32.7244 29.6214
32.7708 29.4384
32.8174 29.4401
32.8638 29.2844
32.9104 29.364
32.9569 29.2675
33.0035 29.1954
33.0499 29.1062
33.0966 29.0306
33.143 29.0886
33.1897 28.8514
33.2361 28.872
33.2828 28.8211
33.3293 28.6931
33.3759 28.6179
33.4226 28.4558
33.4691 28.376
33.5158 28.3263
33.5623 28.1972
33.609 28.0093
33.6555 27.8786
33.7022 27.8523
33.7487 27.7497
33.7954 27.7016
33.842 27.6262
33.8887 27.4836
33.9353 27.4627
33.982 27.3028
34.0286 27.2968
34.0753 27.1926
34.1219 27.0602
34.1687 27.0269
34.2152 26.9245
34.262 26.8063
34.3086 26.7593
34.3554 26.6503
34.402 26.5369
34.4488 26.5162
34.4954 26.4281
34.5422 26.3809
34.5889 26.2239
34.6357 26.1452
34.6825 26.0602
34.7292 26.0234
34.776 25.8955
34.8227 25.7912
34.8695 25.811
34.9162 25.7135
34.9631 25.6703
35.0098 25.6127
35.0566 25.4472
35.1033 25.355
35.1502 25.4174
35.1969 25.3311
35.2438 25.2403
35.2906 25.1764
35.3375 25.1433
35.3842 25.0558
35.4311 25.1035
35.4779 25.0195
35.5248 24.9678
35.5716 24.8596
35.6185 24.7635
35.6653 24.6156
35.7123 24.5429
35.759 24.4839
35.806 24.4615
35.8528 24.3055
35.8998 24.244
35.9468 24.1964
35.9936 24.1423
36.0406 24.0734
36.0874 24.066
36.1345 23.9354
36.1813 23.8199
36.2283 23.7199
36.2752 23.6712
36.3222 23.6733
36.3691 23.5066
36.4161 23.4493
36.463 23.4117
36.5101 23.4516
36.557 23.4277
36.6041 23.2095
36.651 23.1957
36.6981 23.0771
36.745 23.0252
36.7921 22.9517
36.839 22.9422
36.8861 22.8153
36.9331 22.6896
36.9802 22.6545
37.0272 22.5925
37.0743 22.4834
37.1213 22.4782
37.1684 22.2748
37.2154 22.2965
37.2626 22.1476
37.3098 22.2012
37.3568 22.0941
37.404 22.0655
37.451 21.9323
37.4982 21.8622
37.5452 21.7871
37.5924 21.6908
37.6395 21.7796
37.6867 21.6275
37.7337 21.4976
37.781 21.4711
37.8281 21.3722
37.8753 21.3308
37.9224 21.2148
37.9697 21.1994
38.0168 21.054
38.064 21.0549
38.1111 20.9994
38.1584 20.9123
38.2056 20.8818
38.2529 20.7917
38.3 20.7111
38.3473 20.7164
38.3945 20.5912
38.4418 20.5856
38.489 20.515
38.5363 20.3857
38.5837 20.3486
38.6309 20.3006
38.6782 20.2194
38.7254 20.1583
38.7728 20.0478
38.82 20.0485
38.8674 19.9819
38.9146 19.8715
38.9621 19.8244
39.0093 19.7589
39.0567 19.7604
39.104 19.6675
39.1514 19.5842
39.1987 19.5696
39.2461 19.4506
39.2934 19.3608
39.3409 19.3092
39.3882 19.2225
39.4356 19.1692
39.483 19.1909
39.5304 19.0087
39.5778 19.079
39.6253 18.9209
39.6726 18.9512
39.7201 18.7909
39.7675 18.8021
39.815 18.7934
39.8624 18.669
39.9099 18.6256
39.9575 18.5018
40.0049 18.5006
40.0525 18.4248
40.0999 18.3558
40.1474 18.2916
40.1949 18.2367
40.2425 18.2075
40.2899 18.133
40.3375 18.0663
40.385 18.0441
40.4326 17.9421
40.48 17.9077
40.5277 17.8677
40.5752 17.7926
40.6228 17.6667
40.6703 17.7107
40.718 17.6504
40.7655 17.6274
40.8132 17.5358
40.8607 17.5217
40.9084 17.4483
40.9559 17.3313
41.0036 17.2671
41.0512 17.2918
41.0989 17.1933
41.1465 17.1434
41.1942 17.0829
41.242 17.018
41.2896 16.961
41.3373 16.8414
41.3849 16.8843
41.4327 16.7683
41.4803 16.6917
41.5281 16.6918
41.5758 16.5972
41.6236 16.5818
41.6712 16.4885
41.7191 16.4149
41.7667 16.4124
41.8146 16.3188
41.8622 16.2951
41.9101 16.265
41.9578 16.1215
42.0057 16.1345
42.0534 16.0983
42.1013 16.0259
42.149 15.9213
42.1969 15.8525
42.2446 15.862
42.2925 15.8388
42.3403 15.7542
42.3882 15.6782
42.436 15.645
42.4839 15.5794
42.5319 15.5725
42.5797 15.4935
42.6277 15.4386
42.6755 15.355
42.7235 15.3706
42.7713 15.3431
42.8193 15.2232
42.8671 15.1776
42.9152 15.1274
42.963 15.0477
43.0111 15.0624
43.0589 15.0141
43.107 14.8598
43.1549 14.8737
43.2029 14.7513
43.2508 14.7851
43.2989 14.6997
43.3468 14.6443
43.3949 14.5943
43.4429 14.5507
43.491 14.4939
43.5389 14.4226
43.5871 14.3859
43.635 14.3552
43.6832 14.2904
43.7312 14.2088
43.7793 14.1639
43.8273 14.1631
43.8755 14.0983
43.9237 14.0629
43.9717 14.0207
44.0199 13.8897
44.068 13.9244
44.1162 13.8524
44.1642 13.7983
44.2125 13.7754
44.2606 13.7351
44.3088 13.6663
44.3569 13.6026
44.4052 13.6309
44.4533 13.5139
44.5016 13.4641
44.5497 13.4795
44.598 13.3996
44.6461 13.3217
44.6945 13.304
44.7426 13.2192
44.791 13.1371
44.8391 13.1392
44.8875 13.1192
44.9357 13.0641
44.984 13.0203
45.0322 12.9413
45.0806 12.9339
45.1288 12.8947
45.1773 12.8049
45.2257 12.7808
45.2739 12.731
45.3224 12.698
45.3706 12.6773
45.4191 12.5683
45.4673 12.5293
45.5158 12.5085
45.5641 12.4322
45.6126 12.4653
45.6609 12.39
45.7094 12.3406
45.7577 12.3293
45.8063 12.2005
45.8546 12.2021
45.9031 12.1358
45.9515 12.1165
46.0001 12.0595
46.0484 12.0061
46.097 12.001
46.1454 11.9498
46.194 11.9394
46.2424 11.7977
46.291 11.8069
46.3395 11.7498
46.3881 11.6939
46.4365 11.7279
46.4852 11.6547
46.5337 11.5916
46.5823 11.5653
46.631 11.4864
46.6795 11.4959
46.7282 11.4135
46.7767 11.3952
46.8254 11.3618
46.8739 11.3033
46.9226 11.2568
46.9712 11.2033
47.0199 11.1839
47.0685 11.1641
47.1173 11.0994
47.1658 10.99
47.2146 11.0054
47.2632 10.9712
47.312 10.9509
47.3606 10.8652
47.4095 10.8335
47.4581 10.7579
47.5069 10.7792
47.5556 10.7272
47.6044 10.6648
47.6531 10.6537
47.702 10.562
47.7507 10.5841
47.7996 10.5078
47.8483 10.4794
47.8972 10.4726
47.9461 10.4182
47.9948 10.3534
48.0438 10.3349
48.0925 10.3455
48.1415 10.2949
48.1902 10.225
48.2392 10.2168
48.288 10.1521
48.337 10.105
48.3858 10.0759
48.4348 10.0772
48.4837 10.01
48.5327 10.0138
48.5815 9.97281
48.6306 9.91323
48.6795 9.86706
48.7285 9.81043
48.7774 9.78375
48.8265 9.76098
48.8754 9.7049
48.9245 9.67621
48.9734 9.6338
49.0226 9.64396
49.0715 9.59816
49.1206 9.55988
49.1696 9.48113
49.2188 9.46815
49.2679 9.45635
49.3169 9.38584
49.3661 9.33814
49.4151 9.31976
49.4643 9.28306
49.5134 9.26182
49.5626 9.17188
49.6117 9.15299
49.6609 9.1648
49.71 9.08247
49.7592 9.04846
49.8083 9.03644
49.8576 9.00181
49.9067 8.91906
49.956 8.93889
50.0052 8.87827
50.0545 8.87327
50.1036 8.81299
50.153 8.79387
50.2022 8.77164
50.2515 8.73445
50.3007 8.68379
50.3501 8.62897
50.3993 8.61126
50.4487 8.60748
50.498 8.58433
50.5474 8.52144
50.5966 8.49395
50.6461 8.46411
50.6955 8.43864
50.7448 8.43381
50.7943 8.3589
50.8436 8.32332
50.8931 8.30682
50.9424 8.25198
50.9919 8.22547
51.0413 8.23828
51.0908 8.18256
51.1402 8.13356
51.1897 8.08516
51.2391 8.09752
51.2887 8.02401
51.3381 7.99249
51.3877 7.96831
51.4371 7.9527
51.4867 7.86004
51.5362 7.88653
51.5858 7.82022
51.6353 7.82426
51.6849 7.79962
51.7344 7.74308
51.7841 7.7489
51.8336 7.67382
51.8833 7.65083
51.9328 7.63583
51.9826 7.56669
52.0323 7.51209
52.0818 7.53138
52.1316 7.44503
52.1812 7.47532
52.231 7.45128
52.2806 7.4368
52.3304 7.35969
52.38 7.32324
52.4298 7.30414
52.4794 7.28069
52.5293 7.24311
52.5789 7.21511
52.6288 7.16859
52.6785 7.13224
52.7284 7.16957
52.7781 7.0967
52.828 7.02216
52.8777 7.03694
52.9276 6.96481
52.9774 6.9522
53.0273 6.96777
53.0771 6.92172
53.1271 6.89825
53.1769 6.88401
53.2269 6.8853
53.2767 6.81259
53.3267 6.79219
53.3765 6.74702
53.4266 6.77004
53.4766 6.67609
53.5265 6.66068
53.5765 6.60325
53.6264 6.59504
53.6765 6.5982
53.7264 6.57103
53.7765 6.4968
53.8265 6.42136
53.8766 6.42342
53.9266 6.41702
53.9767 6.41001
54.0267 6.38031
54.0769 6.3465
54.1269 6.30126
54.1771 6.27273
54.2271 6.27561
54.2773 6.20245
54.3274 6.15741
54.3776 6.14734
54.4277 6.06831
54.478 6.04231
54.528 6.01333
54.5783 5.97715
54.6285 5.8862
54.6788 5.89502
54.7289 5.82714
54.7792 5.78552
54.8296 5.74791
54.8798 5.68347
54.9301 5.66299
54.9803 5.62402
55.0307 5.65939
55.0809 5.55545
55.1314 5.52573
55.1816 5.51332
55.232 5.40767
55.2823 5.35418
55.3328 5.3202
55.383 5.25737
55.4335 5.25361
55.4838 5.19913
55.5344 5.18124
55.5847 5.09043
55.6352 5.07604
55.6856 5.03397
55.7361 5.03129