File: XRD/Ni3Fe_FD0985.xy
TT I
1.27165 7.19225
1.31627 6.85483
1.36089 6.61102
1.40551 5.82223
1.45013 6.05349
1.49476 6.15274
1.53938 5.67431
1.584 4.64634
1.62863 4.85284
1.67325 5.03266
1.71787 5.34679
1.7625 4.46526
1.80712 5.1148
1.85174 4.91481
1.89636 4.95455
1.94099 4.74906
1.98562 4.2834
2.03025 4.84565
2.07487 4.93591
2.11949 4.83083
2.16411 4.7487
2.20874 14.9245
2.25338 24.8336
2.298 5.90908
2.34263 5.76785
2.38725 6.22676
2.43188 6.75692
2.4765 6.98837
2.52115 7.51306
2.56577 8.02784
2.6104 8.53855
2.65503 8.04033
2.69965 8.88014
2.7443 8.26351
2.78893 8.28019
2.83356 8.85594
2.87818 8.80309
2.92281 9.14738
2.96744 10.3308
3.01209 10.6725
3.05672 11.213
3.10135 12.3974
3.14599 13.3522
3.19062 14.5856
3.23527 15.2846
3.2799 15.811
3.32454 17.0252
3.36917 17.5521
3.4138 19.2303
3.45844 19.9618
3.50309 21.0279
3.54773 21.3624
3.59237 24.4834
3.637 97.6883
3.68164 61.9725
3.7263 26.368
3.77094 25.8142
3.81558 26.4765
3.86022 26.9098
3.90486 28.8957
3.9495 29.6335
3.99416 30.5764
4.0388 32.2046
4.08344 32.8507
4.12809 34.4738
4.17273 37.0039
4.21738 43.4759
4.26204 267.697
4.30669 235.338
4.35133 48.1415
4.39598 44.2963
4.44063 54.2671
4.4853 66.7428
4.52995 49.7551
4.5746 50.3345
4.61925 52.7902
4.6639 54.4181
4.70855 56.9073
4.75322 60.0737
4.79788 62.5533
4.84253 65.7302
4.88719 69.55
4.93184 73.1973
4.97652 78.4404
5.02118 83.9761
5.06583 90.9313
5.11049 100.454
5.15515 166.614
5.19981 271.664
5.24449 2277.57
5.28916 13493.1
5.33382 2765.49
5.37848 172.24
5.42315 123.575
5.46783 110.333
5.5125 103.028
5.55716 100.148
5.60183 95.9476
5.6465 94.6118
5.69117 92.0346
5.73586 89.9154
5.78053 89.0148
5.8252 88.1614
5.86988 88.645
5.91455 89.8065
5.95924 95.4581
6.00392 166.13
6.0486 772.599
6.09328 4584.06
6.13795 3263.9
6.18263 212.811
6.22733 89.1663
6.27201 80.6405
6.3167 102.68
6.36138 79.7166
6.40606 68.0825
6.45075 66.263
6.49545 64.3541
6.54014 63.0034
6.58483 61.7427
6.62952 61.8384
6.67421 95.6302
6.71892 149.71
6.76361 68.8171
6.8083 57.8588
6.853 56.2727
6.89769 56.2285
6.94239 55.7465
6.98711 54.9274
7.03181 54.8058
7.07651 54.6147
7.12121 54.5239
7.16591 54.5978
7.21063 54.9869
7.25533 71.8309
7.30004 190.117
7.34475 94.276
7.38945 56.0435
7.43416 53.9041
7.47889 53.4073
7.5236 53.9123
7.56831 54.3874
7.61303 56.4904
7.65774 56.8464
7.70247 55.1416
7.74719 55.2876
7.79191 55.6982
7.83663 55.8664
7.88135 56.8092
7.92607 57.7659
7.97081 58.8478
8.01553 59.7946
8.06026 61.3612
8.10498 62.863
8.14971 72.9994
8.19446 71.5007
8.23919 68.5434
8.28392 70.2479
8.32865 72.1072
8.37339 76.5518
8.41812 83.2256
8.46288 111.889
8.50761 140.667
8.55235 320.514
8.59709 1118.57
8.64183 2317.7
8.68658 917.854
8.73134 158.818
8.77609 96.3272
8.82083 90.0951
8.86558 88.0596
8.91033 88.3433
8.9551 90.3996
8.99985 83.9028
9.04461 82.0186
9.08936 80.737
9.13412 80.5399
9.17888 80.7264
9.22365 81.5183
9.26841 80.1631
9.31318 80.2824
9.35794 81.0497
9.4027 81.3358
9.44749 82.573
9.49226 82.6644
9.53703 83.8793
9.5818 85.551
9.62657 90.7424
9.67134 97.4573
9.71614 92.1566
9.76091 91.5758
9.80569 94.1714
9.85047 97.4955
9.89525 122.557
9.94005 134.284
9.98484 152.394
10.0296 291.045
10.0744 743.314
10.1192 1772.05
10.164 1559.91
10.2088 366.929
10.2536 122.186
10.2984 111.159
10.3432 113.315
10.388 102.129
10.4328 110.147
10.4776 143.72
10.5224 265.7
10.5672 534.782
10.612 505.319
10.6568 196.845
10.7017 94.516
10.7465 84.7389
10.7913 81.5785
10.8361 79.5138
10.8809 77.3928
10.9257 77.0919
10.9706 77.6273
11.0154 73.5413
11.0602 71.2366
11.105 70.6198
11.1499 75.8573
11.1947 83.1694
11.2395 73.7817
11.2844 69.2604
11.3292 66.1419
11.374 64.7627
11.4189 64.4785
11.4637 63.7728
11.5086 64.4721
11.5534 67.2766
11.5983 64.7474
11.6431 62.3268
11.688 61.4953
11.7328 61.6797
11.7777 61.6251
11.8225 61.2915
11.8674 61.2607
11.9122 61.4081
11.9571 61.576
12.002 62.0267
12.0468 65.0781
12.0917 74.4655
12.1366 97.1525
12.1814 150.037
12.2263 204.836
12.2712 161.724
12.3161 94.8687
12.3609 69.274
12.4058 63.7457
12.4507 62.8228
12.4956 63.3014
12.5405 63.1916
12.5853 64.1523
12.6302 72.6079
12.6751 78.3793
12.72 68.8833
12.7649 66.5285
12.8098 66.9447
12.8547 68.0403
12.8996 69.3985
12.9445 70.4762
12.9894 72.4103
13.0343 74.0411
13.0792 76.8508
13.1242 83.3676
13.1691 103.162
13.214 136.042
13.2589 227.683
13.3038 377.587
13.3487 427.742
13.3937 249.45
13.4386 119.744
13.4835 99.2737
13.5285 111.55
13.5734 147.5
13.6183 242.331
13.6633 357.305
13.7082 334.483
13.7531 177.188
13.7981 94.3682
13.843 80.0508
13.888 77.795
13.9329 75.247
13.9779 74.4005
14.0228 72.9399
14.0678 71.4393
14.1127 71.2339
14.1577 70.8843
14.2027 70.1661
14.2476 68.9519
14.2926 69.2646
14.3376 70.3372
14.3825 69.0178
14.4275 67.4519
14.4725 67.0821
14.5175 67.477
14.5624 67.6359
14.6074 69.9914
14.6524 70.1518
14.6974 68.6611
14.7424 69.5828
14.7874 74.4776
14.8324 83.2297
14.8774 104.181
14.9224 150.423
14.9674 213.661
15.0124 218.207
15.0574 147.078
15.1024 88.0948
15.1474 70.8455
15.1924 69.0752
15.2374 70.0628
15.2824 69.1792
15.3274 66.798
15.3725 65.6583
15.4175 65.0614
15.4625 64.8327
15.5076 64.8145
15.5526 64.8677
15.5976 64.2747
15.6426 64.7217
15.6877 68.4614
15.7327 75.3501
15.7778 89.2709
15.8228 121.336
15.8679 172.584
15.9129 196.638
15.958 152.257
16.003 93.9956
16.0481 66.9276
16.0931 63.5511
16.1382 61.6643
16.1833 59.4649
16.2283 57.8931
16.2734 57.1805
16.3185 57.8782
16.3636 58.5258
16.4086 56.7768
16.4537 55.0845
16.4988 54.3065
16.5439 54.3195
16.589 53.8557
16.6341 53.9675
16.6792 53.1987
16.7243 53.8262
16.7694 54.1315
16.8145 53.7238
16.8596 53.9791
16.9047 55.916
16.9498 55.9087
16.9949 54.5364
17.04 54.3898
17.0851 55.5196
17.1302 56.8528
17.1754 59.8306
17.2205 64.7387
17.2656 72.8193
17.3108 82.8345
17.3559 80.326
17.401 68.6314
17.4462 60.5529
17.4913 57.5888
17.5365 57.8392
17.5815 57.7128
17.6268 58.2119
17.6718 58.8395
17.7171 59.5368
17.7622 59.7949
17.8074 60.4262
17.8525 61.8752
17.8977 65.2713
17.9428 70.4268
17.9881 78.9782
18.0331 96.6355
18.0784 121.37
18.1237 138.21
18.1688 125.759
18.214 98.961
18.2591 83.088
18.3044 88.8335
18.3495 100.281
18.3948 105.907
18.4399 93.8774
18.4852 75.4188
18.5303 64.5449
18.5756 60.8494
18.6207 60.0109
18.666 59.2951
18.7112 58.52
18.7565 57.5918
18.8016 57.4346
18.8469 56.9567
18.892 56.3897
18.9374 55.9428
18.9825 55.8409
19.0278 55.772
19.073 55.8568
19.1183 56.2209
19.1635 56.5218
19.2088 57.9157
19.254 60.1997
19.2993 64.986
19.3447 71.8363
19.3898 75.6808
19.4352 70.3459
19.4804 61.4804
19.5257 55.3203
19.5709 53.004
19.6163 52.6924
19.6615 52.6223
19.7068 52.3325
19.752 52.2737
19.7974 52.2807
19.8426 53.1188
19.888 53.511
19.9332 54.7621
19.9786 57.3961
20.0238 61.2776
20.0692 66.4145
20.1144 68.7755
20.1598 66.1332
20.205 61.7897
20.2504 60.9004
20.2957 63.1364
20.3411 64.7496
20.3863 62.7684
20.4318 57.0997
20.477 52.4547
20.5224 50.728
20.5677 50.1084
20.6131 49.3578
20.6586 48.8192
20.7038 48.585
20.7493 48.218
20.7945 48.179
20.84 47.8218
20.8853 47.6543
20.9307 47.5155
20.976 47.7092
21.0215 47.5907
21.0668 47.992
21.1122 48.3694
21.1575 49.0142
21.203 50.1006
21.2483 50.5986
21.2938 50.3739
21.3391 48.9181
21.3846 47.7607
21.4299 47.4253
21.4754 47.3948
21.5207 47.4889
21.5662 47.6344
21.6116 47.8845
21.6571 48.4597
21.7024 49.383
21.7479 51.1518
21.7933 53.9108
21.8388 57.8662
21.8843 61.916
21.9297 63.4927
21.9752 61.6193
22.0206 57.9504
22.0661 55.6499
22.1115 55.2086
22.157 54.8701
22.2024 52.9204
22.248 50.3419
22.2933 48.9237
22.3389 48.1965
22.3843 48.0071
22.4299 47.9671
22.4753 47.907
22.5208 47.4454
22.5662 47.5007
22.6118 47.668
22.6572 47.4976
22.7028 48.0129
22.7483 48.4457
22.7939 49.0788
22.8393 50.6305
22.8849 53.0752
22.9303 55.4198
22.9759 56.888
23.0214 56.3258
23.067 53.4458
23.1126 49.8736
23.1581 48.0103
23.2037 47.6166
23.2492 47.6297
23.2948 47.4893
23.3403 47.9977
23.3859 48.4733
23.4314 49.6674
23.477 51.3243
23.5225 54.0526
23.5682 56.5611
23.6137 57.0596
23.6593 54.2768
23.7048 50.334
23.7505 47.2648
23.796 45.718
23.8417 45.0656
23.8872 44.5455
23.9329 44.323
23.9784 43.9381
24.0241 43.8452
24.0697 43.594
24.1154 43.3022
24.1609 43.1527
24.2066 42.9792
24.2522 42.9131
24.2979 42.503
24.3434 42.4305
24.3892 42.356
24.4349 42.2056
24.4805 42.0599
24.5262 42.2221
24.5718 42.174
24.6175 42.0996
24.6631 41.9143
24.7089 41.7111
24.7545 41.541
24.8002 41.384
24.8458 41.3913
24.8916 41.2772
24.9372 41.2204
24.983 41.5751
25.0286 41.888
25.0744 42.4198
25.12 42.9018
25.1658 43.3822
25.2114 43.6526
25.2572 43.8553
25.3029 44.0114
25.3487 44.2974
25.3943 43.7119
25.4402 42.5652
25.4858 41.4768
25.5316 40.616
25.5773 40.1013
25.6231 39.9829
25.669 39.7904
25.7147 39.7278
25.7605 39.7388
25.8062 39.6041
25.8521 39.9218
25.8977 39.7116
25.9436 39.953
25.9893 40.2535
26.0352 40.7234
26.0809 40.7501
26.1268 41.0101
26.1725 40.5954
26.2184 40.1047
26.2641 39.4872
26.31 39.3214
26.3557 39.2694
26.4017 39.0862
26.4474 39.493
26.4933 39.927
26.5391 40.4083
26.585 40.9121
26.6308 41.3986
26.6767 41.4756
26.7225 41.1813
26.7684 40.7172
26.8142 40.0566
26.8601 39.6905
26.9059 39.3038
26.9519 38.672
26.9979 38.3753
27.0437 38.1329
27.0896 37.8631
27.1354 38.0133
27.1814 37.8436
27.2272 37.7696
27.2732 37.7125
27.3191 37.6599
27.3651 37.6845
27.4109 37.7114
27.4569 37.7359
27.5027 37.8129
27.5488 37.9076
27.5946 37.6286
27.6407 37.3599
27.6865 37.3289
27.7326 37.06
27.7784 37.1172
27.8245 37.0525
27.8703 37.1602
27.9164 37.5275
27.9623 37.7514
28.0084 38.0192
28.0543 38.2706
28.1003 38.1746
28.1462 38.1861
28.1923 37.7247
28.2384 37.2702
28.2843 36.9335
28.3304 36.4927
28.3764 35.9842
28.4225 35.7459
28.4684 35.6295
28.5145 35.3316
28.5605 35.1906
28.6066 35.022
28.6526 34.8737
28.6987 34.8668
28.7447 34.8853
28.7908 34.769
28.8368 34.739
28.8829 34.8682
28.9289 34.8526
28.9751 34.4746
29.0211 34.1985
29.0673 34.077
29.1133 33.8929
29.1595 33.7176
29.2055 33.6947
29.2517 33.809
29.2977 33.6068
29.3439 33.7035
29.3899 33.6503
29.4361 33.4024
29.4824 33.3133
29.5284 33.1104
29.5746 32.8163
29.6207 32.5294
29.6669 32.4079
29.713 32.3169
29.7593 32.2229
29.8053 32.3333
29.8516 32.1458
29.8977 32.1332
29.9439 32.0294
29.99 31.9596
30.0363 31.8554
30.0824 31.8485
30.1287 31.8573
30.1748 31.8464
30.2211 31.8726
30.2673 31.6834
30.3136 31.7401
30.3597 31.6631
30.406 31.5304
30.4522 31.3806
30.4985 31.4292
30.5447 31.5633
30.591 31.5831
30.6372 31.6093
30.6835 31.6607
30.7297 31.6813
30.7761 31.5709
30.8224 31.3204
30.8686 31.3133
30.915 30.9779
30.9612 30.8495
31.0076 30.7378
31.0538 30.5363
31.1002 30.4775
31.1464 30.3683
31.1928 30.3755
31.2391 30.3488
31.2855 30.3256
31.3317 30.2415
31.3781 30.3959
31.4244 30.3813
31.4708 30.2188
31.5171 30.2801
31.5636 30.2336
31.6098 29.8772
31.6563 29.7927
31.7026 29.6453
31.7491 29.4916
31.7953 29.5172
31.8418 29.5485
31.8881 29.5575
31.9346 29.5108
31.9809 29.4473
32.0275 29.4557
32.074 29.2591
32.1203 28.9857
32.1668 28.9453
32.2132 28.8263
32.2597 28.7283
32.306 28.5508
32.3526 28.4213
32.399 28.3436
32.4455 28.3659
32.4919 28.1108
32.5385 28.1128
32.5848 27.9642
32.6314 27.9232
32.6778 27.9178
32.7244 27.7895
32.7708 27.6778
32.8174 27.5777
32.8638 27.4769
32.9104 27.565
32.9569 27.4693
33.0035 27.3112
33.0499 27.3435
33.0966 27.2923
33.143 27.2591
33.1897 27.1983
33.2361 27.0248
33.2828 27.0644
33.3293 26.8437
33.3759 26.8837
33.4226 26.6873
33.4691 26.618
33.5158 26.494
33.5623 26.3782
33.609 26.2178
33.6555 26.1792
33.7022 26.098
33.7487 26.0146
33.7954 25.9794
33.842 25.8365
33.8887 25.8018
33.9353 25.7717
33.982 25.6474
34.0286 25.5339
34.0753 25.5021
34.1219 25.5231
34.1687 25.3638
34.2152 25.317
34.262 25.1869
34.3086 25.0609
34.3554 25.1212
34.402 24.905
34.4488 24.8147
34.4954 24.717
34.5422 24.7157
34.5889 24.5748
34.6357 24.488
34.6825 24.4374
34.7292 24.4042
34.776 24.2262
34.8227 24.218
34.8695 24.1607
34.9162 24.1052
34.9631 23.9819
35.0098 24.0116
35.0566 23.8448
35.1033 23.7982
35.1502 23.824
35.1969 23.7186
35.2438 23.7135
35.2906 23.6712
35.3375 23.6343
35.3842 23.5255
35.4311 23.6029
35.4779 23.4797
35.5248 23.441
35.5716 23.3317
35.6185 23.2405
35.6653 23.1246
35.7123 22.9904
35.759 22.9877
35.806 23.0275
35.8528 22.7712
35.8998 22.7759
35.9468 22.6602
35.9936 22.6695
36.0406 22.5602
36.0874 22.5286
36.1345 22.4692
36.1813 22.4166
36.2283 22.371
36.2752 22.1992
36.3222 22.2448
36.3691 22.1194
36.4161 21.9768
36.463 22.0377
36.5101 21.9719
36.557 21.898
36.6041 21.7535
36.651 21.7912
36.6981 21.6763
36.745 21.601
36.7921 21.5068
36.839 21.4748
36.8861 21.4014
36.9331 21.3289
36.9802 21.3119
37.0272 21.1546
37.0743 21.0908
37.1213 21.0914
37.1684 21.0347
37.2154 20.9356
37.2626 20.9036
37.3098 20.8085
37.3568 20.7216
37.404 20.7125
37.451 20.6066
37.4982 20.5907
37.5452 20.4269
37.5924 20.5045
37.6395 20.4348
37.6867 20.3789
37.7337 20.1848
37.781 20.1564
37.8281 20.1466
37.8753 20.0427
37.9224 19.9802
37.9697 19.9231
38.0168 19.8466
38.064 19.7633
38.1111 19.7273
38.1584 19.6056
38.2056 19.6434
38.2529 19.5531
38.3 19.479
38.3473 19.4352
38.3945 19.3595
38.4418 19.2777
38.489 19.2258
38.5363 19.1646
38.5837 19.1041
38.6309 19.0425
38.6782 18.9375
38.7254 18.8807
38.7728 18.8144
38.82 18.8041
38.8674 18.7763
38.9146 18.7027
38.9621 18.5689
39.0093 18.5473
39.0567 18.564
39.104 18.4083
39.1514 18.3496
39.1987 18.3453
39.2461 18.2911
39.2934 18.2225
39.3409 18.1162
39.3882 18.0798
39.4356 18.0304
39.483 17.9735
39.5304 17.9087
39.5778 17.9169
39.6253 17.8245
39.6726 17.7872
39.7201 17.725
39.7675 17.6753
39.815 17.5779
39.8624 17.5282
39.9099 17.4775
39.9575 17.389
40.0049 17.3347
40.0525 17.2968
40.0999 17.2751
40.1474 17.2193
40.1949 17.1554
40.2425 17.0609
40.2899 17.0504
40.3375 17.0027
40.385 16.9383
40.4326 16.8933
40.48 16.8106
40.5277 16.7689
40.5752 16.7078
40.6228 16.6124
40.6703 16.5843
40.718 16.597
40.7655 16.5634
40.8132 16.4927
40.8607 16.4062
40.9084 16.3274
40.9559 16.3238
41.0036 16.2678
41.0512 16.1825
41.0989 16.1904
41.1465 16.0508
41.1942 16.0337
41.242 15.9554
41.2896 15.9343
41.3373 15.8806
41.3849 15.8461
41.4327 15.7784
41.4803 15.6832
41.5281 15.6955
41.5758 15.6301
41.6236 15.5724
41.6712 15.5201
41.7191 15.4261
41.7667 15.3879
41.8146 15.3293
41.8622 15.3181
41.9101 15.2609
41.9578 15.1868
42.0057 15.0861
42.0534 15.1
42.1013 15.0143
42.149 15.0207
42.1969 14.995
42.2446 14.9308
42.2925 14.8159
42.3403 14.7959
42.3882 14.711
42.436 14.6957
42.4839 14.6346
42.5319 14.6204
42.5797 14.5363
42.6277 14.4907
42.6755 14.4697
42.7235 14.4158
42.7713 14.3901
42.8193 14.3295
42.8671 14.2542
42.9152 14.2074
42.963 14.1958
43.0111 14.071
43.0589 14.0439
43.107 13.9815
43.1549 14.0232
43.2029 13.9305
43.2508 13.8642
43.2989 13.8302
43.3468 13.6982
43.3949 13.7342
43.4429 13.6778
43.491 13.6259
43.5389 13.5755
43.5871 13.5849
43.635 13.4414
43.6832 13.4217
43.7312 13.3769
43.7793 13.2751
43.8273 13.3196
43.8755 13.2778
43.9237 13.1975
43.9717 13.1939
44.0199 13.081
44.068 13.0681
44.1162 13.0337
44.1642 13.04
44.2125 12.9232
44.2606 12.9392
44.3088 12.8523
44.3569 12.7902
44.4052 12.7724
44.4533 12.7039
44.5016 12.6739
44.5497 12.6526
44.598 12.5806
44.6461 12.5212
44.6945 12.491
44.7426 12.4526
44.791 12.427
44.8391 12.4021
44.8875 12.2952
44.9357 12.3043
44.984 12.2218
45.0322 12.1947
45.0806 12.1403
45.1288 12.1113
45.1773 12.0438
45.2257 12.0267
45.2739 11.9742
45.3224 11.9676
45.3706 11.8985
45.4191 11.8358
45.4673 11.8486
45.5158 11.7695
45.5641 11.7195
45.6126 11.6449
45.6609 11.6401
45.7094 11.5782
45.7577 11.5417
45.8063 11.4884
45.8546 11.4973
45.9031 11.4377
45.9515 11.3641
46.0001 11.3575
46.0484 11.3084
46.097 11.2583
46.1454 11.2709
46.194 11.217
46.2424 11.1855
46.291 11.1385
46.3395 11.0642
46.3881 10.9866
46.4365 11.0414
46.4852 10.9878
46.5337 10.928
46.5823 10.9137
46.631 10.8511
46.6795 10.783
46.7282 10.7283
46.7767 10.7396
46.8254 10.6807
46.8739 10.6057
46.9226 10.615
46.9712 10.5574
47.0199 10.5192
47.0685 10.4921
47.1173 10.458
47.1658 10.4076
47.2146 10.427
47.2632 10.3125
47.312 10.2892
47.3606 10.2089
47.4095 10.2025
47.4581 10.2034
47.5069 10.1212
47.5556 10.0857
47.6044 10.0563
47.6531 10.0634
47.702 9.96098
47.7507 9.95714
47.7996 9.89858
47.8483 9.83549
47.8972 9.87937
47.9461 9.79362
47.9948 9.76962
48.0438 9.76593
48.0925 9.7294
48.1415 9.66626
48.1902 9.64248
48.2392 9.64529
48.288 9.58833
48.337 9.54352
48.3858 9.50006
48.4348 9.43066
48.4837 9.45144
48.5327 9.40863
48.5815 9.37703
48.6306 9.32255
48.6795 9.27493
48.7285 9.24737
48.7774 9.23184
48.8265 9.20685
48.8754 9.17179
48.9245 9.12491
48.9734 9.07029
49.0226 9.05899
49.0715 9.01223
49.1206 9.01372
49.1696 8.95381
49.2188 8.9144
49.2679 8.89233
49.3169 8.83557
49.3661 8.80568
49.4151 8.81597
49.4643 8.74335
49.5134 8.70576
49.5626 8.66721
49.6117 8.63922
49.6609 8.57655
49.71 8.56875
49.7592 8.53299
49.8083 8.48434
49.8576 8.46275
49.9067 8.42926
49.956 8.4196
50.0052 8.42081
50.0545 8.34029
50.1036 8.3075
50.153 8.2779
50.2022 8.24241
50.2515 8.19285
50.3007 8.17902
50.3501 8.124
50.3993 8.15459
50.4487 8.06605
50.498 8.06978
50.5474 8.02004
50.5966 7.98951
50.6461 7.95459
50.6955 7.9431
50.7448 7.92462
50.7943 7.88226
50.8436 7.88396
50.8931 7.84767
50.9424 7.77726
50.9919 7.80072
51.0413 7.74671
51.0908 7.71056
51.1402 7.68376
51.1897 7.64637
51.2391 7.62001
51.2887 7.61313
51.3381 7.53007
51.3877 7.51681
51.4371 7.49218
51.4867 7.44588
51.5362 7.44757
51.5858 7.40579
51.6353 7.35709
51.6849 7.35614
51.7344 7.28689
51.7841 7.2901
51.8336 7.23123
51.8833 7.1969
51.9328 7.14975
51.9826 7.13905
52.0323 7.14254
52.0818 7.07041
52.1316 7.041
52.1812 7.05024
52.231 6.98814
52.2806 6.9566
52.3304 6.99546
52.38 6.94106
52.4298 6.86959
52.4794 6.84369
52.5293 6.82442
52.5789 6.74919
52.6288 6.73451
52.6785 6.73085
52.7284 6.70809
52.7781 6.70759
52.828 6.67814
52.8777 6.59858
52.9276 6.60448
52.9774 6.58834
53.0273 6.54637
53.0771 6.53742
53.1271 6.52981
53.1769 6.47964
53.2269 6.43034
53.2767 6.40999
53.3267 6.34717
53.3765 6.36898
53.4266 6.31339
53.4766 6.31417
53.5265 6.28301
53.5765 6.28527
53.6264 6.22698
53.6765 6.20721
53.7264 6.18864
53.7765 6.1255
53.8265 6.12536
53.8766 6.10656
53.9266 6.08056
53.9767 6.04336
54.0267 6.00349
54.0769 6.0075
54.1269 5.96918
54.1771 5.911
54.2271 5.91897
54.2773 5.86667
54.3274 5.86502
54.3776 5.84574
54.4277 5.85822
54.478 5.75231
54.528 5.74115
54.5783 5.67898
54.6285 5.61083
54.6788 5.59269
54.7289 5.52252
54.7792 5.49766
54.8296 5.47124
54.8798 5.40553
54.9301 5.36092
54.9803 5.3506
55.0307 5.3732
55.0809 5.27592
55.1314 5.27611
55.1816 5.18268
55.232 5.19089
55.2823 5.12153
55.3328 5.0387
55.383 4.96771
55.4335 4.9477
55.4838 4.96898
55.5344 4.89358
55.5847 4.82825
55.6352 4.78578
55.6856 4.77405
55.7361 4.72681