File: XRD/Ni3Fe_FD1049.xy
TT I
1.27165 7.24601
1.31627 6.02455
1.36089 6.14676
1.40551 6.24281
1.45013 5.7903
1.49476 5.11472
1.53938 5.34492
1.584 5.06976
1.62863 4.68928
1.67325 4.54322
1.71787 4.26414
1.7625 4.03864
1.80712 4.35476
1.85174 4.37124
1.89636 4.0126
1.94099 4.27124
1.98562 4.41007
2.03025 3.96095
2.07487 4.13215
2.11949 4.1921
2.16411 4.20858
2.20874 5.13261
2.25338 6.36176
2.298 4.77073
2.34263 5.4821
2.38725 6.05951
2.43188 5.73941
2.4765 6.41794
2.52115 7.53553
2.56577 7.70451
2.6104 8.67389
2.65503 7.59431
2.69965 8.8946
2.7443 7.69663
2.78893 8.36936
2.83356 9.30185
2.87818 9.31921
2.92281 9.45964
2.96744 9.57921
3.01209 10.2592
3.05672 10.8099
3.10135 12.3117
3.14599 12.7771
3.19062 14.1332
3.23527 14.4162
3.2799 15.4852
3.32454 15.8881
3.36917 17.1645
3.4138 18.3485
3.45844 18.8301
3.50309 19.7901
3.54773 20.4957
3.59237 21.4318
3.637 28.4386
3.68164 26.8273
3.7263 23.8912
3.77094 24.4324
3.81558 25.4651
3.86022 26.3852
3.90486 27.5527
3.9495 28.5209
3.99416 29.2866
4.0388 30.1411
4.08344 31.5446
4.12809 32.6208
4.17273 33.9049
4.21738 35.2351
4.26204 52.2948
4.30669 56.8884
4.35133 40.5426
4.39598 41.1157
4.44063 43.4372
4.4853 46.4997
4.52995 47.0456
4.5746 48.505
4.61925 50.9826
4.6639 52.6656
4.70855 55.3387
4.75322 58.1204
4.79788 60.9847
4.84253 63.9032
4.88719 68.1422
4.93184 71.4207
4.97652 76.9746
5.02118 83.396
5.06583 89.4148
5.11049 97.8849
5.15515 118.616
5.19981 234.167
5.24449 2509.27
5.28916 13559.9
5.33382 3249.67
5.37848 212.262
5.42315 124.496
5.46783 107.883
5.5125 100.532
5.55716 97.4031
5.60183 93.3813
5.6465 91.2171
5.69117 89.7196
5.73586 87.7331
5.78053 87.2045
5.8252 86.652
5.86988 87.083
5.91455 89.2308
5.95924 94.9276
6.00392 163.781
6.0486 898.039
6.09328 4543.72
6.13795 3587.63
6.18263 238.002
6.22733 87.2086
6.27201 76.1426
6.3167 72.9392
6.36138 68.8874
6.40606 64.4979
6.45075 63.4179
6.49545 62.0056
6.54014 60.1395
6.58483 58.9697
6.62952 58.2854
6.67421 58.7305
6.71892 64.2924
6.76361 56.5842
6.8083 54.4016
6.853 53.9371
6.89769 53.5133
6.94239 53.269
6.98711 52.3723
7.03181 52.4041
7.07651 52.2471
7.12121 51.9834
7.16591 51.569
7.21063 51.1723
7.25533 51.6606
7.30004 61.7211
7.34475 55.6874
7.38945 51.5662
7.43416 51.3808
7.47889 51.1763
7.5236 59.4575
7.56831 73.7653
7.61303 56.7687
7.65774 52.7257
7.70247 53.2302
7.74719 53.3434
7.79191 53.8191
7.83663 53.8094
7.88135 54.7963
7.92607 55.9182
7.97081 56.7263
8.01553 57.6675
8.06026 58.8635
8.10498 59.9663
8.14971 62.4999
8.19446 64.0966
8.23919 66.1308
8.28392 68.2139
8.32865 70.491
8.37339 74.2164
8.41812 77.9685
8.46288 85.8968
8.50761 129.576
8.55235 371.397
8.59709 1090.25
8.64183 2271.97
8.68658 1086.71
8.73134 175.589
8.77609 95.0273
8.82083 88.2392
8.86558 85.8066
8.91033 83.5119
8.9551 82.5898
8.99985 81.1843
9.04461 80.3065
9.08936 79.7276
9.13412 78.8962
9.17888 79.6226
9.22365 92.4762
9.26841 115.148
9.31318 89.7922
9.35794 80.3237
9.4027 80.0689
9.44749 80.568
9.49226 80.8047
9.53703 81.4742
9.5818 83.1561
9.62657 84.421
9.67134 86.5552
9.71614 87.9617
9.76091 89.4324
9.80569 91.7231
9.85047 94.1353
9.89525 98.8371
9.94005 106.22
9.98484 148.142
10.0296 350.312
10.0744 777.5
10.1192 1757.63
10.164 1672.74
10.2088 436.388
10.2536 124.854
10.2984 103.065
10.3432 100.875
10.388 97.898
10.4328 107.807
10.4776 161.666
10.5224 271.145
10.5672 506.541
10.612 563.411
10.6568 229.142
10.7017 104.877
10.7465 86.4286
10.7913 80.3111
10.8361 77.3429
10.8809 75.5459
10.9257 73.4076
10.9706 72.4749
11.0154 70.78
11.0602 69.5624
11.105 68.0555
11.1499 66.9383
11.1947 67.1797
11.2395 65.6025
11.2844 64.7849
11.3292 63.7543
11.374 63.0042
11.4189 62.6843
11.4637 62.2045
11.5086 61.2598
11.5534 61.2273
11.5983 60.9102
11.6431 60.565
11.688 60.0188
11.7328 59.8286
11.7777 59.9326
11.8225 59.946
11.8674 60.1451
11.9122 62.0219
11.9571 68.4862
12.002 66.6298
12.0468 64.299
12.0917 76.6617
12.1366 98.9225
12.1814 146.049
12.2263 204.115
12.2712 175.1
12.3161 98.7502
12.3609 64.4957
12.4058 61.0939
12.4507 61.1055
12.4956 61.3396
12.5405 61.4524
12.5853 61.8904
12.6302 62.6891
12.6751 64.2126
12.72 64.1397
12.7649 64.7289
12.8098 65.2551
12.8547 66.8496
12.8996 68.0414
12.9445 69.2312
12.9894 70.7964
13.0343 72.8154
13.0792 76.5369
13.1242 82.6368
13.1691 108.164
13.214 147.835
13.2589 228.969
13.3038 365.37
13.3487 443.928
13.3937 279.421
13.4386 126.855
13.4835 99.5903
13.5285 119.998
13.5734 157.0
13.6183 237.059
13.6633 357.403
13.7082 358.876
13.7531 204.491
13.7981 100.445
13.843 79.6567
13.888 77.1106
13.9329 74.5033
13.9779 73.3616
14.0228 71.8815
14.0678 70.8388
14.1127 72.2351
14.1577 75.6212
14.2027 73.6892
14.2476 69.201
14.2926 67.5981
14.3376 67.2714
14.3825 66.7233
14.4275 66.4409
14.4725 66.2243
14.5175 66.656
14.5624 66.4463
14.6074 66.655
14.6524 67.382
14.6974 67.5088
14.7424 68.5789
14.7874 74.5643
14.8324 88.79
14.8774 109.872
14.9224 148.424
14.9674 208.84
15.0124 227.366
15.0574 159.869
15.1024 93.514
15.1474 71.0183
15.1924 67.8931
15.2374 66.5412
15.2824 65.8305
15.3274 64.7332
15.3725 64.482
15.4175 64.2578
15.4625 63.7212
15.5076 63.3737
15.5526 63.4232
15.5976 63.4978
15.6426 64.0306
15.6877 68.7414
15.7327 79.4896
15.7778 94.433
15.8228 121.954
15.8679 169.114
15.9129 202.006
15.958 167.689
16.003 103.018
16.0481 69.2698
16.0931 62.9437
16.1382 60.1158
16.1833 58.4281
16.2283 56.8934
16.2734 56.3007
16.3185 55.7264
16.3636 55.197
16.4086 54.3508
16.4537 53.8968
16.4988 53.6739
16.5439 53.6221
16.589 53.234
16.6341 52.7338
16.6792 52.6079
16.7243 52.7801
16.7694 52.9363
16.8145 52.6052
16.8596 53.0531
16.9047 53.5555
16.9498 54.2248
16.9949 54.0678
17.04 53.8617
17.0851 54.7454
17.1302 57.0943
17.1754 60.073
17.2205 64.8714
17.2656 72.2508
17.3108 81.4609
17.3559 82.6507
17.401 71.8827
17.4462 61.3737
17.4913 57.7468
17.5365 57.381
17.5815 57.451
17.6268 57.6868
17.6718 58.1782
17.7171 58.7088
17.7622 60.0405
17.8074 60.9802
17.8525 61.8755
17.8977 66.52
17.9428 73.2621
17.9881 81.9127
18.0331 97.7391
18.0784 121.229
18.1237 141.686
18.1688 136.736
18.214 108.308
18.2591 88.2279
18.3044 89.0056
18.3495 99.4436
18.3948 107.781
18.4399 98.3933
18.4852 79.2
18.5303 65.6787
18.5756 61.143
18.6207 60.2575
18.666 58.9736
18.7112 58.1966
18.7565 57.4806
18.8016 56.9911
18.8469 56.3827
18.892 55.9339
18.9374 55.558
18.9825 55.2727
19.0278 55.0502
19.073 54.8268
19.1183 55.1775
19.1635 56.2622
19.2088 58.0081
19.254 60.5671
19.2993 65.6831
19.3447 72.0962
19.3898 76.1744
19.4352 72.2592
19.4804 63.3801
19.5257 56.1958
19.5709 53.1019
19.6163 52.5972
19.6615 52.3724
19.7068 51.7477
19.752 51.8982
19.7974 51.8373
19.8426 52.6892
19.888 53.6043
19.9332 55.1178
19.9786 57.687
20.0238 61.0365
20.0692 66.4276
20.1144 70.362
20.1598 69.1602
20.205 64.0471
20.2504 61.6598
20.2957 63.3723
20.3411 65.5277
20.3863 64.0305
20.4318 58.2549
20.477 52.9178
20.5224 49.9507
20.5677 49.2201
20.6131 48.8234
20.6586 48.4331
20.7038 48.3126
20.7493 47.902
20.7945 48.0475
20.84 47.7234
20.8853 47.4837
20.9307 47.2644
20.976 47.312
21.0215 47.3233
21.0668 47.7138
21.1122 48.2175
21.1575 48.5353
21.203 49.5545
21.2483 50.4662
21.2938 50.5074
21.3391 49.1575
21.3846 47.8884
21.4299 47.4148
21.4754 47.2621
21.5207 47.2961
21.5662 47.5666
21.6116 47.9181
21.6571 48.8268
21.7024 50.1962
21.7479 51.7069
21.7933 54.1447
21.8388 57.9477
21.8843 62.7566
21.9297 65.2439
21.9752 63.9109
22.0206 59.6184
22.0661 56.4592
22.1115 55.8422
22.157 55.9366
22.2024 54.1445
22.248 51.0497
22.2933 49.1193
22.3389 47.9481
22.3843 47.6453
22.4299 47.5415
22.4753 47.3942
22.5208 47.355
22.5662 47.2212
22.6118 47.5682
22.6572 47.7029
22.7028 48.3036
22.7483 48.9694
22.7939 49.8402
22.8393 51.1505
22.8849 53.4117
22.9303 55.6622
22.9759 57.7557
23.0214 57.5121
23.067 54.6331
23.1126 50.9555
23.1581 48.623
23.2037 47.661
23.2492 47.6396
23.2948 47.9615
23.3403 48.5576
23.3859 49.274
23.4314 50.4192
23.477 52.2995
23.5225 54.6069
23.5682 57.3456
23.6137 58.3452
23.6593 56.5032
23.7048 51.9971
23.7505 48.1691
23.796 45.9454
23.8417 45.2145
23.8872 44.5903
23.9329 44.3128
23.9784 43.8538
24.0241 43.732
24.0697 43.4738
24.1154 43.1768
24.1609 42.9477
24.2066 42.7191
24.2522 42.7094
24.2979 42.377
24.3434 42.2562
24.3892 42.1369
24.4349 42.1697
24.4805 41.9664
24.5262 42.2007
24.5718 42.1198
24.6175 42.1694
24.6631 41.8988
24.7089 41.701
24.7545 41.3801
24.8002 41.311
24.8458 41.2217
24.8916 41.1652
24.9372 41.3383
24.983 41.6146
25.0286 42.0389
25.0744 42.5109
25.12 43.2265
25.1658 43.8321
25.2114 44.1769
25.2572 44.4794
25.3029 44.5266
25.3487 44.5746
25.3943 44.4046
25.4402 43.1643
25.4858 41.9727
25.5316 40.8614
25.5773 40.0059
25.6231 39.9137
25.669 39.5837
25.7147 39.6643
25.7605 39.6348
25.8062 39.5933
25.8521 39.8654
25.8977 39.7443
25.9436 40.1009
25.9893 40.3034
26.0352 40.7551
26.0809 40.9211
26.1268 41.278
26.1725 40.866
26.2184 40.2657
26.2641 39.5809
26.31 39.4157
26.3557 39.4429
26.4017 39.5447
26.4474 39.7085
26.4933 40.0078
26.5391 40.5826
26.585 41.1421
26.6308 41.7126
26.6767 41.9135
26.7225 41.799
26.7684 41.1903
26.8142 40.4255
26.8601 40.0763
26.9059 39.6085
26.9519 38.9359
26.9979 38.7937
27.0437 38.2428
27.0896 38.1466
27.1354 37.9794
27.1814 38.0058
27.2272 37.8715
27.2732 37.9313
27.3191 37.7919
27.3651 37.7622
27.4109 37.722
27.4569 37.9819
27.5027 38.0119
27.5488 37.9354
27.5946 37.768
27.6407 37.6078
27.6865 37.5654
27.7326 37.2701
27.7784 37.2308
27.8245 37.2777
27.8703 37.4917
27.9164 37.7617
27.9623 37.8964
28.0084 38.4115
28.0543 38.7756
28.1003 38.8538
28.1462 38.5875
28.1923 38.2581
28.2384 37.6537
28.2843 37.2584
28.3304 36.9026
28.3764 36.3149
28.4225 35.8131
28.4684 35.8387
28.5145 35.3833
28.5605 35.3602
28.6066 35.1158
28.6526 35.1416
28.6987 35.0082
28.7447 35.0303
28.7908 34.8108
28.8368 34.8862
28.8829 34.8813
28.9289 34.7826
28.9751 34.576
29.0211 34.4284
29.0673 34.1289
29.1133 33.9853
29.1595 33.8453
29.2055 33.6789
29.2517 33.7586
29.2977 33.6269
29.3439 33.6691
29.3899 33.6085
29.4361 33.6174
29.4824 33.5027
29.5284 33.3067
29.5746 32.9216
29.6207 32.5911
29.6669 32.4465
29.713 32.3168
29.7593 32.2724
29.8053 32.2776
29.8516 32.1937
29.8977 32.1177
29.9439 32.0484
29.99 31.9245
30.0363 31.8919
30.0824 31.9237
30.1287 31.7845
30.1748 31.8566
30.2211 31.9574
30.2673 31.7176
30.3136 31.8097
30.3597 31.6901
30.406 31.6474
30.4522 31.5562
30.4985 31.5184
30.5447 31.7162
30.591 31.6648
30.6372 31.7446
30.6835 31.7801
30.7297 31.8917
30.7761 31.8401
30.8224 31.6649
30.8686 31.5842
30.915 31.2523
30.9612 31.107
31.0076 30.8637
31.0538 30.7612
31.1002 30.6943
31.1464 30.4791
31.1928 30.4836
31.2391 30.5064
31.2855 30.3603
31.3317 30.4284
31.3781 30.5085
31.4244 30.4648
31.4708 30.4494
31.5171 30.4756
31.5636 30.3722
31.6098 30.153
31.6563 29.9611
31.7026 29.834
31.7491 29.6805
31.7953 29.7149
31.8418 29.7752
31.8881 29.7429
31.9346 29.7199
31.9809 29.6561
32.0275 29.5936
32.074 29.4724
32.1203 29.1824
32.1668 29.059
32.2132 28.9442
32.2597 28.8454
32.306 28.7604
32.3526 28.5231
32.399 28.5089
32.4455 28.3058
32.4919 28.241
32.5385 28.2037
32.5848 27.9905
32.6314 28.0664
32.6778 27.991
32.7244 27.8024
32.7708 27.7231
32.8174 27.8291
32.8638 27.5984
32.9104 27.5711
32.9569 27.5539
33.0035 27.4598
33.0499 27.462
33.0966 27.4509
33.143 27.3349
33.1897 27.2997
33.2361 27.2244
33.2828 27.2971
33.3293 27.0195
33.3759 26.9895
33.4226 26.852
33.4691 26.6958
33.5158 26.6694
33.5623 26.4378
33.609 26.3436
33.6555 26.2649
33.7022 26.2093
33.7487 26.0973
33.7954 25.9881
33.842 25.967
33.8887 25.9901
33.9353 25.8413
33.982 25.6936
34.0286 25.6465
34.0753 25.6198
34.1219 25.5027
34.1687 25.4214
34.2152 25.3272
34.262 25.2518
34.3086 25.1297
34.3554 25.1086
34.402 24.9856
34.4488 24.8516
34.4954 24.8542
34.5422 24.7476
34.5889 24.6789
34.6357 24.5852
34.6825 24.4941
34.7292 24.3582
34.776 24.3125
34.8227 24.3065
34.8695 24.214
34.9162 24.1343
34.9631 24.0926
35.0098 24.0081
35.0566 24.0477
35.1033 23.9505
35.1502 23.9025
35.1969 23.8169
35.2438 23.768
35.2906 23.6831
35.3375 23.6468
35.3842 23.703
35.4311 23.6435
35.4779 23.6084
35.5248 23.5249
35.5716 23.3918
35.6185 23.4039
35.6653 23.3116
35.7123 23.101
35.759 23.0912
35.806 23.051
35.8528 22.831
35.8998 22.8875
35.9468 22.7569
35.9936 22.7555
36.0406 22.6773
36.0874 22.5853
36.1345 22.6233
36.1813 22.4577
36.2283 22.3252
36.2752 22.257
36.3222 22.3481
36.3691 22.2805
36.4161 22.1108
36.463 22.1237
36.5101 22.137
36.557 22.0347
36.6041 21.9793
36.651 21.8137
36.6981 21.8072
36.745 21.7638
36.7921 21.6312
36.839 21.5118
36.8861 21.5105
36.9331 21.4329
36.9802 21.3437
37.0272 21.2928
37.0743 21.1782
37.1213 21.1355
37.1684 21.1272
37.2154 20.9668
37.2626 20.9444
37.3098 20.8146
37.3568 20.8814
37.404 20.724
37.451 20.6558
37.4982 20.6024
37.5452 20.4793
37.5924 20.4134
37.6395 20.561
37.6867 20.3929
37.7337 20.3161
37.781 20.1987
37.8281 20.1251
37.8753 20.0294
37.9224 20.0261
37.9697 19.946
38.0168 19.9065
38.064 19.8178
38.1111 19.807
38.1584 19.65
38.2056 19.6877
38.2529 19.5331
38.3 19.5445
38.3473 19.4912
38.3945 19.402
38.4418 19.3793
38.489 19.3615
38.5363 19.1397
38.5837 19.1223
38.6309 19.0933
38.6782 19.042
38.7254 18.9322
38.7728 18.9253
38.82 18.8229
38.8674 18.7863
38.9146 18.7388
38.9621 18.6839
39.0093 18.6562
39.0567 18.5071
39.104 18.4953
39.1514 18.3822
39.1987 18.369
39.2461 18.3378
39.2934 18.2558
39.3409 18.1768
39.3882 18.0827
39.4356 18.0736
39.483 18.0299
39.5304 17.981
39.5778 17.8885
39.6253 17.851
39.6726 17.7885
39.7201 17.7516
39.7675 17.7642
39.815 17.6599
39.8624 17.5407
39.9099 17.5022
39.9575 17.4833
40.0049 17.4467
40.0525 17.3217
40.0999 17.3036
40.1474 17.316
40.1949 17.1882
40.2425 17.0822
40.2899 17.087
40.3375 17.0697
40.385 16.9344
40.4326 16.9283
40.48 16.8703
40.5277 16.7783
40.5752 16.7054
40.6228 16.698
40.6703 16.684
40.718 16.5158
40.7655 16.4989
40.8132 16.4734
40.8607 16.5117
40.9084 16.4042
40.9559 16.3441
41.0036 16.3217
41.0512 16.261
41.0989 16.2345
41.1465 16.1655
41.1942 16.0756
41.242 16.0086
41.2896 15.9802
41.3373 15.9164
41.3849 15.9258
41.4327 15.7909
41.4803 15.7365
41.5281 15.7273
41.5758 15.6765
41.6236 15.5849
41.6712 15.5148
41.7191 15.4737
41.7667 15.4718
41.8146 15.425
41.8622 15.3681
41.9101 15.2182
41.9578 15.151
42.0057 15.1791
42.0534 15.1572
42.1013 15.061
42.149 15.0428
42.1969 14.9861
42.2446 14.9458
42.2925 14.8593
42.3403 14.8941
42.3882 14.783
42.436 14.748
42.4839 14.6833
42.5319 14.6403
42.5797 14.5685
42.6277 14.5117
42.6755 14.4863
42.7235 14.4241
42.7713 14.4243
42.8193 14.3562
42.8671 14.324
42.9152 14.2199
42.963 14.1594
43.0111 14.1341
43.0589 14.1036
43.107 14.0406
43.1549 14.0173
43.2029 13.9843
43.2508 13.8896
43.2989 13.848
43.3468 13.791
43.3949 13.7761
43.4429 13.6963
43.491 13.66
43.5389 13.5894
43.5871 13.5717
43.635 13.526
43.6832 13.513
43.7312 13.4247
43.7793 13.3866
43.8273 13.319
43.8755 13.27
43.9237 13.2688
43.9717 13.198
44.0199 13.1498
44.068 13.1519
44.1162 13.0791
44.1642 13.0952
44.2125 13.0115
44.2606 12.9671
44.3088 12.8693
44.3569 12.8539
44.4052 12.8432
44.4533 12.7076
44.5016 12.7103
44.5497 12.6875
44.598 12.6497
44.6461 12.6109
44.6945 12.5379
44.7426 12.5086
44.791 12.4144
44.8391 12.3851
44.8875 12.347
44.9357 12.3442
44.984 12.2894
45.0322 12.2044
45.0806 12.181
45.1288 12.1648
45.1773 12.0889
45.2257 12.0759
45.2739 11.9917
45.3224 11.9616
45.3706 11.9707
45.4191 11.8834
45.4673 11.8254
45.5158 11.8241
45.5641 11.7594
45.6126 11.7227
45.6609 11.671
45.7094 11.6023
45.7577 11.5912
45.8063 11.5166
45.8546 11.5355
45.9031 11.449
45.9515 11.4201
46.0001 11.3972
46.0484 11.3372
46.097 11.3142
46.1454 11.2896
46.194 11.2478
46.2424 11.1974
46.291 11.1659
46.3395 11.1078
46.3881 11.051
46.4365 11.0667
46.4852 10.9916
46.5337 10.9523
46.5823 10.9138
46.631 10.9025
46.6795 10.8438
46.7282 10.8381
46.7767 10.7158
46.8254 10.6219
46.8739 10.663
46.9226 10.642
46.9712 10.5176
47.0199 10.5037
47.0685 10.5093
47.1173 10.4515
47.1658 10.432
47.2146 10.3764
47.2632 10.2875
47.312 10.3789
47.3606 10.2462
47.4095 10.2235
47.4581 10.2047
47.5069 10.1339
47.5556 10.1299
47.6044 10.0461
47.6531 10.0276
47.702 10.0306
47.7507 9.93432
47.7996 9.93713
47.8483 9.9389
47.8972 9.90217
47.9461 9.82594
47.9948 9.78773
48.0438 9.7559
48.0925 9.72693
48.1415 9.72422
48.1902 9.6356
48.2392 9.59632
48.288 9.62318
48.337 9.55434
48.3858 9.51499
48.4348 9.5108
48.4837 9.45898
48.5327 9.42232
48.5815 9.39814
48.6306 9.39064
48.6795 9.3206
48.7285 9.29753
48.7774 9.27201
48.8265 9.19815
48.8754 9.14603
48.9245 9.139
48.9734 9.11702
49.0226 9.10586
49.0715 9.03561
49.1206 8.99762
49.1696 8.94859
49.2188 8.94329
49.2679 8.90932
49.3169 8.81397
49.3661 8.80707
49.4151 8.77458
49.4643 8.79096
49.5134 8.73352
49.5626 8.66974
49.6117 8.6375
49.6609 8.64611
49.71 8.55425
49.7592 8.57274
49.8083 8.50157
49.8576 8.50833
49.9067 8.46696
49.956 8.44152
50.0052 8.34984
50.0545 8.36515
50.1036 8.31586
50.153 8.26023
50.2022 8.28105
50.2515 8.22251
50.3007 8.19959
50.3501 8.12214
50.3993 8.12252
50.4487 8.11398
50.498 8.08233
50.5474 8.03093
50.5966 8.02857
50.6461 8.0013
50.6955 7.9751
50.7448 7.9336
50.7943 7.89975
50.8436 7.88505
50.8931 7.86682
50.9424 7.78285
50.9919 7.78044
51.0413 7.72217
51.0908 7.72225
51.1402 7.68735
51.1897 7.62936
51.2391 7.65814
51.2887 7.57695
51.3381 7.58512
51.3877 7.55137
51.4371 7.51087
51.4867 7.4603
51.5362 7.43333
51.5858 7.41306
51.6353 7.40806
51.6849 7.35272
51.7344 7.32558
51.7841 7.29016
51.8336 7.23704
51.8833 7.19704
51.9328 7.19524
51.9826 7.15567
52.0323 7.11296
52.0818 7.06744
52.1316 7.05811
52.1812 7.09387
52.231 7.04583
52.2806 7.01084
52.3304 6.98132
52.38 6.93251
52.4298 6.90622
52.4794 6.82815
52.5293 6.83615
52.5789 6.80361
52.6288 6.79726
52.6785 6.74302
52.7284 6.73701
52.7781 6.68947
52.828 6.69674
52.8777 6.64898
52.9276 6.60459
52.9774 6.55837
53.0273 6.56319
53.0771 6.52088
53.1271 6.53972
53.1769 6.49541
53.2269 6.47013
53.2767 6.39705
53.3267 6.41114
53.3765 6.3776
53.4266 6.34308
53.4766 6.33235
53.5265 6.27974
53.5765 6.23811
53.6264 6.22698
53.6765 6.18699
53.7264 6.14468
53.7765 6.17842
53.8265 6.15559
53.8766 6.06509
53.9266 6.05783
53.9767 6.03647
54.0267 5.99943
54.0769 6.00675
54.1269 5.9574
54.1771 5.93682
54.2271 5.89221
54.2773 5.86464
54.3274 5.83174
54.3776 5.77898
54.4277 5.79656
54.478 5.73228
54.528 5.68067
54.5783 5.70515
54.6285 5.66768
54.6788 5.63004
54.7289 5.51775
54.7792 5.4907
54.8296 5.50489
54.8798 5.42747
54.9301 5.40936
54.9803 5.37829
55.0307 5.38353
55.0809 5.31318
55.1314 5.23432
55.1816 5.18753
55.232 5.16431
55.2823 5.11484
55.3328 5.07681
55.383 5.01123
55.4335 5.08169
55.4838 4.8829
55.5344 4.87519
55.5847 4.85248
55.6352 4.82233
55.6856 4.76914
55.7361 4.7192