File: XRD/Ni3Fe_FD0788.xy
TT I
1.27165 6.91152
1.31627 6.39753
1.36089 6.611
1.40551 5.58395
1.45013 6.87347
1.49476 5.79468
1.53938 6.16918
1.584 5.31569
1.62863 4.95804
1.67325 5.32153
1.71787 5.03293
1.7625 4.73762
1.80712 4.74046
1.85174 4.52819
1.89636 4.48832
1.94099 4.34115
1.98562 4.73117
2.03025 4.3322
2.07487 4.88031
2.11949 4.80526
2.16411 4.41379
2.20874 11.2693
2.25338 16.2885
2.298 4.88663
2.34263 5.5411
2.38725 5.81885
2.43188 6.14227
2.4765 6.95194
2.52115 6.80291
2.56577 7.72938
2.6104 8.29019
2.65503 7.8684
2.69965 8.79432
2.7443 8.27985
2.78893 8.13641
2.83356 8.79616
2.87818 8.83062
2.92281 9.29276
2.96744 9.54776
3.01209 10.2782
3.05672 11.0386
3.10135 11.8908
3.14599 13.2789
3.19062 14.375
3.23527 15.1818
3.2799 15.4976
3.32454 16.5564
3.36917 17.5887
3.4138 18.5716
3.45844 19.8485
3.50309 20.688
3.54773 20.8447
3.59237 23.5702
3.637 69.2465
3.68164 47.3916
3.7263 25.5436
3.77094 25.9441
3.81558 27.0319
3.86022 27.18
3.90486 28.493
3.9495 29.3153
3.99416 30.2662
4.0388 31.531
4.08344 33.4087
4.12809 34.4942
4.17273 35.9728
4.21738 40.2647
4.26204 180.864
4.30669 157.004
4.35133 46.071
4.39598 43.555
4.44063 50.591
4.4853 58.9493
4.52995 50.4557
4.5746 51.9497
4.61925 52.6591
4.6639 55.3402
4.70855 57.5559
4.75322 60.516
4.79788 64.1961
4.84253 66.6314
4.88719 71.4801
4.93184 74.6349
4.97652 80.5041
5.02118 86.0897
5.06583 93.6313
5.11049 104.405
5.15515 158.694
5.19981 354.131
5.24449 2802.59
5.28916 12589.0
5.33382 2575.68
5.37848 178.244
5.42315 125.204
5.46783 111.954
5.5125 105.222
5.55716 100.498
5.60183 97.1247
5.6465 95.5417
5.69117 93.1564
5.73586 91.2727
5.78053 91.5409
5.8252 91.2372
5.86988 92.7287
5.91455 93.348
5.95924 102.403
6.00392 214.352
6.0486 953.049
6.09328 4526.88
6.13795 3116.04
6.18263 205.166
6.22733 90.0465
6.27201 80.1319
6.3167 91.9787
6.36138 76.5208
6.40606 68.0171
6.45075 66.6089
6.49545 64.3155
6.54014 62.8929
6.58483 62.1207
6.62952 61.7041
6.67421 83.1774
6.71892 115.511
6.76361 64.7916
6.8083 57.9839
6.853 57.2686
6.89769 56.1781
6.94239 55.6966
6.98711 55.3358
7.03181 55.1118
7.07651 54.5406
7.12121 54.8113
7.16591 54.476
7.21063 54.6483
7.25533 64.9808
7.30004 136.681
7.34475 78.2918
7.38945 55.2534
7.43416 53.4844
7.47889 53.5433
7.5236 53.6952
7.56831 54.7015
7.61303 55.5812
7.65774 55.99
7.70247 55.4078
7.74719 55.5784
7.79191 56.0065
7.83663 55.9341
7.88135 57.1323
7.92607 57.7003
7.97081 59.1208
8.01553 60.0729
8.06026 61.8002
8.10498 63.3917
8.14971 70.4074
8.19446 69.9616
8.23919 69.0134
8.28392 71.1699
8.32865 73.3726
8.37339 77.4109
8.41812 83.8622
8.46288 107.324
8.50761 169.285
8.55235 381.002
8.59709 1209.34
8.64183 2195.11
8.68658 858.542
8.73134 149.369
8.77609 96.9068
8.82083 91.1062
8.86558 88.9152
8.91033 88.6356
8.9551 89.2045
8.99985 84.0531
9.04461 82.5555
9.08936 82.0356
9.13412 81.2363
9.17888 81.1522
9.22365 81.6786
9.26841 81.1756
9.31318 82.2889
9.35794 82.3067
9.4027 82.8138
9.44749 83.2856
9.49226 83.9533
9.53703 84.9562
9.5818 86.954
9.62657 90.4949
9.67134 95.0313
9.71614 91.9416
9.76091 93.4109
9.80569 95.8038
9.85047 98.7164
9.89525 116.612
9.94005 129.504
9.98484 180.223
10.0296 341.091
10.0744 819.798
10.1192 1767.88
10.164 1512.63
10.2088 347.313
10.2536 120.079
10.2984 109.333
10.3432 110.324
10.388 103.411
10.4328 119.066
10.4776 160.435
10.5224 288.302
10.5672 532.451
10.612 484.975
10.6568 184.18
10.7017 93.1814
10.7465 85.0456
10.7913 81.9961
10.8361 80.191
10.8809 78.103
10.9257 77.3999
10.9706 77.1216
11.0154 73.6718
11.0602 71.8038
11.105 70.8139
11.1499 73.5558
11.1947 78.0025
11.2395 71.8021
11.2844 68.6961
11.3292 66.5796
11.374 65.2053
11.4189 64.8035
11.4637 63.8013
11.5086 64.3835
11.5534 66.1551
11.5983 63.9783
11.6431 62.7313
11.688 62.1999
11.7328 61.8616
11.7777 62.099
11.8225 61.8232
11.8674 61.7618
11.9122 62.1067
11.9571 62.355
12.002 63.1295
12.0468 67.3812
12.0917 77.511
12.1366 102.166
12.1814 157.567
12.2263 212.449
12.2712 166.445
12.3161 88.2245
12.3609 67.7271
12.4058 63.4926
12.4507 63.2706
12.4956 63.4488
12.5405 63.5957
12.5853 64.4885
12.6302 69.7719
12.6751 73.5238
12.72 68.0956
12.7649 66.8413
12.8098 67.7209
12.8547 68.7242
12.8996 70.1498
12.9445 71.3929
12.9894 73.4585
13.0343 75.104
13.0792 78.5733
13.1242 88.7894
13.1691 110.853
13.214 147.988
13.2589 244.63
13.3038 385.37
13.3487 423.676
13.3937 242.987
13.4386 117.419
13.4835 104.647
13.5285 119.093
13.5734 158.267
13.6183 254.695
13.6633 360.476
13.7082 329.208
13.7531 167.742
13.7981 92.727
13.843 80.4754
13.888 78.3422
13.9329 76.0458
13.9779 74.8172
14.0228 73.634
14.0678 72.0514
14.1127 71.811
14.1577 71.3642
14.2027 70.3781
14.2476 69.5198
14.2926 69.6201
14.3376 70.2092
14.3825 69.2051
14.4275 67.9403
14.4725 67.8016
14.5175 68.1222
14.5624 68.2923
14.6074 69.5774
14.6524 70.1524
14.6974 69.512
14.7424 71.7685
14.7874 78.4299
14.8324 88.1314
14.8774 110.401
14.9224 156.827
14.9674 214.43
15.0124 219.834
15.0574 141.982
15.1024 85.6251
15.1474 70.7306
15.1924 69.1458
15.2374 69.3113
15.2824 68.6496
15.3274 66.7223
15.3725 66.1746
15.4175 65.6315
15.4625 65.1401
15.5076 65.1159
15.5526 65.2742
15.5976 65.4381
15.6426 66.4932
15.6877 71.7785
15.7327 78.9249
15.7778 94.0606
15.8228 128.754
15.8679 178.803
15.9129 198.487
15.958 147.904
16.003 89.2835
16.0481 65.7919
16.0931 62.9933
16.1382 61.3902
16.1833 59.6346
16.2283 58.0753
16.2734 57.7262
16.3185 57.4379
16.3636 57.6936
16.4086 56.6445
16.4537 55.6691
16.4988 54.8406
16.5439 54.7898
16.589 54.4103
16.6341 54.1084
16.6792 53.9103
16.7243 54.1096
16.7694 54.3234
16.8145 54.1095
16.8596 54.3913
16.9047 55.4697
16.9498 55.8788
16.9949 55.0284
17.04 55.2536
17.0851 56.5215
17.1302 58.0591
17.1754 60.9573
17.2205 66.6521
17.2656 75.0584
17.3108 83.2132
17.3559 81.425
17.401 68.9231
17.4462 60.8287
17.4913 58.4589
17.5365 58.4581
17.5815 58.5571
17.6268 58.9919
17.6718 59.8769
17.7171 59.9886
17.7622 60.8168
17.8074 61.3496
17.8525 63.766
17.8977 67.6895
17.9428 73.0874
17.9881 82.1929
18.0331 100.864
18.0784 125.301
18.1237 141.694
18.1688 127.21
18.214 98.39
18.2591 84.575
18.3044 90.7189
18.3495 101.531
18.3948 105.97
18.4399 92.932
18.4852 74.443
18.5303 64.3412
18.5756 61.1072
18.6207 60.3141
18.666 59.5814
18.7112 58.9946
18.7565 58.2371
18.8016 58.0727
18.8469 57.4449
18.892 57.0682
18.9374 56.4746
18.9825 56.2413
19.0278 56.2244
19.073 56.3006
19.1183 56.8975
19.1635 57.3161
19.2088 58.6971
19.254 61.542
19.2993 66.1831
19.3447 72.7502
19.3898 76.0079
19.4352 70.3032
19.4804 61.2404
19.5257 55.4277
19.5709 53.6758
19.6163 53.3132
19.6615 53.3182
19.7068 52.9262
19.752 52.8923
19.7974 53.0753
19.8426 53.8417
19.888 54.4761
19.9332 55.6628
19.9786 58.2648
20.0238 62.5359
20.0692 67.5716
20.1144 69.705
20.1598 67.0515
20.205 62.2602
20.2504 61.6077
20.2957 64.036
20.3411 65.3759
20.3863 63.1826
20.4318 57.0324
20.477 52.3677
20.5224 50.7652
20.5677 50.3135
20.6131 49.7097
20.6586 48.9786
20.7038 49.0963
20.7493 48.6597
20.7945 48.3975
20.84 48.263
20.8853 47.9906
20.9307 48.1445
20.976 48.1963
21.0215 48.1079
21.0668 48.3776
21.1122 48.9951
21.1575 49.705
21.203 50.5453
21.2483 51.0934
21.2938 50.7723
21.3391 49.272
21.3846 48.1303
21.4299 47.9038
21.4754 47.857
21.5207 48.0534
21.5662 48.1808
21.6116 48.7898
21.6571 49.469
21.7024 50.4018
21.7479 52.1503
21.7933 55.2017
21.8388 59.0198
21.8843 62.8042
21.9297 64.0284
21.9752 61.9623
22.0206 58.0621
22.0661 55.7137
22.1115 55.6478
22.157 55.2258
22.2024 53.2033
22.248 50.3351
22.2933 49.1398
22.3389 48.5256
22.3843 48.3863
22.4299 48.2068
22.4753 48.3742
22.5208 47.9321
22.5662 48.0461
22.6118 48.2037
22.6572 48.4743
22.7028 48.7703
22.7483 49.1669
22.7939 49.9942
22.8393 51.6187
22.8849 53.8351
22.9303 56.0923
22.9759 57.6086
23.0214 56.6077
23.067 53.5316
23.1126 50.1428
23.1581 48.517
23.2037 48.3177
23.2492 48.4058
23.2948 48.4405
23.3403 48.5358
23.3859 49.2733
23.4314 50.3419
23.477 52.4253
23.5225 54.6412
23.5682 56.9887
23.6137 57.549
23.6593 54.6397
23.7048 50.4667
23.7505 47.4699
23.796 46.1138
23.8417 45.5253
23.8872 44.9706
23.9329 44.7449
23.9784 44.4208
24.0241 44.0771
24.0697 44.1231
24.1154 43.5928
24.1609 43.503
24.2066 43.3393
24.2522 43.2148
24.2979 42.8918
24.3434 42.7341
24.3892 42.6376
24.4349 42.6466
24.4805 42.4071
24.5262 42.6816
24.5718 42.5481
24.6175 42.5198
24.6631 42.3566
24.7089 42.0349
24.7545 41.8473
24.8002 41.7763
24.8458 41.7699
24.8916 41.5768
24.9372 41.8112
24.983 42.1048
25.0286 42.5622
25.0744 42.8504
25.12 43.3154
25.1658 44.0298
25.2114 44.2003
25.2572 44.349
25.3029 44.5458
25.3487 44.5596
25.3943 44.2353
25.4402 42.8431
25.4858 41.8222
25.5316 40.8035
25.5773 40.5334
25.6231 40.4097
25.669 40.1829
25.7147 40.2561
25.7605 40.068
25.8062 40.1193
25.8521 40.1962
25.8977 40.0843
25.9436 40.5243
25.9893 40.4857
26.0352 41.2092
26.0809 41.2399
26.1268 41.2959
26.1725 40.7335
26.2184 40.2991
26.2641 39.7292
26.31 39.6759
26.3557 39.6923
26.4017 39.711
26.4474 39.9858
26.4933 40.325
26.5391 40.8466
26.585 41.3767
26.6308 41.711
26.6767 41.7979
26.7225 41.493
26.7684 40.8806
26.8142 40.3488
26.8601 40.0008
26.9059 39.4595
26.9519 38.9844
26.9979 38.8536
27.0437 38.4474
27.0896 38.3803
27.1354 38.37
27.1814 38.2425
27.2272 38.2885
27.2732 38.1141
27.3191 37.8946
27.3651 38.0472
27.4109 37.9211
27.4569 38.1891
27.5027 38.1885
27.5488 38.2528
27.5946 37.9397
27.6407 37.7354
27.6865 37.8438
27.7326 37.561
27.7784 37.4824
27.8245 37.4211
27.8703 37.651
27.9164 37.9655
27.9623 38.0118
28.0084 38.3965
28.0543 38.7549
28.1003 38.8309
28.1462 38.4921
28.1923 37.9626
28.2384 37.5599
28.2843 37.2337
28.3304 36.6742
28.3764 36.2029
28.4225 36.0574
28.4684 35.7944
28.5145 35.6167
28.5605 35.5127
28.6066 35.2737
28.6526 35.2179
28.6987 35.2949
28.7447 35.2007
28.7908 35.0635
28.8368 35.1049
28.8829 35.0531
28.9289 35.0294
28.9751 34.8285
29.0211 34.478
29.0673 34.3248
29.1133 34.1637
29.1595 34.072
29.2055 33.8859
29.2517 34.0813
29.2977 33.987
29.3439 33.9766
29.3899 33.916
29.4361 33.9202
29.4824 33.5946
29.5284 33.3208
29.5746 33.1472
29.6207 32.7337
29.6669 32.8252
29.713 32.7027
29.7593 32.595
29.8053 32.5946
29.8516 32.4907
29.8977 32.4505
29.9439 32.2691
29.99 32.2888
30.0363 32.1472
30.0824 32.181
30.1287 32.0744
30.1748 32.1225
30.2211 32.1017
30.2673 31.9249
30.3136 32.0125
30.3597 31.9705
30.406 31.8901
30.4522 31.717
30.4985 31.7563
30.5447 31.8549
30.591 31.7677
30.6372 31.8792
30.6835 31.94
30.7297 31.9403
30.7761 31.8359
30.8224 31.6488
30.8686 31.6371
30.915 31.2536
30.9612 31.1054
31.0076 30.9422
31.0538 30.807
31.1002 30.8067
31.1464 30.6866
31.1928 30.5935
31.2391 30.5459
31.2855 30.4579
31.3317 30.5266
31.3781 30.6321
31.4244 30.5911
31.4708 30.6001
31.5171 30.4355
31.5636 30.4585
31.6098 30.2174
31.6563 30.0367
31.7026 29.8829
31.7491 29.8133
31.7953 29.8468
31.8418 29.8105
31.8881 29.7954
31.9346 29.7529
31.9809 29.7385
32.0275 29.6178
32.074 29.4959
32.1203 29.323
32.1668 29.2243
32.2132 28.9864
32.2597 28.8832
32.306 28.9203
32.3526 28.6419
32.399 28.6369
32.4455 28.4546
32.4919 28.3978
32.5385 28.4085
32.5848 28.2493
32.6314 28.3117
32.6778 28.1131
32.7244 27.9694
32.7708 27.9193
32.8174 27.9178
32.8638 27.7669
32.9104 27.8017
32.9569 27.7173
33.0035 27.5479
33.0499 27.5697
33.0966 27.4467
33.143 27.5237
33.1897 27.4332
33.2361 27.3313
33.2828 27.3154
33.3293 27.0791
33.3759 27.0703
33.4226 26.9803
33.4691 26.8136
33.5158 26.74
33.5623 26.7065
33.609 26.5321
33.6555 26.4492
33.7022 26.3226
33.7487 26.2723
33.7954 26.2732
33.842 26.1441
33.8887 25.9957
33.9353 25.9719
33.982 25.8373
34.0286 25.7408
34.0753 25.7099
34.1219 25.6908
34.1687 25.5868
34.2152 25.4826
34.262 25.3509
34.3086 25.2953
34.3554 25.228
34.402 25.1549
34.4488 25.0015
34.4954 25.016
34.5422 24.9143
34.5889 24.7953
34.6357 24.7768
34.6825 24.7073
34.7292 24.5977
34.776 24.4342
34.8227 24.4229
34.8695 24.3892
34.9162 24.3624
34.9631 24.2178
35.0098 24.2493
35.0566 24.0969
35.1033 24.0564
35.1502 24.0705
35.1969 23.961
35.2438 23.998
35.2906 23.8074
35.3375 23.8522
35.3842 23.7391
35.4311 23.7697
35.4779 23.7112
35.5248 23.6628
35.5716 23.5135
35.6185 23.5397
35.6653 23.3451
35.7123 23.3057
35.759 23.2801
35.806 23.0716
35.8528 23.0795
35.8998 23.0141
35.9468 22.8867
35.9936 22.8571
36.0406 22.7814
36.0874 22.7869
36.1345 22.6595
36.1813 22.5998
36.2283 22.4734
36.2752 22.4105
36.3222 22.446
36.3691 22.3435
36.4161 22.2345
36.463 22.2757
36.5101 22.1973
36.557 22.113
36.6041 21.9876
36.651 21.9722
36.6981 21.8514
36.745 21.8411
36.7921 21.7854
36.839 21.6687
36.8861 21.594
36.9331 21.508
36.9802 21.4426
37.0272 21.2961
37.0743 21.3597
37.1213 21.2662
37.1684 21.1348
37.2154 21.1494
37.2626 21.0371
37.3098 21.0479
37.3568 20.9112
37.404 20.8701
37.451 20.7079
37.4982 20.7458
37.5452 20.6632
37.5924 20.5944
37.6395 20.6042
37.6867 20.485
37.7337 20.3726
37.781 20.3014
37.8281 20.2553
37.8753 20.2265
37.9224 20.1891
37.9697 19.9903
38.0168 20.0363
38.064 19.9154
38.1111 19.8838
38.1584 19.8085
38.2056 19.7797
38.2529 19.7137
38.3 19.6439
38.3473 19.5853
38.3945 19.4488
38.4418 19.4897
38.489 19.4645
38.5363 19.314
38.5837 19.2071
38.6309 19.2435
38.6782 19.0877
38.7254 19.0264
38.7728 19.0296
38.82 18.9714
38.8674 18.9226
38.9146 18.8023
38.9621 18.7217
39.0093 18.7821
39.0567 18.6638
39.104 18.5992
39.1514 18.56
39.1987 18.491
39.2461 18.4529
39.2934 18.4023
39.3409 18.2264
39.3882 18.2494
39.4356 18.1547
39.483 18.0796
39.5304 18.0419
39.5778 18.011
39.6253 17.9524
39.6726 17.8946
39.7201 17.8162
39.7675 17.8425
39.815 17.6947
39.8624 17.6165
39.9099 17.6564
39.9575 17.5072
40.0049 17.5087
40.0525 17.4538
40.0999 17.3756
40.1474 17.3529
40.1949 17.2636
40.2425 17.1811
40.2899 17.1825
40.3375 17.0595
40.385 17.0904
40.4326 17.0092
40.48 16.8981
40.5277 16.9914
40.5752 16.8506
40.6228 16.7408
40.6703 16.6701
40.718 16.6736
40.7655 16.6539
40.8132 16.5448
40.8607 16.5504
40.9084 16.5252
40.9559 16.4821
41.0036 16.3757
41.0512 16.3985
41.0989 16.3004
41.1465 16.2562
41.1942 16.1191
41.242 16.0742
41.2896 16.0341
41.3373 15.9769
41.3849 15.9988
41.4327 15.8777
41.4803 15.8036
41.5281 15.7715
41.5758 15.7071
41.6236 15.6665
41.6712 15.6335
41.7191 15.5803
41.7667 15.5032
41.8146 15.5284
41.8622 15.4328
41.9101 15.3914
41.9578 15.3091
42.0057 15.2823
42.0534 15.2041
42.1013 15.193
42.149 15.075
42.1969 15.0245
42.2446 15.0489
42.2925 15.0347
42.3403 14.8808
42.3882 14.9029
42.436 14.8096
42.4839 14.7611
42.5319 14.7454
42.5797 14.6277
42.6277 14.5922
42.6755 14.6258
42.7235 14.4869
42.7713 14.4777
42.8193 14.4186
42.8671 14.374
42.9152 14.3435
42.963 14.2789
43.0111 14.1805
43.0589 14.2094
43.107 14.0735
43.1549 14.158
43.2029 14.033
43.2508 14.0073
43.2989 13.9374
43.3468 13.8501
43.3949 13.7815
43.4429 13.8125
43.491 13.7287
43.5389 13.6708
43.5871 13.6704
43.635 13.5602
43.6832 13.5692
43.7312 13.5049
43.7793 13.4689
43.8273 13.4197
43.8755 13.3471
43.9237 13.3057
43.9717 13.2641
44.0199 13.2651
44.068 13.1828
44.1162 13.1355
44.1642 13.16
44.2125 13.0726
44.2606 12.9886
44.3088 12.9831
44.3569 12.9081
44.4052 12.8527
44.4533 12.7956
44.5016 12.7655
44.5497 12.75
44.598 12.7164
44.6461 12.643
44.6945 12.6016
44.7426 12.5691
44.791 12.5442
44.8391 12.4813
44.8875 12.3962
44.9357 12.3375
44.984 12.354
45.0322 12.2792
45.0806 12.2356
45.1288 12.2403
45.1773 12.1187
45.2257 12.0886
45.2739 12.0515
45.3224 12.0294
45.3706 11.9906
45.4191 11.8945
45.4673 11.8934
45.5158 11.8841
45.5641 11.8116
45.6126 11.7637
45.6609 11.7145
45.7094 11.6901
45.7577 11.6599
45.8063 11.5906
45.8546 11.6373
45.9031 11.5197
45.9515 11.4464
46.0001 11.4404
46.0484 11.4005
46.097 11.3814
46.1454 11.3127
46.194 11.3304
46.2424 11.247
46.291 11.1926
46.3395 11.1488
46.3881 11.1136
46.4365 11.0886
46.4852 11.005
46.5337 11.0315
46.5823 10.9729
46.631 10.9056
46.6795 10.9055
46.7282 10.8631
46.7767 10.7987
46.8254 10.7743
46.8739 10.7137
46.9226 10.6671
46.9712 10.6398
47.0199 10.6021
47.0685 10.549
47.1173 10.529
47.1658 10.466
47.2146 10.4784
47.2632 10.399
47.312 10.3733
47.3606 10.3312
47.4095 10.3214
47.4581 10.2606
47.5069 10.1952
47.5556 10.1591
47.6044 10.139
47.6531 10.0906
47.702 10.0392
47.7507 9.99096
47.7996 10.0004
47.8483 9.99178
47.8972 9.97298
47.9461 9.86785
47.9948 9.8586
48.0438 9.82011
48.0925 9.7927
48.1415 9.77396
48.1902 9.6843
48.2392 9.70505
48.288 9.64691
48.337 9.61672
48.3858 9.58049
48.4348 9.52116
48.4837 9.55733
48.5327 9.4695
48.5815 9.44022
48.6306 9.42768
48.6795 9.36971
48.7285 9.31116
48.7774 9.34482
48.8265 9.2614
48.8754 9.22396
48.9245 9.19257
48.9734 9.18187
49.0226 9.14892
49.0715 9.09844
49.1206 9.09978
49.1696 8.9957
49.2188 9.00471
49.2679 8.95496
49.3169 8.92748
49.3661 8.86503
49.4151 8.83103
49.4643 8.8007
49.5134 8.77944
49.5626 8.74582
49.6117 8.72669
49.6609 8.68759
49.71 8.61721
49.7592 8.60442
49.8083 8.53268
49.8576 8.56034
49.9067 8.49039
49.956 8.50275
50.0052 8.43012
50.0545 8.41295
50.1036 8.40517
50.153 8.36022
50.2022 8.32005
50.2515 8.27759
50.3007 8.23646
50.3501 8.19027
50.3993 8.19119
50.4487 8.15955
50.498 8.10852
50.5474 8.09506
50.5966 8.05812
50.6461 7.96457
50.6955 8.01347
50.7448 7.99894
50.7943 7.94548
50.8436 7.93547
50.8931 7.89837
50.9424 7.88947
50.9919 7.83088
51.0413 7.78839
51.0908 7.78062
51.1402 7.69931
51.1897 7.69324
51.2391 7.67297
51.2887 7.61648
51.3381 7.5878
51.3877 7.5895
51.4371 7.54785
51.4867 7.50906
51.5362 7.47168
51.5858 7.42226
51.6353 7.42783
51.6849 7.41115
51.7344 7.33361
51.7841 7.32872
51.8336 7.3114
51.8833 7.25399
51.9328 7.20671
51.9826 7.18693
52.0323 7.18821
52.0818 7.15797
52.1316 7.06974
52.1812 7.05945
52.231 7.03849
52.2806 7.01986
52.3304 6.98404
52.38 6.97292
52.4298 6.9373
52.4794 6.87653
52.5293 6.86655
52.5789 6.86993
52.6288 6.78037
52.6785 6.78436
52.7284 6.77952
52.7781 6.74465
52.828 6.69777
52.8777 6.68975
52.9276 6.64119
52.9774 6.60702
53.0273 6.60233
53.0771 6.59347
53.1271 6.56145
53.1769 6.54348
53.2269 6.51964
53.2767 6.44809
53.3267 6.44821
53.3765 6.38837
53.4266 6.37913
53.4766 6.36215
53.5265 6.35031
53.5765 6.30807
53.6264 6.27165
53.6765 6.22354
53.7264 6.2196
53.7765 6.20408
53.8265 6.17102
53.8766 6.13058
53.9266 6.12237
53.9767 6.10645
54.0267 6.03014
54.0769 6.03264
54.1269 6.00717
54.1771 5.9718
54.2271 5.92787
54.2773 5.89108
54.3274 5.88241
54.3776 5.8724
54.4277 5.79007
54.478 5.76333
54.528 5.67649
54.5783 5.72517
54.6285 5.66428
54.6788 5.62535
54.7289 5.59994
54.7792 5.58793
54.8296 5.46004
54.8798 5.40728
54.9301 5.4505
54.9803 5.40611
55.0307 5.36664
55.0809 5.29335
55.1314 5.33758
55.1816 5.22075
55.232 5.1792
55.2823 5.15197
55.3328 5.06878
55.383 5.04994
55.4335 4.97221
55.4838 4.92493
55.5344 4.93568
55.5847 4.89124
55.6352 4.84428
55.6856 4.76605
55.7361 4.80507