File: XRD/Ni3Fe_FD0534.xy
TT I
1.27165 7.53036
1.31627 6.90565
1.36089 6.90445
1.40551 6.01414
1.45013 6.60017
1.49476 5.85831
1.53938 5.98515
1.584 5.65959
1.62863 5.73599
1.67325 4.90124
1.71787 5.11333
1.7625 5.04205
1.80712 4.9794
1.85174 5.05402
1.89636 4.58935
1.94099 4.8805
1.98562 4.7408
2.03025 4.43694
2.07487 4.96221
2.11949 4.79974
2.16411 5.2207
2.20874 16.9516
2.25338 28.883
2.298 6.43271
2.34263 5.34867
2.38725 5.88895
2.43188 6.23008
2.4765 6.37254
2.52115 6.57476
2.56577 7.59934
2.6104 8.41482
2.65503 7.48561
2.69965 7.93084
2.7443 7.54136
2.78893 7.84672
2.83356 8.41705
2.87818 9.22614
2.92281 8.93162
2.96744 8.96393
3.01209 10.2511
3.05672 10.891
3.10135 12.4111
3.14599 13.2577
3.19062 14.4196
3.23527 15.2873
3.2799 15.5546
3.32454 17.4306
3.36917 17.9036
3.4138 18.8959
3.45844 20.117
3.50309 20.994
3.54773 22.3419
3.59237 24.7805
3.637 115.436
3.68164 72.1137
3.7263 27.0667
3.77094 26.5717
3.81558 27.1533
3.86022 28.1042
3.90486 29.5304
3.9495 30.2257
3.99416 31.434
4.0388 32.5831
4.08344 34.525
4.12809 35.4948
4.17273 37.9165
4.21738 45.6084
4.26204 311.121
4.30669 283.343
4.35133 51.1797
4.39598 45.5872
4.44063 57.6819
4.4853 72.5295
4.52995 51.1049
4.5746 51.6365
4.61925 53.8873
4.6639 55.8484
4.70855 58.5124
4.75322 61.4253
4.79788 64.2783
4.84253 67.7008
4.88719 71.7274
4.93184 75.476
4.97652 80.7875
5.02118 87.2898
5.06583 94.8501
5.11049 107.586
5.15515 193.138
5.19981 370.609
5.24449 2716.94
5.28916 11789.3
5.33382 3331.77
5.37848 206.505
5.42315 133.205
5.46783 116.013
5.5125 107.78
5.55716 103.303
5.60183 99.8525
5.6465 98.0891
5.69117 95.0014
5.73586 93.4721
5.78053 92.1719
5.8252 91.6961
5.86988 93.0445
5.91455 94.9062
5.95924 102.513
6.00392 206.601
6.0486 935.012
6.09328 4086.9
6.13795 3540.16
6.18263 298.308
6.22733 97.2932
6.27201 85.7783
6.3167 112.779
6.36138 85.2055
6.40606 69.9354
6.45075 68.3384
6.49545 66.3203
6.54014 64.9398
6.58483 63.9742
6.62952 63.8955
6.67421 104.046
6.71892 174.743
6.76361 73.0498
6.8083 59.4995
6.853 58.5065
6.89769 58.0649
6.94239 57.8283
6.98711 56.6383
7.03181 56.4252
7.07651 56.3623
7.12121 56.358
7.16591 56.4655
7.21063 57.1414
7.25533 75.1231
7.30004 223.811
7.34475 106.242
7.38945 58.28
7.43416 55.9543
7.47889 55.218
7.5236 55.7975
7.56831 56.4158
7.61303 58.3631
7.65774 59.3042
7.70247 57.2889
7.74719 56.8401
7.79191 57.5551
7.83663 57.5925
7.88135 58.6312
7.92607 59.3624
7.97081 60.4718
8.01553 61.3482
8.06026 62.8414
8.10498 64.9369
8.14971 76.855
8.19446 74.9294
8.23919 70.4479
8.28392 72.4328
8.32865 74.6667
8.37339 78.7677
8.41812 86.5736
8.46288 122.533
8.50761 164.572
8.55235 376.957
8.59709 1097.84
8.64183 2156.0
8.68658 1088.05
8.73134 196.582
8.77609 102.269
8.82083 94.3566
8.86558 90.588
8.91033 90.914
8.9551 94.769
8.99985 86.8309
9.04461 84.0565
9.08936 83.3988
9.13412 82.3881
9.17888 82.5827
9.22365 84.1181
9.26841 83.0199
9.31318 83.1502
9.35794 83.1868
9.4027 83.8001
9.44749 84.4239
9.49226 84.9628
9.53703 85.7133
9.5818 87.9634
9.62657 93.5752
9.67134 102.412
9.71614 95.0317
9.76091 94.6242
9.80569 96.8804
9.85047 100.761
9.89525 131.627
9.94005 146.008
9.98484 174.417
10.0296 332.456
10.0744 748.261
10.1192 1613.18
10.164 1706.96
10.2088 468.168
10.2536 134.997
10.2984 116.956
10.3432 120.151
10.388 106.704
10.4328 117.466
10.4776 157.67
10.5224 268.184
10.5672 494.443
10.612 545.682
10.6568 226.578
10.7017 100.628
10.7465 88.0351
10.7913 84.3237
10.8361 81.814
10.8809 79.6263
10.9257 80.0582
10.9706 81.1959
11.0154 76.0046
11.0602 73.8374
11.105 73.0211
11.1499 78.9027
11.1947 89.3446
11.2395 77.382
11.2844 72.4163
11.3292 68.1212
11.374 66.9889
11.4189 66.4581
11.4637 65.6627
11.5086 66.6049
11.5534 70.5674
11.5983 66.82
11.6431 64.6828
11.688 63.6056
11.7328 63.7685
11.7777 63.888
11.8225 63.0375
11.8674 62.8034
11.9122 63.4376
11.9571 63.7905
12.002 64.534
12.0468 67.7979
12.0917 79.2591
12.1366 102.21
12.1814 147.998
12.2263 203.173
12.2712 177.878
12.3161 105.409
12.3609 73.8269
12.4058 66.1621
12.4507 65.094
12.4956 65.338
12.5405 65.1897
12.5853 66.5556
12.6302 76.512
12.6751 83.9896
12.72 72.3868
12.7649 68.656
12.8098 68.8508
12.8547 70.4285
12.8996 71.6978
12.9445 72.6739
12.9894 74.7043
13.0343 76.2834
13.0792 79.5402
13.1242 87.7751
13.1691 111.784
13.214 146.233
13.2589 225.395
13.3038 348.925
13.3487 437.775
13.3937 291.998
13.4386 132.25
13.4835 106.424
13.5285 119.812
13.5734 153.763
13.6183 231.883
13.6633 334.245
13.7082 354.943
13.7531 203.466
13.7981 103.448
13.843 83.3137
13.888 80.498
13.9329 77.8108
13.9779 76.6203
14.0228 75.1718
14.0678 73.8539
14.1127 73.4215
14.1577 73.6299
14.2027 72.4005
14.2476 71.1955
14.2926 71.5565
14.3376 73.2552
14.3825 71.3408
14.4275 69.8201
14.4725 69.3397
14.5175 69.6417
14.5624 69.6624
14.6074 72.481
14.6524 73.086
14.6974 71.3231
14.7424 72.3341
14.7874 78.8016
14.8324 88.6279
14.8774 107.985
14.9224 145.944
14.9674 198.234
15.0124 221.383
15.0574 160.706
15.1024 96.6069
15.1474 73.8713
15.1924 71.4305
15.2374 72.9905
15.2824 72.219
15.3274 68.9991
15.3725 67.7463
15.4175 67.2381
15.4625 66.9446
15.5076 67.2242
15.5526 66.8925
15.5976 66.3971
15.6426 67.1967
15.6877 72.216
15.7327 79.5866
15.7778 93.6769
15.8228 120.988
15.8679 162.513
15.9129 193.629
15.958 165.197
16.003 103.572
16.0481 70.7203
16.0931 66.7031
16.1382 64.4426
16.1833 61.9231
16.2283 59.9501
16.2734 59.3228
16.3185 59.726
16.3636 61.0239
16.4086 59.0485
16.4537 57.0773
16.4988 56.3119
16.5439 56.1835
16.589 56.0111
16.6341 55.6345
16.6792 55.192
16.7243 55.6914
16.7694 55.7491
16.8145 55.4125
16.8596 56.1346
16.9047 57.9359
16.9498 58.3274
16.9949 56.7879
17.04 56.6668
17.0851 57.5798
17.1302 59.0536
17.1754 62.0468
17.2205 66.4661
17.2656 73.5786
17.3108 81.6435
17.3559 82.8368
17.401 73.9451
17.4462 63.7693
17.4913 59.8175
17.5365 59.7343
17.5815 59.8839
17.6268 60.2943
17.6718 61.1776
17.7171 61.8574
17.7622 61.9068
17.8074 62.2925
17.8525 64.4026
17.8977 68.5507
17.9428 73.8367
17.9881 81.7504
18.0331 96.8785
18.0784 117.08
18.1237 137.832
18.1688 135.533
18.214 109.056
18.2591 88.3791
18.3044 89.4235
18.3495 98.8676
18.3948 106.974
18.4399 100.922
18.4852 81.4815
18.5303 67.6469
18.5756 63.0921
18.6207 62.0631
18.666 61.0383
18.7112 60.4418
18.7565 59.6399
18.8016 59.3662
18.8469 58.6378
18.892 58.4273
18.9374 58.1412
18.9825 57.6924
19.0278 57.7255
19.073 57.5948
19.1183 58.0925
19.1635 58.8204
19.2088 60.064
19.254 62.083
19.2993 66.1266
19.3447 72.0173
19.3898 76.9429
19.4352 74.2798
19.4804 65.1028
19.5257 57.8506
19.5709 55.1464
19.6163 54.4843
19.6615 54.4571
19.7068 54.0187
19.752 53.9963
19.7974 54.2503
19.8426 55.0542
19.888 55.5467
19.9332 56.6323
19.9786 59.0409
20.0238 61.8855
20.0692 66.5491
20.1144 70.4991
20.1598 69.7707
20.205 64.6525
20.2504 62.4788
20.2957 63.5709
20.3411 66.0434
20.3863 65.298
20.4318 59.8256
20.477 54.93
20.5224 52.6782
20.5677 51.7095
20.6131 50.9673
20.6586 50.2521
20.7038 50.1031
20.7493 49.6125
20.7945 49.5491
20.84 49.48
20.8853 49.0463
20.9307 49.0469
20.976 49.1535
21.0215 49.1327
21.0668 49.6829
21.1122 49.9572
21.1575 50.5601
21.203 51.2216
21.2483 51.8983
21.2938 52.0674
21.3391 50.8643
21.3846 49.7141
21.4299 49.1179
21.4754 49.0531
21.5207 49.0791
21.5662 49.4939
21.6116 49.5047
21.6571 50.3104
21.7024 51.1245
21.7479 52.9622
21.7933 55.2972
21.8388 58.4508
21.8843 62.3176
21.9297 65.2228
21.9752 64.6302
22.0206 61.0918
22.0661 57.2495
22.1115 56.3926
22.157 56.7014
22.2024 55.416
22.248 52.3588
22.2933 50.6407
22.3389 49.6042
22.3843 49.7294
22.4299 49.6101
22.4753 49.5544
22.5208 49.1797
22.5662 48.9241
22.6118 49.0803
22.6572 49.4544
22.7028 49.682
22.7483 50.0939
22.7939 50.907
22.8393 52.362
22.8849 54.1178
22.9303 56.2161
22.9759 58.2733
23.0214 58.3781
23.067 55.8945
23.1126 52.2522
23.1581 49.8687
23.2037 49.4928
23.2492 49.3355
23.2948 49.2488
23.3403 49.6995
23.3859 50.2551
23.4314 50.9974
23.477 52.6751
23.5225 54.7472
23.5682 56.9781
23.6137 58.4785
23.6593 56.8475
23.7048 52.9955
23.7505 49.1884
23.796 47.3243
23.8417 46.6964
23.8872 46.112
23.9329 45.7836
23.9784 45.4405
24.0241 45.1537
24.0697 45.0648
24.1154 44.6582
24.1609 44.6167
24.2066 44.2913
24.2522 44.3669
24.2979 43.9677
24.3434 43.8621
24.3892 43.5775
24.4349 43.5878
24.4805 43.4491
24.5262 43.6306
24.5718 43.4855
24.6175 43.523
24.6631 43.3036
24.7089 43.161
24.7545 42.7898
24.8002 42.9118
24.8458 42.7215
24.8916 42.5415
24.9372 42.6189
24.983 43.0333
25.0286 43.2617
25.0744 43.5234
25.12 44.0329
25.1658 44.8311
25.2114 45.0913
25.2572 45.1859
25.3029 45.1939
25.3487 45.4345
25.3943 45.2516
25.4402 44.2847
25.4858 43.3755
25.5316 42.1384
25.5773 41.3684
25.6231 41.3058
25.669 41.1723
25.7147 40.8828
25.7605 40.9612
25.8062 41.1372
25.8521 41.1398
25.8977 41.0282
25.9436 41.3315
25.9893 41.3788
26.0352 41.8532
26.0809 41.88
26.1268 42.1564
26.1725 41.9775
26.2184 41.4435
26.2641 40.8802
26.31 40.7232
26.3557 40.6431
26.4017 40.6061
26.4474 40.7783
26.4933 41.0691
26.5391 41.5451
26.585 42.0108
26.6308 42.3861
26.6767 42.6195
26.7225 42.5543
26.7684 41.9944
26.8142 41.4385
26.8601 40.9052
26.9059 40.4625
26.9519 39.894
26.9979 39.7045
27.0437 39.3543
27.0896 39.2501
27.1354 39.176
27.1814 38.9938
27.2272 38.9265
27.2732 38.8487
27.3191 38.7555
27.3651 39.0377
27.4109 38.8432
27.4569 38.8114
27.5027 38.9195
27.5488 38.9812
27.5946 38.7397
27.6407 38.5922
27.6865 38.6073
27.7326 38.3113
27.7784 38.3812
27.8245 38.2504
27.8703 38.3193
27.9164 38.7434
27.9623 38.7264
28.0084 39.1014
28.0543 39.448
28.1003 39.5648
28.1462 39.294
28.1923 38.9655
28.2384 38.4418
28.2843 38.1694
28.3304 37.705
28.3764 37.2602
28.4225 36.8771
28.4684 36.7575
28.5145 36.4922
28.5605 36.3072
28.6066 36.147
28.6526 36.1188
28.6987 36.0605
28.7447 35.9294
28.7908 35.9549
28.8368 35.8617
28.8829 35.8582
28.9289 35.8219
28.9751 35.5587
29.0211 35.4398
29.0673 35.1229
29.1133 34.9196
29.1595 34.8192
29.2055 34.7664
29.2517 34.7996
29.2977 34.623
29.3439 34.6877
29.3899 34.6729
29.4361 34.612
29.4824 34.4105
29.5284 34.177
29.5746 33.8766
29.6207 33.6228
29.6669 33.5105
29.713 33.4483
29.7593 33.264
29.8053 33.3943
29.8516 33.2146
29.8977 33.1859
29.9439 32.9733
29.99 32.9252
30.0363 32.893
30.0824 32.8469
30.1287 32.8112
30.1748 32.8478
30.2211 32.9021
30.2673 32.6174
30.3136 32.7112
30.3597 32.7136
30.406 32.5803
30.4522 32.5051
30.4985 32.4004
30.5447 32.4763
30.591 32.494
30.6372 32.5348
30.6835 32.5164
30.7297 32.6296
30.7761 32.5573
30.8224 32.4601
30.8686 32.3632
30.915 32.053
30.9612 31.8934
31.0076 31.6047
31.0538 31.5823
31.1002 31.4901
31.1464 31.3448
31.1928 31.4168
31.2391 31.3902
31.2855 31.3086
31.3317 31.2504
31.3781 31.2938
31.4244 31.2829
31.4708 31.2028
31.5171 31.1657
31.5636 31.0895
31.6098 30.9076
31.6563 30.7676
31.7026 30.5073
31.7491 30.4529
31.7953 30.5958
31.8418 30.4521
31.8881 30.4888
31.9346 30.4443
31.9809 30.3247
32.0275 30.3532
32.074 30.1473
32.1203 30.0099
32.1668 29.9802
32.2132 29.8011
32.2597 29.6466
32.306 29.627
32.3526 29.4266
32.399 29.2768
32.4455 29.14
32.4919 29.0437
32.5385 28.9847
32.5848 28.7398
32.6314 28.8346
32.6778 28.7552
32.7244 28.7153
32.7708 28.4954
32.8174 28.5672
32.8638 28.2994
32.9104 28.4118
32.9569 28.3701
33.0035 28.1601
33.0499 28.2724
33.0966 28.1812
33.143 28.1083
33.1897 28.0285
33.2361 27.9646
33.2828 27.8559
33.3293 27.7467
33.3759 27.7865
33.4226 27.597
33.4691 27.4845
33.5158 27.3798
33.5623 27.2723
33.609 27.0685
33.6555 26.9865
33.7022 26.9478
33.7487 26.8458
33.7954 26.7736
33.842 26.6575
33.8887 26.7033
33.9353 26.6275
33.982 26.5082
34.0286 26.3844
34.0753 26.3188
34.1219 26.2221
34.1687 26.1613
34.2152 26.1576
34.262 25.9629
34.3086 25.8473
34.3554 25.7828
34.402 25.7022
34.4488 25.6371
34.4954 25.6019
34.5422 25.4996
34.5889 25.3608
34.6357 25.2637
34.6825 25.264
34.7292 25.1611
34.776 25.0991
34.8227 24.9693
34.8695 24.9996
34.9162 24.9562
34.9631 24.7718
35.0098 24.8528
35.0566 24.6256
35.1033 24.5753
35.1502 24.6079
35.1969 24.5711
35.2438 24.411
35.2906 24.473
35.3375 24.2885
35.3842 24.3756
35.4311 24.2614
35.4779 24.2843
35.5248 24.2157
35.5716 24.1344
35.6185 24.0466
35.6653 23.8743
35.7123 23.8478
35.759 23.7769
35.806 23.6611
35.8528 23.5363
35.8998 23.5689
35.9468 23.427
35.9936 23.3654
36.0406 23.2875
36.0874 23.2029
36.1345 23.2344
36.1813 23.1101
36.2283 23.0147
36.2752 22.9276
36.3222 22.983
36.3691 22.7556
36.4161 22.7675
36.463 22.6697
36.5101 22.7348
36.557 22.6029
36.6041 22.4572
36.651 22.3994
36.6981 22.4004
36.745 22.2747
36.7921 22.2572
36.839 22.096
36.8861 22.0604
36.9331 22.0234
36.9802 21.9827
37.0272 21.9087
37.0743 21.8333
37.1213 21.7735
37.1684 21.697
37.2154 21.6068
37.2626 21.5276
37.3098 21.5159
37.3568 21.4466
37.404 21.3595
37.451 21.2671
37.4982 21.2125
37.5452 21.1104
37.5924 21.0398
37.6395 21.1307
37.6867 20.9736
37.7337 20.8908
37.781 20.7836
37.8281 20.7388
37.8753 20.5998
37.9224 20.581
37.9697 20.5147
38.0168 20.434
38.064 20.3874
38.1111 20.4206
38.1584 20.2684
38.2056 20.2431
38.2529 20.1589
38.3 20.0706
38.3473 20.0468
38.3945 19.9295
38.4418 19.8767
38.489 19.9253
38.5363 19.7438
38.5837 19.705
38.6309 19.6312
38.6782 19.5543
38.7254 19.4981
38.7728 19.471
38.82 19.3519
38.8674 19.3616
38.9146 19.2723
38.9621 19.1955
39.0093 19.1937
39.0567 19.1023
39.104 19.027
39.1514 18.9636
39.1987 18.9459
39.2461 18.94
39.2934 18.8075
39.3409 18.7316
39.3882 18.6739
39.4356 18.6143
39.483 18.5746
39.5304 18.4963
39.5778 18.4612
39.6253 18.4394
39.6726 18.3172
39.7201 18.3018
39.7675 18.1807
39.815 18.1643
39.8624 18.0796
39.9099 18.1372
39.9575 17.9532
40.0049 17.9246
40.0525 17.8822
40.0999 17.8346
40.1474 17.7408
40.1949 17.6557
40.2425 17.6551
40.2899 17.5771
40.3375 17.5691
40.385 17.4982
40.4326 17.4323
40.48 17.368
40.5277 17.315
40.5752 17.2719
40.6228 17.2062
40.6703 17.1583
40.718 17.1074
40.7655 17.0549
40.8132 17.015
40.8607 16.9816
40.9084 16.8644
40.9559 16.8071
41.0036 16.7112
41.0512 16.6881
41.0989 16.6757
41.1465 16.6769
41.1942 16.559
41.242 16.5119
41.2896 16.4336
41.3373 16.3669
41.3849 16.3408
41.4327 16.2594
41.4803 16.1836
41.5281 16.1724
41.5758 16.1307
41.6236 16.0285
41.6712 16.0106
41.7191 15.9106
41.7667 15.892
41.8146 15.8765
41.8622 15.7247
41.9101 15.754
41.9578 15.67
42.0057 15.5897
42.0534 15.5322
42.1013 15.5319
42.149 15.4753
42.1969 15.4017
42.2446 15.3738
42.2925 15.3155
42.3403 15.3039
42.3882 15.2641
42.436 15.1769
42.4839 15.0917
42.5319 15.1156
42.5797 15.0363
42.6277 15.0313
42.6755 14.9759
42.7235 14.8267
42.7713 14.7934
42.8193 14.8162
42.8671 14.7005
42.9152 14.7077
42.963 14.6461
43.0111 14.511
43.0589 14.5046
43.107 14.4655
43.1549 14.4345
43.2029 14.3912
43.2508 14.356
43.2989 14.2978
43.3468 14.2389
43.3949 14.1912
43.4429 14.1676
43.491 14.0752
43.5389 14.0591
43.5871 13.9814
43.635 13.898
43.6832 13.8964
43.7312 13.8134
43.7793 13.7701
43.8273 13.7314
43.8755 13.6456
43.9237 13.635
43.9717 13.6191
44.0199 13.5745
44.068 13.51
44.1162 13.4539
44.1642 13.4225
44.2125 13.3549
44.2606 13.324
44.3088 13.2761
44.3569 13.239
44.4052 13.2028
44.4533 13.1349
44.5016 13.0368
44.5497 13.0743
44.598 13.0104
44.6461 12.96
44.6945 12.8858
44.7426 12.8436
44.791 12.8119
44.8391 12.7879
44.8875 12.7594
44.9357 12.6813
44.984 12.6211
45.0322 12.6279
45.0806 12.5667
45.1288 12.5389
45.1773 12.4546
45.2257 12.3706
45.2739 12.3542
45.3224 12.3059
45.3706 12.3103
45.4191 12.1956
45.4673 12.2161
45.5158 12.1738
45.5641 12.0551
45.6126 12.0846
45.6609 11.9969
45.7094 11.9691
45.7577 11.9582
45.8063 11.8033
45.8546 11.8246
45.9031 11.7945
45.9515 11.7604
46.0001 11.7049
46.0484 11.7007
46.097 11.683
46.1454 11.6053
46.194 11.5657
46.2424 11.498
46.291 11.4796
46.3395 11.4125
46.3881 11.3961
46.4365 11.3729
46.4852 11.3201
46.5337 11.279
46.5823 11.2232
46.631 11.1575
46.6795 11.1569
46.7282 11.0723
46.7767 11.0349
46.8254 10.9856
46.8739 10.9564
46.9226 10.9176
46.9712 10.9068
47.0199 10.8707
47.0685 10.8235
47.1173 10.7904
47.1658 10.7585
47.2146 10.7342
47.2632 10.6343
47.312 10.659
47.3606 10.6238
47.4095 10.552
47.4581 10.4704
47.5069 10.4587
47.5556 10.4343
47.6044 10.4053
47.6531 10.315
47.702 10.2869
47.7507 10.2498
47.7996 10.1919
47.8483 10.2346
47.8972 10.1581
47.9461 10.1453
47.9948 10.0564
48.0438 10.0436
48.0925 10.0269
48.1415 9.99665
48.1902 9.91483
48.2392 9.91487
48.288 9.89962
48.337 9.85138
48.3858 9.79581
48.4348 9.796
48.4837 9.77266
48.5327 9.7002
48.5815 9.63583
48.6306 9.67117
48.6795 9.60288
48.7285 9.5526
48.7774 9.53688
48.8265 9.50083
48.8754 9.45215
48.9245 9.37458
48.9734 9.3791
49.0226 9.32866
49.0715 9.31277
49.1206 9.24778
49.1696 9.18462
49.2188 9.21413
49.2679 9.17746
49.3169 9.1148
49.3661 9.07154
49.4151 9.06041
49.4643 8.9996
49.5134 9.00042
49.5626 8.96085
49.6117 8.92244
49.6609 8.892
49.71 8.8306
49.7592 8.79703
49.8083 8.73101
49.8576 8.73451
49.9067 8.70503
49.956 8.67194
50.0052 8.6419
50.0545 8.63641
50.1036 8.57138
50.153 8.55068
50.2022 8.5026
50.2515 8.48948
50.3007 8.43545
50.3501 8.43497
50.3993 8.36708
50.4487 8.33445
50.498 8.31688
50.5474 8.28156
50.5966 8.28662
50.6461 8.22017
50.6955 8.19181
50.7448 8.14805
50.7943 8.13721
50.8436 8.10941
50.8931 8.07088
50.9424 8.05612
50.9919 8.01081
51.0413 7.9937
51.0908 7.92085
51.1402 7.87464
51.1897 7.88364
51.2391 7.85294
51.2887 7.78541
51.3381 7.76557
51.3877 7.75578
51.4371 7.70205
51.4867 7.68802
51.5362 7.67473
51.5858 7.62498
51.6353 7.59369
51.6849 7.57796
51.7344 7.51936
51.7841 7.55444
51.8336 7.45636
51.8833 7.43963
51.9328 7.37282
51.9826 7.37091
52.0323 7.33743
52.0818 7.31124
52.1316 7.27894
52.1812 7.26657
52.231 7.23879
52.2806 7.21497
52.3304 7.21405
52.38 7.14746
52.4298 7.11433
52.4794 7.09556
52.5293 7.05177
52.5789 6.97849
52.6288 6.98228
52.6785 6.92218
52.7284 6.9345
52.7781 6.87919
52.828 6.84127
52.8777 6.83542
52.9276 6.8289
52.9774 6.78361
53.0273 6.77123
53.0771 6.75042
53.1271 6.73632
53.1769 6.61716
53.2269 6.67396
53.2767 6.59968
53.3267 6.58094
53.3765 6.55233
53.4266 6.5316
53.4766 6.50108
53.5265 6.4916
53.5765 6.44381
53.6264 6.44018
53.6765 6.38857
53.7264 6.401
53.7765 6.3653
53.8265 6.32461
53.8766 6.28206
53.9266 6.2775
53.9767 6.23281
54.0267 6.1878
54.0769 6.20019
54.1269 6.14088
54.1771 6.09586
54.2271 6.09545
54.2773 6.0607
54.3274 6.0478
54.3776 5.98732
54.4277 5.97779
54.478 5.95946
54.528 5.88023
54.5783 5.85635
54.6285 5.80276
54.6788 5.7823
54.7289 5.76129
54.7792 5.70569
54.8296 5.6543
54.8798 5.57916
54.9301 5.57844
54.9803 5.54907
55.0307 5.49881
55.0809 5.48525
55.1314 5.45347
55.1816 5.3786
55.232 5.32867
55.2823 5.25296
55.3328 5.20669
55.383 5.18396
55.4335 5.13346
55.4838 5.05107
55.5344 5.02105
55.5847 4.97273
55.6352 4.9524
55.6856 4.8759
55.7361 4.88161