File: XRD/Ni3Fe_FD1045.xy
TT I
1.27165 6.88669
1.31627 6.02174
1.36089 5.9591
1.40551 5.6629
1.45013 6.02318
1.49476 5.32899
1.53938 5.24014
1.584 5.10141
1.62863 4.6805
1.67325 4.75953
1.71787 4.90103
1.7625 4.30421
1.80712 4.20807
1.85174 4.26958
1.89636 4.08369
1.94099 3.97803
1.98562 4.33293
2.03025 3.89834
2.07487 4.00245
2.11949 4.21019
2.16411 4.28451
2.20874 5.01407
2.25338 6.30647
2.298 5.28032
2.34263 4.48589
2.38725 5.57555
2.43188 5.89145
2.4765 6.91723
2.52115 7.22624
2.56577 7.76432
2.6104 9.13443
2.65503 8.37771
2.69965 8.34957
2.7443 8.94994
2.78893 8.8653
2.83356 8.3297
2.87818 9.14885
2.92281 9.24905
2.96744 9.65538
3.01209 9.74495
3.05672 10.9293
3.10135 12.2326
3.14599 12.8033
3.19062 14.4198
3.23527 14.4884
3.2799 15.4519
3.32454 16.1562
3.36917 17.2593
3.4138 18.2795
3.45844 18.6145
3.50309 20.084
3.54773 20.6008
3.59237 21.1949
3.637 27.6487
3.68164 26.9396
3.7263 24.039
3.77094 24.5918
3.81558 25.3102
3.86022 26.0448
3.90486 27.625
3.9495 28.1609
3.99416 29.1467
4.0388 30.5777
4.08344 31.6164
4.12809 32.4971
4.17273 33.8408
4.21738 35.6981
4.26204 52.2003
4.30669 57.233
4.35133 40.9737
4.39598 40.8715
4.44063 43.308
4.4853 46.0125
4.52995 46.9357
4.5746 48.1721
4.61925 50.6999
4.6639 52.1527
4.70855 55.1145
4.75322 57.9501
4.79788 60.6805
4.84253 63.9047
4.88719 67.6841
4.93184 71.4468
4.97652 76.9937
5.02118 82.8934
5.06583 88.8263
5.11049 97.886
5.15515 117.844
5.19981 232.266
5.24449 2487.63
5.28916 13457.8
5.33382 3287.06
5.37848 214.157
5.42315 124.183
5.46783 107.772
5.5125 100.966
5.55716 97.3361
5.60183 93.0941
5.6465 91.1675
5.69117 89.5122
5.73586 87.7867
5.78053 86.7327
5.8252 85.9657
5.86988 86.7832
5.91455 88.7168
5.95924 95.0178
6.00392 162.63
6.0486 889.36
6.09328 4597.5
6.13795 3581.22
6.18263 239.194
6.22733 87.4038
6.27201 75.8619
6.3167 72.7727
6.36138 68.5452
6.40606 64.705
6.45075 63.246
6.49545 61.6257
6.54014 59.9718
6.58483 58.7131
6.62952 57.8143
6.67421 58.6301
6.71892 64.3447
6.76361 56.6068
6.8083 54.3852
6.853 53.8066
6.89769 53.1302
6.94239 53.2036
6.98711 52.5209
7.03181 52.1457
7.07651 51.9789
7.12121 51.6566
7.16591 51.5681
7.21063 50.9336
7.25533 51.6108
7.30004 61.7646
7.34475 56.1749
7.38945 51.67
7.43416 51.1399
7.47889 51.6424
7.5236 59.2421
7.56831 74.5629
7.61303 56.6994
7.65774 52.6088
7.70247 53.1329
7.74719 52.951
7.79191 53.3977
7.83663 53.8539
7.88135 55.0652
7.92607 55.3058
7.97081 56.573
8.01553 57.6793
8.06026 58.8872
8.10498 59.944
8.14971 62.2039
8.19446 63.5731
8.23919 65.7638
8.28392 68.0659
8.32865 70.0413
8.37339 74.0313
8.41812 77.6421
8.46288 86.0337
8.50761 128.227
8.55235 368.55
8.59709 1082.73
8.64183 2248.99
8.68658 1089.73
8.73134 174.702
8.77609 94.748
8.82083 88.1159
8.86558 85.7694
8.91033 83.4541
8.9551 82.0632
8.99985 81.0298
9.04461 80.0504
9.08936 79.3859
9.13412 79.0282
9.17888 79.5896
9.22365 92.421
9.26841 116.278
9.31318 89.6828
9.35794 80.1014
9.4027 79.9878
9.44749 80.4046
9.49226 80.7209
9.53703 81.4657
9.5818 83.0283
9.62657 83.7663
9.67134 85.9007
9.71614 87.5276
9.76091 89.3066
9.80569 91.4431
9.85047 93.5859
9.89525 98.8563
9.94005 105.601
9.98484 146.407
10.0296 346.388
10.0744 771.777
10.1192 1754.66
10.164 1678.91
10.2088 439.927
10.2536 124.881
10.2984 102.868
10.3432 100.581
10.388 97.615
10.4328 107.432
10.4776 159.943
10.5224 268.684
10.5672 504.228
10.612 561.11
10.6568 226.477
10.7017 104.775
10.7465 86.6893
10.7913 79.8767
10.8361 77.5566
10.8809 75.5347
10.9257 73.4784
10.9706 72.5791
11.0154 70.5285
11.0602 69.0619
11.105 68.1629
11.1499 67.0149
11.1947 67.0796
11.2395 65.5731
11.2844 64.6346
11.3292 63.7286
11.374 63.0503
11.4189 62.3583
11.4637 61.727
11.5086 61.1801
11.5534 61.1358
11.5983 60.8252
11.6431 60.5686
11.688 60.1712
11.7328 60.0168
11.7777 59.7271
11.8225 59.5793
11.8674 59.8236
11.9122 62.0386
11.9571 68.7081
12.002 66.9639
12.0468 64.1813
12.0917 76.6087
12.1366 98.5616
12.1814 146.512
12.2263 204.698
12.2712 176.791
12.3161 98.9626
12.3609 64.5752
12.4058 61.2911
12.4507 60.7686
12.4956 61.1404
12.5405 61.424
12.5853 61.9502
12.6302 62.3712
12.6751 64.0365
12.72 63.839
12.7649 64.4797
12.8098 65.0656
12.8547 66.2269
12.8996 67.4596
12.9445 68.9661
12.9894 70.9201
13.0343 72.6517
13.0792 76.4505
13.1242 82.4326
13.1691 107.254
13.214 147.125
13.2589 226.849
13.3038 362.906
13.3487 442.43
13.3937 280.278
13.4386 126.988
13.4835 98.8726
13.5285 119.645
13.5734 155.477
13.6183 235.761
13.6633 354.797
13.7082 358.773
13.7531 205.275
13.7981 100.32
13.843 79.3477
13.888 76.9085
13.9329 74.5013
13.9779 73.0574
14.0228 71.9437
14.0678 70.7448
14.1127 71.7232
14.1577 75.6609
14.2027 73.6743
14.2476 68.8142
14.2926 67.3019
14.3376 67.145
14.3825 66.639
14.4275 66.2645
14.4725 66.0781
14.5175 66.1599
14.5624 66.1456
14.6074 66.7499
14.6524 66.9927
14.6974 67.1575
14.7424 68.4904
14.7874 74.2382
14.8324 88.4878
14.8774 109.118
14.9224 147.337
14.9674 207.778
15.0124 227.908
15.0574 161.181
15.1024 93.52
15.1474 70.8256
15.1924 67.6372
15.2374 66.4155
15.2824 65.6563
15.3274 64.7534
15.3725 64.3457
15.4175 63.9583
15.4625 63.4616
15.5076 63.2815
15.5526 63.253
15.5976 63.0494
15.6426 63.8862
15.6877 68.4997
15.7327 79.2283
15.7778 93.9311
15.8228 121.658
15.8679 168.617
15.9129 201.664
15.958 168.174
16.003 103.254
16.0481 69.4338
16.0931 63.057
16.1382 60.0133
16.1833 58.1389
16.2283 56.8702
16.2734 56.2225
16.3185 55.5778
16.3636 55.0032
16.4086 54.4155
16.4537 53.9623
16.4988 53.4561
16.5439 53.3055
16.589 53.1137
16.6341 52.6769
16.6792 52.4718
16.7243 52.6295
16.7694 52.7535
16.8145 52.6514
16.8596 52.7324
16.9047 53.4042
16.9498 54.1372
16.9949 53.7955
17.04 53.6128
17.0851 54.8698
17.1302 56.9877
17.1754 60.1081
17.2205 64.6677
17.2656 72.2066
17.3108 81.7134
17.3559 82.577
17.401 71.9655
17.4462 61.5444
17.4913 57.3415
17.5365 57.0298
17.5815 57.1634
17.6268 57.7081
17.6718 58.1937
17.7171 58.8432
17.7622 59.9797
17.8074 60.5577
17.8525 61.6521
17.8977 66.4048
17.9428 73.2148
17.9881 81.4995
18.0331 97.5133
18.0784 121.635
18.1237 141.976
18.1688 136.772
18.214 108.557
18.2591 88.0863
18.3044 88.8884
18.3495 99.0659
18.3948 107.231
18.4399 98.3007
18.4852 79.2487
18.5303 65.8412
18.5756 61.2365
18.6207 60.1163
18.666 58.6972
18.7112 58.0673
18.7565 57.3432
18.8016 56.9048
18.8469 56.3957
18.892 55.9066
18.9374 55.4585
18.9825 55.24
19.0278 55.0655
19.073 54.9448
19.1183 55.2147
19.1635 56.2403
19.2088 58.0115
19.254 60.3598
19.2993 65.2735
19.3447 71.8697
19.3898 76.1576
19.4352 72.3117
19.4804 63.3198
19.5257 56.0497
19.5709 53.0228
19.6163 52.3589
19.6615 52.1827
19.7068 51.7923
19.752 51.7133
19.7974 51.8696
19.8426 52.4525
19.888 53.5429
19.9332 54.7592
19.9786 57.4212
20.0238 60.9014
20.0692 66.5418
20.1144 70.2314
20.1598 69.1891
20.205 64.1242
20.2504 61.8056
20.2957 63.4404
20.3411 65.5856
20.3863 63.8144
20.4318 58.0688
20.477 52.873
20.5224 49.9648
20.5677 49.0762
20.6131 48.8574
20.6586 48.0726
20.7038 48.1597
20.7493 47.9814
20.7945 47.945
20.84 47.9458
20.8853 47.4312
20.9307 47.1004
20.976 47.3075
21.0215 47.3461
21.0668 47.7029
21.1122 48.1579
21.1575 48.6328
21.203 49.487
21.2483 50.4222
21.2938 50.6038
21.3391 49.0656
21.3846 47.8443
21.4299 47.3185
21.4754 47.1737
21.5207 47.4941
21.5662 47.45
21.6116 47.8256
21.6571 48.7158
21.7024 49.9472
21.7479 51.601
21.7933 54.1949
21.8388 58.0552
21.8843 62.6305
21.9297 65.0754
21.9752 64.0037
22.0206 59.7833
22.0661 56.4228
22.1115 55.8233
22.157 56.1148
22.2024 54.2053
22.248 51.1358
22.2933 49.1096
22.3389 48.0257
22.3843 47.5157
22.4299 47.489
22.4753 47.5155
22.5208 47.235
22.5662 47.411
22.6118 47.5126
22.6572 47.6355
22.7028 48.2257
22.7483 49.0306
22.7939 49.8278
22.8393 51.0505
22.8849 53.2155
22.9303 55.7323
22.9759 57.4514
23.0214 57.2501
23.067 54.8018
23.1126 51.0635
23.1581 48.5729
23.2037 47.7534
23.2492 47.6355
23.2948 47.8262
23.3403 48.2866
23.3859 49.2596
23.4314 50.2579
23.477 52.0775
23.5225 54.533
23.5682 57.145
23.6137 58.3537
23.6593 56.3425
23.7048 51.9146
23.7505 48.1158
23.796 45.9231
23.8417 45.0524
23.8872 44.3999
23.9329 44.1718
23.9784 43.8698
24.0241 43.6405
24.0697 43.462
24.1154 43.1385
24.1609 42.6752
24.2066 42.5156
24.2522 42.6904
24.2979 42.4153
24.3434 42.197
24.3892 42.0904
24.4349 41.9088
24.4805 41.9447
24.5262 42.2064
24.5718 41.8731
24.6175 42.0113
24.6631 41.7863
24.7089 41.5985
24.7545 41.2951
24.8002 41.2664
24.8458 41.351
24.8916 41.0721
24.9372 41.3335
24.983 41.5453
25.0286 41.9153
25.0744 42.6106
25.12 43.0279
25.1658 43.7769
25.2114 44.322
25.2572 44.292
25.3029 44.4291
25.3487 44.5936
25.3943 44.2861
25.4402 43.1838
25.4858 41.9633
25.5316 40.8057
25.5773 40.0563
25.6231 39.9618
25.669 39.7564
25.7147 39.5631
25.7605 39.6334
25.8062 39.6199
25.8521 39.8426
25.8977 39.8424
25.9436 40.1163
25.9893 40.1316
26.0352 40.6456
26.0809 40.9316
26.1268 41.0965
26.1725 40.8711
26.2184 40.3001
26.2641 39.6257
26.31 39.2687
26.3557 39.3276
26.4017 39.3455
26.4474 39.6601
26.4933 40.0034
26.5391 40.435
26.585 41.0526
26.6308 41.6344
26.6767 41.8727
26.7225 41.8064
26.7684 41.0634
26.8142 40.3567
26.8601 39.8471
26.9059 39.5941
26.9519 38.9933
26.9979 38.6196
27.0437 38.2341
27.0896 38.0671
27.1354 38.0887
27.1814 37.8889
27.2272 37.8914
27.2732 37.7903
27.3191 37.6203
27.3651 37.9103
27.4109 37.607
27.4569 37.8456
27.5027 37.955
27.5488 38.0881
27.5946 37.8676
27.6407 37.6599
27.6865 37.4665
27.7326 37.3144
27.7784 37.2562
27.8245 37.1401
27.8703 37.3921
27.9164 37.6663
27.9623 37.9996
28.0084 38.4194
28.0543 38.8657
28.1003 38.7169
28.1462 38.5977
28.1923 38.2297
28.2384 37.6293
28.2843 37.2618
28.3304 36.7912
28.3764 36.2622
28.4225 35.8485
28.4684 35.567
28.5145 35.2888
28.5605 35.1949
28.6066 35.0513
28.6526 34.9144
28.6987 35.1629
28.7447 34.8546
28.7908 34.8345
28.8368 34.7813
28.8829 34.8042
28.9289 34.7435
28.9751 34.5461
29.0211 34.3266
29.0673 34.1628
29.1133 33.9447
29.1595 33.7983
29.2055 33.7595
29.2517 33.5846
29.2977 33.7118
29.3439 33.6032
29.3899 33.6301
29.4361 33.6032
29.4824 33.3428
29.5284 33.2201
29.5746 32.819
29.6207 32.5836
29.6669 32.4148
29.713 32.3455
29.7593 32.2587
29.8053 32.051
29.8516 32.1521
29.8977 32.0658
29.9439 31.9372
29.99 31.9129
30.0363 31.9042
30.0824 31.8758
30.1287 31.8028
30.1748 31.7831
30.2211 31.789
30.2673 31.7207
30.3136 31.7265
30.3597 31.6197
30.406 31.5674
30.4522 31.5649
30.4985 31.4365
30.5447 31.6631
30.591 31.6165
30.6372 31.7273
30.6835 31.7185
30.7297 31.7791
30.7761 31.7753
30.8224 31.6536
30.8686 31.4147
30.915 31.1908
30.9612 31.1035
31.0076 30.8991
31.0538 30.6822
31.1002 30.6552
31.1464 30.4484
31.1928 30.4464
31.2391 30.489
31.2855 30.4195
31.3317 30.4362
31.3781 30.4665
31.4244 30.4294
31.4708 30.2805
31.5171 30.3752
31.5636 30.3212
31.6098 30.0442
31.6563 29.9671
31.7026 29.7412
31.7491 29.6415
31.7953 29.7465
31.8418 29.7261
31.8881 29.696
31.9346 29.6986
31.9809 29.6406
32.0275 29.5286
32.074 29.3129
32.1203 29.1555
32.1668 29.109
32.2132 28.9991
32.2597 28.7754
32.306 28.6593
32.3526 28.5466
32.399 28.4515
32.4455 28.2966
32.4919 28.231
32.5385 28.0977
32.5848 27.9136
32.6314 28.0204
32.6778 27.965
32.7244 27.7725
32.7708 27.6913
32.8174 27.5982
32.8638 27.5605
32.9104 27.6175
32.9569 27.5093
33.0035 27.3782
33.0499 27.4503
33.0966 27.3579
33.143 27.3702
33.1897 27.2629
33.2361 27.2206
33.2828 27.2468
33.3293 27.0138
33.3759 26.9514
33.4226 26.7107
33.4691 26.7167
33.5158 26.569
33.5623 26.4313
33.609 26.2955
33.6555 26.3032
33.7022 26.1501
33.7487 26.0542
33.7954 26.0905
33.842 25.9201
33.8887 25.8902
33.9353 25.8328
33.982 25.6802
34.0286 25.6654
34.0753 25.5397
34.1219 25.4409
34.1687 25.4628
34.2152 25.3019
34.262 25.2173
34.3086 25.0962
34.3554 25.0638
34.402 24.9248
34.4488 24.8635
34.4954 24.8143
34.5422 24.693
34.5889 24.5862
34.6357 24.6111
34.6825 24.4738
34.7292 24.3855
34.776 24.3087
34.8227 24.3076
34.8695 24.2147
34.9162 24.1581
34.9631 24.1031
35.0098 24.0319
35.0566 23.931
35.1033 23.9141
35.1502 23.8469
35.1969 23.7257
35.2438 23.7603
35.2906 23.7577
35.3375 23.6469
35.3842 23.5897
35.4311 23.6394
35.4779 23.6235
35.5248 23.5812
35.5716 23.4533
35.6185 23.3569
35.6653 23.2809
35.7123 23.1848
35.759 23.1369
35.806 22.984
35.8528 22.8247
35.8998 22.7718
35.9468 22.7347
35.9936 22.6921
36.0406 22.6063
36.0874 22.5963
36.1345 22.5073
36.1813 22.4537
36.2283 22.3499
36.2752 22.3439
36.3222 22.2936
36.3691 22.1755
36.4161 22.0884
36.463 22.0839
36.5101 22.1191
36.557 21.9719
36.6041 21.8355
36.651 21.8078
36.6981 21.799
36.745 21.7319
36.7921 21.6075
36.839 21.5317
36.8861 21.4547
36.9331 21.4326
36.9802 21.2808
37.0272 21.2151
37.0743 21.2556
37.1213 21.136
37.1684 21.0505
37.2154 20.9863
37.2626 20.9997
37.3098 20.8551
37.3568 20.7438
37.404 20.7464
37.451 20.6585
37.4982 20.5746
37.5452 20.5245
37.5924 20.4566
37.6395 20.4723
37.6867 20.3712
37.7337 20.2905
37.781 20.2206
37.8281 20.1614
37.8753 20.0001
37.9224 20.0055
37.9697 19.9497
38.0168 19.8981
38.064 19.7642
38.1111 19.7793
38.1584 19.7377
38.2056 19.6309
38.2529 19.6114
38.3 19.4752
38.3473 19.4489
38.3945 19.3391
38.4418 19.3004
38.489 19.2692
38.5363 19.2151
38.5837 19.0969
38.6309 19.0632
38.6782 19.0353
38.7254 18.9991
38.7728 18.884
38.82 18.8966
38.8674 18.8428
38.9146 18.7132
38.9621 18.6443
39.0093 18.6673
39.0567 18.5823
39.104 18.4665
39.1514 18.3413
39.1987 18.3865
39.2461 18.3271
39.2934 18.2545
39.3409 18.1379
39.3882 18.0967
39.4356 18.0922
39.483 17.9697
39.5304 17.935
39.5778 17.864
39.6253 17.804
39.6726 17.8082
39.7201 17.7371
39.7675 17.6908
39.815 17.6219
39.8624 17.57
39.9099 17.5878
39.9575 17.3963
40.0049 17.3588
40.0525 17.296
40.0999 17.3017
40.1474 17.2155
40.1949 17.1563
40.2425 17.1145
40.2899 17.1004
40.3375 17.0746
40.385 16.9835
40.4326 16.9268
40.48 16.8107
40.5277 16.827
40.5752 16.7119
40.6228 16.6499
40.6703 16.728
40.718 16.5854
40.7655 16.5928
40.8132 16.429
40.8607 16.4369
40.9084 16.4498
40.9559 16.3261
41.0036 16.3262
41.0512 16.3193
41.0989 16.1525
41.1465 16.1383
41.1942 16.0454
41.242 16.0115
41.2896 15.9687
41.3373 15.8858
41.3849 15.8724
41.4327 15.7977
41.4803 15.732
41.5281 15.6542
41.5758 15.6247
41.6236 15.5778
41.6712 15.491
41.7191 15.5014
41.7667 15.4309
41.8146 15.4129
41.8622 15.3118
41.9101 15.3405
41.9578 15.2134
42.0057 15.1115
42.0534 15.12
42.1013 15.0536
42.149 15.0087
42.1969 15.0024
42.2446 14.929
42.2925 14.8801
42.3403 14.8009
42.3882 14.821
42.436 14.6981
42.4839 14.6615
42.5319 14.6361
42.5797 14.5795
42.6277 14.4553
42.6755 14.4948
42.7235 14.4242
42.7713 14.4001
42.8193 14.3806
42.8671 14.3313
42.9152 14.2555
42.963 14.1838
43.0111 14.1047
43.0589 14.0589
43.107 14.0526
43.1549 14.0378
43.2029 13.9117
43.2508 13.9112
43.2989 13.8
43.3468 13.7838
43.3949 13.7686
43.4429 13.7381
43.491 13.6626
43.5389 13.6181
43.5871 13.5541
43.635 13.4877
43.6832 13.4738
43.7312 13.4106
43.7793 13.3591
43.8273 13.3422
43.8755 13.2453
43.9237 13.2381
43.9717 13.22
44.0199 13.1416
44.068 13.0998
44.1162 13.0636
44.1642 13.0526
44.2125 12.9925
44.2606 12.941
44.3088 12.8425
44.3569 12.8272
44.4052 12.767
44.4533 12.7422
44.5016 12.6607
44.5497 12.6531
44.598 12.5936
44.6461 12.5393
44.6945 12.5362
44.7426 12.4602
44.791 12.405
44.8391 12.3517
44.8875 12.3573
44.9357 12.3273
44.984 12.2488
45.0322 12.2315
45.0806 12.1459
45.1288 12.1286
45.1773 12.0535
45.2257 12.0574
45.2739 11.9629
45.3224 11.9709
45.3706 11.9423
45.4191 11.8587
45.4673 11.8615
45.5158 11.7713
45.5641 11.7401
45.6126 11.7276
45.6609 11.6402
45.7094 11.6067
45.7577 11.563
45.8063 11.5011
45.8546 11.5079
45.9031 11.4515
45.9515 11.4328
46.0001 11.3587
46.0484 11.3247
46.097 11.2912
46.1454 11.255
46.194 11.24
46.2424 11.2142
46.291 11.1358
46.3395 11.1004
46.3881 11.0491
46.4365 11.0133
46.4852 10.9698
46.5337 10.9617
46.5823 10.886
46.631 10.8424
46.6795 10.8327
46.7282 10.7544
46.7767 10.6949
46.8254 10.728
46.8739 10.6212
46.9226 10.594
46.9712 10.5628
47.0199 10.4963
47.0685 10.5068
47.1173 10.427
47.1658 10.3914
47.2146 10.3962
47.2632 10.3385
47.312 10.3478
47.3606 10.2763
47.4095 10.2024
47.4581 10.1732
47.5069 10.1546
47.5556 10.1106
47.6044 10.0533
47.6531 10.0508
47.702 9.9558
47.7507 10.003
47.7996 9.95551
47.8483 9.89174
47.8972 9.87385
47.9461 9.79596
47.9948 9.76184
48.0438 9.72815
48.0925 9.72193
48.1415 9.66309
48.1902 9.63064
48.2392 9.61468
48.288 9.59637
48.337 9.53308
48.3858 9.5319
48.4348 9.47664
48.4837 9.48999
48.5327 9.45911
48.5815 9.35704
48.6306 9.35404
48.6795 9.28938
48.7285 9.26942
48.7774 9.22909
48.8265 9.18683
48.8754 9.15339
48.9245 9.13319
48.9734 9.06747
49.0226 9.08103
49.0715 9.04599
49.1206 8.9748
49.1696 8.96484
49.2188 8.9366
49.2679 8.88054
49.3169 8.87617
49.3661 8.81713
49.4151 8.7644
49.4643 8.77389
49.5134 8.71124
49.5626 8.65157
49.6117 8.60599
49.6609 8.6228
49.71 8.57636
49.7592 8.54947
49.8083 8.50045
49.8576 8.47042
49.9067 8.45572
49.956 8.43161
50.0052 8.38939
50.0545 8.35677
50.1036 8.29819
50.153 8.28893
50.2022 8.28214
50.2515 8.25023
50.3007 8.16292
50.3501 8.17913
50.3993 8.13324
50.4487 8.09878
50.498 8.08996
50.5474 8.04557
50.5966 8.02234
50.6461 7.96123
50.6955 7.95793
50.7448 7.93588
50.7943 7.87628
50.8436 7.85245
50.8931 7.8609
50.9424 7.77587
50.9919 7.74747
51.0413 7.72755
51.0908 7.69906
51.1402 7.69356
51.1897 7.61984
51.2391 7.66236
51.2887 7.57079
51.3381 7.55748
51.3877 7.49714
51.4371 7.43743
51.4867 7.43061
51.5362 7.42614
51.5858 7.40381
51.6353 7.34942
51.6849 7.34709
51.7344 7.29396
51.7841 7.28286
51.8336 7.23874
51.8833 7.18214
51.9328 7.15455
51.9826 7.14936
52.0323 7.13952
52.0818 7.10423
52.1316 7.05212
52.1812 7.05237
52.231 7.00913
52.2806 6.97633
52.3304 6.91149
52.38 6.92052
52.4298 6.87087
52.4794 6.87469
52.5293 6.8164
52.5789 6.85805
52.6288 6.77276
52.6785 6.76186
52.7284 6.7452
52.7781 6.70681
52.828 6.6772
52.8777 6.62581
52.9276 6.63909
52.9774 6.58914
53.0273 6.56371
53.0771 6.5159
53.1271 6.54212
53.1769 6.48302
53.2269 6.43461
53.2767 6.39977
53.3267 6.42493
53.3765 6.34734
53.4266 6.3662
53.4766 6.29491
53.5265 6.25875
53.5765 6.27607
53.6264 6.21805
53.6765 6.21501
53.7264 6.17306
53.7765 6.14839
53.8265 6.12665
53.8766 6.0937
53.9266 6.05386
53.9767 6.06521
54.0267 6.01011
54.0769 5.99762
54.1269 5.93658
54.1771 5.95512
54.2271 5.86878
54.2773 5.86139
54.3274 5.85087
54.3776 5.76583
54.4277 5.76926
54.478 5.76897
54.528 5.70063
54.5783 5.68034
54.6285 5.6671
54.6788 5.61076
54.7289 5.58125
54.7792 5.47912
54.8296 5.48491
54.8798 5.40223
54.9301 5.40714
54.9803 5.42883
55.0307 5.42333
55.0809 5.29595
55.1314 5.26073
55.1816 5.23295
55.232 5.18835
55.2823 5.08133
55.3328 5.06883
55.383 5.01453
55.4335 4.97626
55.4838 4.90575
55.5344 4.89999
55.5847 4.85931
55.6352 4.809
55.6856 4.77445
55.7361 4.76708