File: XRD/Ni3Fe_FD0446.xy
TT I
1.27165 7.53413
1.31627 6.85029
1.36089 6.86824
1.40551 6.69742
1.45013 5.6793
1.49476 6.5559
1.53938 5.89503
1.584 5.39508
1.62863 4.8708
1.67325 5.14579
1.71787 5.48384
1.7625 5.18911
1.80712 5.10225
1.85174 4.7952
1.89636 4.78452
1.94099 4.94192
1.98562 4.71223
2.03025 4.33545
2.07487 4.58664
2.11949 4.86471
2.16411 4.91407
2.20874 11.9182
2.25338 17.1746
2.298 5.40619
2.34263 5.24567
2.38725 5.23063
2.43188 5.72574
2.4765 6.21252
2.52115 6.39767
2.56577 6.89265
2.6104 7.8644
2.65503 7.26918
2.69965 7.51662
2.7443 8.16083
2.78893 7.78295
2.83356 8.11004
2.87818 8.552
2.92281 8.95828
2.96744 9.52016
3.01209 10.867
3.05672 10.6886
3.10135 12.4312
3.14599 12.6541
3.19062 13.898
3.23527 15.0277
3.2799 15.4737
3.32454 16.887
3.36917 18.0949
3.4138 19.3004
3.45844 19.8793
3.50309 20.8865
3.54773 21.7815
3.59237 23.7836
3.637 71.544
3.68164 47.4123
3.7263 25.9217
3.77094 26.1462
3.81558 26.3738
3.86022 27.7552
3.90486 29.1372
3.9495 29.8588
3.99416 31.242
4.0388 32.132
4.08344 34.0963
4.12809 34.8748
4.17273 37.0002
4.21738 41.5624
4.26204 185.069
4.30669 157.935
4.35133 47.0995
4.39598 44.6676
4.44063 52.2505
4.4853 60.0667
4.52995 51.6224
4.5746 52.0268
4.61925 54.088
4.6639 56.1894
4.70855 59.2555
4.75322 61.9509
4.79788 65.2081
4.84253 68.5854
4.88719 73.1255
4.93184 77.1249
4.97652 82.9338
5.02118 89.8128
5.06583 98.5974
5.11049 111.308
5.15515 172.715
5.19981 490.237
5.24449 3370.61
5.28916 11817.1
5.33382 3006.49
5.37848 203.069
5.42315 133.346
5.46783 117.17
5.5125 108.657
5.55716 104.426
5.60183 100.802
5.6465 98.5062
5.69117 96.5558
5.73586 94.8329
5.78053 94.4036
5.8252 94.3778
5.86988 95.4624
5.91455 98.7509
5.95924 110.645
6.00392 271.746
6.0486 1166.91
6.09328 4327.19
6.13795 3377.47
6.18263 277.856
6.22733 96.9695
6.27201 84.2739
6.3167 95.4687
6.36138 78.6522
6.40606 70.2332
6.45075 68.5822
6.49545 66.1791
6.54014 64.6044
6.58483 63.9761
6.62952 63.1893
6.67421 84.2445
6.71892 117.224
6.76361 65.7825
6.8083 59.0615
6.853 57.9725
6.89769 57.2641
6.94239 57.149
6.98711 56.6054
7.03181 56.3322
7.07651 55.9179
7.12121 55.856
7.16591 55.961
7.21063 55.9083
7.25533 66.7161
7.30004 139.537
7.34475 80.2651
7.38945 56.62
7.43416 55.1166
7.47889 55.0448
7.5236 55.1005
7.56831 56.1352
7.61303 57.3686
7.65774 57.4741
7.70247 56.8928
7.74719 56.8232
7.79191 57.3337
7.83663 57.434
7.88135 58.7894
7.92607 59.3514
7.97081 60.7008
8.01553 61.5277
8.06026 63.6794
8.10498 64.9838
8.14971 72.3653
8.19446 72.0059
8.23919 70.7094
8.28392 73.562
8.32865 75.5499
8.37339 80.4124
8.41812 86.8904
8.46288 112.812
8.50761 199.503
8.55235 457.781
8.59709 1233.71
8.64183 2136.2
8.68658 1020.51
8.73134 172.137
8.77609 102.002
8.82083 94.2881
8.86558 91.3112
8.91033 90.753
8.9551 91.3449
8.99985 86.5379
9.04461 84.9221
9.08936 84.2656
9.13412 83.499
9.17888 83.5531
9.22365 83.784
9.26841 83.6904
9.31318 84.1393
9.35794 84.4369
9.4027 84.9583
9.44749 85.5189
9.49226 85.9626
9.53703 87.1435
9.5818 89.2061
9.62657 92.7726
9.67134 97.6355
9.71614 94.9154
9.76091 95.9476
9.80569 98.4416
9.85047 101.809
9.89525 120.675
9.94005 136.422
9.98484 211.026
10.0296 402.595
10.0744 865.689
10.1192 1707.18
10.164 1631.58
10.2088 425.32
10.2536 130.537
10.2984 114.199
10.3432 113.732
10.388 107.527
10.4328 128.999
10.4776 177.21
10.5224 295.21
10.5672 500.524
10.612 502.91
10.6568 206.238
10.7017 98.4901
10.7465 88.0803
10.7913 84.2369
10.8361 82.5101
10.8809 79.9379
10.9257 79.4086
10.9706 79.5171
11.0154 75.5529
11.0602 73.8515
11.105 72.57
11.1499 75.3847
11.1947 80.1308
11.2395 73.4207
11.2844 70.5569
11.3292 68.1096
11.374 67.0079
11.4189 66.6688
11.4637 65.7152
11.5086 66.2679
11.5534 68.0265
11.5983 65.8918
11.6431 64.8038
11.688 63.6895
11.7328 63.6047
11.7777 63.9256
11.8225 63.5381
11.8674 63.5837
11.9122 63.8627
11.9571 63.9636
12.002 65.2524
12.0468 71.2359
12.0917 83.7139
12.1366 108.443
12.1814 154.219
12.2263 203.671
12.2712 173.182
12.3161 94.6017
12.3609 69.9049
12.4058 65.3607
12.4507 65.2453
12.4956 65.3722
12.5405 65.4372
12.5853 66.374
12.6302 71.4927
12.6751 75.843
12.72 70.4653
12.7649 68.7492
12.8098 69.3951
12.8547 70.801
12.8996 72.3716
12.9445 73.825
12.9894 75.279
13.0343 77.3861
13.0792 81.2757
13.1242 94.6735
13.1691 121.157
13.214 161.226
13.2589 246.906
13.3038 360.815
13.3487 421.431
13.3937 268.306
13.4386 126.544
13.4835 112.84
13.5285 129.897
13.5734 169.014
13.6183 250.107
13.6633 339.124
13.7082 341.252
13.7531 190.328
13.7981 98.7404
13.843 83.0791
13.888 81.274
13.9329 78.401
13.9779 77.1727
14.0228 75.6269
14.0678 74.2701
14.1127 73.5515
14.1577 73.4487
14.2027 72.679
14.2476 71.6003
14.2926 71.5719
14.3376 72.1513
14.3825 70.9314
14.4275 70.3381
14.4725 69.6439
14.5175 70.0433
14.5624 70.3862
14.6074 71.8832
14.6524 72.3909
14.6974 71.6495
14.7424 74.7261
14.7874 83.2977
14.8324 94.5217
14.8774 117.297
14.9224 156.081
14.9674 202.445
15.0124 218.277
15.0574 150.534
15.1024 91.353
15.1474 73.1671
15.1924 71.5131
15.2374 72.0635
15.2824 70.676
15.3274 69.0216
15.3725 67.7099
15.4175 67.4542
15.4625 67.1727
15.5076 67.3484
15.5526 67.4274
15.5976 67.1232
15.6426 69.1876
15.6877 76.3641
15.7327 84.603
15.7778 100.625
15.8228 129.732
15.8679 167.824
15.9129 190.736
15.958 156.869
16.003 97.1728
16.0481 68.8362
16.0931 64.9134
16.1382 63.1869
16.1833 61.4253
16.2283 60.0125
16.2734 59.1537
16.3185 59.2152
16.3636 59.506
16.4086 58.3064
16.4537 57.1774
16.4988 56.302
16.5439 56.4684
16.589 56.3159
16.6341 55.8
16.6792 55.3789
16.7243 55.8332
16.7694 55.9303
16.8145 55.6255
16.8596 55.8755
16.9047 57.4069
16.9498 57.4081
16.9949 56.629
17.04 57.1685
17.0851 58.6244
17.1302 60.3273
17.1754 63.4172
17.2205 68.2631
17.2656 75.2607
17.3108 82.3233
17.3559 82.5393
17.401 71.9914
17.4462 63.0462
17.4913 59.9916
17.5365 59.9791
17.5815 60.236
17.6268 60.6301
17.6718 61.2886
17.7171 61.9716
17.7622 62.5687
17.8074 63.3245
17.8525 66.8435
17.8977 71.0282
17.9428 76.8938
17.9881 85.969
18.0331 102.242
18.0784 121.463
18.1237 139.289
18.1688 133.64
18.214 105.844
18.2591 88.7226
18.3044 92.0912
18.3495 100.175
18.3948 107.1
18.4399 97.474
18.4852 78.1955
18.5303 66.6002
18.5756 63.1494
18.6207 62.2601
18.666 61.2939
18.7112 60.7394
18.7565 60.0817
18.8016 59.5921
18.8469 58.9534
18.892 58.7583
18.9374 58.3712
18.9825 57.9925
19.0278 57.875
19.073 58.0625
19.1183 58.8146
19.1635 59.3509
19.2088 60.8564
19.254 63.4786
19.2993 67.6788
19.3447 72.8167
19.3898 77.2112
19.4352 73.4805
19.4804 64.0981
19.5257 57.5156
19.5709 55.2548
19.6163 54.886
19.6615 54.5055
19.7068 54.2498
19.752 54.2748
19.7974 54.7768
19.8426 55.7148
19.888 56.2527
19.9332 57.7992
19.9786 60.0724
20.0238 63.6032
20.0692 67.8527
20.1144 70.756
20.1598 69.5045
20.205 64.8115
20.2504 63.0583
20.2957 64.5291
20.3411 66.1975
20.3863 65.078
20.4318 59.2248
20.477 54.5468
20.5224 52.3927
20.5677 51.646
20.6131 51.1827
20.6586 50.5689
20.7038 50.4865
20.7493 49.9197
20.7945 49.6795
20.84 49.6067
20.8853 49.5149
20.9307 49.3728
20.976 49.6807
21.0215 49.5636
21.0668 49.9684
21.1122 50.3659
21.1575 51.0073
21.203 51.5807
21.2483 52.1658
21.2938 52.4622
21.3391 50.8953
21.3846 49.9064
21.4299 49.2884
21.4754 49.297
21.5207 49.3988
21.5662 49.8505
21.6116 50.3184
21.6571 51.0835
21.7024 52.241
21.7479 53.8807
21.7933 56.6613
21.8388 59.8484
21.8843 63.2422
21.9297 65.5358
21.9752 64.3467
22.0206 60.592
22.0661 57.3166
22.1115 56.7827
22.157 56.7344
22.2024 55.2586
22.248 52.2943
22.2933 50.7829
22.3389 49.9058
22.3843 49.7936
22.4299 49.7976
22.4753 49.5167
22.5208 49.4348
22.5662 49.5448
22.6118 49.6479
22.6572 50.0786
22.7028 50.2822
22.7483 50.7583
22.7939 51.6534
22.8393 53.1082
22.8849 54.9749
22.9303 56.4493
22.9759 58.4251
23.0214 58.1998
23.067 55.4291
23.1126 51.9791
23.1581 50.1285
23.2037 49.6785
23.2492 49.762
23.2948 50.0029
23.3403 50.0948
23.3859 50.6979
23.4314 51.9948
23.477 53.7927
23.5225 55.5572
23.5682 57.2885
23.6137 58.601
23.6593 56.4669
23.7048 52.4741
23.7505 49.0743
23.796 47.3421
23.8417 46.7879
23.8872 46.2962
23.9329 45.9064
23.9784 45.5104
24.0241 45.4244
24.0697 45.2737
24.1154 44.8695
24.1609 44.7739
24.2066 44.6419
24.2522 44.5248
24.2979 44.1655
24.3434 44.0375
24.3892 43.9057
24.4349 43.8249
24.4805 43.5954
24.5262 43.7112
24.5718 43.7239
24.6175 43.6878
24.6631 43.6019
24.7089 43.2158
24.7545 43.103
24.8002 43.0204
24.8458 43.0399
24.8916 42.7582
24.9372 43.044
24.983 43.3435
25.0286 43.5846
25.0744 44.0948
25.12 44.4849
25.1658 45.153
25.2114 45.4377
25.2572 45.487
25.3029 45.4386
25.3487 45.5401
25.3943 45.3494
25.4402 44.4405
25.4858 43.1483
25.5316 42.3049
25.5773 41.7285
25.6231 41.5485
25.669 41.2755
25.7147 41.3019
25.7605 41.253
25.8062 41.2272
25.8521 41.2644
25.8977 41.3265
25.9436 41.5855
25.9893 41.7108
26.0352 42.0033
26.0809 42.2216
26.1268 42.3052
26.1725 42.0518
26.2184 41.5467
26.2641 40.9915
26.31 40.8388
26.3557 40.8935
26.4017 40.9114
26.4474 41.182
26.4933 41.5053
26.5391 42.0185
26.585 42.2217
26.6308 42.7561
26.6767 42.9133
26.7225 42.7263
26.7684 42.1899
26.8142 41.4377
26.8601 41.0726
26.9059 40.6934
26.9519 40.1904
26.9979 39.9146
27.0437 39.6365
27.0896 39.3671
27.1354 39.481
27.1814 39.2326
27.2272 39.266
27.2732 39.275
27.3191 38.9814
27.3651 39.1743
27.4109 39.0855
27.4569 39.1466
27.5027 39.2284
27.5488 39.3296
27.5946 39.0466
27.6407 38.9101
27.6865 38.7196
27.7326 38.5892
27.7784 38.6735
27.8245 38.4872
27.8703 38.6408
27.9164 38.9896
27.9623 39.1725
28.0084 39.3037
28.0543 39.7893
28.1003 39.8514
28.1462 39.4474
28.1923 39.06
28.2384 38.5884
28.2843 38.2778
28.3304 37.7281
28.3764 37.2827
28.4225 37.0543
28.4684 36.7445
28.5145 36.5817
28.5605 36.4695
28.6066 36.2732
28.6526 36.2318
28.6987 36.2323
28.7447 36.0735
28.7908 36.0803
28.8368 36.1572
28.8829 35.8717
28.9289 35.9418
28.9751 35.7212
29.0211 35.5109
29.0673 35.1889
29.1133 35.1318
29.1595 34.9612
29.2055 34.9321
29.2517 34.9348
29.2977 34.8574
29.3439 34.7982
29.3899 34.7345
29.4361 34.7103
29.4824 34.5738
29.5284 34.3375
29.5746 33.8998
29.6207 33.6772
29.6669 33.6046
29.713 33.5507
29.7593 33.4024
29.8053 33.5168
29.8516 33.265
29.8977 33.31
29.9439 33.1396
29.99 33.143
30.0363 33.0364
30.0824 32.9462
30.1287 32.8569
30.1748 32.9181
30.2211 32.8985
30.2673 32.8117
30.3136 32.9091
30.3597 32.8406
30.406 32.7461
30.4522 32.59
30.4985 32.6022
30.5447 32.6602
30.591 32.6718
30.6372 32.7152
30.6835 32.734
30.7297 32.7359
30.7761 32.6509
30.8224 32.5572
30.8686 32.3489
30.915 32.122
30.9612 32.0082
31.0076 31.8379
31.0538 31.7453
31.1002 31.6159
31.1464 31.4572
31.1928 31.4936
31.2391 31.4898
31.2855 31.5068
31.3317 31.3702
31.3781 31.4829
31.4244 31.3781
31.4708 31.3042
31.5171 31.3984
31.5636 31.2213
31.6098 31.0328
31.6563 30.8892
31.7026 30.7759
31.7491 30.694
31.7953 30.6347
31.8418 30.6005
31.8881 30.6417
31.9346 30.5724
31.9809 30.5185
32.0275 30.4554
32.074 30.3428
32.1203 30.1383
32.1668 29.9657
32.2132 29.8581
32.2597 29.7515
32.306 29.6115
32.3526 29.426
32.399 29.3735
32.4455 29.2922
32.4919 29.1058
32.5385 29.1388
32.5848 28.9808
32.6314 28.9029
32.6778 28.8471
32.7244 28.7802
32.7708 28.6948
32.8174 28.575
32.8638 28.5047
32.9104 28.5328
32.9569 28.4782
33.0035 28.3709
33.0499 28.353
33.0966 28.2957
33.143 28.2344
33.1897 28.1308
33.2361 28.0855
33.2828 28.0568
33.3293 27.8345
33.3759 27.7823
33.4226 27.6821
33.4691 27.5583
33.5158 27.5528
33.5623 27.3886
33.609 27.1149
33.6555 27.1137
33.7022 27.0175
33.7487 26.9822
33.7954 26.9181
33.842 26.7422
33.8887 26.7582
33.9353 26.6896
33.982 26.5697
34.0286 26.4518
34.0753 26.4001
34.1219 26.3631
34.1687 26.3397
34.2152 26.2406
34.262 26.109
34.3086 25.9364
34.3554 25.8461
34.402 25.807
34.4488 25.6985
34.4954 25.7171
34.5422 25.6302
34.5889 25.4556
34.6357 25.456
34.6825 25.3633
34.7292 25.1734
34.776 25.1411
34.8227 25.162
34.8695 25.0076
34.9162 24.9268
34.9631 24.8956
35.0098 24.8093
35.0566 24.7298
35.1033 24.6924
35.1502 24.6045
35.1969 24.5113
35.2438 24.5611
35.2906 24.5276
35.3375 24.5228
35.3842 24.5044
35.4311 24.3949
35.4779 24.3546
35.5248 24.3169
35.5716 24.1766
35.6185 24.0012
35.6653 24.0488
35.7123 23.9019
35.759 23.8117
35.806 23.6832
35.8528 23.6693
35.8998 23.6121
35.9468 23.5297
35.9936 23.3695
36.0406 23.3866
36.0874 23.3846
36.1345 23.2468
36.1813 23.107
36.2283 23.1196
36.2752 23.0339
36.3222 22.9966
36.3691 22.9083
36.4161 22.8481
36.463 22.8174
36.5101 22.7521
36.557 22.7718
36.6041 22.5058
36.651 22.5668
36.6981 22.5022
36.745 22.4068
36.7921 22.3009
36.839 22.2104
36.8861 22.1361
36.9331 21.9969
36.9802 22.0143
37.0272 21.9258
37.0743 21.8789
37.1213 21.8334
37.1684 21.7745
37.2154 21.7328
37.2626 21.6365
37.3098 21.5508
37.3568 21.4659
37.404 21.4304
37.451 21.2406
37.4982 21.2407
37.5452 21.2119
37.5924 21.1847
37.6395 21.1378
37.6867 21.0377
37.7337 20.9885
37.781 20.8795
37.8281 20.802
37.8753 20.7538
37.9224 20.67
37.9697 20.5769
38.0168 20.5204
38.064 20.4617
38.1111 20.452
38.1584 20.4317
38.2056 20.3139
38.2529 20.1954
38.3 20.1411
38.3473 20.1166
38.3945 20.0018
38.4418 19.9755
38.489 19.9242
38.5363 19.8388
38.5837 19.7797
38.6309 19.7153
38.6782 19.6821
38.7254 19.5695
38.7728 19.5038
38.82 19.4069
38.8674 19.4342
38.9146 19.3582
38.9621 19.3056
39.0093 19.2995
39.0567 19.1637
39.104 19.1021
39.1514 19.0027
39.1987 19.0051
39.2461 18.9371
39.2934 18.8996
39.3409 18.7911
39.3882 18.7065
39.4356 18.6685
39.483 18.6394
39.5304 18.515
39.5778 18.544
39.6253 18.441
39.6726 18.3498
39.7201 18.3497
39.7675 18.2644
39.815 18.2462
39.8624 18.1498
39.9099 18.2106
39.9575 18.005
40.0049 17.9728
40.0525 17.8956
40.0999 17.8932
40.1474 17.8296
40.1949 17.7735
40.2425 17.6844
40.2899 17.6108
40.3375 17.5986
40.385 17.5629
40.4326 17.4936
40.48 17.4095
40.5277 17.3727
40.5752 17.2833
40.6228 17.2369
40.6703 17.2645
40.718 17.1719
40.7655 17.0952
40.8132 17.0058
40.8607 17.0651
40.9084 16.9098
40.9559 16.8897
41.0036 16.8633
41.0512 16.7543
41.0989 16.7879
41.1465 16.6164
41.1942 16.623
41.242 16.5155
41.2896 16.4878
41.3373 16.4042
41.3849 16.4184
41.4327 16.3407
41.4803 16.2022
41.5281 16.2127
41.5758 16.2327
41.6236 16.1455
41.6712 16.0186
41.7191 16.023
41.7667 15.9701
41.8146 15.9205
41.8622 15.8426
41.9101 15.7866
41.9578 15.699
42.0057 15.6322
42.0534 15.6588
42.1013 15.5738
42.149 15.5094
42.1969 15.4699
42.2446 15.4242
42.2925 15.3571
42.3403 15.2989
42.3882 15.2999
42.436 15.2012
42.4839 15.1645
42.5319 15.1033
42.5797 15.0354
42.6277 15.0045
42.6755 14.9706
42.7235 14.9374
42.7713 14.8408
42.8193 14.8483
42.8671 14.7485
42.9152 14.7141
42.963 14.6437
43.0111 14.5778
43.0589 14.5706
43.107 14.5156
43.1549 14.4278
43.2029 14.3788
43.2508 14.39
43.2989 14.2809
43.3468 14.2296
43.3949 14.1453
43.4429 14.1886
43.491 14.0722
43.5389 14.0775
43.5871 13.9985
43.635 13.9622
43.6832 13.911
43.7312 13.7856
43.7793 13.8108
43.8273 13.7632
43.8755 13.7222
43.9237 13.6889
43.9717 13.6367
44.0199 13.6042
44.068 13.4602
44.1162 13.463
44.1642 13.5319
44.2125 13.4092
44.2606 13.3717
44.3088 13.3228
44.3569 13.2456
44.4052 13.2295
44.4533 13.1338
44.5016 13.1019
44.5497 13.1218
44.598 13.044
44.6461 12.9713
44.6945 12.8993
44.7426 12.867
44.791 12.8848
44.8391 12.7771
44.8875 12.7323
44.9357 12.7237
44.984 12.6551
45.0322 12.6134
45.0806 12.5738
45.1288 12.5887
45.1773 12.4584
45.2257 12.4381
45.2739 12.3818
45.3224 12.3668
45.3706 12.3466
45.4191 12.2158
45.4673 12.2289
45.5158 12.1772
45.5641 12.0999
45.6126 12.0526
45.6609 12.001
45.7094 12.0195
45.7577 11.9501
45.8063 11.8824
45.8546 11.8502
45.9031 11.8444
45.9515 11.8471
46.0001 11.757
46.0484 11.7155
46.097 11.6504
46.1454 11.6514
46.194 11.6206
46.2424 11.5287
46.291 11.4709
46.3395 11.4952
46.3881 11.3685
46.4365 11.3682
46.4852 11.3232
46.5337 11.2953
46.5823 11.2397
46.631 11.1828
46.6795 11.177
46.7282 11.1259
46.7767 11.0925
46.8254 11.0196
46.8739 11.0011
46.9226 10.9723
46.9712 10.8994
47.0199 10.8897
47.0685 10.807
47.1173 10.8217
47.1658 10.7662
47.2146 10.7338
47.2632 10.6573
47.312 10.6472
47.3606 10.601
47.4095 10.5808
47.4581 10.517
47.5069 10.4424
47.5556 10.416
47.6044 10.3845
47.6531 10.3759
47.702 10.3079
47.7507 10.3289
47.7996 10.2781
47.8483 10.2209
47.8972 10.1761
47.9461 10.1466
47.9948 10.0753
48.0438 10.0848
48.0925 10.0568
48.1415 10.0194
48.1902 9.9569
48.2392 9.94466
48.288 9.91503
48.337 9.86389
48.3858 9.79329
48.4348 9.78593
48.4837 9.76202
48.5327 9.7013
48.5815 9.67647
48.6306 9.67134
48.6795 9.60274
48.7285 9.60018
48.7774 9.51603
48.8265 9.51823
48.8754 9.43779
48.9245 9.42884
48.9734 9.41401
49.0226 9.38416
49.0715 9.3173
49.1206 9.31263
49.1696 9.24699
49.2188 9.19934
49.2679 9.20611
49.3169 9.14403
49.3661 9.08453
49.4151 9.10098
49.4643 9.07692
49.5134 8.98895
49.5626 8.97827
49.6117 8.96969
49.6609 8.91336
49.71 8.84156
49.7592 8.84061
49.8083 8.79599
49.8576 8.79943
49.9067 8.72456
49.956 8.73401
50.0052 8.6743
50.0545 8.61389
50.1036 8.57587
50.153 8.55659
50.2022 8.56971
50.2515 8.49928
50.3007 8.4419
50.3501 8.44303
50.3993 8.40777
50.4487 8.36717
50.498 8.33905
50.5474 8.31956
50.5966 8.27362
50.6461 8.24326
50.6955 8.22017
50.7448 8.19514
50.7943 8.15881
50.8436 8.14266
50.8931 8.07297
50.9424 8.04841
50.9919 7.99144
51.0413 8.0235
51.0908 7.94635
51.1402 7.91515
51.1897 7.90995
51.2391 7.81623
51.2887 7.82632
51.3381 7.77522
51.3877 7.79121
51.4371 7.76837
51.4867 7.69744
51.5362 7.68806
51.5858 7.64612
51.6353 7.60062
51.6849 7.58264
51.7344 7.59466
51.7841 7.51299
51.8336 7.50627
51.8833 7.42132
51.9328 7.41409
51.9826 7.34442
52.0323 7.3729
52.0818 7.29366
52.1316 7.26495
52.1812 7.29801
52.231 7.23953
52.2806 7.19601
52.3304 7.1992
52.38 7.15907
52.4298 7.10236
52.4794 7.03875
52.5293 7.07502
52.5789 7.04644
52.6288 7.00073
52.6785 6.96982
52.7284 6.91976
52.7781 6.93048
52.828 6.91457
52.8777 6.87238
52.9276 6.81616
52.9774 6.79322
53.0273 6.78351
53.0771 6.72685
53.1271 6.71069
53.1769 6.6558
53.2269 6.69119
53.2767 6.64775
53.3267 6.65215
53.3765 6.5801
53.4266 6.58255
53.4766 6.5082
53.5265 6.46718
53.5765 6.46971
53.6264 6.42286
53.6765 6.3966
53.7264 6.35471
53.7765 6.35397
53.8265 6.31738
53.8766 6.29634
53.9266 6.24109
53.9767 6.24004
54.0267 6.21654
54.0769 6.18172
54.1269 6.13046
54.1771 6.06848
54.2271 6.09334
54.2773 6.0133
54.3274 6.02523
54.3776 5.98695
54.4277 5.95615
54.478 5.94849
54.528 5.85783
54.5783 5.8718
54.6285 5.79679
54.6788 5.78031
54.7289 5.70505
54.7792 5.67675
54.8296 5.60053
54.8798 5.57696
54.9301 5.57853
54.9803 5.49528
55.0307 5.54775
55.0809 5.4433
55.1314 5.42524
55.1816 5.37568
55.232 5.35285
55.2823 5.25431
55.3328 5.18189
55.383 5.12556
55.4335 5.13345
55.4838 5.06284
55.5344 5.05613
55.5847 4.99912
55.6352 4.95797
55.6856 4.91376
55.7361 4.88266