File: XRD/Ni3Fe_FD0068.xy
TT I
1.27165 29.6586
1.31627 27.9736
1.36089 26.6495
1.40551 24.4258
1.45013 24.0764
1.49476 22.9122
1.53938 21.6708
1.584 20.9789
1.62863 20.6605
1.67325 19.6306
1.71787 19.3913
1.7625 19.1946
1.80712 18.7687
1.85174 18.3782
1.89636 17.9768
1.94099 18.1137
1.98562 17.1436
2.03025 18.0787
2.07487 17.4092
2.11949 17.5314
2.16411 18.0581
2.20874 17.7558
2.25338 17.9884
2.298 18.0433
2.34263 17.8616
2.38725 18.3068
2.43188 19.0297
2.4765 18.8437
2.52115 19.5041
2.56577 20.185
2.6104 21.2169
2.65503 20.6453
2.69965 22.2666
2.7443 24.046
2.78893 26.1332
2.83356 28.714
2.87818 32.0623
2.92281 36.4816
2.96744 42.2375
3.01209 49.8838
3.05672 56.135
3.10135 63.7438
3.14599 64.9225
3.19062 61.5711
3.23527 54.4429
3.2799 44.9702
3.32454 38.1528
3.36917 32.8644
3.4138 29.4219
3.45844 27.6122
3.50309 26.258
3.54773 25.5152
3.59237 25.0442
3.637 24.8947
3.68164 24.3625
3.7263 24.5287
3.77094 24.8194
3.81558 24.8463
3.86022 25.0177
3.90486 25.7626
3.9495 26.1489
3.99416 26.9487
4.0388 27.657
4.08344 28.8192
4.12809 28.99
4.17273 30.4171
4.21738 31.1903
4.26204 33.8211
4.30669 36.9106
4.35133 39.305
4.39598 37.9218
4.44063 37.3625
4.4853 37.8482
4.52995 39.5197
4.5746 40.6668
4.61925 42.7051
4.6639 44.3464
4.70855 47.0519
4.75322 50.0362
4.79788 53.6339
4.84253 57.6356
4.88719 63.3697
4.93184 71.3816
4.97652 84.8743
5.02118 105.128
5.06583 122.474
5.11049 147.159
5.15515 202.267
5.19981 385.218
5.24449 995.049
5.28916 2110.83
5.33382 4441.4
5.37848 2415.99
5.42315 572.845
5.46783 254.325
5.5125 176.887
5.55716 142.739
5.60183 122.369
5.6465 114.179
5.69117 109.261
5.73586 102.966
5.78053 101.972
5.8252 103.511
5.86988 110.445
5.91455 124.599
5.95924 152.822
6.00392 232.856
6.0486 431.455
6.09328 697.698
6.13795 1225.23
6.18263 967.644
6.22733 379.356
6.27201 179.191
6.3167 114.464
6.36138 85.492
6.40606 70.8348
6.45075 63.118
6.49545 57.2529
6.54014 53.684
6.58483 50.3709
6.62952 48.4648
6.67421 46.7694
6.71892 45.276
6.76361 43.7713
6.8083 43.2705
6.853 42.1941
6.89769 42.1583
6.94239 42.4781
6.98711 42.1026
7.03181 43.3416
7.07651 44.2937
7.12121 44.3447
7.16591 42.6513
7.21063 40.7986
7.25533 40.4066
7.30004 40.4269
7.34475 40.5705
7.38945 40.9473
7.43416 41.3466
7.47889 44.5755
7.5236 71.3573
7.56831 188.467
7.61303 127.586
7.65774 53.653
7.70247 43.3248
7.74719 41.2353
7.79191 40.5631
7.83663 40.3426
7.88135 40.7436
7.92607 41.0232
7.97081 41.5043
8.01553 42.2565
8.06026 42.919
8.10498 44.1865
8.14971 44.9604
8.19446 46.8597
8.23919 48.9784
8.28392 51.9604
8.32865 54.911
8.37339 58.7694
8.41812 63.6464
8.46288 74.5811
8.50761 100.725
8.55235 171.051
8.59709 228.33
8.64183 346.593
8.68658 704.695
8.73134 630.996
8.77609 253.441
8.82083 130.823
8.86558 93.4031
8.91033 80.2688
8.9551 73.66
8.99985 69.9315
9.04461 67.9203
9.08936 66.901
9.13412 67.6741
9.17888 72.8991
9.22365 112.713
9.26841 300.133
9.31318 245.425
9.35794 90.8971
9.4027 68.0396
9.44749 63.4843
9.49226 61.2496
9.53703 60.8005
9.5818 61.1368
9.62657 60.9866
9.67134 61.4692
9.71614 62.8558
9.76091 64.0767
9.80569 66.0823
9.85047 68.6045
9.89525 73.4633
9.94005 82.377
9.98484 103.534
10.0296 162.157
10.0744 202.746
10.1192 248.177
10.164 474.209
10.2088 727.445
10.2536 445.302
10.2984 187.84
10.3432 117.761
10.388 91.932
10.4328 85.6764
10.4776 95.9402
10.5224 102.611
10.5672 108.322
10.612 162.363
10.6568 256.365
10.7017 232.173
10.7465 147.002
10.7913 79.0588
10.8361 61.8883
10.8809 56.254
10.9257 53.3197
10.9706 51.6287
11.0154 49.8039
11.0602 48.2711
11.105 47.5953
11.1499 46.5871
11.1947 46.171
11.2395 45.1745
11.2844 44.6549
11.3292 43.8704
11.374 43.2899
11.4189 42.6833
11.4637 42.2963
11.5086 41.9709
11.5534 41.6284
11.5983 41.6987
11.6431 41.6834
11.688 41.4556
11.7328 41.5716
11.7777 41.8442
11.8225 42.3197
11.8674 43.4383
11.9122 49.5846
11.9571 81.8256
12.002 108.571
12.0468 70.0561
12.0917 52.7794
12.1366 52.6858
12.1814 53.7944
12.2263 59.4221
12.2712 74.9092
12.3161 88.9928
12.3609 74.0481
12.4058 56.0095
12.4507 48.1807
12.4956 45.2067
12.5405 43.2021
12.5853 42.5218
12.6302 42.1815
12.6751 41.9859
12.72 42.231
12.7649 42.47
12.8098 42.9043
12.8547 43.3869
12.8996 44.0564
12.9445 45.1611
12.9894 46.2714
13.0343 48.0749
13.0792 53.088
13.1242 64.5822
13.1691 70.7002
13.214 73.8891
13.2589 75.4432
13.3038 79.5963
13.3487 103.159
13.3937 159.488
13.4386 186.195
13.4835 133.088
13.5285 95.3439
13.5734 86.4418
13.6183 80.2418
13.6633 83.8018
13.7082 111.153
13.7531 163.097
13.7981 163.111
13.843 100.873
13.888 69.3199
13.9329 58.0217
13.9779 53.7949
14.0228 51.7634
14.0678 50.8536
14.1127 54.3759
14.1577 76.7318
14.2027 98.3132
14.2476 71.8193
14.2926 51.3102
14.3376 47.0177
14.3825 45.4218
14.4275 44.7796
14.4725 44.3946
14.5175 44.3021
14.5624 43.7923
14.6074 43.8492
14.6524 43.9159
14.6974 44.2253
14.7424 44.6462
14.7874 46.6131
14.8324 50.8678
14.8774 54.2428
14.9224 54.542
14.9674 57.0625
15.0124 67.2971
15.0574 91.0987
15.1024 106.917
15.1474 86.601
15.1924 64.4903
15.2374 52.6534
15.2824 47.3086
15.3274 44.8366
15.3725 43.8905
15.4175 43.372
15.4625 42.896
15.5076 42.4926
15.5526 42.694
15.5976 42.6598
15.6426 43.0579
15.6877 44.1927
15.7327 47.3295
15.7778 50.2862
15.8228 50.3783
15.8679 52.0981
15.9129 57.617
15.958 74.157
16.003 94.8084
16.0481 93.3925
16.0931 78.0289
16.1382 62.5349
16.1833 48.6794
16.2283 42.4033
16.2734 40.2019
16.3185 38.7827
16.3636 37.6545
16.4086 36.9575
16.4537 36.6483
16.4988 36.067
16.5439 35.9221
16.589 35.7488
16.6341 35.395
16.6792 35.1516
16.7243 35.3883
16.7694 35.046
16.8145 35.0535
16.8596 35.3127
16.9047 36.6621
16.9498 40.4114
16.9949 42.5188
17.04 39.103
17.0851 36.6203
17.1302 36.5503
17.1754 37.0703
17.2205 37.3296
17.2656 37.2591
17.3108 38.4238
17.3559 40.0078
17.401 44.335
17.4462 47.6439
17.4913 45.0879
17.5365 40.7258
17.5815 38.6744
17.6268 37.9858
17.6718 37.9595
17.7171 38.3858
17.7622 40.6777
17.8074 44.1706
17.8525 44.1127
17.8977 42.3321
17.9428 43.4895
17.9881 44.4606
18.0331 44.404
18.0784 45.1801
18.1237 48.5089
18.1688 56.2867
18.214 70.7826
18.2591 77.793
18.3044 66.6534
18.3495 54.4261
18.3948 50.3702
18.4399 52.5836
18.4852 58.6439
18.5303 60.0127
18.5756 53.8962
18.6207 48.6605
18.666 43.8498
18.7112 40.5139
18.7565 39.0489
18.8016 38.5388
18.8469 37.8354
18.892 37.3947
18.9374 37.2205
18.9825 36.8455
19.0278 36.4938
19.073 36.6157
19.1183 36.3556
19.1635 36.6159
19.2088 37.233
19.254 37.639
19.2993 38.9803
19.3447 43.2907
19.3898 46.7963
19.4352 44.6562
19.4804 43.9005
19.5257 44.0309
19.5709 41.2109
19.6163 38.103
19.6615 36.1041
19.7068 35.2111
19.752 34.577
19.7974 34.3518
19.8426 34.4723
19.888 34.3526
19.9332 34.6423
19.9786 34.5942
20.0238 34.5017
20.0692 34.8009
20.1144 35.6584
20.1598 37.5389
20.205 39.9134
20.2504 41.4535
20.2957 39.9412
20.3411 37.6166
20.3863 37.1268
20.4318 38.2377
20.477 39.5819
20.5224 38.137
20.5677 35.434
20.6131 33.7347
20.6586 32.8404
20.7038 32.6534
20.7493 32.6628
20.7945 34.0803
20.84 34.8522
20.8853 33.687
20.9307 32.0435
20.976 31.3882
21.0215 31.1318
21.0668 31.1524
21.1122 30.9627
21.1575 30.9928
21.203 30.883
21.2483 31.027
21.2938 31.2764
21.3391 31.7231
21.3846 32.1377
21.4299 32.4192
21.4754 32.0984
21.5207 31.8406
21.5662 31.6788
21.6116 31.2247
21.6571 31.2095
21.7024 31.6496
21.7479 32.015
21.7933 31.8822
21.8388 31.9837
21.8843 32.5173
21.9297 33.165
21.9752 34.7965
22.0206 37.2226
22.0661 38.8796
22.1115 38.506
22.157 37.0881
22.2024 36.8055
22.248 35.934
22.2933 35.4987
22.3389 34.1247
22.3843 32.7889
22.4299 31.949
22.4753 31.581
22.5208 31.1416
22.5662 31.1103
22.6118 31.0344
22.6572 31.0141
22.7028 31.1197
22.7483 31.4485
22.7939 31.9751
22.8393 32.4299
22.8849 32.1802
22.9303 31.8481
22.9759 31.8321
23.0214 32.3919
23.067 33.7733
23.1126 35.1467
23.1581 35.6389
23.2037 34.4548
23.2492 32.6641
23.2948 31.9211
23.3403 31.6827
23.3859 31.9821
23.4314 32.6255
23.477 33.0828
23.5225 32.7106
23.5682 32.1635
23.6137 32.1466
23.6593 32.8481
23.7048 34.3292
23.7505 35.7615
23.796 34.9327
23.8417 32.9498
23.8872 31.235
23.9329 30.4109
23.9784 29.8667
24.0241 29.5513
24.0697 29.6498
24.1154 29.2185
24.1609 28.9479
24.2066 28.624
24.2522 28.4895
24.2979 28.2349
24.3434 28.13
24.3892 28.0634
24.4349 27.9725
24.4805 27.792
24.5262 27.7603
24.5718 27.5732
24.6175 27.8829
24.6631 28.1999
24.7089 28.4006
24.7545 28.0331
24.8002 27.6576
24.8458 27.5067
24.8916 27.207
24.9372 27.1787
24.983 27.1681
25.0286 27.3014
25.0744 27.2536
25.12 27.1877
25.1658 27.3428
25.2114 27.435
25.2572 27.6478
25.3029 28.0195
25.3487 28.2858
25.3943 27.9982
25.4402 27.9872
25.4858 28.3339
25.5316 28.4354
25.5773 28.0119
25.6231 27.428
25.669 26.7305
25.7147 26.5624
25.7605 26.4773
25.8062 26.4534
25.8521 26.6645
25.8977 26.5601
25.9436 26.3634
25.9893 26.0092
26.0352 26.0562
26.0809 25.9937
26.1268 26.0019
26.1725 26.0897
26.2184 26.4087
26.2641 26.5979
26.31 26.644
26.3557 26.5193
26.4017 26.0732
26.4474 26.1105
26.4933 25.8879
26.5391 25.847
26.585 25.7395
26.6308 25.87
26.6767 25.7714
26.7225 26.2123
26.7684 26.5297
26.8142 26.8741
26.8601 26.9338
26.9059 26.7985
26.9519 26.7364
26.9979 26.7119
27.0437 26.343
27.0896 25.8062
27.1354 25.6273
27.1814 25.3653
27.2272 25.2396
27.2732 25.1606
27.3191 25.0176
27.3651 24.9657
27.4109 24.8291
27.4569 24.875
27.5027 24.9296
27.5488 24.9014
27.5946 24.7947
27.6407 24.7379
27.6865 24.8736
27.7326 24.7865
27.7784 24.8273
27.8245 24.6713
27.8703 24.613
27.9164 24.4724
27.9623 24.5125
28.0084 24.7384
28.0543 24.8962
28.1003 24.7415
28.1462 24.7428
28.1923 24.8957
28.2384 25.0778
28.2843 24.9593
28.3304 24.784
28.3764 24.5674
28.4225 24.5457
28.4684 24.1852
28.5145 23.9462
28.5605 23.7586
28.6066 23.575
28.6526 23.4835
28.6987 23.3261
28.7447 23.1277
28.7908 23.0276
28.8368 22.9783
28.8829 22.8936
28.9289 22.8786
28.9751 22.7768
29.0211 22.8327
29.0673 22.7377
29.1133 22.8148
29.1595 22.6691
29.2055 22.5272
29.2517 22.3765
29.2977 22.124
29.3439 22.2596
29.3899 22.1356
29.4361 22.0788
29.4824 22.0454
29.5284 22.0044
29.5746 21.9717
29.6207 21.9665
29.6669 21.9099
29.713 21.6893
29.7593 21.5065
29.8053 21.5645
29.8516 21.3959
29.8977 21.3813
29.9439 21.3378
29.99 21.3235
30.0363 21.2553
30.0824 21.3534
30.1287 21.1968
30.1748 21.1613
30.2211 21.077
30.2673 20.9346
30.3136 20.988
30.3597 20.9963
30.406 21.0068
30.4522 21.008
30.4985 20.9534
30.5447 20.86
30.591 20.7535
30.6372 20.7613
30.6835 20.8066
30.7297 20.7171
30.7761 20.6583
30.8224 20.8303
30.8686 20.7817
30.915 20.8481
30.9612 20.8318
31.0076 20.7644
31.0538 20.7144
31.1002 20.6571
31.1464 20.4704
31.1928 20.3564
31.2391 20.3431
31.2855 20.1992
31.3317 20.1351
31.3781 20.2173
31.4244 20.132
31.4708 20.0183
31.5171 20.0648
31.5636 20.141
31.6098 20.0096
31.6563 19.9873
31.7026 20.0324
31.7491 19.9393
31.7953 19.9617
31.8418 19.809
31.8881 19.7692
31.9346 19.6044
31.9809 19.6058
32.0275 19.4973
32.074 19.5392
32.1203 19.5343
32.1668 19.6251
32.2132 19.5331
32.2597 19.4749
32.306 19.3295
32.3526 19.1981
32.399 19.189
32.4455 19.0317
32.4919 19.0296
32.5385 18.9546
32.5848 18.7825
32.6314 18.8598
32.6778 18.8037
32.7244 18.628
32.7708 18.5707
32.8174 18.6052
32.8638 18.4732
32.9104 18.5925
32.9569 18.4501
33.0035 18.3692
33.0499 18.3894
33.0966 18.3118
33.143 18.2387
33.1897 18.1381
33.2361 18.1379
33.2828 18.1274
33.3293 18.0622
33.3759 18.1221
33.4226 18.0492
33.4691 17.9905
33.5158 17.9303
33.5623 17.8793
33.609 17.8043
33.6555 17.7269
33.7022 17.5765
33.7487 17.5273
33.7954 17.5728
33.842 17.3902
33.8887 17.4365
33.9353 17.3588
33.982 17.3033
34.0286 17.2236
34.0753 17.2502
34.1219 17.1875
34.1687 17.1575
34.2152 17.0738
34.262 16.9722
34.3086 16.9144
34.3554 16.8878
34.402 16.7748
34.4488 16.8095
34.4954 16.7741
34.5422 16.7844
34.5889 16.5584
34.6357 16.5957
34.6825 16.5411
34.7292 16.4784
34.776 16.4585
34.8227 16.3211
34.8695 16.32
34.9162 16.271
34.9631 16.1866
35.0098 16.257
35.0566 16.1109
35.1033 16.0941
35.1502 16.1217
35.1969 16.0825
35.2438 15.9394
35.2906 15.9828
35.3375 15.8275
35.3842 15.8572
35.4311 15.7873
35.4779 15.7689
35.5248 15.7756
35.5716 15.7628
35.6185 15.7442
35.6653 15.7263
35.7123 15.6621
35.759 15.6168
35.806 15.572
35.8528 15.3878
35.8998 15.4628
35.9468 15.3696
35.9936 15.3903
36.0406 15.2668
36.0874 15.2196
36.1345 15.181
36.1813 15.1143
36.2283 15.0755
36.2752 14.9959
36.3222 15.0815
36.3691 14.9935
36.4161 14.951
36.463 14.9189
36.5101 14.9433
36.557 14.872
36.6041 14.7727
36.651 14.7661
36.6981 14.7549
36.745 14.7001
36.7921 14.6006
36.839 14.5274
36.8861 14.5175
36.9331 14.4381
36.9802 14.5158
37.0272 14.3964
37.0743 14.3492
37.1213 14.3661
37.1684 14.233
37.2154 14.2142
37.2626 14.1931
37.3098 14.1269
37.3568 14.1008
37.404 14.1165
37.451 14.0635
37.4982 13.9428
37.5452 13.894
37.5924 13.8344
37.6395 13.8974
37.6867 13.8122
37.7337 13.7668
37.781 13.6922
37.8281 13.6781
37.8753 13.6016
37.9224 13.5637
37.9697 13.5491
38.0168 13.4731
38.064 13.4486
38.1111 13.4391
38.1584 13.3683
38.2056 13.3617
38.2529 13.2882
38.3 13.2045
38.3473 13.2645
38.3945 13.1581
38.4418 13.1468
38.489 13.1228
38.5363 13.0194
38.5837 12.9961
38.6309 12.9437
38.6782 12.9345
38.7254 12.849
38.7728 12.8947
38.82 12.8108
38.8674 12.7966
38.9146 12.7274
38.9621 12.7075
39.0093 12.695
39.0567 12.6131
39.104 12.6043
39.1514 12.5321
39.1987 12.5336
39.2461 12.5319
39.2934 12.3965
39.3409 12.329
39.3882 12.319
39.4356 12.3093
39.483 12.2821
39.5304 12.2439
39.5778 12.2172
39.6253 12.1663
39.6726 12.147
39.7201 12.1209
39.7675 12.059
39.815 12.0439
39.8624 11.9763
39.9099 11.9791
39.9575 11.8744
40.0049 11.8919
40.0525 11.7925
40.0999 11.834
40.1474 11.7731
40.1949 11.7941
40.2425 11.7011
40.2899 11.7058
40.3375 11.638
40.385 11.6078
40.4326 11.556
40.48 11.5253
40.5277 11.5289
40.5752 11.4952
40.6228 11.4348
40.6703 11.3626
40.718 11.3476
40.7655 11.2934
40.8132 11.3099
40.8607 11.2769
40.9084 11.22
40.9559 11.1707
41.0036 11.1652
41.0512 11.1117
41.0989 11.1099
41.1465 11.0884
41.1942 11.0334
41.242 10.9726
41.2896 10.9608
41.3373 10.8604
41.3849 10.8575
41.4327 10.8465
41.4803 10.7886
41.5281 10.8088
41.5758 10.7198
41.6236 10.6929
41.6712 10.674
41.7191 10.605
41.7667 10.6085
41.8146 10.5392
41.8622 10.5333
41.9101 10.5211
41.9578 10.3933
42.0057 10.4493
42.0534 10.409
42.1013 10.3732
42.149 10.3501
42.1969 10.277
42.2446 10.2455
42.2925 10.2212
42.3403 10.1856
42.3882 10.1776
42.436 10.1014
42.4839 10.099
42.5319 10.0587
42.5797 10.0234
42.6277 9.9906
42.6755 9.97594
42.7235 9.95738
42.7713 9.94244
42.8193 9.89865
42.8671 9.83567
42.9152 9.78598
42.963 9.73598
43.0111 9.74205
43.0589 9.67579
43.107 9.69334
43.1549 9.6233
43.2029 9.62556
43.2508 9.56931
43.2989 9.49904
43.3468 9.47837
43.3949 9.48023
43.4429 9.47426
43.491 9.39773
43.5389 9.32644
43.5871 9.36966
43.635 9.32918
43.6832 9.33206
43.7312 9.2597
43.7793 9.22393
43.8273 9.21566
43.8755 9.12592
43.9237 9.13154
43.9717 9.11814
44.0199 9.08981
44.068 9.04472
44.1162 9.01156
44.1642 8.9651
44.2125 8.96513
44.2606 8.9749
44.3088 8.89981
44.3569 8.84012
44.4052 8.82219
44.4533 8.81272
44.5016 8.79996
44.5497 8.73836
44.598 8.70495
44.6461 8.67036
44.6945 8.67277
44.7426 8.64145
44.791 8.58985
44.8391 8.54997
44.8875 8.54302
44.9357 8.48708
44.984 8.46597
45.0322 8.48485
45.0806 8.4347
45.1288 8.39402
45.1773 8.379
45.2257 8.35228
45.2739 8.32573
45.3224 8.29292
45.3706 8.29742
45.4191 8.24669
45.4673 8.2079
45.5158 8.17139
45.5641 8.17787
45.6126 8.14148
45.6609 8.0813
45.7094 8.07504
45.7577 8.05634
45.8063 7.98674
45.8546 7.99768
45.9031 7.958
45.9515 7.9046
46.0001 7.90726
46.0484 7.88544
46.097 7.8596
46.1454 7.80723
46.194 7.80706
46.2424 7.72279
46.291 7.71698
46.3395 7.71751
46.3881 7.66344
46.4365 7.64911
46.4852 7.63719
46.5337 7.57869
46.5823 7.58643
46.631 7.54464
46.6795 7.5084
46.7282 7.47342
46.7767 7.45624
46.8254 7.40896
46.8739 7.35289
46.9226 7.37169
46.9712 7.35673
47.0199 7.31002
47.0685 7.27058
47.1173 7.24486
47.1658 7.24764
47.2146 7.19741
47.2632 7.21637
47.312 7.17356
47.3606 7.13524
47.4095 7.13225
47.4581 7.1049
47.5069 7.02339
47.5556 7.05501
47.6044 7.00488
47.6531 6.98294
47.702 6.91786
47.7507 6.91609
47.7996 6.88424
47.8483 6.8841
47.8972 6.86727
47.9461 6.82124
47.9948 6.81474
48.0438 6.80111
48.0925 6.78148
48.1415 6.76339
48.1902 6.70762
48.2392 6.74521
48.288 6.70304
48.337 6.66425
48.3858 6.64967
48.4348 6.60276
48.4837 6.62771
48.5327 6.58018
48.5815 6.55735
48.6306 6.52074
48.6795 6.49226
48.7285 6.4709
48.7774 6.43967
48.8265 6.42489
48.8754 6.37315
48.9245 6.36919
48.9734 6.3853
49.0226 6.3561
49.0715 6.32481
49.1206 6.29563
49.1696 6.28148
49.2188 6.27391
49.2679 6.20853
49.3169 6.20902
49.3661 6.18054
49.4151 6.16218
49.4643 6.12672
49.5134 6.0776
49.5626 6.07738
49.6117 6.0823
49.6609 6.04096
49.71 5.98466
49.7592 5.99143
49.8083 5.9439
49.8576 5.92915
49.9067 5.92192
49.956 5.90797
50.0052 5.88208
50.0545 5.8557
50.1036 5.81341
50.153 5.82144
50.2022 5.81623
50.2515 5.77302
50.3007 5.76795
50.3501 5.72435
50.3993 5.72687
50.4487 5.73207
50.498 5.69183
50.5474 5.63865
50.5966 5.62139
50.6461 5.61083
50.6955 5.60497
50.7448 5.57923
50.7943 5.56336
50.8436 5.57745
50.8931 5.51209
50.9424 5.52482
50.9919 5.46347
51.0413 5.43951
51.0908 5.43648
51.1402 5.42263
51.1897 5.41065
51.2391 5.34837
51.2887 5.35454
51.3381 5.34237
51.3877 5.32785
51.4371 5.28333
51.4867 5.2262
51.5362 5.24589
51.5858 5.22055
51.6353 5.21435
51.6849 5.17739
51.7344 5.17449
51.7841 5.16173
51.8336 5.13736
51.8833 5.12384
51.9328 5.10016
51.9826 5.07855
52.0323 5.02226
52.0818 5.03334
52.1316 4.97856
52.1812 4.97364
52.231 4.95197
52.2806 4.93187
52.3304 4.94265
52.38 4.88417
52.4298 4.9054
52.4794 4.85765
52.5293 4.83129
52.5789 4.82039
52.6288 4.82626
52.6785 4.78582
52.7284 4.76022
52.7781 4.7685
52.828 4.72919
52.8777 4.71046
52.9276 4.67348
52.9774 4.67142
53.0273 4.67005
53.0771 4.65275
53.1271 4.64593
53.1769 4.63325
53.2269 4.59108
53.2767 4.56131
53.3267 4.56031
53.3765 4.53881
53.4266 4.51354
53.4766 4.46816
53.5265 4.47183
53.5765 4.45718
53.6264 4.44433
53.6765 4.43519
53.7264 4.40434
53.7765 4.38628
53.8265 4.35991
53.8766 4.31045
53.9266 4.29523
53.9767 4.30689
54.0267 4.26438
54.0769 4.24721
54.1269 4.23404
54.1771 4.18534
54.2271 4.17073
54.2773 4.13227
54.3274 4.16143
54.3776 4.1109
54.4277 4.08052
54.478 4.05021
54.528 4.02517
54.5783 3.97135
54.6285 3.90777
54.6788 3.89492
54.7289 3.87531
54.7792 3.88401
54.8296 3.84333
54.8798 3.77877
54.9301 3.75493
54.9803 3.72544
55.0307 3.76287
55.0809 3.6568
55.1314 3.66538
55.1816 3.612
55.232 3.56642
55.2823 3.52128
55.3328 3.46068
55.383 3.42225
55.4335 3.39726
55.4838 3.36714
55.5344 3.34712
55.5847 3.29527
55.6352 3.29602
55.6856 3.31648
55.7361 3.27208