File: XRD/Ni3Fe_FD0892.xy
TT I
1.27165 7.48047
1.31627 6.55858
1.36089 6.46362
1.40551 6.94191
1.45013 5.88386
1.49476 6.47758
1.53938 6.40377
1.584 4.92714
1.62863 5.64773
1.67325 4.69571
1.71787 4.66437
1.7625 5.36809
1.80712 4.75477
1.85174 4.41565
1.89636 4.60589
1.94099 4.89231
1.98562 5.0543
2.03025 4.59249
2.07487 4.71316
2.11949 4.72043
2.16411 5.05778
2.20874 12.9331
2.25338 22.2104
2.298 6.37641
2.34263 5.57597
2.38725 6.09898
2.43188 6.62483
2.4765 7.8453
2.52115 7.28027
2.56577 7.50411
2.6104 8.38709
2.65503 8.44416
2.69965 8.9897
2.7443 8.21109
2.78893 8.52942
2.83356 8.95385
2.87818 8.70223
2.92281 9.83412
2.96744 9.55788
3.01209 10.3516
3.05672 11.5173
3.10135 12.0521
3.14599 13.5922
3.19062 14.6551
3.23527 15.2437
3.2799 15.5872
3.32454 16.9501
3.36917 17.769
3.4138 19.098
3.45844 19.6223
3.50309 20.4984
3.54773 21.6499
3.59237 23.7533
3.637 87.3866
3.68164 56.601
3.7263 26.1693
3.77094 26.0059
3.81558 26.6616
3.86022 27.1168
3.90486 28.6946
3.9495 29.6633
3.99416 30.3569
4.0388 32.3727
4.08344 33.5039
4.12809 34.5749
4.17273 36.5506
4.21738 41.5947
4.26204 232.28
4.30669 208.068
4.35133 47.6269
4.39598 43.6865
4.44063 52.8158
4.4853 63.2877
4.52995 49.6823
4.5746 50.4484
4.61925 52.7007
4.6639 54.5952
4.70855 57.3861
4.75322 59.9917
4.79788 62.7686
4.84253 65.6459
4.88719 70.1417
4.93184 73.8146
4.97652 78.8639
5.02118 84.964
5.06583 91.9848
5.11049 102.434
5.15515 163.26
5.19981 293.729
5.24449 2499.68
5.28916 13295.9
5.33382 2628.25
5.37848 170.646
5.42315 122.913
5.46783 109.204
5.5125 102.857
5.55716 99.3175
5.60183 96.4671
5.6465 93.9551
5.69117 91.9675
5.73586 89.8246
5.78053 89.586
5.8252 88.886
5.86988 89.2935
5.91455 91.3939
5.95924 97.7356
6.00392 176.882
6.0486 857.315
6.09328 4527.54
6.13795 3079.17
6.18263 203.073
6.22733 88.9112
6.27201 80.3819
6.3167 98.1363
6.36138 78.6565
6.40606 67.6435
6.45075 65.8817
6.49545 64.3615
6.54014 62.7314
6.58483 61.881
6.62952 61.8571
6.67421 89.7786
6.71892 136.719
6.76361 67.4735
6.8083 57.6063
6.853 56.4849
6.89769 55.9979
6.94239 55.3693
6.98711 54.8211
7.03181 54.7409
7.07651 54.2414
7.12121 54.4083
7.16591 54.0799
7.21063 54.6646
7.25533 68.6609
7.30004 168.093
7.34475 88.4555
7.38945 55.4128
7.43416 53.6595
7.47889 53.5968
7.5236 53.9303
7.56831 54.3648
7.61303 55.999
7.65774 56.3647
7.70247 55.0554
7.74719 55.415
7.79191 55.4762
7.83663 55.9857
7.88135 56.5587
7.92607 57.3693
7.97081 58.7267
8.01553 59.7811
8.06026 61.0677
8.10498 63.0939
8.14971 71.8339
8.19446 70.4757
8.23919 68.0595
8.28392 70.5296
8.32865 72.736
8.37339 76.3754
8.41812 83.2716
8.46288 108.965
8.50761 148.219
8.55235 341.783
8.59709 1169.99
8.64183 2291.24
8.68658 931.345
8.73134 151.107
8.77609 96.0808
8.82083 90.2088
8.86558 87.2048
8.91033 87.6026
8.9551 89.5016
8.99985 83.8695
9.04461 82.0354
9.08936 80.9911
9.13412 80.352
9.17888 80.3312
9.22365 81.6972
9.26841 80.5595
9.31318 81.0762
9.35794 80.9556
9.4027 81.381
9.44749 82.2842
9.49226 83.0639
9.53703 83.7736
9.5818 85.4016
9.62657 90.0458
9.67134 96.1556
9.71614 91.9548
9.76091 92.3434
9.80569 94.3147
9.85047 97.9293
9.89525 120.04
9.94005 131.852
9.98484 159.399
10.0296 308.401
10.0744 772.175
10.1192 1847.23
10.164 1544.96
10.2088 351.046
10.2536 119.43
10.2984 109.943
10.3432 111.706
10.388 101.731
10.4328 112.094
10.4776 151.152
10.5224 275.078
10.5672 535.498
10.612 509.296
10.6568 185.155
10.7017 92.8001
10.7465 84.6898
10.7913 81.5876
10.8361 79.5263
10.8809 77.1243
10.9257 76.5645
10.9706 77.3369
11.0154 73.1987
11.0602 71.3654
11.105 70.2935
11.1499 74.4724
11.1947 81.2232
11.2395 72.9792
11.2844 68.7876
11.3292 65.8122
11.374 64.8342
11.4189 64.3623
11.4637 63.7278
11.5086 64.1903
11.5534 66.6303
11.5983 64.3931
11.6431 62.4622
11.688 61.4881
11.7328 61.7009
11.7777 61.7289
11.8225 61.3214
11.8674 61.0464
11.9122 61.4451
11.9571 61.7789
12.002 62.1373
12.0468 65.3416
12.0917 75.6153
12.1366 98.8046
12.1814 156.34
12.2263 218.548
12.2712 161.221
12.3161 89.9147
12.3609 68.5353
12.4058 63.2801
12.4507 62.871
12.4956 63.0065
12.5405 63.327
12.5853 64.0575
12.6302 71.4067
12.6751 76.4859
12.72 68.6955
12.7649 66.4074
12.8098 66.9471
12.8547 68.253
12.8996 69.5762
12.9445 70.653
12.9894 72.6273
13.0343 74.147
13.0792 77.2216
13.1242 84.3939
13.1691 105.479
13.214 139.667
13.2589 232.897
13.3038 386.703
13.3487 429.979
13.3937 244.064
13.4386 115.199
13.4835 100.338
13.5285 113.484
13.5734 150.27
13.6183 247.883
13.6633 368.8
13.7082 336.892
13.7531 168.878
13.7981 91.9245
13.843 79.6804
13.888 77.8114
13.9329 75.4153
13.9779 74.2999
14.0228 72.6268
14.0678 71.4372
14.1127 71.1935
14.1577 71.0142
14.2027 70.1303
14.2476 68.9344
14.2926 68.976
14.3376 70.1103
14.3825 68.7918
14.4275 67.66
14.4725 67.1906
14.5175 67.4784
14.5624 67.7487
14.6074 69.585
14.6524 70.0781
14.6974 68.8199
14.7424 69.9078
14.7874 75.5258
14.8324 85.1574
14.8774 106.426
14.9224 153.272
14.9674 218.555
15.0124 219.551
15.0574 138.038
15.1024 85.1635
15.1474 70.4831
15.1924 69.0995
15.2374 69.2484
15.2824 68.9394
15.3274 66.9371
15.3725 65.545
15.4175 65.0093
15.4625 64.4869
15.5076 64.8984
15.5526 64.663
15.5976 64.3367
15.6426 65.0567
15.6877 69.6419
15.7327 76.5627
15.7778 91.174
15.8228 124.88
15.8679 175.728
15.9129 199.782
15.958 150.718
16.003 89.8795
16.0481 65.6181
16.0931 63.0671
16.1382 61.3378
16.1833 59.4312
16.2283 57.8155
16.2734 57.3963
16.3185 57.5667
16.3636 58.1673
16.4086 56.6942
16.4537 55.1906
16.4988 54.5899
16.5439 54.416
16.589 54.0131
16.6341 53.7465
16.6792 53.4122
16.7243 53.7252
16.7694 53.818
16.8145 53.8651
16.8596 54.0328
16.9047 55.5194
16.9498 55.677
16.9949 54.5368
17.04 54.5582
17.0851 55.7762
17.1302 57.1241
17.1754 59.8706
17.2205 64.8825
17.2656 73.8231
17.3108 83.5259
17.3559 81.511
17.401 68.4356
17.4462 60.137
17.4913 58.0031
17.5365 57.76
17.5815 57.9651
17.6268 58.4758
17.6718 59.2923
17.7171 59.7791
17.7622 59.9594
17.8074 60.7477
17.8525 62.4354
17.8977 66.3733
17.9428 71.1205
17.9881 79.8495
18.0331 98.4675
18.0784 124.249
18.1237 140.983
18.1688 127.052
18.214 97.6047
18.2591 83.0719
18.3044 89.5289
18.3495 102.257
18.3948 107.559
18.4399 92.687
18.4852 73.9239
18.5303 63.8963
18.5756 60.9802
18.6207 59.9556
18.666 59.0747
18.7112 58.457
18.7565 57.8703
18.8016 57.5945
18.8469 56.9997
18.892 56.5645
18.9374 56.1159
18.9825 55.8765
19.0278 55.7092
19.073 56.0004
19.1183 56.26
19.1635 56.6952
19.2088 58.1437
19.254 60.7317
19.2993 65.6615
19.3447 72.5887
19.3898 76.312
19.4352 70.518
19.4804 61.3241
19.5257 55.4128
19.5709 53.1214
19.6163 52.8063
19.6615 52.6877
19.7068 52.3519
19.752 52.2543
19.7974 52.5354
19.8426 53.2982
19.888 53.8758
19.9332 54.9504
19.9786 57.5436
20.0238 61.4034
20.0692 67.2517
20.1144 69.2761
20.1598 66.3111
20.205 61.336
20.2504 61.0137
20.2957 63.9464
20.3411 65.786
20.3863 63.11
20.4318 56.6586
20.477 52.2498
20.5224 50.3945
20.5677 50.139
20.6131 49.3721
20.6586 48.8417
20.7038 48.6638
20.7493 48.236
20.7945 48.2332
20.84 47.9466
20.8853 47.7663
20.9307 47.4881
20.976 47.8946
21.0215 47.6956
21.0668 48.0992
21.1122 48.4409
21.1575 49.1771
21.203 50.2453
21.2483 51.0378
21.2938 50.6092
21.3391 48.9408
21.3846 47.9148
21.4299 47.5546
21.4754 47.5724
21.5207 47.7061
21.5662 47.7634
21.6116 48.0281
21.6571 48.8905
21.7024 49.6835
21.7479 51.6252
21.7933 54.4531
21.8388 58.5391
21.8843 62.9588
21.9297 64.5068
21.9752 61.758
22.0206 57.7638
22.0661 55.5053
22.1115 55.4313
22.157 55.2259
22.2024 52.9804
22.248 50.255
22.2933 48.8188
22.3389 48.1149
22.3843 48.0902
22.4299 48.0873
22.4753 47.9178
22.5208 47.8421
22.5662 47.6169
22.6118 47.6894
22.6572 47.9391
22.7028 48.1398
22.7483 48.8314
22.7939 49.335
22.8393 50.9593
22.8849 53.2128
22.9303 55.9359
22.9759 57.7657
23.0214 56.5018
23.067 53.2513
23.1126 50.0552
23.1581 48.3319
23.2037 47.8409
23.2492 47.9129
23.2948 47.8997
23.3403 48.1686
23.3859 48.7504
23.4314 49.7334
23.477 51.835
23.5225 54.5493
23.5682 57.0498
23.6137 57.5956
23.6593 54.382
23.7048 50.0314
23.7505 47.1684
23.796 45.836
23.8417 45.2925
23.8872 44.7826
23.9329 44.41
23.9784 44.1203
24.0241 43.8957
24.0697 43.6734
24.1154 43.4052
24.1609 43.2256
24.2066 43.1641
24.2522 43.0123
24.2979 42.6252
24.3434 42.6024
24.3892 42.4226
24.4349 42.2814
24.4805 42.1097
24.5262 42.3083
24.5718 42.2698
24.6175 42.2339
24.6631 42.0546
24.7089 41.7094
24.7545 41.5634
24.8002 41.5275
24.8458 41.5081
24.8916 41.3719
24.9372 41.4981
24.983 41.8459
25.0286 42.0816
25.0744 42.6625
25.12 43.109
25.1658 43.744
25.2114 43.9578
25.2572 44.0718
25.3029 44.195
25.3487 44.4447
25.3943 43.8393
25.4402 42.6246
25.4858 41.5692
25.5316 40.7688
25.5773 40.1873
25.6231 40.0413
25.669 39.7753
25.7147 39.8235
25.7605 39.7017
25.8062 39.7726
25.8521 40.0519
25.8977 39.7967
25.9436 40.0777
25.9893 40.3198
26.0352 41.0162
26.0809 41.0123
26.1268 41.0344
26.1725 40.6085
26.2184 40.0106
26.2641 39.4697
26.31 39.2959
26.3557 39.4441
26.4017 39.461
26.4474 39.751
26.4933 39.9323
26.5391 40.6668
26.585 41.1268
26.6308 41.5991
26.6767 41.521
26.7225 41.1974
26.7684 40.6569
26.8142 40.1878
26.8601 39.8584
26.9059 39.371
26.9519 38.8162
26.9979 38.5373
27.0437 38.2418
27.0896 38.0423
27.1354 38.2091
27.1814 37.9226
27.2272 37.7093
27.2732 37.8856
27.3191 37.6418
27.3651 37.8151
27.4109 37.8051
27.4569 37.8789
27.5027 37.9586
27.5488 38.026
27.5946 37.7567
27.6407 37.5187
27.6865 37.4408
27.7326 37.2148
27.7784 37.3065
27.8245 37.1812
27.8703 37.4103
27.9164 37.7022
27.9623 37.8212
28.0084 38.1665
28.0543 38.564
28.1003 38.4658
28.1462 38.1099
28.1923 37.7876
28.2384 37.1971
28.2843 37.0202
28.3304 36.506
28.3764 35.985
28.4225 35.7791
28.4684 35.5428
28.5145 35.3227
28.5605 35.1472
28.6066 35.0758
28.6526 35.0114
28.6987 34.9635
28.7447 34.8087
28.7908 34.8932
28.8368 34.8552
28.8829 34.8883
28.9289 34.7451
28.9751 34.5719
29.0211 34.3532
29.0673 34.1016
29.1133 33.9484
29.1595 33.8244
29.2055 33.8091
29.2517 33.7533
29.2977 33.7341
29.3439 33.6335
29.3899 33.7645
29.4361 33.5361
29.4824 33.4603
29.5284 33.1336
29.5746 32.7435
29.6207 32.5588
29.6669 32.4997
29.713 32.4726
29.7593 32.2398
29.8053 32.3213
29.8516 32.3164
29.8977 32.2776
29.9439 32.0317
29.99 32.0793
30.0363 31.8959
30.0824 32.0391
30.1287 31.8956
30.1748 31.9588
30.2211 32.0035
30.2673 31.7316
30.3136 31.8134
30.3597 31.7558
30.406 31.6588
30.4522 31.4135
30.4985 31.5288
30.5447 31.5953
30.591 31.6317
30.6372 31.7678
30.6835 31.7078
30.7297 31.6943
30.7761 31.6966
30.8224 31.3868
30.8686 31.4094
30.915 31.0817
30.9612 30.9148
31.0076 30.7439
31.0538 30.5176
31.1002 30.6547
31.1464 30.3842
31.1928 30.3368
31.2391 30.4765
31.2855 30.3623
31.3317 30.2962
31.3781 30.4312
31.4244 30.3944
31.4708 30.3468
31.5171 30.1959
31.5636 30.2523
31.6098 29.9312
31.6563 29.8583
31.7026 29.6753
31.7491 29.6188
31.7953 29.6165
31.8418 29.6542
31.8881 29.6934
31.9346 29.618
31.9809 29.5353
32.0275 29.4685
32.074 29.2516
32.1203 29.024
32.1668 28.984
32.2132 28.8401
32.2597 28.7432
32.306 28.6964
32.3526 28.4958
32.399 28.3958
32.4455 28.3025
32.4919 28.2394
32.5385 28.1011
32.5848 27.9841
32.6314 28.0154
32.6778 27.9687
32.7244 27.7643
32.7708 27.6873
32.8174 27.6736
32.8638 27.5308
32.9104 27.53
32.9569 27.4464
33.0035 27.4042
33.0499 27.3621
33.0966 27.2969
33.143 27.2953
33.1897 27.2392
33.2361 27.1552
33.2828 27.0939
33.3293 26.9649
33.3759 26.9598
33.4226 26.8278
33.4691 26.6307
33.5158 26.529
33.5623 26.4653
33.609 26.2711
33.6555 26.1796
33.7022 26.209
33.7487 26.0569
33.7954 26.0562
33.842 25.938
33.8887 25.9947
33.9353 25.9001
33.982 25.7115
34.0286 25.6247
34.0753 25.6481
34.1219 25.5105
34.1687 25.4374
34.2152 25.2994
34.262 25.2502
34.3086 25.1649
34.3554 25.2226
34.402 24.9705
34.4488 24.87
34.4954 24.8633
34.5422 24.724
34.5889 24.6877
34.6357 24.585
34.6825 24.5439
34.7292 24.4
34.776 24.3537
34.8227 24.288
34.8695 24.2443
34.9162 24.1649
34.9631 24.056
35.0098 24.0931
35.0566 23.9429
35.1033 23.9056
35.1502 23.8908
35.1969 23.7337
35.2438 23.7749
35.2906 23.7273
35.3375 23.6918
35.3842 23.5882
35.4311 23.6493
35.4779 23.4746
35.5248 23.5108
35.5716 23.432
35.6185 23.385
35.6653 23.2689
35.7123 23.1724
35.759 23.0837
35.806 23.0916
35.8528 22.86
35.8998 22.8375
35.9468 22.728
35.9936 22.7502
36.0406 22.6108
36.0874 22.5953
36.1345 22.4627
36.1813 22.4218
36.2283 22.3184
36.2752 22.2778
36.3222 22.3131
36.3691 22.1799
36.4161 22.095
36.463 22.0831
36.5101 22.0083
36.557 22.0575
36.6041 21.8436
36.651 21.7762
36.6981 21.7143
36.745 21.7432
36.7921 21.6686
36.839 21.4843
36.8861 21.4501
36.9331 21.3765
36.9802 21.3522
37.0272 21.2792
37.0743 21.1603
37.1213 21.1458
37.1684 21.1003
37.2154 21.058
37.2626 20.9492
37.3098 20.8378
37.3568 20.8431
37.404 20.7492
37.451 20.6479
37.4982 20.6029
37.5452 20.5125
37.5924 20.4654
37.6395 20.5731
37.6867 20.3731
37.7337 20.2696
37.781 20.1956
37.8281 20.1306
37.8753 20.0595
37.9224 20.0161
37.9697 19.9106
38.0168 19.9003
38.064 19.8154
38.1111 19.7891
38.1584 19.7125
38.2056 19.6692
38.2529 19.5662
38.3 19.5389
38.3473 19.4564
38.3945 19.3472
38.4418 19.3602
38.489 19.266
38.5363 19.2146
38.5837 19.1506
38.6309 19.0588
38.6782 19.0521
38.7254 18.9294
38.7728 18.8813
38.82 18.8651
38.8674 18.8387
38.9146 18.6923
38.9621 18.7059
39.0093 18.6093
39.0567 18.5767
39.104 18.4367
39.1514 18.4104
39.1987 18.388
39.2461 18.3391
39.2934 18.2825
39.3409 18.1376
39.3882 18.1258
39.4356 18.0904
39.483 18.0284
39.5304 17.9854
39.5778 17.9901
39.6253 17.8701
39.6726 17.8003
39.7201 17.7145
39.7675 17.7275
39.815 17.6619
39.8624 17.5918
39.9099 17.5871
39.9575 17.4352
40.0049 17.4238
40.0525 17.3556
40.0999 17.316
40.1474 17.2532
40.1949 17.2185
40.2425 17.1378
40.2899 17.0513
40.3375 17.031
40.385 17.0007
40.4326 16.8948
40.48 16.8595
40.5277 16.8448
40.5752 16.7451
40.6228 16.6876
40.6703 16.6451
40.718 16.5798
40.7655 16.5852
40.8132 16.4827
40.8607 16.4611
40.9084 16.3769
40.9559 16.3303
41.0036 16.2999
41.0512 16.2093
41.0989 16.2622
41.1465 16.1057
41.1942 16.1014
41.242 15.9575
41.2896 15.9924
41.3373 15.9142
41.3849 15.9061
41.4327 15.7912
41.4803 15.7292
41.5281 15.6851
41.5758 15.6572
41.6236 15.5815
41.6712 15.541
41.7191 15.5182
41.7667 15.4732
41.8146 15.4506
41.8622 15.3703
41.9101 15.3316
41.9578 15.2331
42.0057 15.1582
42.0534 15.1739
42.1013 15.0772
42.149 15.062
42.1969 15.0297
42.2446 14.9741
42.2925 14.8927
42.3403 14.842
42.3882 14.8099
42.436 14.7184
42.4839 14.6715
42.5319 14.6842
42.5797 14.5664
42.6277 14.5736
42.6755 14.4754
42.7235 14.465
42.7713 14.4021
42.8193 14.3732
42.8671 14.2572
42.9152 14.2275
42.963 14.1504
43.0111 14.1249
43.0589 14.1261
43.107 14.013
43.1549 13.9933
43.2029 13.9739
43.2508 13.9074
43.2989 13.8521
43.3468 13.7848
43.3949 13.8059
43.4429 13.7475
43.491 13.6725
43.5389 13.6721
43.5871 13.6072
43.635 13.5147
43.6832 13.4702
43.7312 13.4132
43.7793 13.4064
43.8273 13.3485
43.8755 13.3076
43.9237 13.2616
43.9717 13.1883
44.0199 13.2226
44.068 13.1238
44.1162 13.0678
44.1642 13.0599
44.2125 12.9917
44.2606 12.9829
44.3088 12.8791
44.3569 12.8411
44.4052 12.7883
44.4533 12.7186
44.5016 12.6316
44.5497 12.6707
44.598 12.5689
44.6461 12.5887
44.6945 12.5561
44.7426 12.5112
44.791 12.427
44.8391 12.398
44.8875 12.3638
44.9357 12.3307
44.984 12.2426
45.0322 12.2151
45.0806 12.1605
45.1288 12.1531
45.1773 12.0834
45.2257 12.0351
45.2739 12.0159
45.3224 11.9918
45.3706 11.9449
45.4191 11.9064
45.4673 11.8705
45.5158 11.8167
45.5641 11.7186
45.6126 11.7177
45.6609 11.6552
45.7094 11.5858
45.7577 11.5977
45.8063 11.5435
45.8546 11.5222
45.9031 11.4441
45.9515 11.445
46.0001 11.3552
46.0484 11.3605
46.097 11.342
46.1454 11.2919
46.194 11.2213
46.2424 11.2265
46.291 11.0828
46.3395 11.0622
46.3881 11.0117
46.4365 11.0554
46.4852 10.977
46.5337 10.9324
46.5823 10.8983
46.631 10.8647
46.6795 10.8119
46.7282 10.7883
46.7767 10.7694
46.8254 10.635
46.8739 10.6766
46.9226 10.6099
46.9712 10.6001
47.0199 10.5249
47.0685 10.4781
47.1173 10.4834
47.1658 10.3971
47.2146 10.4093
47.2632 10.3831
47.312 10.3412
47.3606 10.2791
47.4095 10.2288
47.4581 10.2342
47.5069 10.1615
47.5556 10.1152
47.6044 10.108
47.6531 10.0622
47.702 9.98789
47.7507 9.97843
47.7996 9.9191
47.8483 9.88248
47.8972 9.8798
47.9461 9.81276
47.9948 9.76097
48.0438 9.74131
48.0925 9.71553
48.1415 9.6947
48.1902 9.64018
48.2392 9.61684
48.288 9.56423
48.337 9.54433
48.3858 9.48926
48.4348 9.50297
48.4837 9.4674
48.5327 9.40407
48.5815 9.3877
48.6306 9.35523
48.6795 9.31416
48.7285 9.30107
48.7774 9.25947
48.8265 9.26345
48.8754 9.15737
48.9245 9.16298
48.9734 9.12616
49.0226 9.06772
49.0715 9.03624
49.1206 8.97489
49.1696 8.95734
49.2188 8.9623
49.2679 8.87513
49.3169 8.82329
49.3661 8.82474
49.4151 8.82253
49.4643 8.79661
49.5134 8.74502
49.5626 8.67966
49.6117 8.66127
49.6609 8.64891
49.71 8.59123
49.7592 8.58886
49.8083 8.52467
49.8576 8.53368
49.9067 8.44404
49.956 8.42217
50.0052 8.40392
50.0545 8.37888
50.1036 8.30458
50.153 8.31819
50.2022 8.28869
50.2515 8.21846
50.3007 8.17214
50.3501 8.18396
50.3993 8.1574
50.4487 8.13551
50.498 8.09985
50.5474 8.0375
50.5966 8.06434
50.6461 8.02242
50.6955 7.95965
50.7448 7.91723
50.7943 7.90714
50.8436 7.82539
50.8931 7.83243
50.9424 7.83052
50.9919 7.7229
51.0413 7.71455
51.0908 7.73799
51.1402 7.67941
51.1897 7.66234
51.2391 7.62657
51.2887 7.58376
51.3381 7.5367
51.3877 7.5544
51.4371 7.50418
51.4867 7.41909
51.5362 7.42103
51.5858 7.43648
51.6353 7.34188
51.6849 7.36009
51.7344 7.3171
51.7841 7.27868
51.8336 7.24097
51.8833 7.26216
51.9328 7.17875
51.9826 7.15643
52.0323 7.14763
52.0818 7.08904
52.1316 7.06778
52.1812 7.05786
52.231 7.01709
52.2806 6.98082
52.3304 6.96941
52.38 6.94449
52.4298 6.90187
52.4794 6.8676
52.5293 6.8327
52.5789 6.81592
52.6288 6.80225
52.6785 6.747
52.7284 6.70799
52.7781 6.7098
52.828 6.65696
52.8777 6.67867
52.9276 6.60222
52.9774 6.60025
53.0273 6.60006
53.0771 6.54867
53.1271 6.50666
53.1769 6.48062
53.2269 6.49168
53.2767 6.41112
53.3267 6.40989
53.3765 6.35233
53.4266 6.34628
53.4766 6.31819
53.5265 6.32218
53.5765 6.26634
53.6264 6.27832
53.6765 6.1919
53.7264 6.17048
53.7765 6.14235
53.8265 6.12308
53.8766 6.11421
53.9266 6.06282
53.9767 6.01147
54.0267 6.02142
54.0769 5.9899
54.1269 5.97098
54.1771 5.95059
54.2271 5.95043
54.2773 5.86906
54.3274 5.87482
54.3776 5.81245
54.4277 5.76095
54.478 5.76939
54.528 5.73661
54.5783 5.66619
54.6285 5.70626
54.6788 5.55597
54.7289 5.54881
54.7792 5.54239
54.8296 5.49196
54.8798 5.42217
54.9301 5.3968
54.9803 5.39929
55.0307 5.37143
55.0809 5.27583
55.1314 5.28111
55.1816 5.19703
55.232 5.15511
55.2823 5.12626
55.3328 5.04015
55.383 5.00046
55.4335 4.94573
55.4838 4.86102
55.5344 4.91207
55.5847 4.85316
55.6352 4.78572
55.6856 4.82886
55.7361 4.73434