File: XRD/Ni3Fe_FD0168.xy
TT I
1.27165 7.70168
1.31627 6.99144
1.36089 7.71258
1.40551 5.71624
1.45013 6.80487
1.49476 6.73024
1.53938 5.96315
1.584 5.40631
1.62863 5.43121
1.67325 5.38682
1.71787 5.37366
1.7625 5.32397
1.80712 5.27871
1.85174 4.96536
1.89636 5.43533
1.94099 5.07117
1.98562 5.45053
2.03025 4.97565
2.07487 4.97436
2.11949 4.75116
2.16411 4.45251
2.20874 4.20549
2.25338 4.64557
2.298 4.74084
2.34263 3.95449
2.38725 4.73621
2.43188 5.2152
2.4765 5.00707
2.52115 4.45665
2.56577 5.37899
2.6104 5.02738
2.65503 4.7835
2.69965 6.41412
2.7443 6.34156
2.78893 6.57259
2.83356 7.27255
2.87818 8.31431
2.92281 8.54826
2.96744 9.4024
3.01209 10.6108
3.05672 11.8146
3.10135 12.388
3.14599 13.4579
3.19062 14.4559
3.23527 15.0276
3.2799 15.7324
3.32454 16.9581
3.36917 17.7178
3.4138 18.7157
3.45844 19.5617
3.50309 20.6593
3.54773 21.1695
3.59237 21.6837
3.637 22.6672
3.68164 23.2122
3.7263 24.3483
3.77094 25.236
3.81558 25.8251
3.86022 26.7248
3.90486 27.9177
3.9495 28.4301
3.99416 29.4388
4.0388 30.8525
4.08344 31.8296
4.12809 33.1291
4.17273 34.1452
4.21738 35.4501
4.26204 36.4914
4.30669 37.9876
4.35133 40.0404
4.39598 41.2974
4.44063 43.6752
4.4853 44.7165
4.52995 47.052
4.5746 49.4425
4.61925 52.1792
4.6639 53.5151
4.70855 56.9285
4.75322 59.9345
4.79788 62.876
4.84253 65.8403
4.88719 70.8824
4.93184 75.7777
4.97652 82.8184
5.02118 90.5355
5.06583 100.694
5.11049 116.613
5.15515 153.043
5.19981 531.67
5.24449 3759.55
5.28916 8442.49
5.33382 6168.38
5.37848 420.084
5.42315 160.627
5.46783 127.084
5.5125 113.867
5.55716 107.521
5.60183 102.239
5.6465 99.2622
5.69117 97.6044
5.73586 95.2906
5.78053 95.009
5.8252 96.0449
5.86988 98.4571
5.91455 105.519
5.95924 123.517
6.00392 283.555
6.0486 1374.23
6.09328 2849.58
6.13795 4016.11
6.18263 655.727
6.22733 120.126
6.27201 89.0333
6.3167 78.3562
6.36138 72.6214
6.40606 68.5593
6.45075 66.8691
6.49545 64.416
6.54014 62.644
6.58483 60.8509
6.62952 60.2221
6.67421 58.71
6.71892 57.748
6.76361 56.946
6.8083 56.049
6.853 54.7816
6.89769 54.9567
6.94239 54.5793
6.98711 53.6162
7.03181 53.398
7.07651 53.0025
7.12121 52.7841
7.16591 52.6205
7.21063 52.1158
7.25533 52.2723
7.30004 51.9697
7.34475 52.6031
7.38945 52.853
7.43416 52.0854
7.47889 52.5223
7.5236 55.7287
7.56831 62.3952
7.61303 55.6394
7.65774 53.4942
7.70247 54.2949
7.74719 54.4243
7.79191 55.2313
7.83663 55.2889
7.88135 56.509
7.92607 57.5828
7.97081 58.4087
8.01553 59.5227
8.06026 60.6925
8.10498 62.4013
8.14971 64.0003
8.19446 65.6852
8.23919 68.1945
8.28392 71.1109
8.32865 73.7021
8.37339 78.4069
8.41812 83.9514
8.46288 95.5265
8.50761 171.812
8.55235 595.595
8.59709 907.948
8.64183 1548.47
8.68658 1631.77
8.73134 401.513
8.77609 115.486
8.82083 97.5206
8.86558 91.4076
8.91033 88.231
8.9551 85.5168
8.99985 84.1665
9.04461 83.5686
9.08936 82.1736
9.13412 81.8157
9.17888 81.415
9.22365 86.7104
9.26841 95.5188
9.31318 85.762
9.35794 82.7375
9.4027 82.3532
9.44749 83.7767
9.49226 83.8258
9.53703 84.5923
9.5818 86.5262
9.62657 87.2101
9.67134 88.8587
9.71614 91.1209
9.76091 92.8902
9.80569 95.5673
9.85047 99.1407
9.89525 104.462
9.94005 114.223
9.98484 184.325
10.0296 540.122
10.0744 747.0
10.1192 1068.02
10.164 1679.96
10.2088 961.752
10.2536 209.728
10.2984 116.366
10.3432 108.43
10.388 104.73
10.4328 121.369
10.4776 213.449
10.5224 264.872
10.5672 343.012
10.612 505.026
10.6568 368.525
10.7017 132.175
10.7465 90.7785
10.7913 83.9982
10.8361 80.9662
10.8809 78.3008
10.9257 76.2509
10.9706 74.5493
11.0154 73.0114
11.0602 71.3203
11.105 70.3672
11.1499 69.0068
11.1947 67.8841
11.2395 66.9106
11.2844 66.5149
11.3292 65.6101
11.374 64.8287
11.4189 64.5491
11.4637 63.6811
11.5086 62.9369
11.5534 62.5075
11.5983 62.4053
11.6431 62.4211
11.688 61.7325
11.7328 61.6321
11.7777 61.3996
11.8225 61.4546
11.8674 61.5168
11.9122 62.6566
11.9571 65.6399
12.002 65.1407
12.0468 67.7559
12.0917 90.2115
12.1366 108.154
12.1814 120.177
12.2263 154.419
12.2712 195.587
12.3161 137.993
12.3609 75.0428
12.4058 64.3392
12.4507 63.4423
12.4956 63.5693
12.5405 63.3694
12.5853 64.0426
12.6302 64.214
12.6751 64.6604
12.72 65.6197
12.7649 66.4291
12.8098 67.2816
12.8547 68.6201
12.8996 70.1545
12.9445 71.3683
12.9894 73.4311
13.0343 75.3162
13.0792 79.6426
13.1242 86.8794
13.1691 132.686
13.214 186.318
13.2589 208.264
13.3038 253.569
13.3487 358.932
13.3937 380.065
13.4386 206.345
13.4835 119.106
13.5285 153.865
13.5734 182.033
13.6183 196.883
13.6633 245.747
13.7082 337.819
13.7531 303.833
13.7981 151.949
13.843 88.0487
13.888 80.9897
13.9329 77.7379
13.9779 76.4027
14.0228 74.8332
14.0678 73.1848
14.1127 73.2358
14.1577 74.5448
14.2027 72.7271
14.2476 70.5768
14.2926 69.7256
14.3376 69.4499
14.3825 69.0789
14.4275 68.695
14.4725 68.6201
14.5175 68.7179
14.5624 68.8116
14.6074 69.1131
14.6524 69.1808
14.6974 69.92
14.7424 71.4893
14.7874 80.9825
14.8324 106.93
14.8774 121.499
14.9224 129.42
14.9674 152.429
15.0124 197.165
15.0574 206.023
15.1024 135.991
15.1474 81.8187
15.1924 71.4704
15.2374 69.2789
15.2824 68.1915
15.3274 67.4429
15.3725 66.8065
15.4175 66.606
15.4625 65.9275
15.5076 65.7597
15.5526 65.717
15.5976 65.9507
15.6426 66.6575
15.6877 74.0913
15.7327 95.1626
15.7778 107.598
15.8228 112.944
15.8679 127.822
15.9129 158.411
15.958 186.123
16.003 149.929
16.0481 87.7976
16.0931 66.1845
16.1382 61.9923
16.1833 60.6177
16.2283 59.1073
16.2734 58.2094
16.3185 57.645
16.3636 57.0595
16.4086 56.2102
16.4537 55.8047
16.4988 55.2855
16.5439 55.1597
16.589 55.0141
16.6341 54.6645
16.6792 54.4724
16.7243 54.6041
16.7694 54.346
16.8145 54.2927
16.8596 54.5397
16.9047 54.891
16.9498 55.478
16.9949 55.2288
17.04 55.5751
17.0851 56.9007
17.1302 61.3485
17.1754 64.661
17.2205 66.1287
17.2656 67.9652
17.3108 73.548
17.3559 80.5412
17.401 81.137
17.4462 70.9728
17.4913 61.7429
17.5365 59.3159
17.5815 59.4288
17.6268 59.6776
17.6718 60.0295
17.7171 60.5781
17.7622 61.6387
17.8074 62.4072
17.8525 63.9687
17.8977 72.361
17.9428 83.8286
17.9881 88.5121
18.0331 92.1563
18.0784 100.111
18.1237 117.338
18.1688 142.208
18.214 141.603
18.2591 110.43
18.3044 89.0436
18.3495 87.8605
18.3948 96.5951
18.4399 104.205
18.4852 94.6777
18.5303 75.8797
18.5756 64.9993
18.6207 62.4003
18.666 61.3053
18.7112 60.2287
18.7565 59.5039
18.8016 59.1068
18.8469 58.5774
18.892 58.2108
18.9374 57.6037
18.9825 57.3375
19.0278 57.0744
19.073 57.1391
19.1183 57.4853
19.1635 59.7912
19.2088 62.198
19.254 62.8364
19.2993 63.6753
19.3447 65.9693
19.3898 69.8238
19.4352 74.5581
19.4804 72.2661
19.5257 63.5523
19.5709 56.3757
19.6163 54.6517
19.6615 53.9911
19.7068 53.7463
19.752 53.6596
19.7974 53.774
19.8426 54.8276
19.888 57.2337
19.9332 58.2504
19.9786 59.0648
20.0238 59.6866
20.0692 62.6679
20.1144 67.47
20.1598 72.9725
20.205 71.1192
20.2504 65.4614
20.2957 61.8803
20.3411 62.4787
20.3863 65.1213
20.4318 64.567
20.477 59.0688
20.5224 53.5072
20.5677 51.3587
20.6131 50.5931
20.6586 50.1762
20.7038 50.1011
20.7493 49.4474
20.7945 49.5717
20.84 49.383
20.8853 49.1512
20.9307 48.9454
20.976 49.0412
21.0215 49.2738
21.0668 49.7429
21.1122 49.935
21.1575 49.7605
21.203 50.0373
21.2483 50.5349
21.2938 51.7329
21.3391 51.6883
21.3846 50.8734
21.4299 49.5634
21.4754 48.9065
21.5207 48.8431
21.5662 49.2312
21.6116 49.6649
21.6571 51.5051
21.7024 53.2081
21.7479 54.3703
21.7933 54.8561
21.8388 56.4133
21.8843 59.2686
21.9297 62.9177
21.9752 66.2512
22.0206 65.9445
22.0661 60.8195
22.1115 56.7098
22.157 56.0029
22.2024 56.7398
22.248 55.1104
22.2933 52.4916
22.3389 50.2974
22.3843 49.5013
22.4299 49.2008
22.4753 49.236
22.5208 48.8767
22.5662 49.0656
22.6118 49.0922
22.6572 49.3948
22.7028 50.5017
22.7483 51.6809
22.7939 52.2837
22.8393 52.4791
22.8849 53.0485
22.9303 53.989
22.9759 55.7593
23.0214 57.7173
23.067 58.5394
23.1126 56.3475
23.1581 52.4003
23.2037 50.1326
23.2492 49.4834
23.2948 49.8034
23.3403 51.1758
23.3859 52.0043
23.4314 52.0436
23.477 52.2901
23.5225 52.8863
23.5682 54.1798
23.6137 56.3495
23.6593 58.1261
23.7048 57.4656
23.7505 53.2932
23.796 49.3402
23.8417 47.2707
23.8872 46.3437
23.9329 45.813
23.9784 45.4069
24.0241 45.1985
24.0697 45.0425
24.1154 44.6682
24.1609 44.3916
24.2066 44.2506
24.2522 44.1694
24.2979 44.0084
24.3434 43.7801
24.3892 43.6167
24.4349 43.4882
24.4805 43.2956
24.5262 43.3095
24.5718 43.264
24.6175 43.2183
24.6631 43.444
24.7089 43.2219
24.7545 42.9825
24.8002 42.7362
24.8458 42.7147
24.8916 42.7494
24.9372 42.9327
24.983 43.0689
25.0286 43.3485
25.0744 43.8321
25.12 44.1755
25.1658 44.6217
25.2114 45.0649
25.2572 45.4072
25.3029 45.3455
25.3487 44.9831
25.3943 45.3003
25.4402 45.1873
25.4858 44.7654
25.5316 43.3327
25.5773 42.2047
25.6231 41.6436
25.669 41.1037
25.7147 41.1062
25.7605 40.9055
25.8062 41.2362
25.8521 41.372
25.8977 41.3131
25.9436 41.3382
25.9893 41.104
26.0352 41.5897
26.0809 41.6102
26.1268 42.0408
26.1725 42.3972
26.2184 42.2907
26.2641 41.648
26.31 41.1265
26.3557 41.1072
26.4017 40.9667
26.4474 41.1525
26.4933 41.2382
26.5391 41.5007
26.585 41.7117
26.6308 42.2502
26.6767 42.3392
26.7225 42.9819
26.7684 42.8885
26.8142 42.2707
26.8601 41.4919
26.9059 40.9805
26.9519 40.6618
26.9979 40.1923
27.0437 39.6907
27.0896 39.2999
27.1354 39.4367
27.1814 39.1944
27.2272 39.0974
27.2732 39.1366
27.3191 38.964
27.3651 38.9979
27.4109 38.9059
27.4569 38.8963
27.5027 38.9574
27.5488 39.1247
27.5946 39.0103
27.6407 38.9493
27.6865 38.9973
27.7326 38.858
27.7784 38.7841
27.8245 38.6284
27.8703 38.6588
27.9164 38.775
27.9623 38.815
28.0084 38.925
28.0543 39.3246
28.1003 39.4662
28.1462 39.642
28.1923 39.5783
28.2384 39.0363
28.2843 38.6554
28.3304 38.2327
28.3764 37.8819
28.4225 37.448
28.4684 36.9479
28.5145 36.6182
28.5605 36.4031
28.6066 36.291
28.6526 36.1826
28.6987 36.2694
28.7447 35.9682
28.7908 35.8216
28.8368 35.7904
28.8829 35.8104
28.9289 35.692
28.9751 35.6876
29.0211 35.7072
29.0673 35.5037
29.1133 35.254
29.1595 35.0282
29.2055 34.8338
29.2517 34.8023
29.2977 34.5792
29.3439 34.5417
29.3899 34.5027
29.4361 34.5417
29.4824 34.5115
29.5284 34.418
29.5746 34.0845
29.6207 33.8508
29.6669 33.6232
29.713 33.5026
29.7593 33.3545
29.8053 33.2699
29.8516 33.2612
29.8977 33.1262
29.9439 33.1203
29.99 32.9258
30.0363 32.8467
30.0824 32.8464
30.1287 32.8325
30.1748 32.7465
30.2211 32.7888
30.2673 32.6352
30.3136 32.8457
30.3597 32.8739
30.406 32.7765
30.4522 32.6468
30.4985 32.5938
30.5447 32.5751
30.591 32.4601
30.6372 32.5393
30.6835 32.4553
30.7297 32.5251
30.7761 32.6044
30.8224 32.6996
30.8686 32.5858
30.915 32.1992
30.9612 32.1904
31.0076 31.9149
31.0538 31.6854
31.1002 31.6849
31.1464 31.5791
31.1928 31.4747
31.2391 31.4289
31.2855 31.266
31.3317 31.3592
31.3781 31.3658
31.4244 31.2989
31.4708 31.1772
31.5171 31.2294
31.5636 31.332
31.6098 31.1185
31.6563 31.1077
31.7026 30.816
31.7491 30.6938
31.7953 30.6788
31.8418 30.6033
31.8881 30.516
31.9346 30.4537
31.9809 30.4792
32.0275 30.3789
32.074 30.4586
32.1203 30.2796
32.1668 30.123
32.2132 29.9514
32.2597 29.7983
32.306 29.6478
32.3526 29.4112
32.399 29.4008
32.4455 29.2575
32.4919 29.2644
32.5385 29.0506
32.5848 28.9551
32.6314 28.8471
32.6778 28.8461
32.7244 28.7362
32.7708 28.5909
32.8174 28.6687
32.8638 28.3714
32.9104 28.3855
32.9569 28.4015
33.0035 28.288
33.0499 28.2569
33.0966 28.1945
33.143 28.0993
33.1897 27.978
33.2361 27.9509
33.2828 28.0677
33.3293 27.8514
33.3759 27.8853
33.4226 27.7594
33.4691 27.6037
33.5158 27.5024
33.5623 27.2873
33.609 27.0915
33.6555 27.1162
33.7022 27.0101
33.7487 26.9428
33.7954 26.8448
33.842 26.7096
33.8887 26.6506
33.9353 26.6397
33.982 26.5574
34.0286 26.4874
34.0753 26.4163
34.1219 26.3353
34.1687 26.2051
34.2152 26.1475
34.262 25.9965
34.3086 25.9454
34.3554 25.8439
34.402 25.7709
34.4488 25.7166
34.4954 25.6942
34.5422 25.5259
34.5889 25.4003
34.6357 25.3648
34.6825 25.3677
34.7292 25.1344
34.776 25.0498
34.8227 25.0282
34.8695 24.9729
34.9162 25.009
34.9631 24.8413
35.0098 24.8265
35.0566 24.6575
35.1033 24.6221
35.1502 24.6359
35.1969 24.5494
35.2438 24.475
35.2906 24.3966
35.3375 24.349
35.3842 24.2334
35.4311 24.2997
35.4779 24.2762
35.5248 24.1896
35.5716 24.1188
35.6185 24.0585
35.6653 24.001
35.7123 23.9099
35.759 23.8785
35.806 23.6891
35.8528 23.5683
35.8998 23.4876
35.9468 23.4369
35.9936 23.4105
36.0406 23.2907
36.0874 23.3354
36.1345 23.2348
36.1813 23.1451
36.2283 23.0831
36.2752 22.9754
36.3222 23.0183
36.3691 22.9187
36.4161 22.6875
36.463 22.7659
36.5101 22.8548
36.557 22.6705
36.6041 22.4871
36.651 22.5464
36.6981 22.5105
36.745 22.3522
36.7921 22.2926
36.839 22.207
36.8861 22.1302
36.9331 22.1172
36.9802 21.9942
37.0272 21.9103
37.0743 21.8372
37.1213 21.7861
37.1684 21.7211
37.2154 21.6982
37.2626 21.576
37.3098 21.4785
37.3568 21.4505
37.404 21.3709
37.451 21.3549
37.4982 21.2463
37.5452 21.1348
37.5924 21.1195
37.6395 21.1125
37.6867 21.0227
37.7337 20.8622
37.781 20.8261
37.8281 20.7783
37.8753 20.6207
37.9224 20.6004
37.9697 20.541
38.0168 20.4955
38.064 20.458
38.1111 20.3762
38.1584 20.2999
38.2056 20.2889
38.2529 20.2065
38.3 20.0898
38.3473 20.088
38.3945 19.992
38.4418 19.9145
38.489 19.9218
38.5363 19.789
38.5837 19.763
38.6309 19.7217
38.6782 19.6193
38.7254 19.4744
38.7728 19.4592
38.82 19.4167
38.8674 19.432
38.9146 19.3641
38.9621 19.2384
39.0093 19.1609
39.0567 19.082
39.104 19.0428
39.1514 18.9947
39.1987 18.9211
39.2461 18.957
39.2934 18.874
39.3409 18.7205
39.3882 18.7144
39.4356 18.5869
39.483 18.585
39.5304 18.4838
39.5778 18.4388
39.6253 18.4345
39.6726 18.3498
39.7201 18.3445
39.7675 18.2583
39.815 18.1798
39.8624 18.1298
39.9099 18.0871
39.9575 18.0554
40.0049 17.9884
40.0525 17.9027
40.0999 17.8388
40.1474 17.7937
40.1949 17.7949
40.2425 17.712
40.2899 17.6076
40.3375 17.5579
40.385 17.5622
40.4326 17.4434
40.48 17.3843
40.5277 17.392
40.5752 17.2972
40.6228 17.1945
40.6703 17.1227
40.718 17.0808
40.7655 17.076
40.8132 16.9972
40.8607 17.0544
40.9084 16.9338
40.9559 16.8243
41.0036 16.8169
41.0512 16.6693
41.0989 16.7092
41.1465 16.6175
41.1942 16.5731
41.242 16.4849
41.2896 16.4793
41.3373 16.426
41.3849 16.3396
41.4327 16.2722
41.4803 16.209
41.5281 16.1951
41.5758 16.1307
41.6236 16.0742
41.6712 15.9959
41.7191 15.9107
41.7667 15.9531
41.8146 15.8877
41.8622 15.7964
41.9101 15.7444
41.9578 15.6829
42.0057 15.6261
42.0534 15.6426
42.1013 15.5721
42.149 15.4902
42.1969 15.4229
42.2446 15.3672
42.2925 15.2923
42.3403 15.2648
42.3882 15.2131
42.436 15.2228
42.4839 15.1168
42.5319 15.0914
42.5797 15.0513
42.6277 14.9189
42.6755 14.9638
42.7235 14.8556
42.7713 14.8131
42.8193 14.8238
42.8671 14.7525
42.9152 14.6878
42.963 14.6149
43.0111 14.5818
43.0589 14.4989
43.107 14.4544
43.1549 14.4399
43.2029 14.3428
43.2508 14.3271
43.2989 14.2462
43.3468 14.2125
43.3949 14.1601
43.4429 14.1306
43.491 14.0459
43.5389 14.0269
43.5871 13.9925
43.635 13.9581
43.6832 13.8127
43.7312 13.815
43.7793 13.7802
43.8273 13.7432
43.8755 13.6462
43.9237 13.6326
43.9717 13.5821
44.0199 13.5539
44.068 13.51
44.1162 13.4424
44.1642 13.4518
44.2125 13.3806
44.2606 13.3234
44.3088 13.2539
44.3569 13.2322
44.4052 13.1753
44.4533 13.1175
44.5016 13.0649
44.5497 13.0067
44.598 13.0306
44.6461 12.9655
44.6945 12.8832
44.7426 12.8454
44.791 12.7744
44.8391 12.7704
44.8875 12.7251
44.9357 12.6797
44.984 12.6679
45.0322 12.5722
45.0806 12.5323
45.1288 12.5304
45.1773 12.4809
45.2257 12.4319
45.2739 12.3228
45.3224 12.3265
45.3706 12.2817
45.4191 12.2166
45.4673 12.2058
45.5158 12.2058
45.5641 12.1181
45.6126 12.0834
45.6609 12.0011
45.7094 11.9369
45.7577 11.9345
45.8063 11.8525
45.8546 11.8592
45.9031 11.7697
45.9515 11.748
46.0001 11.6822
46.0484 11.7127
46.097 11.6153
46.1454 11.6209
46.194 11.6292
46.2424 11.5134
46.291 11.4469
46.3395 11.46
46.3881 11.3809
46.4365 11.3419
46.4852 11.3095
46.5337 11.2656
46.5823 11.2383
46.631 11.1739
46.6795 11.1393
46.7282 11.1009
46.7767 11.0612
46.8254 10.9967
46.8739 10.9388
46.9226 10.9198
46.9712 10.8877
47.0199 10.8633
47.0685 10.8082
47.1173 10.743
47.1658 10.7019
47.2146 10.6763
47.2632 10.6234
47.312 10.65
47.3606 10.5537
47.4095 10.5198
47.4581 10.5066
47.5069 10.468
47.5556 10.4158
47.6044 10.3575
47.6531 10.3374
47.702 10.2788
47.7507 10.2826
47.7996 10.195
47.8483 10.1729
47.8972 10.1574
47.9461 10.1269
47.9948 10.0579
48.0438 10.0456
48.0925 10.0115
48.1415 9.97378
48.1902 9.93359
48.2392 9.92242
48.288 9.92175
48.337 9.83205
48.3858 9.78263
48.4348 9.7744
48.4837 9.69898
48.5327 9.66305
48.5815 9.63407
48.6306 9.65508
48.6795 9.63602
48.7285 9.54483
48.7774 9.50975
48.8265 9.48529
48.8754 9.42935
48.9245 9.42003
48.9734 9.36825
49.0226 9.31854
49.0715 9.29319
49.1206 9.22873
49.1696 9.24866
49.2188 9.20759
49.2679 9.17779
49.3169 9.13548
49.3661 9.09491
49.4151 9.05718
49.4643 8.98425
49.5134 8.96491
49.5626 8.9209
49.6117 8.93778
49.6609 8.92556
49.71 8.84954
49.7592 8.86615
49.8083 8.76551
49.8576 8.74888
49.9067 8.7175
49.956 8.70711
50.0052 8.64995
50.0545 8.617
50.1036 8.58055
50.153 8.53835
50.2022 8.52632
50.2515 8.50596
50.3007 8.42131
50.3501 8.41953
50.3993 8.40439
50.4487 8.31646
50.498 8.32981
50.5474 8.28915
50.5966 8.22902
50.6461 8.22491
50.6955 8.16642
50.7448 8.15283
50.7943 8.17091
50.8436 8.12183
50.8931 8.09423
50.9424 8.0377
50.9919 7.99897
51.0413 7.991
51.0908 7.93213
51.1402 7.92829
51.1897 7.91774
51.2391 7.82708
51.2887 7.8005
51.3381 7.81274
51.3877 7.76083
51.4371 7.72919
51.4867 7.69374
51.5362 7.69828
51.5858 7.62103
51.6353 7.57884
51.6849 7.54832
51.7344 7.51777
51.7841 7.52218
51.8336 7.46758
51.8833 7.4522
51.9328 7.38781
51.9826 7.38028
52.0323 7.36192
52.0818 7.29062
52.1316 7.26022
52.1812 7.27001
52.231 7.22462
52.2806 7.18323
52.3304 7.14658
52.38 7.15198
52.4298 7.09715
52.4794 7.05434
52.5293 7.05262
52.5789 7.01953
52.6288 6.96427
52.6785 6.94321
52.7284 6.94819
52.7781 6.90683
52.828 6.88852
52.8777 6.831
52.9276 6.80036
52.9774 6.82044
53.0273 6.75549
53.0771 6.71273
53.1271 6.73971
53.1769 6.6692
53.2269 6.6445
53.2767 6.62589
53.3267 6.60047
53.3765 6.56843
53.4266 6.58659
53.4766 6.49886
53.5265 6.43725
53.5765 6.46653
53.6264 6.37954
53.6765 6.43344
53.7264 6.35252
53.7765 6.34585
53.8265 6.30585
53.8766 6.25958
53.9266 6.22212
53.9767 6.19718
54.0267 6.21685
54.0769 6.18834
54.1269 6.15053
54.1771 6.10424
54.2271 6.02728
54.2773 6.04781
54.3274 6.0668
54.3776 5.92936
54.4277 5.91316
54.478 5.90702
54.528 5.84032
54.5783 5.81526
54.6285 5.72154
54.6788 5.70303
54.7289 5.63778
54.7792 5.66088
54.8296 5.58378
54.8798 5.49215
54.9301 5.48706
54.9803 5.46718
55.0307 5.45206
55.0809 5.38473
55.1314 5.31937
55.1816 5.23602
55.232 5.23851
55.2823 5.13337
55.3328 5.10669
55.383 5.13185
55.4335 5.07591
55.4838 4.912
55.5344 4.92455
55.5847 4.88874
55.6352 4.87343
55.6856 4.83809
55.7361 4.84786