File: XRD/Ni3Fe_FD0600.xy
TT I
1.27165 7.41068
1.31627 6.2324
1.36089 6.63968
1.40551 5.92092
1.45013 6.27334
1.49476 5.99018
1.53938 5.73714
1.584 5.13528
1.62863 5.55524
1.67325 4.94501
1.71787 4.96847
1.7625 4.50962
1.80712 4.33091
1.85174 4.74988
1.89636 4.76228
1.94099 5.1324
1.98562 4.29425
2.03025 4.39434
2.07487 3.92979
2.11949 4.72118
2.16411 4.55768
2.20874 8.10604
2.25338 10.6984
2.298 5.25648
2.34263 4.84742
2.38725 5.5461
2.43188 5.87377
2.4765 6.4314
2.52115 6.34958
2.56577 7.03319
2.6104 7.63021
2.65503 7.82157
2.69965 7.60595
2.7443 8.34847
2.78893 7.32406
2.83356 7.68908
2.87818 8.29894
2.92281 9.49792
2.96744 9.71963
3.01209 9.61923
3.05672 11.1658
3.10135 12.3521
3.14599 12.3085
3.19062 13.9094
3.23527 14.4422
3.2799 15.3084
3.32454 16.5914
3.36917 17.6278
3.4138 18.3245
3.45844 19.5906
3.50309 20.6536
3.54773 21.3249
3.59237 23.0104
3.637 49.1128
3.68164 36.5027
3.7263 25.2738
3.77094 25.6899
3.81558 26.4478
3.86022 27.1407
3.90486 28.7033
3.9495 29.1509
3.99416 30.6915
4.0388 32.0912
4.08344 33.6599
4.12809 34.458
4.17273 35.9628
4.21738 39.8959
4.26204 117.538
4.30669 101.74
4.35133 44.5839
4.39598 43.7668
4.44063 49.0807
4.4853 53.9131
4.52995 55.2042
4.5746 56.5312
4.61925 54.1029
4.6639 56.0509
4.70855 58.9767
4.75322 62.4141
4.79788 67.9527
4.84253 69.0124
4.88719 75.7121
4.93184 77.64
4.97652 82.4194
5.02118 89.1093
5.06583 96.3896
5.11049 109.373
5.15515 159.217
5.19981 457.125
5.24449 3263.69
5.28916 12412.4
5.33382 2785.73
5.37848 206.437
5.42315 133.942
5.46783 121.099
5.5125 112.774
5.55716 103.59
5.60183 99.9004
5.6465 98.3009
5.69117 95.5301
5.73586 94.4371
5.78053 98.6191
5.8252 98.2548
5.86988 100.567
5.91455 97.5502
5.95924 108.23
6.00392 266.349
6.0486 1096.53
6.09328 4319.87
6.13795 3351.09
6.18263 239.114
6.22733 93.5291
6.27201 81.9224
6.3167 85.3537
6.36138 75.4323
6.40606 70.3955
6.45075 69.7541
6.49545 65.6451
6.54014 64.3528
6.58483 63.3354
6.62952 63.1813
6.67421 74.2219
6.71892 90.6859
6.76361 62.6699
6.8083 59.4694
6.853 59.7861
6.89769 57.2752
6.94239 56.237
6.98711 55.9647
7.03181 55.9955
7.07651 55.5523
7.12121 54.9916
7.16591 56.0859
7.21063 55.4832
7.25533 60.6493
7.30004 99.6796
7.34475 67.5436
7.38945 55.1389
7.43416 54.1589
7.47889 54.2317
7.5236 54.763
7.56831 55.7321
7.61303 55.9684
7.65774 56.3178
7.70247 56.9977
7.74719 56.5354
7.79191 56.981
7.83663 57.2056
7.88135 57.8941
7.92607 58.7728
7.97081 60.1919
8.01553 61.6704
8.06026 63.2823
8.10498 64.7003
8.14971 71.1727
8.19446 71.0532
8.23919 70.2301
8.28392 72.7333
8.32865 75.2725
8.37339 80.0077
8.41812 85.3299
8.46288 105.087
8.50761 190.257
8.55235 436.908
8.59709 1267.01
8.64183 2194.3
8.68658 949.773
8.73134 159.96
8.77609 100.363
8.82083 94.1084
8.86558 93.1439
8.91033 92.0553
8.9551 90.3186
8.99985 86.1423
9.04461 84.8134
9.08936 85.0275
9.13412 83.6966
9.17888 83.3683
9.22365 83.0397
9.26841 82.8878
9.31318 85.5027
9.35794 86.4045
9.4027 86.4267
9.44749 85.8366
9.49226 85.6376
9.53703 86.7897
9.5818 90.1295
9.62657 94.7944
9.67134 95.8872
9.71614 93.9123
9.76091 95.7338
9.80569 100.121
9.85047 102.458
9.89525 113.299
9.94005 129.699
9.98484 204.392
10.0296 382.743
10.0744 879.512
10.1192 1720.07
10.164 1546.59
10.2088 378.275
10.2536 125.906
10.2984 111.384
10.3432 109.899
10.388 107.177
10.4328 126.173
10.4776 171.602
10.5224 300.913
10.5672 511.629
10.612 478.209
10.6568 193.074
10.7017 95.8113
10.7465 87.3257
10.7913 83.8441
10.8361 81.8071
10.8809 79.8586
10.9257 78.8419
10.9706 78.5106
11.0154 75.7081
11.0602 73.6516
11.105 72.2272
11.1499 73.0791
11.1947 74.8734
11.2395 70.7731
11.2844 69.2089
11.3292 67.4529
11.374 66.5934
11.4189 66.2552
11.4637 65.3561
11.5086 65.3441
11.5534 65.9946
11.5983 64.8765
11.6431 64.2346
11.688 63.5164
11.7328 63.3899
11.7777 63.2158
11.8225 63.061
11.8674 63.0469
11.9122 63.1434
11.9571 63.5343
12.002 64.8974
12.0468 70.3705
12.0917 81.6563
12.1366 107.131
12.1814 157.348
12.2263 203.057
12.2712 162.324
12.3161 90.4627
12.3609 67.4464
12.4058 64.5682
12.4507 64.6259
12.4956 65.3166
12.5405 65.3896
12.5853 65.9379
12.6302 68.7726
12.6751 71.4604
12.72 68.6666
12.7649 68.218
12.8098 69.0962
12.8547 70.6651
12.8996 72.2709
12.9445 73.4357
12.9894 75.2481
13.0343 76.9703
13.0792 81.4547
13.1242 94.7319
13.1691 116.877
13.214 158.961
13.2589 254.041
13.3038 372.313
13.3487 418.555
13.3937 253.999
13.4386 122.902
13.4835 110.484
13.5285 126.912
13.5734 169.832
13.6183 255.351
13.6633 348.299
13.7082 330.193
13.7531 183.168
13.7981 98.0037
13.843 82.5943
13.888 80.5068
13.9329 78.122
13.9779 76.6535
14.0228 75.1095
14.0678 73.754
14.1127 73.0929
14.1577 72.8792
14.2027 71.8382
14.2476 71.355
14.2926 70.7
14.3376 71.1364
14.3825 70.4643
14.4275 69.481
14.4725 69.5608
14.5175 69.5524
14.5624 69.8675
14.6074 70.6186
14.6524 71.0946
14.6974 71.5488
14.7424 75.0377
14.7874 81.7088
14.8324 92.9037
14.8774 117.015
14.9224 159.837
14.9674 209.196
15.0124 213.425
15.0574 146.011
15.1024 89.2384
15.1474 72.8202
15.1924 70.8225
15.2374 70.3821
15.2824 69.2224
15.3274 68.2534
15.3725 67.3644
15.4175 67.0328
15.4625 66.5221
15.5076 66.5864
15.5526 66.4399
15.5976 66.3257
15.6426 69.2171
15.6877 74.5452
15.7327 82.7404
15.7778 99.7481
15.8228 131.624
15.8679 171.56
15.9129 190.911
15.958 150.871
16.003 93.5823
16.0481 67.2398
16.0931 63.6225
16.1382 61.9397
16.1833 60.6878
16.2283 59.298
16.2734 58.875
16.3185 58.4418
16.3636 58.1039
16.4086 57.2064
16.4537 56.4041
16.4988 56.0721
16.5439 55.5436
16.589 55.4873
16.6341 55.205
16.6792 54.8862
16.7243 55.1146
16.7694 55.0566
16.8145 55.1968
16.8596 55.4736
16.9047 55.993
16.9498 56.2686
16.9949 55.7926
17.04 56.6763
17.0851 57.8622
17.1302 59.5332
17.1754 62.9008
17.2205 68.2442
17.2656 75.4034
17.3108 82.6348
17.3559 82.2286
17.401 71.5309
17.4462 62.6388
17.4913 59.7967
17.5365 59.6085
17.5815 59.7398
17.6268 60.2214
17.6718 60.8122
17.7171 61.2112
17.7622 61.8341
17.8074 63.2771
17.8525 66.3926
17.8977 69.8602
17.9428 75.9522
17.9881 85.6936
18.0331 103.196
18.0784 123.289
18.1237 140.181
18.1688 131.48
18.214 103.095
18.2591 87.775
18.3044 92.3191
18.3495 100.86
18.3948 105.521
18.4399 95.3757
18.4852 76.798
18.5303 65.8348
18.5756 62.7321
18.6207 61.6489
18.666 60.7869
18.7112 60.2846
18.7565 59.4076
18.8016 59.2826
18.8469 58.4315
18.892 58.3179
18.9374 57.7173
18.9825 57.5039
19.0278 57.1932
19.073 57.4835
19.1183 57.8849
19.1635 58.6242
19.2088 60.2553
19.254 63.0996
19.2993 67.3833
19.3447 72.7761
19.3898 75.8328
19.4352 71.5238
19.4804 63.1287
19.5257 56.9013
19.5709 54.3889
19.6163 54.2874
19.6615 54.0851
19.7068 53.7591
19.752 53.8179
19.7974 54.4863
19.8426 54.8528
19.888 55.4862
19.9332 57.0659
19.9786 59.937
20.0238 63.4788
20.0692 67.8397
20.1144 70.1279
20.1598 68.3478
20.205 64.0516
20.2504 62.7064
20.2957 64.17
20.3411 65.6554
20.3863 64.2109
20.4318 58.4483
20.477 53.4959
20.5224 51.5317
20.5677 51.004
20.6131 50.702
20.6586 50.1944
20.7038 49.9432
20.7493 49.5137
20.7945 49.316
20.84 49.2265
20.8853 49.2748
20.9307 49.0207
20.976 49.3208
21.0215 49.0034
21.0668 49.4058
21.1122 49.8514
21.1575 50.5883
21.203 51.1779
21.2483 51.5604
21.2938 51.514
21.3391 50.4306
21.3846 49.2375
21.4299 48.843
21.4754 48.8645
21.5207 48.9709
21.5662 49.3977
21.6116 49.9212
21.6571 50.4838
21.7024 51.5596
21.7479 53.5967
21.7933 56.5033
21.8388 59.641
21.8843 63.1436
21.9297 64.8943
21.9752 63.2184
22.0206 59.4779
22.0661 56.6751
22.1115 56.2128
22.157 56.1407
22.2024 54.3939
22.248 51.6513
22.2933 50.0938
22.3389 49.2992
22.3843 49.314
22.4299 49.047
22.4753 49.1029
22.5208 48.9838
22.5662 48.8479
22.6118 49.2011
22.6572 49.3694
22.7028 49.8149
22.7483 50.3205
22.7939 51.0202
22.8393 52.8378
22.8849 54.8555
22.9303 56.6145
22.9759 57.8351
23.0214 57.3967
23.067 54.5254
23.1126 51.2379
23.1581 49.3933
23.2037 49.1506
23.2492 49.2788
23.2948 49.2806
23.3403 49.4669
23.3859 50.384
23.4314 51.4302
23.477 53.3946
23.5225 55.3474
23.5682 57.018
23.6137 57.9392
23.6593 55.6553
23.7048 51.6935
23.7505 48.3579
23.796 46.9443
23.8417 46.3188
23.8872 45.877
23.9329 45.6358
23.9784 45.0974
24.0241 44.9492
24.0697 44.8795
24.1154 44.3915
24.1609 44.2127
24.2066 43.9445
24.2522 44.0066
24.2979 43.6675
24.3434 43.6832
24.3892 43.5287
24.4349 43.532
24.4805 43.1499
24.5262 43.2711
24.5718 43.3258
24.6175 43.2587
24.6631 43.0609
24.7089 42.7604
24.7545 42.5721
24.8002 42.5936
24.8458 42.5311
24.8916 42.3693
24.9372 42.6996
24.983 42.9284
25.0286 43.1879
25.0744 43.8245
25.12 44.1111
25.1658 44.7059
25.2114 45.011
25.2572 45.1943
25.3029 45.1057
25.3487 45.0555
25.3943 44.8522
25.4402 43.6828
25.4858 42.6956
25.5316 41.6089
25.5773 41.2125
25.6231 41.2069
25.669 40.7328
25.7147 40.8798
25.7605 40.5809
25.8062 40.7158
25.8521 41.0746
25.8977 40.8327
25.9436 41.2716
25.9893 41.1449
26.0352 41.6753
26.0809 41.8274
26.1268 42.0394
26.1725 41.5966
26.2184 41.0604
26.2641 40.6241
26.31 40.3275
26.3557 40.5439
26.4017 40.3855
26.4474 40.6542
26.4933 41.0408
26.5391 41.6283
26.585 42.0417
26.6308 42.4033
26.6767 42.448
26.7225 42.3205
26.7684 41.6418
26.8142 41.0638
26.8601 40.6835
26.9059 40.3123
26.9519 39.7954
26.9979 39.4696
27.0437 39.1192
27.0896 39.1326
27.1354 39.103
27.1814 38.8648
27.2272 38.8144
27.2732 38.9486
27.3191 38.598
27.3651 38.7792
27.4109 38.6797
27.4569 38.7822
27.5027 38.7717
27.5488 38.7084
27.5946 38.6919
27.6407 38.3902
27.6865 38.3513
27.7326 38.1487
27.7784 38.1321
27.8245 38.1578
27.8703 38.3406
27.9164 38.5255
27.9623 38.8234
28.0084 38.9869
28.0543 39.3605
28.1003 39.3459
28.1462 39.0683
28.1923 38.6413
28.2384 38.0803
28.2843 37.8686
28.3304 37.2545
28.3764 36.9581
28.4225 36.5762
28.4684 36.5543
28.5145 36.1803
28.5605 36.1205
28.6066 35.8038
28.6526 35.9557
28.6987 35.9005
28.7447 35.7354
28.7908 35.6565
28.8368 35.5754
28.8829 35.558
28.9289 35.5301
28.9751 35.327
29.0211 35.2097
29.0673 34.8327
29.1133 34.8196
29.1595 34.6062
29.2055 34.5495
29.2517 34.6027
29.2977 34.5676
29.3439 34.5437
29.3899 34.5282
29.4361 34.3106
29.4824 34.1522
29.5284 33.9584
29.5746 33.6559
29.6207 33.3638
29.6669 33.331
29.713 33.0725
29.7593 33.0627
29.8053 33.0249
29.8516 33.0138
29.8977 32.9677
29.9439 32.7854
29.99 32.7731
30.0363 32.6614
30.0824 32.7063
30.1287 32.6048
30.1748 32.6188
30.2211 32.6577
30.2673 32.5095
30.3136 32.6035
30.3597 32.3779
30.406 32.4031
30.4522 32.2947
30.4985 32.331
30.5447 32.4262
30.591 32.3427
30.6372 32.4647
30.6835 32.3729
30.7297 32.5098
30.7761 32.4025
30.8224 32.2289
30.8686 32.0499
30.915 31.7733
30.9612 31.7133
31.0076 31.5566
31.0538 31.257
31.1002 31.2684
31.1464 31.1877
31.1928 31.1709
31.2391 31.211
31.2855 31.0927
31.3317 31.1036
31.3781 31.1573
31.4244 31.0794
31.4708 31.0032
31.5171 30.964
31.5636 31.0149
31.6098 30.6655
31.6563 30.5099
31.7026 30.5014
31.7491 30.239
31.7953 30.4111
31.8418 30.4946
31.8881 30.3976
31.9346 30.3536
31.9809 30.2227
32.0275 30.0406
32.074 29.9956
32.1203 29.8971
32.1668 29.6338
32.2132 29.5371
32.2597 29.4179
32.306 29.2819
32.3526 29.2169
32.399 29.1281
32.4455 28.9836
32.4919 28.8937
32.5385 28.9572
32.5848 28.613
32.6314 28.7185
32.6778 28.6829
32.7244 28.5552
32.7708 28.3568
32.8174 28.3738
32.8638 28.0785
32.9104 28.3052
32.9569 28.1354
33.0035 28.0485
33.0499 28.0965
33.0966 28.0132
33.143 27.9795
33.1897 27.8673
33.2361 27.6638
33.2828 27.7128
33.3293 27.5728
33.3759 27.521
33.4226 27.3675
33.4691 27.2586
33.5158 27.2573
33.5623 27.0439
33.609 26.8958
33.6555 26.9363
33.7022 26.7115
33.7487 26.6972
33.7954 26.623
33.842 26.6198
33.8887 26.5404
33.9353 26.3822
33.982 26.3895
34.0286 26.2407
34.0753 26.1835
34.1219 26.0424
34.1687 25.9428
34.2152 25.9012
34.262 25.8531
34.3086 25.7308
34.3554 25.6504
34.402 25.5272
34.4488 25.5214
34.4954 25.4038
34.5422 25.388
34.5889 25.1798
34.6357 25.193
34.6825 25.131
34.7292 25.0735
34.776 24.9149
34.8227 24.8116
34.8695 24.7933
34.9162 24.7027
34.9631 24.6714
35.0098 24.714
35.0566 24.4757
35.1033 24.4007
35.1502 24.3887
35.1969 24.3495
35.2438 24.4061
35.2906 24.2394
35.3375 24.1646
35.3842 24.1104
35.4311 24.0879
35.4779 24.1042
35.5248 24.0501
35.5716 23.8685
35.6185 23.8634
35.6653 23.7507
35.7123 23.6387
35.759 23.6188
35.806 23.5534
35.8528 23.499
35.8998 23.4185
35.9468 23.2932
35.9936 23.1813
36.0406 23.1637
36.0874 23.1949
36.1345 22.9626
36.1813 22.955
36.2283 22.8609
36.2752 22.7436
36.3222 22.8137
36.3691 22.6764
36.4161 22.5642
36.463 22.5977
36.5101 22.5711
36.557 22.436
36.6041 22.4005
36.651 22.34
36.6981 22.2395
36.745 22.2104
36.7921 22.1399
36.839 22.0169
36.8861 21.9431
36.9331 21.8692
36.9802 21.8617
37.0272 21.7332
37.0743 21.6738
37.1213 21.5917
37.1684 21.559
37.2154 21.4817
37.2626 21.3822
37.3098 21.3427
37.3568 21.2964
37.404 21.2588
37.451 21.137
37.4982 21.0371
37.5452 20.909
37.5924 20.957
37.6395 20.9095
37.6867 20.843
37.7337 20.7881
37.781 20.6669
37.8281 20.6166
37.8753 20.5006
37.9224 20.5127
37.9697 20.4382
38.0168 20.3656
38.064 20.3343
38.1111 20.2338
38.1584 20.0735
38.2056 20.0604
38.2529 20.0116
38.3 19.9331
38.3473 19.9257
38.3945 19.763
38.4418 19.8351
38.489 19.7407
38.5363 19.5717
38.5837 19.5577
38.6309 19.4947
38.6782 19.4349
38.7254 19.3412
38.7728 19.2529
38.82 19.1914
38.8674 19.1538
38.9146 19.1361
38.9621 19.0918
39.0093 19.0052
39.0567 19.0121
39.104 18.9359
39.1514 18.7802
39.1987 18.784
39.2461 18.8005
39.2934 18.7018
39.3409 18.5627
39.3882 18.5391
39.4356 18.4575
39.483 18.4034
39.5304 18.295
39.5778 18.3302
39.6253 18.2655
39.6726 18.1761
39.7201 18.159
39.7675 18.0861
39.815 18.0488
39.8624 17.9194
39.9099 17.9745
39.9575 17.8325
40.0049 17.8746
40.0525 17.677
40.0999 17.6658
40.1474 17.6881
40.1949 17.5913
40.2425 17.4761
40.2899 17.4347
40.3375 17.4503
40.385 17.3559
40.4326 17.2876
40.48 17.2235
40.5277 17.293
40.5752 17.108
40.6228 17.0387
40.6703 16.9905
40.718 16.9473
40.7655 16.8937
40.8132 16.819
40.8607 16.8219
40.9084 16.7562
40.9559 16.6954
41.0036 16.6942
41.0512 16.5869
41.0989 16.5885
41.1465 16.4825
41.1942 16.4767
41.242 16.3454
41.2896 16.2976
41.3373 16.3069
41.3849 16.1698
41.4327 16.127
41.4803 16.1018
41.5281 16.0082
41.5758 15.9642
41.6236 15.9097
41.6712 15.8396
41.7191 15.775
41.7667 15.7826
41.8146 15.7689
41.8622 15.6583
41.9101 15.6075
41.9578 15.5722
42.0057 15.5134
42.0534 15.4476
42.1013 15.4568
42.149 15.315
42.1969 15.317
42.2446 15.2078
42.2925 15.2609
42.3403 15.21
42.3882 15.1119
42.436 15.0111
42.4839 14.9796
42.5319 15.0038
42.5797 14.9007
42.6277 14.8521
42.6755 14.7871
42.7235 14.8197
42.7713 14.6637
42.8193 14.6854
42.8671 14.6013
42.9152 14.5297
42.963 14.5176
43.0111 14.428
43.0589 14.4535
43.107 14.3523
43.1549 14.2789
43.2029 14.2403
43.2508 14.2162
43.2989 14.1555
43.3468 14.0551
43.3949 14.0301
43.4429 13.9982
43.491 13.9259
43.5389 13.8848
43.5871 13.8639
43.635 13.7717
43.6832 13.756
43.7312 13.6965
43.7793 13.6546
43.8273 13.6206
43.8755 13.6058
43.9237 13.5243
43.9717 13.4939
44.0199 13.4196
44.068 13.3752
44.1162 13.3519
44.1642 13.3226
44.2125 13.2356
44.2606 13.23
44.3088 13.1132
44.3569 13.078
44.4052 13.1127
44.4533 13.0415
44.5016 12.963
44.5497 12.9791
44.598 12.9265
44.6461 12.834
44.6945 12.7984
44.7426 12.7596
44.791 12.7003
44.8391 12.6856
44.8875 12.6389
44.9357 12.595
44.984 12.5309
45.0322 12.4564
45.0806 12.412
45.1288 12.3893
45.1773 12.3709
45.2257 12.3117
45.2739 12.2703
45.3224 12.1768
45.3706 12.2244
45.4191 12.1478
45.4673 12.1205
45.5158 12.0845
45.5641 11.9797
45.6126 11.9722
45.6609 11.9163
45.7094 11.9043
45.7577 11.8062
45.8063 11.7897
45.8546 11.7781
45.9031 11.7284
45.9515 11.6611
46.0001 11.6387
46.0484 11.6089
46.097 11.5821
46.1454 11.5213
46.194 11.4671
46.2424 11.4028
46.291 11.3412
46.3395 11.3856
46.3881 11.2596
46.4365 11.2569
46.4852 11.2232
46.5337 11.1238
46.5823 11.1733
46.631 11.0756
46.6795 11.0798
46.7282 11.0341
46.7767 10.9783
46.8254 10.9531
46.8739 10.9319
46.9226 10.8567
46.9712 10.7581
47.0199 10.7743
47.0685 10.7089
47.1173 10.7038
47.1658 10.6378
47.2146 10.6252
47.2632 10.55
47.312 10.5194
47.3606 10.4555
47.4095 10.4262
47.4581 10.3973
47.5069 10.3863
47.5556 10.3323
47.6044 10.2775
47.6531 10.223
47.702 10.1994
47.7507 10.1583
47.7996 10.0973
47.8483 10.1143
47.8972 10.0609
47.9461 10.0221
47.9948 9.97873
48.0438 9.95154
48.0925 9.94266
48.1415 9.91289
48.1902 9.86599
48.2392 9.83661
48.288 9.81575
48.337 9.76032
48.3858 9.70845
48.4348 9.68502
48.4837 9.65187
48.5327 9.6165
48.5815 9.58709
48.6306 9.55732
48.6795 9.48181
48.7285 9.45045
48.7774 9.44029
48.8265 9.41116
48.8754 9.36554
48.9245 9.31564
48.9734 9.29225
49.0226 9.29208
49.0715 9.24316
49.1206 9.1657
49.1696 9.16256
49.2188 9.1436
49.2679 9.0825
49.3169 9.08719
49.3661 8.99787
49.4151 8.93639
49.4643 8.95141
49.5134 8.89481
49.5626 8.84088
49.6117 8.84583
49.6609 8.85417
49.71 8.76586
49.7592 8.7459
49.8083 8.68408
49.8576 8.67987
49.9067 8.63535
49.956 8.59573
50.0052 8.56562
50.0545 8.51616
50.1036 8.4836
50.153 8.46723
50.2022 8.47866
50.2515 8.40804
50.3007 8.39513
50.3501 8.35494
50.3993 8.29987
50.4487 8.308
50.498 8.27675
50.5474 8.22758
50.5966 8.20522
50.6461 8.15519
50.6955 8.1433
50.7448 8.12387
50.7943 8.0679
50.8436 8.01264
50.8931 7.98003
50.9424 7.96158
50.9919 7.94036
51.0413 7.90769
51.0908 7.89426
51.1402 7.86438
51.1897 7.81295
51.2391 7.81939
51.2887 7.74334
51.3381 7.7042
51.3877 7.72386
51.4371 7.61951
51.4867 7.61436
51.5362 7.57397
51.5858 7.5682
51.6353 7.49483
51.6849 7.47487
51.7344 7.45034
51.7841 7.45529
51.8336 7.41238
51.8833 7.38086
51.9328 7.35326
51.9826 7.31138
52.0323 7.28008
52.0818 7.25656
52.1316 7.21482
52.1812 7.15677
52.231 7.14877
52.2806 7.14056
52.3304 7.12324
52.38 7.09205
52.4298 7.02987
52.4794 7.00354
52.5293 6.98245
52.5789 6.94256
52.6288 6.90817
52.6785 6.84805
52.7284 6.86831
52.7781 6.87207
52.828 6.79766
52.8777 6.77277
52.9276 6.75271
52.9774 6.71483
53.0273 6.65648
53.0771 6.65496
53.1271 6.61963
53.1769 6.62674
53.2269 6.59103
53.2767 6.52386
53.3267 6.49012
53.3765 6.51897
53.4266 6.47604
53.4766 6.42524
53.5265 6.41469
53.5765 6.40756
53.6264 6.37537
53.6765 6.34182
53.7264 6.32593
53.7765 6.26454
53.8265 6.23222
53.8766 6.21085
53.9266 6.1952
53.9767 6.17565
54.0267 6.16744
54.0769 6.10699
54.1269 6.08864
54.1771 6.05886
54.2271 5.97404
54.2773 5.98454
54.3274 5.98336
54.3776 5.94196
54.4277 5.88431
54.478 5.89632
54.528 5.84574
54.5783 5.7924
54.6285 5.716
54.6788 5.67109
54.7289 5.6858
54.7792 5.65229
54.8296 5.59639
54.8798 5.50819
54.9301 5.49549
54.9803 5.44914
55.0307 5.45247
55.0809 5.4186
55.1314 5.34636
55.1816 5.33111
55.232 5.2817
55.2823 5.27427
55.3328 5.19681
55.383 5.10958
55.4335 5.09453
55.4838 5.02626
55.5344 5.00057
55.5847 4.92009
55.6352 4.91094
55.6856 4.8327
55.7361 4.82383