File: XRD/Ni3Fe_FD0660.xy
TT I
1.27165 7.19097
1.31627 7.00657
1.36089 6.89224
1.40551 6.06509
1.45013 6.56939
1.49476 6.43919
1.53938 5.91574
1.584 5.40468
1.62863 5.62999
1.67325 5.08069
1.71787 4.49486
1.7625 4.61579
1.80712 4.72252
1.85174 5.29455
1.89636 4.52767
1.94099 5.10838
1.98562 4.46889
2.03025 5.01016
2.07487 4.48373
2.11949 5.04013
2.16411 4.94426
2.20874 14.2861
2.25338 23.7451
2.298 5.46558
2.34263 5.41417
2.38725 6.0243
2.43188 6.27388
2.4765 6.74129
2.52115 6.688
2.56577 7.1395
2.6104 7.57552
2.65503 8.18187
2.69965 8.11739
2.7443 8.48699
2.78893 7.9519
2.83356 8.2576
2.87818 9.14886
2.92281 8.71095
2.96744 10.032
3.01209 10.4287
3.05672 11.0273
3.10135 12.3992
3.14599 13.3598
3.19062 14.0848
3.23527 15.0382
3.2799 16.1363
3.32454 16.7555
3.36917 17.9736
3.4138 18.8571
3.45844 19.9484
3.50309 21.1533
3.54773 22.2292
3.59237 23.8507
3.637 96.4356
3.68164 61.5748
3.7263 26.179
3.77094 26.0047
3.81558 26.9683
3.86022 27.2787
3.90486 28.6044
3.9495 30.12
3.99416 30.729
4.0388 32.0874
4.08344 33.6655
4.12809 34.7996
4.17273 37.047
4.21738 42.671
4.26204 260.321
4.30669 229.0
4.35133 49.0151
4.39598 44.2536
4.44063 54.2944
4.4853 66.5892
4.52995 50.4262
4.5746 50.9319
4.61925 52.687
4.6639 55.2585
4.70855 57.8422
4.75322 61.0368
4.79788 63.6807
4.84253 66.8514
4.88719 71.0736
4.93184 74.7929
4.97652 80.4506
5.02118 86.8705
5.06583 94.2548
5.11049 105.796
5.15515 177.013
5.19981 326.885
5.24449 2709.93
5.28916 12710.5
5.33382 2887.2
5.37848 186.443
5.42315 128.28
5.46783 112.798
5.5125 105.112
5.55716 101.126
5.60183 98.1081
5.6465 96.0023
5.69117 93.9667
5.73586 91.3411
5.78053 91.1299
5.8252 90.4678
5.86988 91.6197
5.91455 94.0032
5.95924 101.629
6.00392 191.546
6.0486 918.125
6.09328 4579.59
6.13795 3294.39
6.18263 230.698
6.22733 92.5474
6.27201 82.4289
6.3167 103.67
6.36138 81.3483
6.40606 69.176
6.45075 67.0303
6.49545 65.0821
6.54014 64.0139
6.58483 63.1065
6.62952 62.701
6.67421 95.5291
6.71892 150.371
6.76361 69.704
6.8083 58.546
6.853 57.5716
6.89769 56.8558
6.94239 56.942
6.98711 55.8551
7.03181 55.5814
7.07651 55.5414
7.12121 55.1248
7.16591 55.6951
7.21063 55.7799
7.25533 70.3122
7.30004 186.535
7.34475 94.3956
7.38945 56.4793
7.43416 54.6508
7.47889 54.4127
7.5236 54.5873
7.56831 55.2048
7.61303 56.9623
7.65774 57.4621
7.70247 56.1093
7.74719 56.1934
7.79191 56.6879
7.83663 56.743
7.88135 57.5948
7.92607 58.5049
7.97081 60.0728
8.01553 60.591
8.06026 61.9047
8.10498 63.5886
8.14971 73.7164
8.19446 72.6864
8.23919 69.3386
8.28392 71.6549
8.32865 73.9211
8.37339 77.7922
8.41812 84.8886
8.46288 114.706
8.50761 157.224
8.55235 373.346
8.59709 1168.46
8.64183 2254.09
8.68658 936.123
8.73134 157.71
8.77609 99.0608
8.82083 91.8236
8.86558 89.1713
8.91033 89.6238
8.9551 91.7579
8.99985 84.8073
9.04461 82.9522
9.08936 82.57
9.13412 81.4059
9.17888 81.8089
9.22365 82.9178
9.26841 81.6265
9.31318 82.4204
9.35794 82.2548
9.4027 82.6427
9.44749 83.5265
9.49226 84.0932
9.53703 85.0844
9.5818 87.066
9.62657 92.1389
9.67134 98.8614
9.71614 93.5633
9.76091 93.2785
9.80569 96.1138
9.85047 99.3137
9.89525 124.851
9.94005 137.269
9.98484 168.158
10.0296 330.105
10.0744 788.903
10.1192 1766.08
10.164 1624.63
10.2088 404.48
10.2536 125.674
10.2984 113.111
10.3432 115.267
10.388 103.854
10.4328 115.365
10.4776 155.238
10.5224 271.892
10.5672 514.133
10.612 510.426
10.6568 201.428
10.7017 95.6014
10.7465 86.5531
10.7913 82.8782
10.8361 80.8536
10.8809 78.6151
10.9257 78.2428
10.9706 79.0904
11.0154 74.6329
11.0602 72.3506
11.105 71.6797
11.1499 76.459
11.1947 84.3544
11.2395 74.6882
11.2844 70.3294
11.3292 67.2566
11.374 65.965
11.4189 65.5717
11.4637 64.6808
11.5086 65.345
11.5534 68.4941
11.5983 65.8307
11.6431 63.607
11.688 62.9354
11.7328 62.7705
11.7777 62.6877
11.8225 62.1404
11.8674 62.2802
11.9122 62.7511
11.9571 62.8068
12.002 63.5057
12.0468 66.8547
12.0917 78.07
12.1366 101.865
12.1814 152.734
12.2263 209.188
12.2712 166.866
12.3161 93.9235
12.3609 70.5543
12.4058 64.544
12.4507 64.0408
12.4956 64.1902
12.5405 64.7102
12.5853 65.4134
12.6302 73.4406
12.6751 79.6899
12.72 70.1502
12.7649 67.6255
12.8098 68.3403
12.8547 69.2941
12.8996 70.8236
12.9445 71.9805
12.9894 73.9771
13.0343 75.5814
13.0792 78.8023
13.1242 86.2521
13.1691 109.805
13.214 146.087
13.2589 236.214
13.3038 380.684
13.3487 434.152
13.3937 261.425
13.4386 121.236
13.4835 103.439
13.5285 118.429
13.5734 155.413
13.6183 245.979
13.6633 355.732
13.7082 339.77
13.7531 180.678
13.7981 95.3468
13.843 81.5411
13.888 79.2321
13.9329 76.8115
13.9779 75.4
14.0228 74.1708
14.0678 72.6684
14.1127 72.5576
14.1577 72.3611
14.2027 71.5365
14.2476 70.1534
14.2926 70.5057
14.3376 71.7093
14.3825 70.0
14.4275 68.7185
14.4725 68.3973
14.5175 68.7507
14.5624 68.8918
14.6074 70.956
14.6524 71.843
14.6974 70.2494
14.7424 71.1568
14.7874 77.5902
14.8324 87.3833
14.8774 108.718
14.9224 152.909
14.9674 210.808
15.0124 220.806
15.0574 146.724
15.1024 88.7182
15.1474 72.1148
15.1924 70.4122
15.2374 71.1788
15.2824 70.2358
15.3274 68.0843
15.3725 66.9806
15.4175 66.1314
15.4625 65.5903
15.5076 66.0178
15.5526 66.1929
15.5976 65.6937
15.6426 66.2031
15.6877 71.2207
15.7327 78.6263
15.7778 93.2374
15.8228 124.979
15.8679 172.995
15.9129 198.383
15.958 157.034
16.003 96.1202
16.0481 67.4259
16.0931 64.701
16.1382 62.6107
16.1833 60.8588
16.2283 58.8337
16.2734 58.4622
16.3185 58.6513
16.3636 59.4547
16.4086 57.7317
16.4537 56.3192
16.4988 55.3569
16.5439 55.4854
16.589 55.0635
16.6341 54.6107
16.6792 54.4956
16.7243 54.7808
16.7694 54.9578
16.8145 54.7475
16.8596 55.2001
16.9047 56.7629
16.9498 57.0213
16.9949 55.7427
17.04 55.5852
17.0851 56.7164
17.1302 58.5062
17.1754 61.5644
17.2205 66.2752
17.2656 74.4792
17.3108 83.772
17.3559 82.6281
17.401 71.0504
17.4462 61.6925
17.4913 58.9138
17.5365 59.1599
17.5815 59.1293
17.6268 59.2958
17.6718 60.1067
17.7171 60.8958
17.7622 61.2014
17.8074 61.6007
17.8525 63.3616
17.8977 67.6433
17.9428 73.2784
17.9881 81.644
18.0331 99.0938
18.0784 123.542
18.1237 143.292
18.1688 132.197
18.214 102.761
18.2591 85.8587
18.3044 90.2417
18.3495 101.302
18.3948 107.225
18.4399 96.9865
18.4852 77.0487
18.5303 65.7613
18.5756 62.0279
18.6207 61.1954
18.666 60.4641
18.7112 59.5055
18.7565 58.9225
18.8016 58.6223
18.8469 58.0208
18.892 57.676
18.9374 57.1335
18.9825 56.9402
19.0278 56.7372
19.073 56.8609
19.1183 57.267
19.1635 58.079
19.2088 59.2607
19.254 62.0456
19.2993 66.4663
19.3447 73.6287
19.3898 77.4696
19.4352 72.4143
19.4804 62.7692
19.5257 56.3069
19.5709 54.2958
19.6163 53.8411
19.6615 53.6997
19.7068 53.2531
19.752 53.1982
19.7974 53.4237
19.8426 54.2956
19.888 54.9884
19.9332 56.1294
19.9786 58.5616
20.0238 62.2225
20.0692 67.3481
20.1144 70.257
20.1598 68.0033
20.205 62.8777
20.2504 61.7684
20.2957 63.9966
20.3411 65.8387
20.3863 63.7154
20.4318 58.0869
20.477 53.4366
20.5224 51.5669
20.5677 50.897
20.6131 50.2208
20.6586 49.6038
20.7038 49.4976
20.7493 49.1465
20.7945 48.8031
20.84 48.9682
20.8853 48.8645
20.9307 48.3556
20.976 48.6584
21.0215 48.6284
21.0668 49.042
21.1122 49.3012
21.1575 50.0175
21.203 50.7038
21.2483 51.4579
21.2938 51.3207
21.3391 49.7722
21.3846 48.9868
21.4299 48.4031
21.4754 48.328
21.5207 48.5748
21.5662 48.757
21.6116 49.0569
21.6571 49.8154
21.7024 50.707
21.7479 52.3931
21.7933 55.1229
21.8388 59.0698
21.8843 62.9323
21.9297 65.1774
21.9752 63.3057
22.0206 59.3018
22.0661 56.4267
22.1115 56.181
22.157 56.193
22.2024 54.2602
22.248 51.2499
22.2933 49.738
22.3389 49.0533
22.3843 49.0783
22.4299 48.821
22.4753 48.8982
22.5208 48.6683
22.5662 48.3292
22.6118 48.6344
22.6572 48.7311
22.7028 49.1404
22.7483 49.494
22.7939 50.4118
22.8393 51.8951
22.8849 54.0757
22.9303 56.4353
22.9759 58.2943
23.0214 57.5995
23.067 54.5474
23.1126 51.15
23.1581 49.126
23.2037 48.6838
23.2492 48.7756
23.2948 48.7663
23.3403 48.9678
23.3859 49.6666
23.4314 50.6873
23.477 52.4842
23.5225 54.9227
23.5682 57.4017
23.6137 58.2522
23.6593 55.6713
23.7048 51.5378
23.7505 47.9964
23.796 46.5664
23.8417 46.0165
23.8872 45.4819
23.9329 45.2734
23.9784 44.9101
24.0241 44.615
24.0697 44.4574
24.1154 44.1081
24.1609 44.0135
24.2066 43.8214
24.2522 43.7166
24.2979 43.57
24.3434 43.4135
24.3892 43.083
24.4349 43.1156
24.4805 42.8979
24.5262 43.0596
24.5718 42.9238
24.6175 42.9292
24.6631 42.6781
24.7089 42.4649
24.7545 42.3961
24.8002 42.2178
24.8458 42.2527
24.8916 42.1499
24.9372 42.1586
24.983 42.4973
25.0286 42.7041
25.0744 43.3023
25.12 43.7531
25.1658 44.3683
25.2114 44.7426
25.2572 44.7471
25.3029 44.9416
25.3487 45.1764
25.3943 44.6057
25.4402 43.5236
25.4858 42.4136
25.5316 41.438
25.5773 40.9854
25.6231 40.9081
25.669 40.4542
25.7147 40.5235
25.7605 40.3847
25.8062 40.5318
25.8521 40.786
25.8977 40.5848
25.9436 40.787
25.9893 40.9718
26.0352 41.6218
26.0809 41.7045
26.1268 41.8606
26.1725 41.3512
26.2184 40.7129
26.2641 40.3946
26.31 40.0643
26.3557 40.0508
26.4017 40.08
26.4474 40.2602
26.4933 40.8635
26.5391 41.1986
26.585 41.7739
26.6308 42.2289
26.6767 42.2379
26.7225 41.9836
26.7684 41.3239
26.8142 40.9233
26.8601 40.473
26.9059 40.0574
26.9519 39.3993
26.9979 39.1784
27.0437 38.8438
27.0896 38.6309
27.1354 38.7366
27.1814 38.5265
27.2272 38.6254
27.2732 38.5491
27.3191 38.2967
27.3651 38.4336
27.4109 38.4608
27.4569 38.4485
27.5027 38.4842
27.5488 38.557
27.5946 38.2901
27.6407 38.0729
27.6865 38.2356
27.7326 37.8142
27.7784 37.9597
27.8245 37.7763
27.8703 38.017
27.9164 38.3391
27.9623 38.4669
28.0084 38.8131
28.0543 39.2629
28.1003 39.1038
28.1462 38.8095
28.1923 38.5018
28.2384 37.9603
28.2843 37.6996
28.3304 37.1355
28.3764 36.6311
28.4225 36.4342
28.4684 36.2273
28.5145 35.9395
28.5605 35.8289
28.6066 35.6116
28.6526 35.5394
28.6987 35.6396
28.7447 35.4628
28.7908 35.4236
28.8368 35.4358
28.8829 35.4947
28.9289 35.3511
28.9751 35.1657
29.0211 34.9384
29.0673 34.6114
29.1133 34.5677
29.1595 34.4354
29.2055 34.3109
29.2517 34.266
29.2977 34.2901
29.3439 34.2709
29.3899 34.2084
29.4361 34.1377
29.4824 34.0338
29.5284 33.7414
29.5746 33.4482
29.6207 33.2863
29.6669 33.0815
29.713 33.0337
29.7593 32.7928
29.8053 32.95
29.8516 32.8183
29.8977 32.8359
29.9439 32.6529
29.99 32.7063
30.0363 32.5169
30.0824 32.4045
30.1287 32.4371
30.1748 32.4529
30.2211 32.4644
30.2673 32.3226
30.3136 32.4176
30.3597 32.3075
30.406 32.2838
30.4522 32.0964
30.4985 32.0767
30.5447 32.1768
30.591 32.1005
30.6372 32.1762
30.6835 32.1763
30.7297 32.2411
30.7761 32.1947
30.8224 31.9753
30.8686 31.8585
30.915 31.6984
30.9612 31.5077
31.0076 31.3017
31.0538 31.2384
31.1002 31.2461
31.1464 30.9687
31.1928 30.8978
31.2391 30.9392
31.2855 30.8807
31.3317 30.8244
31.3781 30.9399
31.4244 30.8879
31.4708 30.9329
31.5171 30.8307
31.5636 30.7667
31.6098 30.5165
31.6563 30.3614
31.7026 30.1677
31.7491 30.1679
31.7953 30.233
31.8418 30.1993
31.8881 30.2767
31.9346 30.1598
31.9809 30.136
32.0275 29.9874
32.074 29.8956
32.1203 29.5931
32.1668 29.4827
32.2132 29.4
32.2597 29.3373
32.306 29.2501
32.3526 28.9796
32.399 28.9158
32.4455 28.8196
32.4919 28.7968
32.5385 28.6291
32.5848 28.5499
32.6314 28.4388
32.6778 28.4536
32.7244 28.3048
32.7708 28.1303
32.8174 28.2153
32.8638 28.0781
32.9104 28.0417
32.9569 28.0404
33.0035 27.9346
33.0499 27.9163
33.0966 27.8832
33.143 27.8174
33.1897 27.7864
33.2361 27.655
33.2828 27.6482
33.3293 27.3986
33.3759 27.4873
33.4226 27.2967
33.4691 27.148
33.5158 27.0474
33.5623 26.874
33.609 26.7693
33.6555 26.6767
33.7022 26.5189
33.7487 26.5497
33.7954 26.5346
33.842 26.4426
33.8887 26.3311
33.9353 26.3
33.982 26.1612
34.0286 26.1614
34.0753 26.0272
34.1219 25.9162
34.1687 25.8329
34.2152 25.8337
34.262 25.6602
34.3086 25.5636
34.3554 25.5082
34.402 25.3597
34.4488 25.2919
34.4954 25.28
34.5422 25.1313
34.5889 25.1063
34.6357 25.0274
34.6825 24.9287
34.7292 24.8505
34.776 24.7271
34.8227 24.7234
34.8695 24.6413
34.9162 24.6096
34.9631 24.4908
35.0098 24.5023
35.0566 24.3488
35.1033 24.3323
35.1502 24.307
35.1969 24.2055
35.2438 24.1969
35.2906 24.2415
35.3375 24.1387
35.3842 24.0559
35.4311 24.0164
35.4779 24.025
35.5248 23.9101
35.5716 23.8728
35.6185 23.6748
35.6653 23.6526
35.7123 23.6028
35.759 23.5179
35.806 23.3584
35.8528 23.2415
35.8998 23.2447
35.9468 23.1851
35.9936 23.1357
36.0406 23.0323
36.0874 22.9326
36.1345 22.9093
36.1813 22.8312
36.2283 22.686
36.2752 22.5915
36.3222 22.6031
36.3691 22.5332
36.4161 22.4811
36.463 22.4795
36.5101 22.4766
36.557 22.3407
36.6041 22.263
36.651 22.2016
36.6981 22.1365
36.745 22.1076
36.7921 21.9744
36.839 21.8716
36.8861 21.889
36.9331 21.7138
36.9802 21.7021
37.0272 21.5981
37.0743 21.5143
37.1213 21.5169
37.1684 21.507
37.2154 21.3119
37.2626 21.2945
37.3098 21.215
37.3568 21.1819
37.404 21.1121
37.451 21.0237
37.4982 20.959
37.5452 20.8303
37.5924 20.827
37.6395 20.8813
37.6867 20.7527
37.7337 20.6543
37.781 20.5652
37.8281 20.5262
37.8753 20.4039
37.9224 20.3682
37.9697 20.3411
38.0168 20.2471
38.064 20.1725
38.1111 20.1125
38.1584 20.0214
38.2056 19.9715
38.2529 19.9622
38.3 19.8175
38.3473 19.8254
38.3945 19.7178
38.4418 19.6483
38.489 19.5642
38.5363 19.5514
38.5837 19.5172
38.6309 19.437
38.6782 19.3155
38.7254 19.2942
38.7728 19.2326
38.82 19.1436
38.8674 19.0716
38.9146 19.0058
38.9621 19.004
39.0093 18.9783
39.0567 18.9148
39.104 18.8631
39.1514 18.7112
39.1987 18.6995
39.2461 18.6715
39.2934 18.5915
39.3409 18.4981
39.3882 18.4153
39.4356 18.3892
39.483 18.2839
39.5304 18.247
39.5778 18.2564
39.6253 18.1382
39.6726 18.07
39.7201 18.0445
39.7675 17.9721
39.815 17.9751
39.8624 17.8693
39.9099 17.8488
39.9575 17.7442
40.0049 17.7721
40.0525 17.5572
40.0999 17.5879
40.1474 17.5244
40.1949 17.4697
40.2425 17.4571
40.2899 17.3602
40.3375 17.3118
40.385 17.2543
40.4326 17.2199
40.48 17.2094
40.5277 17.1325
40.5752 17.0942
40.6228 16.9613
40.6703 16.9322
40.718 16.8439
40.7655 16.8748
40.8132 16.7988
40.8607 16.7492
40.9084 16.7779
40.9559 16.643
41.0036 16.6147
41.0512 16.5067
41.0989 16.4846
41.1465 16.4099
41.1942 16.3748
41.242 16.2739
41.2896 16.2576
41.3373 16.1514
41.3849 16.0952
41.4327 16.0616
41.4803 15.9912
41.5281 16.0157
41.5758 15.9504
41.6236 15.8791
41.6712 15.7701
41.7191 15.7584
41.7667 15.6856
41.8146 15.6489
41.8622 15.6289
41.9101 15.5286
41.9578 15.4007
42.0057 15.4464
42.0534 15.3356
42.1013 15.4133
42.149 15.2993
42.1969 15.2618
42.2446 15.1341
42.2925 15.1113
42.3403 15.1042
42.3882 15.095
42.436 14.9984
42.4839 14.8855
42.5319 14.878
42.5797 14.8087
42.6277 14.7538
42.6755 14.7446
42.7235 14.729
42.7713 14.6291
42.8193 14.5858
42.8671 14.5339
42.9152 14.5055
42.963 14.4256
43.0111 14.3695
43.0589 14.281
43.107 14.3253
43.1549 14.2967
43.2029 14.1908
43.2508 14.1457
43.2989 14.0942
43.3468 14.0716
43.3949 14.0263
43.4429 13.9386
43.491 13.8727
43.5389 13.8113
43.5871 13.8163
43.635 13.745
43.6832 13.7078
43.7312 13.66
43.7793 13.6457
43.8273 13.5608
43.8755 13.4797
43.9237 13.4798
43.9717 13.4335
44.0199 13.38
44.068 13.3376
44.1162 13.288
44.1642 13.3068
44.2125 13.2355
44.2606 13.1487
44.3088 13.1389
44.3569 13.0617
44.4052 13.0332
44.4533 12.9761
44.5016 12.8617
44.5497 12.8889
44.598 12.908
44.6461 12.7998
44.6945 12.7684
44.7426 12.7237
44.791 12.6213
44.8391 12.6408
44.8875 12.5194
44.9357 12.4988
44.984 12.4658
45.0322 12.4019
45.0806 12.4407
45.1288 12.3724
45.1773 12.2859
45.2257 12.2563
45.2739 12.1852
45.3224 12.1765
45.3706 12.1551
45.4191 12.0797
45.4673 12.0903
45.5158 12.0083
45.5641 11.9659
45.6126 11.9004
45.6609 11.8656
45.7094 11.8307
45.7577 11.806
45.8063 11.7282
45.8546 11.7063
45.9031 11.6496
45.9515 11.6645
46.0001 11.6124
46.0484 11.5436
46.097 11.5269
46.1454 11.5224
46.194 11.4539
46.2424 11.3885
46.291 11.3471
46.3395 11.3006
46.3881 11.2582
46.4365 11.2473
46.4852 11.1892
46.5337 11.1347
46.5823 11.1017
46.631 11.0586
46.6795 11.0513
46.7282 11.014
46.7767 10.9545
46.8254 10.8496
46.8739 10.8617
46.9226 10.8221
46.9712 10.7841
47.0199 10.7409
47.0685 10.6873
47.1173 10.6345
47.1658 10.6145
47.2146 10.5652
47.2632 10.5356
47.312 10.4848
47.3606 10.4471
47.4095 10.4067
47.4581 10.3577
47.5069 10.3214
47.5556 10.2963
47.6044 10.2927
47.6531 10.1931
47.702 10.165
47.7507 10.1481
47.7996 10.0805
47.8483 10.098
47.8972 10.0617
47.9461 10.0033
47.9948 9.97731
48.0438 9.95191
48.0925 9.93677
48.1415 9.82548
48.1902 9.80117
48.2392 9.81431
48.288 9.76386
48.337 9.73485
48.3858 9.67977
48.4348 9.64195
48.4837 9.63555
48.5327 9.59471
48.5815 9.53975
48.6306 9.51591
48.6795 9.48834
48.7285 9.43227
48.7774 9.41332
48.8265 9.39803
48.8754 9.32756
48.9245 9.31143
48.9734 9.25393
49.0226 9.25748
49.0715 9.18891
49.1206 9.16182
49.1696 9.14032
49.2188 9.12428
49.2679 9.08721
49.3169 9.02491
49.3661 8.97758
49.4151 8.96474
49.4643 8.95064
49.5134 8.88911
49.5626 8.81531
49.6117 8.82395
49.6609 8.76576
49.71 8.73968
49.7592 8.69512
49.8083 8.64188
49.8576 8.64782
49.9067 8.59262
49.956 8.61393
50.0052 8.52929
50.0545 8.5275
50.1036 8.49055
50.153 8.43302
50.2022 8.42579
50.2515 8.36486
50.3007 8.34995
50.3501 8.3251
50.3993 8.27183
50.4487 8.27098
50.498 8.23303
50.5474 8.19469
50.5966 8.14121
50.6461 8.1087
50.6955 8.09735
50.7448 8.07872
50.7943 8.00748
50.8436 8.00119
50.8931 8.01178
50.9424 7.95487
50.9919 7.89915
51.0413 7.87488
51.0908 7.82526
51.1402 7.80727
51.1897 7.75842
51.2391 7.7763
51.2887 7.69525
51.3381 7.68382
51.3877 7.67832
51.4371 7.64661
51.4867 7.57609
51.5362 7.56412
51.5858 7.52882
51.6353 7.44373
51.6849 7.46427
51.7344 7.47674
51.7841 7.42077
51.8336 7.38202
51.8833 7.35445
51.9328 7.27478
51.9826 7.30276
52.0323 7.21701
52.0818 7.19989
52.1316 7.18418
52.1812 7.1641
52.231 7.14677
52.2806 7.08036
52.3304 7.0847
52.38 7.06004
52.4298 7.03646
52.4794 6.96854
52.5293 6.92846
52.5789 6.93577
52.6288 6.92527
52.6785 6.87232
52.7284 6.91732
52.7781 6.83915
52.828 6.79218
52.8777 6.70995
52.9276 6.72634
52.9774 6.71985
53.0273 6.71306
53.0771 6.61766
53.1271 6.63886
53.1769 6.59413
53.2269 6.60589
53.2767 6.53025
53.3267 6.5365
53.3765 6.5238
53.4266 6.46339
53.4766 6.39849
53.5265 6.3949
53.5765 6.37887
53.6264 6.33104
53.6765 6.32821
53.7264 6.29013
53.7765 6.25298
53.8265 6.20208
53.8766 6.13463
53.9266 6.20953
53.9767 6.14208
54.0267 6.12951
54.0769 6.07478
54.1269 6.05744
54.1771 6.01497
54.2271 5.99836
54.2773 5.96858
54.3274 5.91723
54.3776 5.91599
54.4277 5.8867
54.478 5.83475
54.528 5.78416
54.5783 5.78072
54.6285 5.69894
54.6788 5.67302
54.7289 5.6259
54.7792 5.68154
54.8296 5.55381
54.8798 5.5295
54.9301 5.49383
54.9803 5.461
55.0307 5.4632
55.0809 5.38957
55.1314 5.33045
55.1816 5.28718
55.232 5.26806
55.2823 5.21604
55.3328 5.12939
55.383 5.07079
55.4335 5.09618
55.4838 4.99437
55.5344 4.95979
55.5847 4.96545
55.6352 4.90787
55.6856 4.87177
55.7361 4.85441