File: XRD/Ni3Fe_FD0054.xy
TT I
1.27165 32.6046
1.31627 30.7707
1.36089 29.8426
1.40551 26.9276
1.45013 26.6327
1.49476 25.8648
1.53938 25.3823
1.584 23.7242
1.62863 23.5466
1.67325 22.5586
1.71787 22.1566
1.7625 21.1535
1.80712 21.4257
1.85174 21.0714
1.89636 20.4495
1.94099 20.9061
1.98562 20.4034
2.03025 20.4071
2.07487 20.5008
2.11949 20.6656
2.16411 20.5797
2.20874 20.6325
2.25338 20.811
2.298 21.5109
2.34263 21.1791
2.38725 21.1721
2.43188 21.3678
2.4765 22.4328
2.52115 21.3241
2.56577 22.8781
2.6104 23.5661
2.65503 24.2347
2.69965 26.0623
2.7443 27.5322
2.78893 30.0504
2.83356 32.2103
2.87818 35.9994
2.92281 40.977
2.96744 47.1433
3.01209 55.6267
3.05672 63.5062
3.10135 73.049
3.14599 77.2346
3.19062 74.2071
3.23527 66.4169
3.2799 55.9079
3.32454 46.053
3.36917 38.9791
3.4138 34.2123
3.45844 31.1974
3.50309 29.5873
3.54773 27.9997
3.59237 27.2807
3.637 26.2982
3.68164 26.2865
3.7263 26.006
3.77094 26.0128
3.81558 25.8596
3.86022 25.7991
3.90486 26.3377
3.9495 27.2821
3.99416 27.2088
4.0388 28.5638
4.08344 28.9155
4.12809 29.5256
4.17273 30.876
4.21738 32.035
4.26204 33.9467
4.30669 37.8213
4.35133 41.5909
4.39598 40.1018
4.44063 37.6821
4.4853 37.5641
4.52995 38.4705
4.5746 39.7852
4.61925 40.9454
4.6639 42.8473
4.70855 45.3181
4.75322 48.1189
4.79788 50.6627
4.84253 55.0447
4.88719 60.9852
4.93184 69.1107
4.97652 82.9609
5.02118 105.03
5.06583 122.572
5.11049 142.436
5.15515 188.608
5.19981 317.356
5.24449 732.194
5.28916 1666.76
5.33382 4124.04
5.37848 3076.08
5.42315 782.833
5.46783 300.039
5.5125 193.581
5.55716 150.165
5.60183 126.105
5.6465 115.709
5.69117 110.279
5.73586 103.411
5.78053 100.963
5.8252 101.361
5.86988 107.614
5.91455 119.115
5.95924 142.889
6.00392 200.099
6.0486 336.927
6.09328 578.24
6.13795 1059.93
6.18263 1098.16
6.22733 482.355
6.27201 216.056
6.3167 129.24
6.36138 91.9854
6.40606 73.3287
6.45075 64.3617
6.49545 57.5315
6.54014 52.9758
6.58483 49.6426
6.62952 47.8164
6.67421 45.4459
6.71892 44.176
6.76361 42.986
6.8083 41.8475
6.853 41.6436
6.89769 40.963
6.94239 41.1877
6.98711 41.4544
7.03181 42.7375
7.07651 45.0196
7.12121 46.0418
7.16591 43.6519
7.21063 40.9964
7.25533 39.8199
7.30004 39.0324
7.34475 39.3378
7.38945 39.9472
7.43416 40.1762
7.47889 43.0988
7.5236 60.5224
7.56831 171.139
7.61303 168.652
7.65774 63.0666
7.70247 44.0753
7.74719 40.2798
7.79191 39.3722
7.83663 38.6931
7.88135 38.6108
7.92607 39.4326
7.97081 39.5888
8.01553 40.0513
8.06026 41.0935
8.10498 41.6303
8.14971 43.2243
8.19446 44.4382
8.23919 46.8781
8.28392 49.7233
8.32865 53.018
8.37339 55.9424
8.41812 59.8033
8.46288 68.027
8.50761 84.4509
8.55235 126.095
8.59709 187.907
8.64183 279.12
8.68658 588.612
8.73134 732.531
8.77609 356.258
8.82083 163.041
8.86558 103.828
8.91033 84.2329
8.9551 74.8989
8.99985 70.0141
9.04461 66.8709
9.08936 65.6932
9.13412 65.3632
9.17888 69.7067
9.22365 93.844
9.26841 261.485
9.31318 323.322
9.35794 119.592
9.4027 70.8682
9.44749 62.4465
9.49226 59.2821
9.53703 57.5906
9.5818 57.6257
9.62657 57.3535
9.67134 58.0122
9.71614 58.727
9.76091 59.9845
9.80569 61.8544
9.85047 64.0714
9.89525 67.9893
9.94005 74.5867
9.98484 87.9101
10.0296 121.62
10.0744 167.852
10.1192 212.404
10.164 366.694
10.2088 693.205
10.2536 606.388
10.2984 266.314
10.3432 143.032
10.388 99.0669
10.4328 84.9453
10.4776 85.2102
10.5224 92.6713
10.5672 99.1015
10.612 132.906
10.6568 227.951
10.7017 266.903
10.7465 193.741
10.7913 98.1082
10.8361 64.3824
10.8809 55.9838
10.9257 52.0223
10.9706 49.8488
11.0154 47.8481
11.0602 46.3612
11.105 45.3874
11.1499 44.4863
11.1947 44.2032
11.2395 43.5988
11.2844 43.2317
11.3292 42.1933
11.374 41.2221
11.4189 40.9282
11.4637 40.3639
11.5086 39.4964
11.5534 39.5134
11.5983 39.4933
11.6431 39.5216
11.688 39.3464
11.7328 39.5131
11.7777 39.7252
11.8225 40.083
11.8674 41.6356
11.9122 44.9006
11.9571 68.3542
12.002 116.247
12.0468 90.4954
12.0917 54.2023
12.1366 49.4796
12.1814 50.9001
12.2263 54.764
12.2712 66.8039
12.3161 85.5827
12.3609 84.5573
12.4058 64.0683
12.4507 50.5354
12.4956 45.3461
12.5405 42.5919
12.5853 41.2525
12.6302 40.4727
12.6751 39.9501
12.72 40.0783
12.7649 40.4642
12.8098 40.6842
12.8547 41.2324
12.8996 41.7485
12.9445 42.3584
12.9894 43.5941
13.0343 44.9276
13.0792 48.5879
13.1242 58.4293
13.1691 68.3127
13.214 66.4947
13.2589 69.0154
13.3038 73.4942
13.3487 89.0261
13.3937 132.364
13.4386 189.275
13.4835 170.088
13.5285 111.385
13.5734 87.5658
13.6183 80.2633
13.6633 79.8829
13.7082 96.1041
13.7531 140.6
13.7981 182.434
13.843 137.94
13.888 84.2781
13.9329 62.7312
13.9779 54.8769
14.0228 51.0768
14.0678 49.3408
14.1127 50.8075
14.1577 65.8294
14.2027 102.011
14.2476 93.3111
14.2926 57.0433
14.3376 46.9932
14.3825 44.2893
14.4275 42.9586
14.4725 42.3989
14.5175 42.1913
14.5624 41.8498
14.6074 41.6501
14.6524 41.7994
14.6974 41.7125
14.7424 42.4307
14.7874 43.3954
14.8324 45.7286
14.8774 49.1655
14.9224 51.7776
14.9674 53.4603
15.0124 60.3209
15.0574 78.5464
15.1024 105.382
15.1474 105.142
15.1924 79.7518
15.2374 59.5916
15.2824 49.1809
15.3274 45.057
15.3725 43.1601
15.4175 42.1185
15.4625 41.4806
15.5076 41.2726
15.5526 41.1409
15.5976 41.0804
15.6426 41.0375
15.6877 41.6765
15.7327 43.3398
15.7778 46.1457
15.8228 48.2219
15.8679 49.8463
15.9129 53.6807
15.958 65.2787
16.003 87.4312
16.0481 103.905
16.0931 95.5527
16.1382 78.3712
16.1833 58.0462
16.2283 45.0112
16.2734 40.6278
16.3185 38.5452
16.3636 37.2702
16.4086 36.373
16.4537 35.7923
16.4988 35.2583
16.5439 35.0082
16.589 34.6031
16.6341 34.524
16.6792 34.2284
16.7243 34.3589
16.7694 34.0941
16.8145 33.9972
16.8596 34.2504
16.9047 34.7728
16.9498 37.7427
16.9949 42.9356
17.04 42.0213
17.0851 36.8587
17.1302 35.3433
17.1754 35.4045
17.2205 35.8886
17.2656 36.1002
17.3108 36.878
17.3559 37.9476
17.401 41.3851
17.4462 46.3899
17.4913 48.0529
17.5365 43.7589
17.5815 39.4646
17.6268 37.4876
17.6718 37.0788
17.7171 37.0706
17.7622 38.4898
17.8074 42.6163
17.8525 45.1167
17.8977 42.7454
17.9428 41.379
17.9881 42.2207
18.0331 43.4792
18.0784 43.7039
18.1237 46.2127
18.1688 51.4237
18.214 63.0082
18.2591 78.9954
18.3044 80.3281
18.3495 65.6173
18.3948 54.3035
18.4399 51.9532
18.4852 56.3687
18.5303 63.2315
18.5756 61.7106
18.6207 54.7873
18.666 48.3047
18.7112 42.4499
18.7565 39.2653
18.8016 38.1725
18.8469 37.2839
18.892 36.8944
18.9374 36.4039
18.9825 36.0647
19.0278 35.7485
19.073 35.7201
19.1183 35.4895
19.1635 35.4684
19.2088 35.9279
19.254 36.5038
19.2993 37.3533
19.3447 41.004
19.3898 47.4118
19.4352 48.9618
19.4804 45.3084
19.5257 44.7862
19.5709 44.1412
19.6163 40.7896
19.6615 37.4385
19.7068 35.3336
19.752 34.5489
19.7974 33.8778
19.8426 33.5087
19.888 33.393
19.9332 33.5615
19.9786 33.916
20.0238 33.8088
20.0692 34.0208
20.1144 34.5438
20.1598 35.9156
20.205 38.0463
20.2504 41.258
20.2957 42.4361
20.3411 39.9108
20.3863 37.6868
20.4318 37.7128
20.477 39.5251
20.5224 40.4237
20.5677 38.4197
20.6131 35.1236
20.6586 33.3817
20.7038 32.591
20.7493 32.0323
20.7945 33.0501
20.84 35.1762
20.8853 35.3762
20.9307 33.0347
20.976 31.2739
21.0215 30.6074
21.0668 30.3752
21.1122 30.4393
21.1575 30.4013
21.203 30.2326
21.2483 30.4535
21.2938 30.5788
21.3391 30.6294
21.3846 31.4537
21.4299 32.2937
21.4754 32.2426
21.5207 32.0624
21.5662 31.7147
21.6116 31.0552
21.6571 30.6387
21.7024 30.8663
21.7479 31.0859
21.7933 31.3997
21.8388 31.4916
21.8843 31.9754
21.9297 32.3828
21.9752 33.6388
22.0206 35.9651
22.0661 38.8212
22.1115 40.7295
22.157 40.1534
22.2024 39.192
22.248 38.1638
22.2933 37.1538
22.3389 36.0129
22.3843 34.3318
22.4299 32.7558
22.4753 31.8396
22.5208 31.3463
22.5662 30.9628
22.6118 30.8993
22.6572 30.6097
22.7028 30.6712
22.7483 30.8803
22.7939 31.3285
22.8393 32.145
22.8849 32.6842
22.9303 32.2762
22.9759 31.8766
23.0214 32.081
23.067 32.9811
23.1126 34.5566
23.1581 36.7745
23.2037 36.8861
23.2492 34.8949
23.2948 33.0256
23.3403 32.0638
23.3859 31.8552
23.4314 32.3476
23.477 33.4369
23.5225 34.0694
23.5682 33.2715
23.6137 32.5414
23.6593 32.4755
23.7048 33.7904
23.7505 35.9251
23.796 37.2119
23.8417 36.4154
23.8872 33.7046
23.9329 31.5793
23.9784 30.4027
24.0241 29.8359
24.0697 29.6757
24.1154 29.5137
24.1609 29.2323
24.2066 28.8403
24.2522 28.2656
24.2979 28.0649
24.3434 27.9245
24.3892 27.7407
24.4349 27.7844
24.4805 27.4528
24.5262 27.5312
24.5718 27.3788
24.6175 27.4476
24.6631 27.9384
24.7089 28.3936
24.7545 28.6239
24.8002 28.1225
24.8458 27.4718
24.8916 27.0541
24.9372 26.9883
24.983 26.885
25.0286 26.9471
25.0744 26.8963
25.12 27.0633
25.1658 27.0095
25.2114 27.1308
25.2572 27.5254
25.3029 27.9874
25.3487 28.5589
25.3943 28.5671
25.4402 28.3653
25.4858 28.6014
25.5316 28.8706
25.5773 28.9878
25.6231 28.7097
25.669 27.5895
25.7147 27.0246
25.7605 26.6171
25.8062 26.6084
25.8521 26.7251
25.8977 26.8881
25.9436 26.8392
25.9893 26.276
26.0352 26.064
26.0809 25.8252
26.1268 25.9589
26.1725 25.9432
26.2184 26.1396
26.2641 26.5727
26.31 26.9809
26.3557 27.0692
26.4017 26.6877
26.4474 26.3621
26.4933 26.1321
26.5391 25.9457
26.585 25.9976
26.6308 25.9046
26.6767 25.8861
26.7225 26.1737
26.7684 26.5179
26.8142 26.9972
26.8601 27.5136
26.9059 27.7107
26.9519 27.6205
26.9979 27.6522
27.0437 27.4609
27.0896 26.9207
27.1354 26.3429
27.1814 25.7615
27.2272 25.4188
27.2732 25.3313
27.3191 25.0345
27.3651 25.0573
27.4109 24.9952
27.4569 24.927
27.5027 24.8471
27.5488 25.0095
27.5946 24.9222
27.6407 24.9297
27.6865 25.0114
27.7326 24.9767
27.7784 25.1222
27.8245 24.9428
27.8703 24.8306
27.9164 24.6468
27.9623 24.6501
28.0084 24.7866
28.0543 25.0556
28.1003 25.1723
28.1462 25.2369
28.1923 25.26
28.2384 25.3591
28.2843 25.6673
28.3304 25.6991
28.3764 25.3998
28.4225 25.1355
28.4684 24.9544
28.5145 24.6353
28.5605 24.3771
28.6066 24.0351
28.6526 23.9242
28.6987 23.7227
28.7447 23.427
28.7908 23.2017
28.8368 23.0683
28.8829 23.0532
28.9289 22.9894
28.9751 22.8841
29.0211 22.8678
29.0673 22.798
29.1133 22.962
29.1595 23.012
29.2055 22.8333
29.2517 22.6937
29.2977 22.3368
29.3439 22.2381
29.3899 22.1917
29.4361 22.1485
29.4824 22.1595
29.5284 22.1031
29.5746 22.0551
29.6207 22.1382
29.6669 22.2134
29.713 22.0444
29.7593 21.7709
29.8053 21.7091
29.8516 21.487
29.8977 21.5677
29.9439 21.329
29.99 21.3823
30.0363 21.3158
30.0824 21.4989
30.1287 21.4856
30.1748 21.5409
30.2211 21.3399
30.2673 21.0917
30.3136 21.1491
30.3597 21.107
30.406 21.1531
30.4522 21.2055
30.4985 21.0675
30.5447 21.1441
30.591 20.9702
30.6372 20.8819
30.6835 20.905
30.7297 20.8817
30.7761 20.8893
30.8224 20.9586
30.8686 21.0188
30.915 21.0963
30.9612 21.3038
31.0076 21.2054
31.0538 21.1736
31.1002 21.1221
31.1464 20.9932
31.1928 20.8676
31.2391 20.7341
31.2855 20.5229
31.3317 20.3902
31.3781 20.3963
31.4244 20.3592
31.4708 20.1861
31.5171 20.3202
31.5636 20.3514
31.6098 20.3378
31.6563 20.3067
31.7026 20.3051
31.7491 20.2857
31.7953 20.3307
31.8418 20.268
31.8881 20.0768
31.9346 19.9863
31.9809 19.894
32.0275 19.8516
32.074 19.8574
32.1203 19.8415
32.1668 19.8809
32.2132 19.9202
32.2597 19.8866
32.306 19.7145
32.3526 19.5339
32.399 19.5195
32.4455 19.4296
32.4919 19.2682
32.5385 19.2722
32.5848 19.1237
32.6314 19.0367
32.6778 18.9154
32.7244 18.9402
32.7708 18.7973
32.8174 18.7944
32.8638 18.6751
32.9104 18.744
32.9569 18.6771
33.0035 18.6844
33.0499 18.6271
33.0966 18.5587
33.143 18.4937
33.1897 18.3204
33.2361 18.3518
33.2828 18.3393
33.3293 18.2446
33.3759 18.3205
33.4226 18.3213
33.4691 18.3239
33.5158 18.3118
33.5623 18.2617
33.609 18.107
33.6555 18.023
33.7022 17.9064
33.7487 17.7904
33.7954 17.7422
33.842 17.5946
33.8887 17.5817
33.9353 17.573
33.982 17.5125
34.0286 17.4505
34.0753 17.4087
34.1219 17.3832
34.1687 17.3558
34.2152 17.2905
34.262 17.174
34.3086 17.0921
34.3554 17.0902
34.402 16.9627
34.4488 16.9084
34.4954 16.8814
34.5422 16.8403
34.5889 16.8122
34.6357 16.7864
34.6825 16.7855
34.7292 16.6432
34.776 16.5518
34.8227 16.5799
34.8695 16.5049
34.9162 16.4417
34.9631 16.3913
35.0098 16.3689
35.0566 16.3197
35.1033 16.1661
35.1502 16.3403
35.1969 16.2455
35.2438 16.1291
35.2906 16.0806
35.3375 16.1185
35.3842 16.0379
35.4311 16.0875
35.4779 16.0394
35.5248 15.9132
35.5716 15.8771
35.6185 15.9787
35.6653 16.0394
35.7123 15.9531
35.759 15.8732
35.806 15.7962
35.8528 15.8075
35.8998 15.7565
35.9468 15.631
35.9936 15.6118
36.0406 15.5341
36.0874 15.5269
36.1345 15.421
36.1813 15.3773
36.2283 15.3298
36.2752 15.3344
36.3222 15.289
36.3691 15.2516
36.4161 15.1957
36.463 15.2117
36.5101 15.1199
36.557 15.0956
36.6041 15.0001
36.651 15.0161
36.6981 14.9872
36.745 14.9386
36.7921 14.8872
36.839 14.815
36.8861 14.7623
36.9331 14.8347
36.9802 14.7522
37.0272 14.6204
37.0743 14.5618
37.1213 14.5724
37.1684 14.468
37.2154 14.4339
37.2626 14.4092
37.3098 14.3825
37.3568 14.4075
37.404 14.3194
37.451 14.2307
37.4982 14.2319
37.5452 14.0802
37.5924 14.0615
37.6395 14.1284
37.6867 14.0251
37.7337 13.9372
37.781 13.9349
37.8281 13.8521
37.8753 13.8288
37.9224 13.795
37.9697 13.832
38.0168 13.6855
38.064 13.7116
38.1111 13.6643
38.1584 13.617
38.2056 13.5706
38.2529 13.4489
38.3 13.4177
38.3473 13.3858
38.3945 13.3925
38.4418 13.3555
38.489 13.3306
38.5363 13.2449
38.5837 13.1917
38.6309 13.206
38.6782 13.178
38.7254 13.0548
38.7728 13.0629
38.82 13.041
38.8674 12.9646
38.9146 12.9541
38.9621 12.9401
39.0093 12.897
39.0567 12.8878
39.104 12.7773
39.1514 12.7919
39.1987 12.742
39.2461 12.6674
39.2934 12.6448
39.3409 12.5823
39.3882 12.5766
39.4356 12.502
39.483 12.4541
39.5304 12.4754
39.5778 12.4174
39.6253 12.3841
39.6726 12.3427
39.7201 12.29
39.7675 12.2578
39.815 12.1678
39.8624 12.1399
39.9099 12.17
39.9575 12.1132
40.0049 12.0901
40.0525 12.0438
40.0999 12.0224
40.1474 11.9642
40.1949 11.9448
40.2425 11.8653
40.2899 11.8819
40.3375 11.8487
40.385 11.7913
40.4326 11.7473
40.48 11.684
40.5277 11.7208
40.5752 11.6795
40.6228 11.6494
40.6703 11.5975
40.718 11.5459
40.7655 11.5582
40.8132 11.4385
40.8607 11.4372
40.9084 11.389
40.9559 11.3971
41.0036 11.3895
41.0512 11.3532
41.0989 11.3345
41.1465 11.2373
41.1942 11.2388
41.242 11.1322
41.2896 11.1287
41.3373 11.0569
41.3849 11.1296
41.4327 11.0717
41.4803 10.9683
41.5281 10.9839
41.5758 10.9085
41.6236 10.9302
41.6712 10.8626
41.7191 10.8119
41.7667 10.8144
41.8146 10.8109
41.8622 10.7502
41.9101 10.6842
41.9578 10.6676
42.0057 10.6202
42.0534 10.6052
42.1013 10.5569
42.149 10.5219
42.1969 10.4747
42.2446 10.4689
42.2925 10.4637
42.3403 10.4103
42.3882 10.3759
42.436 10.3796
42.4839 10.285
42.5319 10.2699
42.5797 10.2347
42.6277 10.1795
42.6755 10.1764
42.7235 10.1107
42.7713 10.091
42.8193 10.0806
42.8671 10.0384
42.9152 9.97698
42.963 9.98922
43.0111 9.93635
43.0589 9.85471
43.107 9.8576
43.1549 9.82026
43.2029 9.78947
43.2508 9.76817
43.2989 9.72215
43.3468 9.67022
43.3949 9.63414
43.4429 9.6041
43.491 9.58196
43.5389 9.57743
43.5871 9.53573
43.635 9.46243
43.6832 9.49063
43.7312 9.43164
43.7793 9.35537
43.8273 9.41813
43.8755 9.36772
43.9237 9.30479
43.9717 9.26904
44.0199 9.22649
44.068 9.2562
44.1162 9.1975
44.1642 9.19827
44.2125 9.14418
44.2606 9.08398
44.3088 9.06932
44.3569 9.03295
44.4052 9.01056
44.4533 8.95592
44.5016 8.98218
44.5497 8.93356
44.598 8.88554
44.6461 8.84545
44.6945 8.80896
44.7426 8.8092
44.791 8.77038
44.8391 8.7281
44.8875 8.73937
44.9357 8.67945
44.984 8.67673
45.0322 8.64282
45.0806 8.61301
45.1288 8.56102
45.1773 8.50576
45.2257 8.47978
45.2739 8.53125
45.3224 8.49909
45.3706 8.41559
45.4191 8.41729
45.4673 8.41339
45.5158 8.3651
45.5641 8.28149
45.6126 8.27804
45.6609 8.3029
45.7094 8.24069
45.7577 8.20742
45.8063 8.15806
45.8546 8.13681
45.9031 8.05987
45.9515 8.08141
46.0001 8.02929
46.0484 8.05137
46.097 8.04318
46.1454 7.99539
46.194 7.95661
46.2424 7.86153
46.291 7.90731
46.3395 7.88403
46.3881 7.83946
46.4365 7.85629
46.4852 7.79024
46.5337 7.74597
46.5823 7.73702
46.631 7.73789
46.6795 7.67472
46.7282 7.64285
46.7767 7.60032
46.8254 7.60572
46.8739 7.55652
46.9226 7.53632
46.9712 7.50961
47.0199 7.48504
47.0685 7.44403
47.1173 7.44528
47.1658 7.41402
47.2146 7.35611
47.2632 7.34056
47.312 7.32398
47.3606 7.29691
47.4095 7.24868
47.4581 7.25819
47.5069 7.20607
47.5556 7.18209
47.6044 7.1333
47.6531 7.13428
47.702 7.099
47.7507 7.07133
47.7996 7.08142
47.8483 7.07077
47.8972 7.03382
47.9461 7.04434
47.9948 6.96959
48.0438 6.93978
48.0925 6.94865
48.1415 6.93534
48.1902 6.85527
48.2392 6.87438
48.288 6.84558
48.337 6.82231
48.3858 6.7953
48.4348 6.7675
48.4837 6.70462
48.5327 6.72129
48.5815 6.66656
48.6306 6.68047
48.6795 6.6144
48.7285 6.62826
48.7774 6.59459
48.8265 6.59067
48.8754 6.54593
48.9245 6.51295
48.9734 6.47006
49.0226 6.45974
49.0715 6.40304
49.1206 6.4244
49.1696 6.42208
49.2188 6.38937
49.2679 6.37322
49.3169 6.33999
49.3661 6.30553
49.4151 6.28207
49.4643 6.27384
49.5134 6.26799
49.5626 6.18272
49.6117 6.22143
49.6609 6.16962
49.71 6.1512
49.7592 6.11758
49.8083 6.11281
49.8576 6.10544
49.9067 6.07604
49.956 6.04495
50.0052 6.0198
50.0545 5.98553
50.1036 5.99181
50.153 5.95163
50.2022 5.95011
50.2515 5.9307
50.3007 5.8703
50.3501 5.88153
50.3993 5.84468
50.4487 5.84056
50.498 5.81768
50.5474 5.7921
50.5966 5.75525
50.6461 5.74706
50.6955 5.71496
50.7448 5.65961
50.7943 5.67258
50.8436 5.67768
50.8931 5.63802
50.9424 5.60931
50.9919 5.6173
51.0413 5.55274
51.0908 5.56836
51.1402 5.56349
51.1897 5.51291
51.2391 5.46912
51.2887 5.43836
51.3381 5.44226
51.3877 5.41766
51.4371 5.39268
51.4867 5.37229
51.5362 5.38113
51.5858 5.35437
51.6353 5.33252
51.6849 5.29207
51.7344 5.30638
51.7841 5.29607
51.8336 5.25841
51.8833 5.21501
51.9328 5.18391
51.9826 5.20943
52.0323 5.17658
52.0818 5.14736
52.1316 5.09304
52.1812 5.14286
52.231 5.0544
52.2806 5.04857
52.3304 5.06385
52.38 5.02596
52.4298 5.00197
52.4794 4.98272
52.5293 4.9726
52.5789 4.95658
52.6288 4.94697
52.6785 4.8922
52.7284 4.8889
52.7781 4.87245
52.828 4.86746
52.8777 4.86565
52.9276 4.7987
52.9774 4.84207
53.0273 4.78616
53.0771 4.77217
53.1271 4.77735
53.1769 4.71498
53.2269 4.70158
53.2767 4.69357
53.3267 4.64129
53.3765 4.66172
53.4266 4.65692
53.4766 4.58249
53.5265 4.56474
53.5765 4.57703
53.6264 4.55965
53.6765 4.53049
53.7264 4.47516
53.7765 4.49866
53.8265 4.46636
53.8766 4.42793
53.9266 4.40353
53.9767 4.35491
54.0267 4.36607
54.0769 4.34762
54.1269 4.32419
54.1771 4.27911
54.2271 4.27083
54.2773 4.25669
54.3274 4.22023
54.3776 4.17042
54.4277 4.16633
54.478 4.14971
54.528 4.11473
54.5783 4.06503
54.6285 3.98272
54.6788 3.99783
54.7289 3.99074
54.7792 3.98175
54.8296 3.86512
54.8798 3.82607
54.9301 3.85915
54.9803 3.87293
55.0307 3.85837
55.0809 3.76663
55.1314 3.80528
55.1816 3.68693
55.232 3.64252
55.2823 3.64024
55.3328 3.57374
55.383 3.4936
55.4335 3.53288
55.4838 3.45855
55.5344 3.39205
55.5847 3.40035
55.6352 3.44219
55.6856 3.40605
55.7361 3.37115