File: XRD/Ni3Fe_FD0922.xy
TT I
1.27165 7.29988
1.31627 6.69855
1.36089 7.21379
1.40551 6.86311
1.45013 6.43512
1.49476 5.98151
1.53938 5.23361
1.584 5.13326
1.62863 4.89802
1.67325 4.66682
1.71787 5.19721
1.7625 4.35258
1.80712 4.57392
1.85174 5.06713
1.89636 4.89351
1.94099 4.84595
1.98562 5.06087
2.03025 4.73146
2.07487 4.43936
2.11949 4.5745
2.16411 4.44091
2.20874 9.05719
2.25338 12.484
2.298 5.98805
2.34263 5.86148
2.38725 6.29352
2.43188 5.9771
2.4765 7.75416
2.52115 7.41237
2.56577 8.02971
2.6104 8.70118
2.65503 8.34077
2.69965 8.72928
2.7443 8.31782
2.78893 8.08609
2.83356 8.77064
2.87818 8.67499
2.92281 9.29563
2.96744 10.0852
3.01209 10.3809
3.05672 11.1535
3.10135 12.2718
3.14599 13.1988
3.19062 14.4706
3.23527 15.8268
3.2799 15.6185
3.32454 16.8503
3.36917 17.4844
3.4138 18.9119
3.45844 19.2464
3.50309 20.8155
3.54773 21.0261
3.59237 23.089
3.637 51.5645
3.68164 37.4185
3.7263 25.3825
3.77094 25.5648
3.81558 26.4194
3.86022 27.3067
3.90486 28.7482
3.9495 29.3755
3.99416 30.2744
4.0388 31.8307
4.08344 32.6984
4.12809 33.7116
4.17273 36.1216
4.21738 39.0929
4.26204 123.331
4.30669 106.761
4.35133 43.7543
4.39598 43.362
4.44063 48.2508
4.4853 53.7014
4.52995 56.1891
4.5746 57.5737
4.61925 53.418
4.6639 55.146
4.70855 57.5007
4.75322 61.2342
4.79788 68.3172
4.84253 67.5667
4.88719 74.6862
4.93184 75.9752
4.97652 80.0449
5.02118 85.8906
5.06583 93.4883
5.11049 104.313
5.15515 154.131
5.19981 367.785
5.24449 2760.24
5.28916 13505.1
5.33382 2642.12
5.37848 190.35
5.42315 128.396
5.46783 117.803
5.5125 111.066
5.55716 101.318
5.60183 96.5381
5.6465 95.1917
5.69117 93.4946
5.73586 91.514
5.78053 97.3824
5.8252 97.0356
5.86988 100.14
5.91455 93.8039
5.95924 102.153
6.00392 225.119
6.0486 928.697
6.09328 4664.04
6.13795 2976.85
6.18263 190.727
6.22733 87.8375
6.27201 79.0783
6.3167 83.3369
6.36138 73.3931
6.40606 69.1179
6.45075 69.1444
6.49545 64.6311
6.54014 62.7169
6.58483 61.9628
6.62952 62.4492
6.67421 73.3359
6.71892 90.6069
6.76361 61.7928
6.8083 58.5952
6.853 59.4515
6.89769 56.0904
6.94239 55.2936
6.98711 54.8191
7.03181 55.3242
7.07651 54.1841
7.12121 54.1669
7.16591 55.3419
7.21063 54.9453
7.25533 60.2582
7.30004 101.343
7.34475 67.1988
7.38945 54.3311
7.43416 52.9433
7.47889 52.8856
7.5236 53.5221
7.56831 53.6838
7.61303 54.687
7.65774 55.5738
7.70247 55.8883
7.74719 55.5585
7.79191 55.6676
7.83663 56.0743
7.88135 56.7194
7.92607 57.785
7.97081 58.87
8.01553 59.9564
8.06026 61.7999
8.10498 63.692
8.14971 70.5221
8.19446 69.9233
8.23919 68.3585
8.28392 70.8681
8.32865 73.2506
8.37339 77.2673
8.41812 82.4837
8.46288 101.491
8.50761 170.124
8.55235 365.828
8.59709 1201.9
8.64183 2268.69
8.68658 843.919
8.73134 141.348
8.77609 95.8461
8.82083 91.1958
8.86558 91.3697
8.91033 91.0082
8.9551 88.9428
8.99985 84.3772
9.04461 82.5512
9.08936 83.2656
9.13412 81.8496
9.17888 81.354
9.22365 81.0431
9.26841 81.0686
9.31318 83.793
9.35794 85.2345
9.4027 85.1159
9.44749 84.0976
9.49226 83.9007
9.53703 84.7431
9.5818 88.5661
9.62657 93.703
9.67134 94.4444
9.71614 91.7145
9.76091 93.4365
9.80569 98.1691
9.85047 100.295
9.89525 111.003
9.94005 124.723
9.98484 184.583
10.0296 330.781
10.0744 832.49
10.1192 1876.26
10.164 1479.14
10.2088 323.992
10.2536 118.67
10.2984 107.676
10.3432 106.397
10.388 103.292
10.4328 119.082
10.4776 157.103
10.5224 289.578
10.5672 547.028
10.612 486.142
10.6568 177.036
10.7017 91.8976
10.7465 84.7742
10.7913 82.0088
10.8361 79.7574
10.8809 77.7148
10.9257 77.0419
10.9706 77.01
11.0154 74.4786
11.0602 71.8937
11.105 70.1225
11.1499 71.3887
11.1947 73.425
11.2395 69.1893
11.2844 67.5031
11.3292 65.8094
11.374 65.0763
11.4189 64.663
11.4637 63.7764
11.5086 63.7564
11.5534 64.5265
11.5983 63.236
11.6431 62.4733
11.688 62.0054
11.7328 61.8213
11.7777 61.5805
11.8225 61.7929
11.8674 61.3809
11.9122 61.8051
11.9571 62.0379
12.002 63.4263
12.0468 67.6619
12.0917 76.8646
12.1366 101.664
12.1814 158.498
12.2263 212.895
12.2712 153.662
12.3161 85.331
12.3609 65.7837
12.4058 63.086
12.4507 62.9892
12.4956 63.7347
12.5405 63.8768
12.5853 64.3747
12.6302 67.1651
12.6751 69.8364
12.72 67.032
12.7649 66.5653
12.8098 67.3962
12.8547 68.743
12.8996 70.3209
12.9445 71.9476
12.9894 73.5701
13.0343 74.9569
13.0792 78.7758
13.1242 90.7836
13.1691 109.298
13.214 145.494
13.2589 246.214
13.3038 391.714
13.3487 421.804
13.3937 229.422
13.4386 114.493
13.4835 104.177
13.5285 117.872
13.5734 157.068
13.6183 257.998
13.6633 378.777
13.7082 327.653
13.7531 166.623
13.7981 91.4457
13.843 80.2323
13.888 78.3163
13.9329 76.0238
13.9779 74.4776
14.0228 73.285
14.0678 71.8713
14.1127 71.2387
14.1577 70.8388
14.2027 70.1063
14.2476 69.2703
14.2926 69.2118
14.3376 69.0721
14.3825 68.5571
14.4275 67.9495
14.4725 67.6495
14.5175 67.6085
14.5624 67.7644
14.6074 68.9179
14.6524 69.4506
14.6974 69.645
14.7424 72.5606
14.7874 78.2822
14.8324 87.3641
14.8774 109.981
14.9224 158.249
14.9674 218.6
15.0124 214.872
15.0574 137.868
15.1024 83.6667
15.1474 70.262
15.1924 69.0052
15.2374 68.5437
15.2824 67.5844
15.3274 66.5092
15.3725 65.7457
15.4175 65.5239
15.4625 64.8669
15.5076 64.7802
15.5526 64.7394
15.5976 64.8683
15.6426 66.9816
15.6877 71.496
15.7327 78.6547
15.7778 93.8569
15.8228 128.585
15.8679 177.857
15.9129 195.529
15.958 145.049
16.003 86.4714
16.0481 64.7279
16.0931 62.0847
16.1382 60.3057
16.1833 59.2568
16.2283 57.7085
16.2734 57.2086
16.3185 56.9009
16.3636 56.7614
16.4086 55.9024
16.4537 54.946
16.4988 54.4733
16.5439 54.5347
16.589 54.2338
16.6341 53.9203
16.6792 53.6349
16.7243 53.8709
16.7694 53.7172
16.8145 53.7921
16.8596 54.006
16.9047 54.5713
16.9498 54.9217
16.9949 54.415
17.04 55.1316
17.0851 56.2662
17.1302 57.4892
17.1754 60.6933
17.2205 65.9322
17.2656 74.676
17.3108 82.9073
17.3559 79.8629
17.401 67.375
17.4462 60.2583
17.4913 58.3447
17.5365 58.1404
17.5815 58.0847
17.6268 58.6555
17.6718 59.2341
17.7171 59.9421
17.7622 60.3217
17.8074 61.2438
17.8525 64.0195
17.8977 67.0308
17.9428 72.3494
17.9881 81.7515
18.0331 101.317
18.0784 125.848
18.1237 139.728
18.1688 125.191
18.214 96.1889
18.2591 83.73
18.3044 90.7943
18.3495 102.081
18.3948 105.461
18.4399 90.7906
18.4852 72.9854
18.5303 63.6814
18.5756 60.7692
18.6207 59.975
18.666 59.3313
18.7112 58.547
18.7565 57.9484
18.8016 57.7297
18.8469 57.0702
18.892 56.7662
18.9374 56.256
18.9825 56.1542
19.0278 55.7937
19.073 56.0748
19.1183 56.4419
19.1635 56.9323
19.2088 58.2961
19.254 61.0906
19.2993 66.2095
19.3447 72.2344
19.3898 74.6686
19.4352 69.1666
19.4804 60.4416
19.5257 55.0219
19.5709 53.1129
19.6163 53.0898
19.6615 52.9525
19.7068 52.5524
19.752 52.4734
19.7974 52.7998
19.8426 53.4359
19.888 53.9037
19.9332 55.2386
19.9786 58.1556
20.0238 62.4918
20.0692 67.506
20.1144 69.508
20.1598 66.1989
20.205 61.5598
20.2504 61.3364
20.2957 64.1332
20.3411 65.1549
20.3863 62.2073
20.4318 56.2521
20.477 51.8792
20.5224 50.3406
20.5677 49.7648
20.6131 49.3487
20.6586 48.6058
20.7038 48.5556
20.7493 48.1038
20.7945 48.0662
20.84 48.1091
20.8853 47.8639
20.9307 47.8277
20.976 47.7937
21.0215 47.9525
21.0668 48.1475
21.1122 48.6835
21.1575 49.303
21.203 50.0724
21.2483 50.5634
21.2938 50.5148
21.3391 49.089
21.3846 48.0677
21.4299 47.5343
21.4754 47.6143
21.5207 47.6945
21.5662 48.2815
21.6116 48.4111
21.6571 49.0902
21.7024 50.0858
21.7479 51.8806
21.7933 54.8674
21.8388 58.9797
21.8843 63.0814
21.9297 64.1229
21.9752 61.2977
22.0206 57.3087
22.0661 55.4054
22.1115 55.5726
22.157 55.1258
22.2024 52.7268
22.248 50.1057
22.2933 48.733
22.3389 48.1981
22.3843 47.9634
22.4299 47.8603
22.4753 47.757
22.5208 47.6697
22.5662 47.7025
22.6118 47.9654
22.6572 48.0927
22.7028 48.4385
22.7483 48.8868
22.7939 49.4824
22.8393 51.4021
22.8849 53.577
22.9303 55.9699
22.9759 57.4216
23.0214 56.029
23.067 52.8032
23.1126 49.6415
23.1581 48.1561
23.2037 47.9148
23.2492 48.063
23.2948 48.1319
23.3403 48.3241
23.3859 48.8322
23.4314 50.2207
23.477 52.142
23.5225 54.6889
23.5682 56.9374
23.6137 57.2192
23.6593 54.0057
23.7048 49.8027
23.7505 47.1104
23.796 45.5789
23.8417 45.1926
23.8872 44.792
23.9329 44.3682
23.9784 44.1393
24.0241 43.7061
24.0697 43.7057
24.1154 43.3928
24.1609 43.105
24.2066 43.06
24.2522 42.8813
24.2979 42.6404
24.3434 42.6743
24.3892 42.3056
24.4349 42.3854
24.4805 42.276
24.5262 42.481
24.5718 42.2878
24.6175 42.2208
24.6631 42.2181
24.7089 41.7557
24.7545 41.6871
24.8002 41.5887
24.8458 41.551
24.8916 41.3722
24.9372 41.618
24.983 41.8293
25.0286 42.1893
25.0744 42.6914
25.12 43.2815
25.1658 43.8357
25.2114 44.0799
25.2572 43.9572
25.3029 44.1441
25.3487 44.4191
25.3943 43.8295
25.4402 42.3936
25.4858 41.466
25.5316 40.6706
25.5773 40.1316
25.6231 40.2288
25.669 39.8736
25.7147 39.8071
25.7605 39.7237
25.8062 39.69
25.8521 39.9623
25.8977 39.9437
25.9436 40.2339
25.9893 40.4665
26.0352 40.9364
26.0809 41.003
26.1268 41.2197
26.1725 40.6387
26.2184 39.9541
26.2641 39.5515
26.31 39.4507
26.3557 39.4567
26.4017 39.4244
26.4474 39.7663
26.4933 40.0622
26.5391 40.6097
26.585 41.2434
26.6308 41.4769
26.6767 41.5422
26.7225 41.1553
26.7684 40.5777
26.8142 40.219
26.8601 39.6685
26.9059 39.1954
26.9519 38.6324
26.9979 38.3765
27.0437 38.1891
27.0896 38.0695
27.1354 38.183
27.1814 37.952
27.2272 37.8631
27.2732 38.0138
27.3191 37.7239
27.3651 37.8162
27.4109 37.7542
27.4569 37.9606
27.5027 38.0537
27.5488 37.9367
27.5946 37.7924
27.6407 37.5881
27.6865 37.4553
27.7326 37.2717
27.7784 37.3476
27.8245 37.2173
27.8703 37.3559
27.9164 37.8403
27.9623 37.9387
28.0084 38.2954
28.0543 38.5203
28.1003 38.4452
28.1462 38.0377
28.1923 37.7558
28.2384 37.1917
28.2843 36.9188
28.3304 36.4895
28.3764 35.9589
28.4225 35.8264
28.4684 35.5975
28.5145 35.2574
28.5605 35.1071
28.6066 35.1188
28.6526 35.1267
28.6987 34.9852
28.7447 34.8492
28.7908 34.853
28.8368 34.8603
28.8829 34.9949
28.9289 34.7356
28.9751 34.5358
29.0211 34.2362
29.0673 34.084
29.1133 33.9642
29.1595 33.8679
29.2055 33.7871
29.2517 33.7946
29.2977 33.91
29.3439 33.7514
29.3899 33.7455
29.4361 33.4401
29.4824 33.1662
29.5284 33.1216
29.5746 32.8116
29.6207 32.532
29.6669 32.5847
29.713 32.5105
29.7593 32.2797
29.8053 32.3988
29.8516 32.2751
29.8977 32.1737
29.9439 32.1512
29.99 31.976
30.0363 32.0072
30.0824 31.983
30.1287 31.8958
30.1748 31.989
30.2211 31.8882
30.2673 31.8554
30.3136 31.8369
30.3597 31.71
30.406 31.6502
30.4522 31.5469
30.4985 31.5879
30.5447 31.508
30.591 31.5877
30.6372 31.7026
30.6835 31.7605
30.7297 31.8013
30.7761 31.6024
30.8224 31.4594
30.8686 31.3478
30.915 31.0211
30.9612 30.9438
31.0076 30.7725
31.0538 30.6901
31.1002 30.6069
31.1464 30.3778
31.1928 30.3823
31.2391 30.4192
31.2855 30.4043
31.3317 30.2522
31.3781 30.3734
31.4244 30.4429
31.4708 30.3707
31.5171 30.2253
31.5636 30.1577
31.6098 30.0198
31.6563 29.8837
31.7026 29.7446
31.7491 29.5223
31.7953 29.6978
31.8418 29.6838
31.8881 29.6766
31.9346 29.5641
31.9809 29.4513
32.0275 29.4632
32.074 29.2142
32.1203 29.0705
32.1668 28.9392
32.2132 28.889
32.2597 28.6098
32.306 28.6967
32.3526 28.3995
32.399 28.4604
32.4455 28.278
32.4919 28.1016
32.5385 28.1274
32.5848 28.0411
32.6314 28.0272
32.6778 28.0134
32.7244 27.7024
32.7708 27.751
32.8174 27.7073
32.8638 27.546
32.9104 27.6671
32.9569 27.5623
33.0035 27.4279
33.0499 27.3358
33.0966 27.3467
33.143 27.4286
33.1897 27.2358
33.2361 27.2021
33.2828 27.1641
33.3293 26.937
33.3759 26.9088
33.4226 26.8016
33.4691 26.6013
33.5158 26.5309
33.5623 26.405
33.609 26.2533
33.6555 26.2453
33.7022 26.1548
33.7487 26.0308
33.7954 26.0719
33.842 25.8616
33.8887 25.8778
33.9353 25.8326
33.982 25.628
34.0286 25.6578
34.0753 25.5438
34.1219 25.417
34.1687 25.4697
34.2152 25.2812
34.262 25.2
34.3086 25.1354
34.3554 25.0013
34.402 24.8931
34.4488 24.8351
34.4954 24.7602
34.5422 24.6937
34.5889 24.6822
34.6357 24.5624
34.6825 24.5399
34.7292 24.467
34.776 24.3568
34.8227 24.2967
34.8695 24.2735
34.9162 24.0952
34.9631 24.1066
35.0098 24.1247
35.0566 23.9506
35.1033 23.9241
35.1502 23.8884
35.1969 23.7365
35.2438 23.7691
35.2906 23.6778
35.3375 23.6901
35.3842 23.6271
35.4311 23.6437
35.4779 23.5407
35.5248 23.4886
35.5716 23.3718
35.6185 23.3759
35.6653 23.2079
35.7123 23.1695
35.759 23.0526
35.806 23.0219
35.8528 22.8242
35.8998 22.805
35.9468 22.7926
35.9936 22.6975
36.0406 22.6547
36.0874 22.6639
36.1345 22.5701
36.1813 22.4107
36.2283 22.3372
36.2752 22.2523
36.3222 22.2991
36.3691 22.1453
36.4161 22.0743
36.463 22.127
36.5101 22.0858
36.557 22.049
36.6041 21.9085
36.651 21.7586
36.6981 21.8138
36.745 21.7344
36.7921 21.5873
36.839 21.4251
36.8861 21.4843
36.9331 21.3934
36.9802 21.3853
37.0272 21.1492
37.0743 21.1989
37.1213 21.1058
37.1684 20.9986
37.2154 20.9737
37.2626 20.8695
37.3098 20.8259
37.3568 20.7599
37.404 20.7223
37.451 20.6474
37.4982 20.5941
37.5452 20.47
37.5924 20.4233
37.6395 20.5115
37.6867 20.3379
37.7337 20.2547
37.781 20.2013
37.8281 20.1401
37.8753 20.0911
37.9224 19.9911
37.9697 19.9762
38.0168 19.8824
38.064 19.786
38.1111 19.721
38.1584 19.6786
38.2056 19.6613
38.2529 19.5297
38.3 19.5054
38.3473 19.4275
38.3945 19.3153
38.4418 19.4133
38.489 19.278
38.5363 19.1869
38.5837 19.118
38.6309 19.0972
38.6782 19.0397
38.7254 18.9526
38.7728 18.8558
38.82 18.8479
38.8674 18.7459
38.9146 18.7184
38.9621 18.6295
39.0093 18.5486
39.0567 18.5813
39.104 18.4583
39.1514 18.3718
39.1987 18.4003
39.2461 18.273
39.2934 18.2885
39.3409 18.1073
39.3882 18.0581
39.4356 18.1637
39.483 18.0099
39.5304 17.9453
39.5778 17.9395
39.6253 17.8919
39.6726 17.782
39.7201 17.7364
39.7675 17.6594
39.815 17.582
39.8624 17.54
39.9099 17.5358
39.9575 17.3962
40.0049 17.3672
40.0525 17.352
40.0999 17.2796
40.1474 17.1915
40.1949 17.1609
40.2425 17.0758
40.2899 17.0322
40.3375 17.0433
40.385 16.9247
40.4326 16.9315
40.48 16.7607
40.5277 16.798
40.5752 16.7891
40.6228 16.6864
40.6703 16.6877
40.718 16.5864
40.7655 16.5638
40.8132 16.508
40.8607 16.4414
40.9084 16.341
40.9559 16.3408
41.0036 16.302
41.0512 16.2119
41.0989 16.1644
41.1465 16.1251
41.1942 16.0798
41.242 15.9928
41.2896 15.9788
41.3373 15.8762
41.3849 15.8911
41.4327 15.8371
41.4803 15.7098
41.5281 15.7246
41.5758 15.6317
41.6236 15.6132
41.6712 15.5386
41.7191 15.467
41.7667 15.3788
41.8146 15.3932
41.8622 15.2908
41.9101 15.2582
41.9578 15.2288
42.0057 15.1735
42.0534 15.1252
42.1013 15.0341
42.149 15.0237
42.1969 14.9537
42.2446 14.9422
42.2925 14.8978
42.3403 14.8432
42.3882 14.7747
42.436 14.7393
42.4839 14.6434
42.5319 14.6008
42.5797 14.6035
42.6277 14.5462
42.6755 14.4623
42.7235 14.3968
42.7713 14.4015
42.8193 14.3496
42.8671 14.261
42.9152 14.1826
42.963 14.1702
43.0111 14.0796
43.0589 14.0634
43.107 14.0212
43.1549 13.9772
43.2029 13.9491
43.2508 13.9079
43.2989 13.8232
43.3468 13.7574
43.3949 13.7104
43.4429 13.7092
43.491 13.585
43.5389 13.6076
43.5871 13.5713
43.635 13.5295
43.6832 13.4652
43.7312 13.4041
43.7793 13.3623
43.8273 13.3214
43.8755 13.2298
43.9237 13.1956
43.9717 13.1922
44.0199 13.1499
44.068 13.1008
44.1162 13.042
44.1642 12.991
44.2125 12.9739
44.2606 12.8527
44.3088 12.8447
44.3569 12.8434
44.4052 12.7753
44.4533 12.7318
44.5016 12.6901
44.5497 12.6766
44.598 12.6166
44.6461 12.5801
44.6945 12.4897
44.7426 12.4652
44.791 12.3863
44.8391 12.3938
44.8875 12.3037
44.9357 12.3642
44.984 12.2822
45.0322 12.2358
45.0806 12.1384
45.1288 12.1465
45.1773 12.0687
45.2257 12.0109
45.2739 11.9794
45.3224 11.9465
45.3706 11.8929
45.4191 11.8378
45.4673 11.8523
45.5158 11.7741
45.5641 11.7364
45.6126 11.7073
45.6609 11.6426
45.7094 11.6035
45.7577 11.5517
45.8063 11.4596
45.8546 11.5156
45.9031 11.4497
45.9515 11.4033
46.0001 11.3236
46.0484 11.311
46.097 11.3403
46.1454 11.2696
46.194 11.2127
46.2424 11.1352
46.291 11.1204
46.3395 11.0992
46.3881 11.0207
46.4365 11.0496
46.4852 10.9595
46.5337 10.9421
46.5823 10.9041
46.631 10.8177
46.6795 10.8158
46.7282 10.7796
46.7767 10.7215
46.8254 10.6768
46.8739 10.6549
46.9226 10.6109
46.9712 10.5489
47.0199 10.5428
47.0685 10.4463
47.1173 10.4262
47.1658 10.3855
47.2146 10.4047
47.2632 10.3231
47.312 10.2951
47.3606 10.2591
47.4095 10.2215
47.4581 10.1726
47.5069 10.1228
47.5556 10.0708
47.6044 10.0902
47.6531 9.98016
47.702 9.97519
47.7507 9.9656
47.7996 9.89815
47.8483 9.86729
47.8972 9.84491
47.9461 9.84273
47.9948 9.7528
48.0438 9.73554
48.0925 9.71502
48.1415 9.66119
48.1902 9.66081
48.2392 9.64371
48.288 9.5947
48.337 9.53378
48.3858 9.50229
48.4348 9.47832
48.4837 9.45579
48.5327 9.40747
48.5815 9.35426
48.6306 9.33799
48.6795 9.28583
48.7285 9.28224
48.7774 9.19036
48.8265 9.18949
48.8754 9.14841
48.9245 9.1566
48.9734 9.09067
49.0226 9.07771
49.0715 9.02217
49.1206 9.01899
49.1696 8.94913
49.2188 8.93379
49.2679 8.8747
49.3169 8.83618
49.3661 8.80954
49.4151 8.78686
49.4643 8.75341
49.5134 8.6992
49.5626 8.66659
49.6117 8.63115
49.6609 8.63153
49.71 8.55668
49.7592 8.56717
49.8083 8.52244
49.8576 8.44635
49.9067 8.43963
49.956 8.4182
50.0052 8.38101
50.0545 8.37256
50.1036 8.32031
50.153 8.27447
50.2022 8.25144
50.2515 8.21523
50.3007 8.19366
50.3501 8.13712
50.3993 8.13437
50.4487 8.11783
50.498 8.07967
50.5474 8.03837
50.5966 7.97613
50.6461 7.95979
50.6955 7.96364
50.7448 7.89815
50.7943 7.88679
50.8436 7.8442
50.8931 7.83251
50.9424 7.76753
50.9919 7.73403
51.0413 7.7398
51.0908 7.71227
51.1402 7.65644
51.1897 7.66478
51.2391 7.62448
51.2887 7.6002
51.3381 7.5355
51.3877 7.51006
51.4371 7.48314
51.4867 7.44492
51.5362 7.41637
51.5858 7.39715
51.6353 7.36467
51.6849 7.33015
51.7344 7.29428
51.7841 7.26113
51.8336 7.24474
51.8833 7.23095
51.9328 7.16732
51.9826 7.14828
52.0323 7.12985
52.0818 7.08223
52.1316 7.05578
52.1812 7.04044
52.231 6.96585
52.2806 6.96726
52.3304 6.96876
52.38 6.94887
52.4298 6.90881
52.4794 6.89204
52.5293 6.79538
52.5789 6.82421
52.6288 6.78401
52.6785 6.74403
52.7284 6.7384
52.7781 6.68683
52.828 6.70603
52.8777 6.63903
52.9276 6.62652
52.9774 6.59185
53.0273 6.55842
53.0771 6.54346
53.1271 6.50785
53.1769 6.48992
53.2269 6.42134
53.2767 6.39555
53.3267 6.40652
53.3765 6.36095
53.4266 6.33969
53.4766 6.3019
53.5265 6.2897
53.5765 6.27866
53.6264 6.2075
53.6765 6.24188
53.7264 6.18534
53.7765 6.15747
53.8265 6.09152
53.8766 6.11322
53.9266 6.07039
53.9767 6.06112
54.0267 6.01245
54.0769 5.98608
54.1269 5.93927
54.1771 5.9146
54.2271 5.92396
54.2773 5.84312
54.3274 5.82475
54.3776 5.79732
54.4277 5.79992
54.478 5.75547
54.528 5.74086
54.5783 5.61286
54.6285 5.624
54.6788 5.62327
54.7289 5.50504
54.7792 5.50129
54.8296 5.45166
54.8798 5.37378
54.9301 5.44515
54.9803 5.39355
55.0307 5.33875
55.0809 5.28988
55.1314 5.24621
55.1816 5.20696
55.232 5.13821
55.2823 5.18965
55.3328 5.09918
55.383 5.05216
55.4335 5.02988
55.4838 4.91683
55.5344 4.9013
55.5847 4.83832
55.6352 4.82192
55.6856 4.75004
55.7361 4.74023