File: XRD/Ni3Fe_FD0027.xy
TT I
1.27165 33.6133
1.31627 33.1535
1.36089 31.4333
1.40551 29.159
1.45013 28.1189
1.49476 28.0922
1.53938 26.3939
1.584 25.2859
1.62863 25.6523
1.67325 24.5622
1.71787 24.1876
1.7625 23.4463
1.80712 23.1455
1.85174 22.6782
1.89636 23.3228
1.94099 23.062
1.98562 23.1448
2.03025 23.6224
2.07487 23.1573
2.11949 24.0667
2.16411 24.354
2.20874 26.0111
2.25338 26.1549
2.298 26.2349
2.34263 25.832
2.38725 24.9457
2.43188 24.7862
2.4765 24.0052
2.52115 24.9784
2.56577 25.0479
2.6104 26.2008
2.65503 26.5343
2.69965 28.1103
2.7443 29.4458
2.78893 31.9572
2.83356 34.066
2.87818 37.9124
2.92281 42.6642
2.96744 48.0617
3.01209 56.0821
3.05672 64.5769
3.10135 74.7325
3.14599 81.2674
3.19062 80.7856
3.23527 74.1527
3.2799 64.1714
3.32454 53.5046
3.36917 46.057
3.4138 40.2317
3.45844 37.9005
3.50309 36.8061
3.54773 36.4574
3.59237 38.7063
3.637 41.2118
3.68164 42.5133
3.7263 41.8031
3.77094 38.9877
3.81558 36.9953
3.86022 35.6948
3.90486 35.5399
3.9495 36.629
3.99416 37.6112
4.0388 40.1354
4.08344 43.9534
4.12809 49.0215
4.17273 57.5633
4.21738 70.7447
4.26204 84.201
4.30669 91.963
4.35133 87.2327
4.39598 74.8089
4.44063 65.6647
4.4853 60.1073
4.52995 54.9852
4.5746 50.1045
4.61925 47.3261
4.6639 45.5724
4.70855 45.7286
4.75322 46.7223
4.79788 49.47
4.84253 51.9668
4.88719 56.2598
4.93184 62.0321
4.97652 70.8875
5.02118 87.0493
5.06583 111.99
5.11049 137.048
5.15515 183.314
5.19981 282.296
5.24449 575.45
5.28916 1204.38
5.33382 3265.23
5.37848 3672.27
5.42315 1111.59
5.46783 358.628
5.5125 210.188
5.55716 154.721
5.60183 125.383
5.6465 111.921
5.69117 106.243
5.73586 100.176
5.78053 96.2666
5.8252 96.7274
5.86988 101.696
5.91455 112.114
5.95924 130.53
6.00392 174.465
6.0486 275.982
6.09328 469.611
6.13795 842.373
6.18263 1303.07
6.22733 739.682
6.27201 301.455
6.3167 162.641
6.36138 108.388
6.40606 83.6455
6.45075 71.6843
6.49545 63.8851
6.54014 58.8745
6.58483 56.2118
6.62952 56.1907
6.67421 56.8782
6.71892 58.1772
6.76361 58.2954
6.8083 55.8254
6.853 52.0737
6.89769 48.638
6.94239 46.6726
6.98711 44.4903
7.03181 44.0529
7.07651 43.7754
7.12121 45.0099
7.16591 47.4219
7.21063 51.5544
7.25533 58.2978
7.30004 69.8851
7.34475 76.8669
7.38945 71.4534
7.43416 60.5897
7.47889 53.5562
7.5236 55.6488
7.56831 96.9115
7.61303 148.949
7.65774 73.252
7.70247 45.3016
7.74719 40.1445
7.79191 38.7009
7.83663 37.7718
7.88135 37.5034
7.92607 37.5099
7.97081 38.1776
8.01553 38.1243
8.06026 39.5604
8.10498 39.9641
8.14971 41.5268
8.19446 43.0176
8.23919 44.7396
8.28392 46.8604
8.32865 48.5713
8.37339 52.4862
8.41812 57.5633
8.46288 66.1832
8.50761 79.2167
8.55235 107.042
8.59709 163.748
8.64183 222.163
8.68658 402.458
8.73134 766.814
8.77609 624.714
8.82083 263.385
8.86558 131.638
8.91033 93.3652
8.9551 77.2827
8.99985 69.9235
9.04461 64.77
9.08936 61.3943
9.13412 59.0608
9.17888 60.156
9.22365 68.0227
9.26841 127.185
9.31318 248.523
9.35794 145.624
9.4027 69.0532
9.44749 56.7292
9.49226 53.4043
9.53703 52.2247
9.5818 52.3156
9.62657 52.9633
9.67134 53.8068
9.71614 55.524
9.76091 56.4805
9.80569 58.4721
9.85047 61.0272
9.89525 65.511
9.94005 72.1922
9.98484 81.8853
10.0296 102.428
10.0744 144.067
10.1192 185.286
10.164 254.445
10.2088 517.317
10.2536 821.153
10.2984 531.476
10.3432 234.083
10.388 127.419
10.4328 94.5371
10.4776 83.7382
10.5224 86.5743
10.5672 91.6318
10.612 103.037
10.6568 160.977
10.7017 275.711
10.7465 257.391
10.7913 137.185
10.8361 72.4013
10.8809 55.0702
10.9257 49.1587
10.9706 46.626
11.0154 44.9153
11.0602 44.0306
11.105 43.202
11.1499 42.6722
11.1947 42.6472
11.2395 42.4298
11.2844 42.4341
11.3292 41.4219
11.374 40.4182
11.4189 39.3645
11.4637 38.5224
11.5086 38.0072
11.5534 37.8838
11.5983 37.9578
11.6431 38.1239
11.688 37.561
11.7328 37.1727
11.7777 36.9351
11.8225 36.9927
11.8674 37.7242
11.9122 39.5378
11.9571 46.2808
12.002 73.8465
12.0468 89.1599
12.0917 59.8535
12.1366 46.7526
12.1814 47.3599
12.2263 49.7266
12.2712 56.3622
12.3161 73.168
12.3609 95.3934
12.4058 89.0503
12.4507 63.9334
12.4956 50.4697
12.5405 44.6572
12.5853 42.4053
12.6302 41.0643
12.6751 41.6548
12.72 42.0019
12.7649 41.8774
12.8098 40.9972
12.8547 40.4179
12.8996 40.2575
12.9445 39.9804
12.9894 40.3175
13.0343 40.9274
13.0792 43.0699
13.1242 47.2692
13.1691 57.618
13.214 62.2694
13.2589 64.4151
13.3038 69.2996
13.3487 76.0819
13.3937 98.7258
13.4386 155.984
13.4835 222.583
13.5285 188.416
13.5734 119.578
13.6183 90.3031
13.6633 80.8686
13.7082 82.2665
13.7531 103.869
13.7981 165.51
13.843 211.09
13.888 150.54
13.9329 85.0947
13.9779 60.3345
14.0228 51.0185
14.0678 46.6894
14.1127 45.5661
14.1577 48.7024
14.2027 66.9289
14.2476 85.9132
14.2926 66.5695
14.3376 46.9347
14.3825 41.305
14.4275 39.8319
14.4725 39.0709
14.5175 38.6549
14.5624 38.2914
14.6074 38.3856
14.6524 38.3879
14.6974 38.8694
14.7424 39.3789
14.7874 39.5608
14.8324 41.045
14.8774 43.6991
14.9224 47.7083
14.9674 49.7586
15.0124 52.6492
15.0574 61.8669
15.1024 84.6104
15.1474 120.512
15.1924 122.621
15.2374 86.3019
15.2824 60.3559
15.3274 48.494
15.3725 43.72
15.4175 41.5685
15.4625 39.9503
15.5076 39.2439
15.5526 38.9125
15.5976 38.8418
15.6426 38.3317
15.6877 38.5894
15.7327 39.7651
15.7778 41.6861
15.8228 44.9853
15.8679 47.3783
15.9129 49.0106
15.958 55.0821
16.003 69.025
16.0481 100.155
16.0931 125.457
16.1382 111.033
16.1833 80.2386
16.2283 55.7617
16.2734 44.2712
16.3185 39.4648
16.3636 37.2302
16.4086 35.7361
16.4537 34.9398
16.4988 34.0496
16.5439 33.5787
16.589 33.0125
16.6341 32.4874
16.6792 32.164
16.7243 32.1602
16.7694 31.9902
16.8145 32.0415
16.8596 32.1746
16.9047 32.5262
16.9498 33.5738
16.9949 36.5889
17.04 39.8638
17.0851 38.1723
17.1302 34.713
17.1754 33.5145
17.2205 34.0298
17.2656 34.36
17.3108 34.7863
17.3559 35.1424
17.401 36.9266
17.4462 40.6885
17.4913 47.7951
17.5365 51.7326
17.5815 46.3537
17.6268 39.8161
17.6718 36.5459
17.7171 35.3116
17.7622 35.4807
17.8074 36.8889
17.8525 40.3983
17.8977 42.1908
17.9428 40.1137
17.9881 39.2843
18.0331 41.3875
18.0784 42.5541
18.1237 43.3171
18.1688 45.7617
18.214 52.5013
18.2591 67.1206
18.3044 91.5662
18.3495 100.431
18.3948 80.7797
18.4399 61.6413
18.4852 55.6059
18.5303 60.4709
18.5756 71.0258
18.6207 73.0752
18.666 61.3748
18.7112 49.7151
18.7565 41.7066
18.8016 37.9676
18.8469 36.289
18.892 35.4165
18.9374 34.6281
18.9825 34.0236
19.0278 33.9284
19.073 33.7072
19.1183 33.5355
19.1635 33.4672
19.2088 33.9816
19.254 34.5266
19.2993 35.1689
19.3447 36.6034
19.3898 40.3417
19.4352 45.4841
19.4804 46.9893
19.5257 45.3294
19.5709 46.8272
19.6163 49.0996
19.6615 45.2639
19.7068 38.9126
19.752 35.2035
19.7974 33.6514
19.8426 32.6724
19.888 32.1704
19.9332 31.9865
19.9786 32.3417
20.0238 32.414
20.0692 32.5837
20.1144 32.7263
20.1598 33.4682
20.205 34.9969
20.2504 38.2125
20.2957 43.215
20.3411 46.5103
20.3863 45.1166
20.4318 40.3196
20.477 38.8297
20.5224 41.2146
20.5677 44.403
20.6131 42.8976
20.6586 37.7624
20.7038 33.9337
20.7493 31.7773
20.7945 31.3424
20.84 31.9857
20.8853 33.3723
20.9307 33.497
20.976 31.6675
21.0215 29.744
21.0668 29.2684
21.1122 29.0969
21.1575 28.9669
21.203 28.8164
21.2483 28.7934
21.2938 28.8443
21.3391 29.139
21.3846 29.3463
21.4299 30.3427
21.4754 31.8653
21.5207 32.6167
21.5662 31.9629
21.6116 30.9451
21.6571 30.0204
21.7024 29.609
21.7479 29.8402
21.7933 30.3009
21.8388 30.8246
21.8843 31.0898
21.9297 31.3316
21.9752 32.2168
22.0206 34.1384
22.0661 36.6141
22.1115 41.3056
22.157 46.4019
22.2024 47.6694
22.248 44.4263
22.2933 41.2351
22.3389 39.7204
22.3843 39.2832
22.4299 37.4818
22.4753 34.8501
22.5208 32.4242
22.5662 31.187
22.6118 30.5396
22.6572 30.2327
22.7028 29.8645
22.7483 29.8375
22.7939 30.0545
22.8393 30.5366
22.8849 31.6967
22.9303 32.0633
22.9759 31.7591
23.0214 31.2975
23.067 31.7666
23.1126 32.8426
23.1581 35.1805
23.2037 39.3749
23.2492 41.9528
23.2948 40.1771
23.3403 36.062
23.3859 33.2112
23.4314 32.3744
23.477 32.5361
23.5225 33.3887
23.5682 34.1159
23.6137 33.4209
23.6593 32.6038
23.7048 32.8122
23.7505 34.4114
23.796 37.6468
23.8417 42.1169
23.8872 43.2687
23.9329 39.6207
23.9784 34.6776
24.0241 31.4902
24.0697 29.9754
24.1154 29.2733
24.1609 28.8959
24.2066 28.7124
24.2522 28.1534
24.2979 27.6221
24.3434 27.1748
24.3892 26.9839
24.4349 26.8524
24.4805 26.7065
24.5262 26.6191
24.5718 26.4989
24.6175 26.4708
24.6631 26.7133
24.7089 26.9134
24.7545 27.4594
24.8002 27.876
24.8458 27.6761
24.8916 27.1085
24.9372 26.6911
24.983 26.4175
25.0286 26.2836
25.0744 26.2351
25.12 26.2435
25.1658 26.3322
25.2114 26.5318
25.2572 26.7051
25.3029 27.1549
25.3487 27.8523
25.3943 28.7547
25.4402 29.6598
25.4858 30.0213
25.5316 29.9843
25.5773 30.2098
25.6231 31.4735
25.669 31.5381
25.7147 30.2059
25.7605 28.2257
25.8062 26.9811
25.8521 26.6644
25.8977 26.5196
25.9436 26.808
25.9893 26.4639
26.0352 26.3126
26.0809 25.8195
26.1268 25.6134
26.1725 25.5378
26.2184 25.7599
26.2641 26.0215
26.31 26.6174
26.3557 27.7168
26.4017 28.3579
26.4474 28.3072
26.4933 27.4548
26.5391 26.7235
26.585 26.2733
26.6308 25.9735
26.6767 25.9341
26.7225 26.0628
26.7684 26.2709
26.8142 26.7377
26.8601 27.5492
26.9059 28.737
26.9519 29.9523
26.9979 30.2383
27.0437 29.7568
27.0896 29.297
27.1354 28.7175
27.1814 27.561
27.2272 26.5944
27.2732 25.7214
27.3191 25.2529
27.3651 24.9372
27.4109 24.7718
27.4569 24.7365
27.5027 24.6693
27.5488 24.5806
27.5946 24.588
27.6407 24.7235
27.6865 24.7059
27.7326 24.8229
27.7784 25.0176
27.8245 25.3516
27.8703 25.5354
27.9164 25.5525
27.9623 25.057
28.0084 24.824
28.0543 24.9761
28.1003 25.1492
28.1462 25.5574
28.1923 25.7949
28.2384 25.786
28.2843 26.1839
28.3304 26.9746
28.3764 27.9023
28.4225 27.9233
28.4684 27.4208
28.5145 26.7858
28.5605 26.4802
28.6066 25.8898
28.6526 25.2258
28.6987 24.6658
28.7447 24.0621
28.7908 23.6141
28.8368 23.2344
28.8829 23.0498
28.9289 22.8738
28.9751 22.8232
29.0211 22.7071
29.0673 22.628
29.1133 22.7311
29.1595 22.8765
29.2055 23.1347
29.2517 23.3868
29.2977 23.101
29.3439 22.6738
29.3899 22.3789
29.4361 22.1414
29.4824 22.1832
29.5284 21.9741
29.5746 22.0457
29.6207 22.1542
29.6669 22.2834
29.713 22.5888
29.7593 22.7068
29.8053 22.5654
29.8516 22.1078
29.8977 21.7516
29.9439 21.4581
29.99 21.3148
30.0363 21.1681
30.0824 21.269
30.1287 21.205
30.1748 21.4176
30.2211 21.5329
30.2673 21.3809
30.3136 21.2787
30.3597 21.0524
30.406 21.1003
30.4522 21.0464
30.4985 21.2023
30.5447 21.3626
30.591 21.4346
30.6372 21.41
30.6835 21.1717
30.7297 20.9965
30.7761 20.9801
30.8224 20.9663
30.8686 21.1643
30.915 21.2241
30.9612 21.4768
31.0076 21.9764
31.0538 22.4171
31.1002 22.5563
31.1464 22.3915
31.1928 22.0523
31.2391 21.9073
31.2855 21.429
31.3317 21.1493
31.3781 20.8588
31.4244 20.5975
31.4708 20.457
31.5171 20.4437
31.5636 20.5015
31.6098 20.5128
31.6563 20.5659
31.7026 20.711
31.7491 20.8152
31.7953 21.0819
31.8418 21.2389
31.8881 21.2834
31.9346 20.9346
31.9809 20.5933
32.0275 20.3693
32.074 20.2586
32.1203 20.2942
32.1668 20.4013
32.2132 20.4277
32.2597 20.6227
32.306 20.8248
32.3526 20.794
32.399 20.6573
32.4455 20.3338
32.4919 20.1015
32.5385 19.8774
32.5848 19.5707
32.6314 19.4609
32.6778 19.2997
32.7244 19.0736
32.7708 18.9555
32.8174 18.8496
32.8638 18.7583
32.9104 18.8632
32.9569 18.7586
33.0035 18.7193
33.0499 18.8063
33.0966 18.8472
33.143 18.8314
33.1897 18.6242
33.2361 18.4759
33.2828 18.5183
33.3293 18.4276
33.3759 18.5334
33.4226 18.4932
33.4691 18.5707
33.5158 18.7902
33.5623 18.8015
33.609 18.885
33.6555 18.9132
33.7022 18.8729
33.7487 18.6242
33.7954 18.3174
33.842 18.0653
33.8887 17.9204
33.9353 17.8378
33.982 17.7891
34.0286 17.753
34.0753 17.6119
34.1219 17.5962
34.1687 17.6797
34.2152 17.6274
34.262 17.5892
34.3086 17.5934
34.3554 17.5284
34.402 17.2516
34.4488 17.1838
34.4954 17.174
34.5422 17.1217
34.5889 17.0709
34.6357 17.0383
34.6825 17.0716
34.7292 17.1052
34.776 16.9986
34.8227 16.8888
34.8695 16.7857
34.9162 16.7021
34.9631 16.588
35.0098 16.609
35.0566 16.5368
35.1033 16.4179
35.1502 16.3237
35.1969 16.3438
35.2438 16.3652
35.2906 16.3065
35.3375 16.3679
35.3842 16.2657
35.4311 16.3749
35.4779 16.2702
35.5248 16.2637
35.5716 16.2006
35.6185 16.1952
35.6653 16.2223
35.7123 16.3206
35.759 16.3667
35.806 16.4477
35.8528 16.5663
35.8998 16.5879
35.9468 16.3807
35.9936 16.3576
36.0406 16.2204
36.0874 16.0764
36.1345 15.8792
36.1813 15.7619
36.2283 15.6641
36.2752 15.5227
36.3222 15.6229
36.3691 15.5633
36.4161 15.4975
36.463 15.5189
36.5101 15.5709
36.557 15.5252
36.6041 15.502
36.651 15.5512
36.6981 15.4378
36.745 15.2887
36.7921 15.219
36.839 15.1368
36.8861 15.1879
36.9331 15.1763
36.9802 15.1101
37.0272 15.2167
37.0743 15.0647
37.1213 15.0312
37.1684 14.9294
37.2154 14.8929
37.2626 14.7901
37.3098 14.6934
37.3568 14.6926
37.404 14.5884
37.451 14.5355
37.4982 14.506
37.5452 14.3853
37.5924 14.4045
37.6395 14.4201
37.6867 14.3363
37.7337 14.2653
37.781 14.1626
37.8281 14.1497
37.8753 14.0577
37.9224 14.0802
37.9697 14.0553
38.0168 14.024
38.064 14.022
38.1111 13.9597
38.1584 13.9691
38.2056 13.9488
38.2529 13.8452
38.3 13.7287
38.3473 13.7468
38.3945 13.6104
38.4418 13.6272
38.489 13.5089
38.5363 13.5141
38.5837 13.4924
38.6309 13.4722
38.6782 13.4568
38.7254 13.4605
38.7728 13.3769
38.82 13.2255
38.8674 13.3142
38.9146 13.2383
38.9621 13.1816
39.0093 13.1828
39.0567 13.1969
39.104 13.1641
39.1514 13.0996
39.1987 13.1105
39.2461 13.0282
39.2934 12.9348
39.3409 12.8398
39.3882 12.7913
39.4356 12.7576
39.483 12.6977
39.5304 12.6105
39.5778 12.714
39.6253 12.6069
39.6726 12.5006
39.7201 12.5433
39.7675 12.4839
39.815 12.4597
39.8624 12.4757
39.9099 12.4445
39.9575 12.2854
40.0049 12.3136
40.0525 12.254
40.0999 12.2836
40.1474 12.2551
40.1949 12.2319
40.2425 12.2012
40.2899 12.2144
40.3375 12.1354
40.385 12.1052
40.4326 12.0407
40.48 11.9733
40.5277 12.0001
40.5752 11.9748
40.6228 11.9618
40.6703 11.8633
40.718 11.8522
40.7655 11.8176
40.8132 11.7767
40.8607 11.8187
40.9084 11.6896
40.9559 11.702
41.0036 11.6684
41.0512 11.6326
41.0989 11.6145
41.1465 11.6051
41.1942 11.6181
41.242 11.5283
41.2896 11.4908
41.3373 11.4091
41.3849 11.4419
41.4327 11.3224
41.4803 11.2576
41.5281 11.2699
41.5758 11.1811
41.6236 11.1601
41.6712 11.1689
41.7191 11.0935
41.7667 11.0613
41.8146 11.0043
41.8622 11.0153
41.9101 10.9639
41.9578 10.9399
42.0057 10.9074
42.0534 10.9367
42.1013 10.9303
42.149 10.8213
42.1969 10.8279
42.2446 10.7953
42.2925 10.7404
42.3403 10.6881
42.3882 10.648
42.436 10.6224
42.4839 10.5357
42.5319 10.5344
42.5797 10.46
42.6277 10.38
42.6755 10.4026
42.7235 10.3492
42.7713 10.3386
42.8193 10.3299
42.8671 10.2601
42.9152 10.2654
42.963 10.2052
43.0111 10.1209
43.0589 10.0948
43.107 10.0829
43.1549 10.0605
43.2029 10.0049
43.2508 9.98394
43.2989 9.94491
43.3468 9.8801
43.3949 9.86926
43.4429 9.84865
43.491 9.80887
43.5389 9.80152
43.5871 9.7669
43.635 9.70236
43.6832 9.70963
43.7312 9.65461
43.7793 9.61001
43.8273 9.54846
43.8755 9.55512
43.9237 9.5087
43.9717 9.51135
44.0199 9.47499
44.068 9.45615
44.1162 9.46703
44.1642 9.42602
44.2125 9.35585
44.2606 9.37673
44.3088 9.30437
44.3569 9.26409
44.4052 9.2627
44.4533 9.22165
44.5016 9.15115
44.5497 9.14949
44.598 9.10818
44.6461 9.09924
44.6945 9.06877
44.7426 9.04441
44.791 8.98943
44.8391 9.00834
44.8875 8.92944
44.9357 8.91716
44.984 8.9075
45.0322 8.87674
45.0806 8.89843
45.1288 8.78808
45.1773 8.74264
45.2257 8.74834
45.2739 8.68361
45.3224 8.67667
45.3706 8.65974
45.4191 8.57506
45.4673 8.58555
45.5158 8.59543
45.5641 8.50402
45.6126 8.51513
45.6609 8.43193
45.7094 8.43404
45.7577 8.41653
45.8063 8.37643
45.8546 8.39591
45.9031 8.33694
45.9515 8.28971
46.0001 8.3011
46.0484 8.26433
46.097 8.26927
46.1454 8.21101
46.194 8.16413
46.2424 8.15185
46.291 8.10781
46.3395 8.04989
46.3881 8.04261
46.4365 8.0296
46.4852 8.04055
46.5337 7.9721
46.5823 7.9836
46.631 7.90217
46.6795 7.90198
46.7282 7.85538
46.7767 7.84563
46.8254 7.83055
46.8739 7.77492
46.9226 7.76019
46.9712 7.71654
47.0199 7.66525
47.0685 7.6429
47.1173 7.63372
47.1658 7.61837
47.2146 7.56015
47.2632 7.56307
47.312 7.52397
47.3606 7.47407
47.4095 7.44581
47.4581 7.42341
47.5069 7.41359
47.5556 7.39468
47.6044 7.33019
47.6531 7.33033
47.702 7.31474
47.7507 7.27481
47.7996 7.21281
47.8483 7.24566
47.8972 7.20606
47.9461 7.19978
47.9948 7.13737
48.0438 7.15033
48.0925 7.11909
48.1415 7.07848
48.1902 7.04204
48.2392 7.00389
48.288 7.01487
48.337 6.99834
48.3858 6.94633
48.4348 6.9116
48.4837 6.90026
48.5327 6.88646
48.5815 6.84004
48.6306 6.82677
48.6795 6.82845
48.7285 6.808
48.7774 6.78384
48.8265 6.76408
48.8754 6.71793
48.9245 6.68973
48.9734 6.6721
49.0226 6.65159
49.0715 6.63486
49.1206 6.60124
49.1696 6.57027
49.2188 6.57191
49.2679 6.52535
49.3169 6.50791
49.3661 6.44882
49.4151 6.43481
49.4643 6.42201
49.5134 6.39463
49.5626 6.35815
49.6117 6.37835
49.6609 6.35204
49.71 6.31183
49.7592 6.27167
49.8083 6.27229
49.8576 6.24937
49.9067 6.22586
49.956 6.21576
50.0052 6.21122
50.0545 6.15435
50.1036 6.1554
50.153 6.14743
50.2022 6.10326
50.2515 6.06653
50.3007 6.04959
50.3501 6.01726
50.3993 6.00304
50.4487 6.03006
50.498 5.97693
50.5474 5.96325
50.5966 5.93531
50.6461 5.90503
50.6955 5.88458
50.7448 5.85302
50.7943 5.84463
50.8436 5.79518
50.8931 5.79169
50.9424 5.74888
50.9919 5.73994
51.0413 5.7184
51.0908 5.71906
51.1402 5.70573
51.1897 5.68135
51.2391 5.63416
51.2887 5.62247
51.3381 5.59612
51.3877 5.61119
51.4371 5.53202
51.4867 5.51822
51.5362 5.5206
51.5858 5.48826
51.6353 5.48106
51.6849 5.46554
51.7344 5.40399
51.7841 5.43629
51.8336 5.38322
51.8833 5.37677
51.9328 5.34789
51.9826 5.3373
52.0323 5.29601
52.0818 5.26826
52.1316 5.26171
52.1812 5.24639
52.231 5.22671
52.2806 5.20998
52.3304 5.19041
52.38 5.15933
52.4298 5.12764
52.4794 5.10032
52.5293 5.08983
52.5789 5.08762
52.6288 5.0319
52.6785 5.03951
52.7284 4.99898
52.7781 5.00076
52.828 4.99524
52.8777 4.95941
52.9276 4.94872
52.9774 4.90317
53.0273 4.91481
53.0771 4.86359
53.1271 4.87946
53.1769 4.85454
53.2269 4.83579
53.2767 4.7988
53.3267 4.74669
53.3765 4.73016
53.4266 4.76772
53.4766 4.70692
53.5265 4.69447
53.5765 4.68556
53.6264 4.69106
53.6765 4.66306
53.7264 4.60568
53.7765 4.60398
53.8265 4.62144
53.8766 4.57875
53.9266 4.55936
53.9767 4.50066
54.0267 4.49701
54.0769 4.477
54.1269 4.43606
54.1771 4.40642
54.2271 4.38116
54.2773 4.36232
54.3274 4.31879
54.3776 4.32574
54.4277 4.27574
54.478 4.25486
54.528 4.26176
54.5783 4.17815
54.6285 4.13915
54.6788 4.12292
54.7289 4.1076
54.7792 4.03546
54.8296 4.00072
54.8798 3.97162
54.9301 4.00737
54.9803 3.94981
55.0307 3.93495
55.0809 3.9421
55.1314 3.87822
55.1816 3.80747
55.232 3.77661
55.2823 3.75574
55.3328 3.68576
55.383 3.64632
55.4335 3.61805
55.4838 3.56787
55.5344 3.58157
55.5847 3.53862
55.6352 3.55873
55.6856 3.50963
55.7361 3.51466