File: XRD/Ni3Fe_FD0417.xy
TT I
1.27165 7.5434
1.31627 6.96173
1.36089 7.39451
1.40551 6.11916
1.45013 6.13619
1.49476 6.24072
1.53938 6.17182
1.584 5.37056
1.62863 5.27787
1.67325 5.22383
1.71787 4.24535
1.7625 4.85822
1.80712 4.86009
1.85174 4.53831
1.89636 4.35107
1.94099 4.90862
1.98562 4.2853
2.03025 4.80786
2.07487 4.46895
2.11949 5.18793
2.16411 5.13857
2.20874 17.3703
2.25338 29.6256
2.298 6.33473
2.34263 4.80302
2.38725 5.04044
2.43188 5.44232
2.4765 6.10457
2.52115 5.89116
2.56577 7.28496
2.6104 7.302
2.65503 6.99117
2.69965 7.99437
2.7443 8.0265
2.78893 7.64477
2.83356 8.20833
2.87818 8.81271
2.92281 8.81249
2.96744 8.84114
3.01209 10.6691
3.05672 11.086
3.10135 12.9575
3.14599 13.2823
3.19062 13.9263
3.23527 14.8459
3.2799 15.8763
3.32454 16.8978
3.36917 17.6575
3.4138 19.3359
3.45844 19.9992
3.50309 21.0662
3.54773 22.4811
3.59237 24.654
3.637 120.557
3.68164 73.2845
3.7263 27.0072
3.77094 26.9577
3.81558 27.8627
3.86022 27.8661
3.90486 29.9494
3.9495 30.4774
3.99416 31.4078
4.0388 33.0197
4.08344 34.3618
4.12809 36.0902
4.17273 38.3938
4.21738 45.8044
4.26204 326.284
4.30669 288.696
4.35133 51.794
4.39598 46.1607
4.44063 57.797
4.4853 73.8595
4.52995 51.9691
4.5746 52.1963
4.61925 53.9912
4.6639 56.4736
4.70855 58.7592
4.75322 61.7325
4.79788 64.2343
4.84253 68.5164
4.88719 72.4562
4.93184 75.9048
4.97652 81.8789
5.02118 88.6247
5.06583 96.4152
5.11049 109.928
5.15515 202.301
5.19981 422.798
5.24449 2871.14
5.28916 11440.5
5.33382 3533.36
5.37848 223.149
5.42315 138.28
5.46783 118.676
5.5125 109.058
5.55716 104.613
5.60183 100.997
5.6465 99.04
5.69117 96.3974
5.73586 93.7166
5.78053 93.7362
5.8252 93.5503
5.86988 94.3221
5.91455 96.8307
5.95924 106.153
6.00392 227.886
6.0486 1002.38
6.09328 3851.1
6.13795 3536.25
6.18263 307.814
6.22733 100.346
6.27201 87.7167
6.3167 115.421
6.36138 86.6713
6.40606 71.1927
6.45075 69.1507
6.49545 67.0414
6.54014 65.6389
6.58483 64.6835
6.62952 64.5502
6.67421 106.112
6.71892 178.599
6.76361 74.0388
6.8083 60.4036
6.853 59.1021
6.89769 58.5114
6.94239 58.0899
6.98711 57.5479
7.03181 57.165
7.07651 57.2062
7.12121 56.5058
7.16591 57.0514
7.21063 57.4758
7.25533 77.128
7.30004 230.262
7.34475 107.986
7.38945 59.0523
7.43416 56.2289
7.47889 55.8056
7.5236 56.1041
7.56831 56.8332
7.61303 59.0386
7.65774 59.9197
7.70247 57.5378
7.74719 57.3244
7.79191 57.8122
7.83663 58.2801
7.88135 59.2763
7.92607 59.7548
7.97081 61.1939
8.01553 62.0475
8.06026 63.5447
8.10498 65.0713
8.14971 78.0396
8.19446 76.0834
8.23919 71.2676
8.28392 73.3166
8.32865 75.513
8.37339 79.8465
8.41812 87.8137
8.46288 126.313
8.50761 175.589
8.55235 399.24
8.59709 1061.78
8.64183 2078.52
8.68658 1134.48
8.73134 193.7
8.77609 104.752
8.82083 95.57
8.86558 91.7202
8.91033 92.5243
8.9551 96.0811
8.99985 87.5857
9.04461 84.9004
9.08936 84.4206
9.13412 83.2935
9.17888 83.4634
9.22365 84.476
9.26841 83.7022
9.31318 84.377
9.35794 84.2197
9.4027 84.7664
9.44749 85.301
9.49226 85.6796
9.53703 87.102
9.5818 88.9126
9.62657 95.4619
9.67134 103.678
9.71614 96.121
9.76091 95.7602
9.80569 98.0802
9.85047 102.002
9.89525 133.62
9.94005 150.16
9.98484 184.562
10.0296 353.626
10.0744 746.264
10.1192 1579.91
10.164 1768.84
10.2088 510.353
10.2536 140.393
10.2984 118.995
10.3432 122.163
10.388 108.091
10.4328 121.801
10.4776 162.831
10.5224 262.815
10.5672 473.098
10.612 528.922
10.6568 230.706
10.7017 102.429
10.7465 89.0539
10.7913 85.4567
10.8361 83.0453
10.8809 80.8637
10.9257 80.5369
10.9706 82.1058
11.0154 76.675
11.0602 74.5092
11.105 73.3716
11.1499 79.9085
11.1947 90.8729
11.2395 78.136
11.2844 73.0475
11.3292 69.0965
11.374 67.6165
11.4189 67.3091
11.4637 66.3475
11.5086 67.3638
11.5534 71.7877
11.5983 67.7186
11.6431 65.1265
11.688 64.4259
11.7328 64.2473
11.7777 64.4469
11.8225 63.8787
11.8674 63.6673
11.9122 64.2662
11.9571 64.3206
12.002 64.6921
12.0468 69.3849
12.0917 81.7007
12.1366 102.04
12.1814 141.411
12.2263 200.358
12.2712 185.215
12.3161 110.303
12.3609 75.0657
12.4058 66.4874
12.4507 65.7535
12.4956 66.3632
12.5405 66.2145
12.5853 67.0362
12.6302 77.3613
12.6751 85.4379
12.72 73.0882
12.7649 69.4706
12.8098 69.7485
12.8547 71.3003
12.8996 72.4157
12.9445 73.7204
12.9894 75.3647
13.0343 77.2845
13.0792 80.5606
13.1242 90.1505
13.1691 115.654
13.214 149.755
13.2589 221.149
13.3038 336.152
13.3487 432.222
13.3937 299.003
13.4386 138.592
13.4835 109.383
13.5285 124.085
13.5734 155.872
13.6183 226.484
13.6633 328.061
13.7082 364.988
13.7531 218.57
13.7981 106.275
13.843 84.1675
13.888 81.5226
13.9329 78.6961
13.9779 77.6644
14.0228 75.9846
14.0678 74.6783
14.1127 74.3302
14.1577 74.4858
14.2027 73.0343
14.2476 72.0851
14.2926 72.0676
14.3376 74.1271
14.3825 72.3401
14.4275 70.376
14.4725 69.9349
14.5175 70.2386
14.5624 70.473
14.6074 73.2803
14.6524 74.0822
14.6974 72.0212
14.7424 73.3139
14.7874 80.4614
14.8324 90.9218
14.8774 109.427
14.9224 144.148
14.9674 193.407
15.0124 223.318
15.0574 164.617
15.1024 99.8678
15.1474 74.8918
15.1924 72.476
15.2374 73.7196
15.2824 72.8506
15.3274 70.3016
15.3725 68.3913
15.4175 67.8844
15.4625 67.6199
15.5076 67.8376
15.5526 67.7628
15.5976 67.166
15.6426 67.9935
15.6877 73.8224
15.7327 81.7651
15.7778 94.7671
15.8228 119.379
15.8679 157.499
15.9129 193.415
15.958 171.123
16.003 107.667
16.0481 71.8274
16.0931 67.4671
16.1382 65.1816
16.1833 62.2526
16.2283 60.5831
16.2734 59.8788
16.3185 60.3727
16.3636 61.7888
16.4086 59.8299
16.4537 57.7233
16.4988 56.8163
16.5439 56.6855
16.589 56.5808
16.6341 56.1121
16.6792 55.9896
16.7243 56.3301
16.7694 56.408
16.8145 56.186
16.8596 56.6421
16.9047 58.701
16.9498 59.358
16.9949 57.2302
17.04 57.0644
17.0851 58.3889
17.1302 60.0646
17.1754 62.9048
17.2205 66.8161
17.2656 73.1936
17.3108 81.3661
17.3559 83.8901
17.401 74.7861
17.4462 64.4572
17.4913 60.6362
17.5365 60.3425
17.5815 60.6796
17.6268 60.912
17.6718 61.723
17.7171 62.3063
17.7622 62.4048
17.8074 62.9914
17.8525 65.477
17.8977 69.7703
17.9428 75.0565
17.9881 82.8525
18.0331 96.1043
18.0784 115.334
18.1237 136.69
18.1688 137.761
18.214 111.794
18.2591 89.1931
18.3044 89.2379
18.3495 97.6848
18.3948 107.221
18.4399 101.936
18.4852 82.64
18.5303 68.7732
18.5756 63.9996
18.6207 62.6982
18.666 61.8886
18.7112 61.1013
18.7565 60.2493
18.8016 60.0157
18.8469 59.4221
18.892 58.974
18.9374 58.7625
18.9825 58.4268
19.0278 58.2345
19.073 58.2904
19.1183 58.9316
19.1635 59.9177
19.2088 60.8866
19.254 62.9749
19.2993 66.3573
19.3447 72.3347
19.3898 77.5875
19.4352 75.5828
19.4804 66.7495
19.5257 59.153
19.5709 55.7997
19.6163 55.202
19.6615 54.7705
19.7068 54.5303
19.752 54.5044
19.7974 54.6727
19.8426 55.8687
19.888 56.3276
19.9332 57.5533
19.9786 59.2521
20.0238 62.037
20.0692 66.5295
20.1144 70.809
20.1598 70.6595
20.205 65.6831
20.2504 62.8867
20.2957 63.6675
20.3411 66.3696
20.3863 66.5445
20.4318 61.3167
20.477 55.9424
20.5224 53.4755
20.5677 52.6308
20.6131 51.4057
20.6586 50.9484
20.7038 50.7979
20.7493 50.3746
20.7945 50.1218
20.84 49.8225
20.8853 49.73
20.9307 49.6896
20.976 49.7534
21.0215 49.7129
21.0668 50.2242
21.1122 50.4804
21.1575 50.9168
21.203 51.6188
21.2483 52.4534
21.2938 52.8488
21.3391 51.5914
21.3846 50.306
21.4299 49.5832
21.4754 49.4507
21.5207 49.63
21.5662 49.8445
21.6116 50.2788
21.6571 51.0568
21.7024 52.0593
21.7479 53.3529
21.7933 55.7543
21.8388 58.9571
21.8843 62.6302
21.9297 65.4709
21.9752 65.6264
22.0206 61.898
22.0661 57.8625
22.1115 56.8751
22.157 57.2303
22.2024 56.1132
22.248 53.2086
22.2933 51.4105
22.3389 50.2754
22.3843 50.1085
22.4299 50.1941
22.4753 50.094
22.5208 49.7785
22.5662 49.542
22.6118 49.7937
22.6572 49.8267
22.7028 50.3893
22.7483 50.8725
22.7939 51.3443
22.8393 52.6501
22.8849 54.294
22.9303 56.23
22.9759 58.4385
23.0214 59.128
23.067 56.5993
23.1126 53.1504
23.1581 50.7423
23.2037 50.0524
23.2492 50.0412
23.2948 49.8931
23.3403 50.1924
23.3859 50.691
23.4314 51.5598
23.477 53.0809
23.5225 54.9611
23.5682 57.3316
23.6137 58.8494
23.6593 57.7803
23.7048 53.9755
23.7505 50.1006
23.796 48.0103
23.8417 47.0773
23.8872 46.8374
23.9329 46.1971
23.9784 46.0633
24.0241 45.585
24.0697 45.5391
24.1154 45.2369
24.1609 44.995
24.2066 44.7118
24.2522 44.6795
24.2979 44.5043
24.3434 44.4455
24.3892 44.2213
24.4349 44.1327
24.4805 43.8741
24.5262 44.1658
24.5718 43.9866
24.6175 43.9023
24.6631 43.7706
24.7089 43.5441
24.7545 43.4421
24.8002 43.4283
24.8458 43.2635
24.8916 43.107
24.9372 43.0488
24.983 43.4819
25.0286 43.7177
25.0744 43.9412
25.12 44.5322
25.1658 45.1768
25.2114 45.5388
25.2572 45.5945
25.3029 45.6365
25.3487 45.7456
25.3943 45.7129
25.4402 44.9842
25.4858 43.8999
25.5316 42.5639
25.5773 41.9834
25.6231 41.8632
25.669 41.4543
25.7147 41.3991
25.7605 41.4865
25.8062 41.6308
25.8521 41.7655
25.8977 41.5845
25.9436 41.8401
25.9893 41.8087
26.0352 42.2193
26.0809 42.3489
26.1268 42.6062
26.1725 42.5201
26.2184 41.9821
26.2641 41.2234
26.31 41.0989
26.3557 41.1174
26.4017 41.0625
26.4474 41.3028
26.4933 41.5834
26.5391 41.9852
26.585 42.2032
26.6308 42.7443
26.6767 42.9625
26.7225 42.9949
26.7684 42.5473
26.8142 41.8106
26.8601 41.4363
26.9059 41.1331
26.9519 40.5115
26.9979 40.073
27.0437 39.8515
27.0896 39.7496
27.1354 39.5813
27.1814 39.5367
27.2272 39.3451
27.2732 39.5154
27.3191 39.1745
27.3651 39.3996
27.4109 39.2915
27.4569 39.2714
27.5027 39.3351
27.5488 39.4721
27.5946 39.2528
27.6407 39.0859
27.6865 38.9004
27.7326 38.7134
27.7784 38.66
27.8245 38.6088
27.8703 38.852
27.9164 39.0635
27.9623 39.2163
28.0084 39.3283
28.0543 39.7918
28.1003 39.8501
28.1462 39.6192
28.1923 39.332
28.2384 38.8171
28.2843 38.5139
28.3304 37.9324
28.3764 37.6294
28.4225 37.2457
28.4684 37.1127
28.5145 36.8801
28.5605 36.6699
28.6066 36.4607
28.6526 36.4965
28.6987 36.523
28.7447 36.3018
28.7908 36.1889
28.8368 36.2352
28.8829 36.2307
28.9289 36.1572
28.9751 36.0241
29.0211 35.8095
29.0673 35.4561
29.1133 35.3927
29.1595 35.2282
29.2055 35.0579
29.2517 35.1816
29.2977 35.1428
29.3439 35.0679
29.3899 34.986
29.4361 34.9209
29.4824 34.8057
29.5284 34.5738
29.5746 34.1065
29.6207 33.9788
29.6669 33.7539
29.713 33.7732
29.7593 33.6464
29.8053 33.7147
29.8516 33.5543
29.8977 33.5697
29.9439 33.2863
29.99 33.3284
30.0363 33.0878
30.0824 33.2155
30.1287 33.1329
30.1748 33.1668
30.2211 33.1976
30.2673 33.047
30.3136 33.0499
30.3597 33.0179
30.406 32.9207
30.4522 32.8459
30.4985 32.7908
30.5447 32.7716
30.591 32.7985
30.6372 32.9179
30.6835 32.8652
30.7297 32.8462
30.7761 32.9329
30.8224 32.7181
30.8686 32.5822
30.915 32.4007
30.9612 32.1905
31.0076 32.0437
31.0538 31.8942
31.1002 31.7582
31.1464 31.6831
31.1928 31.6355
31.2391 31.5846
31.2855 31.5298
31.3317 31.5225
31.3781 31.4758
31.4244 31.4576
31.4708 31.4909
31.5171 31.5236
31.5636 31.4531
31.6098 31.2019
31.6563 31.0454
31.7026 30.995
31.7491 30.9021
31.7953 30.8297
31.8418 30.8168
31.8881 30.8751
31.9346 30.7138
31.9809 30.7247
32.0275 30.6424
32.074 30.5459
32.1203 30.3707
32.1668 30.1841
32.2132 30.0496
32.2597 29.981
32.306 29.7896
32.3526 29.6822
32.399 29.5879
32.4455 29.4225
32.4919 29.3365
32.5385 29.3146
32.5848 29.2509
32.6314 29.1321
32.6778 29.0337
32.7244 28.8769
32.7708 28.8554
32.8174 28.8805
32.8638 28.6256
32.9104 28.6836
32.9569 28.653
33.0035 28.4454
33.0499 28.4516
33.0966 28.4353
33.143 28.3666
33.1897 28.3791
33.2361 28.1559
33.2828 28.196
33.3293 28.1235
33.3759 28.0324
33.4226 28.0267
33.4691 27.8253
33.5158 27.7347
33.5623 27.4595
33.609 27.3676
33.6555 27.3414
33.7022 27.2441
33.7487 27.1845
33.7954 27.0628
33.842 26.9
33.8887 26.9713
33.9353 26.8934
33.982 26.7296
34.0286 26.6504
34.0753 26.5913
34.1219 26.5204
34.1687 26.4843
34.2152 26.349
34.262 26.2039
34.3086 26.1277
34.3554 26.1362
34.402 26.005
34.4488 25.9823
34.4954 25.8889
34.5422 25.7605
34.5889 25.6295
34.6357 25.5037
34.6825 25.4398
34.7292 25.4272
34.776 25.3195
34.8227 25.3016
34.8695 25.1501
34.9162 25.1425
34.9631 25.057
35.0098 25.0616
35.0566 24.9225
35.1033 24.864
35.1502 24.8283
35.1969 24.6561
35.2438 24.7321
35.2906 24.6993
35.3375 24.6173
35.3842 24.499
35.4311 24.5073
35.4779 24.5227
35.5248 24.445
35.5716 24.343
35.6185 24.1923
35.6653 24.1539
35.7123 24.0396
35.759 23.9401
35.806 23.8403
35.8528 23.7686
35.8998 23.6899
35.9468 23.5966
35.9936 23.6003
36.0406 23.5376
36.0874 23.4955
36.1345 23.4216
36.1813 23.3612
36.2283 23.2364
36.2752 23.0882
36.3222 23.1707
36.3691 23.0904
36.4161 22.9319
36.463 23.0123
36.5101 22.9878
36.557 22.9474
36.6041 22.7032
36.651 22.6735
36.6981 22.6387
36.745 22.5142
36.7921 22.4459
36.839 22.3552
36.8861 22.3224
36.9331 22.2321
36.9802 22.1853
37.0272 22.0879
37.0743 21.9477
37.1213 21.968
37.1684 21.8984
37.2154 21.8533
37.2626 21.7832
37.3098 21.7568
37.3568 21.6319
37.404 21.5433
37.451 21.4725
37.4982 21.4165
37.5452 21.3077
37.5924 21.2728
37.6395 21.3359
37.6867 21.2204
37.7337 21.1207
37.781 20.9862
37.8281 20.9737
37.8753 20.9143
37.9224 20.7953
37.9697 20.717
38.0168 20.6725
38.064 20.6082
38.1111 20.6166
38.1584 20.4737
38.2056 20.4112
38.2529 20.3643
38.3 20.2811
38.3473 20.2809
38.3945 20.1471
38.4418 20.099
38.489 20.1086
38.5363 19.9229
38.5837 19.9189
38.6309 19.8622
38.6782 19.8306
38.7254 19.6958
38.7728 19.6181
38.82 19.6503
38.8674 19.4824
38.9146 19.4687
38.9621 19.382
39.0093 19.3623
39.0567 19.3403
39.104 19.2246
39.1514 19.2035
39.1987 19.1531
39.2461 19.0687
39.2934 18.9793
39.3409 18.8953
39.3882 18.8399
39.4356 18.7695
39.483 18.6674
39.5304 18.6457
39.5778 18.6625
39.6253 18.5647
39.6726 18.5027
39.7201 18.4826
39.7675 18.4601
39.815 18.3779
39.8624 18.2713
39.9099 18.2067
39.9575 18.1665
40.0049 18.0891
40.0525 18.0353
40.0999 18.0126
40.1474 17.9416
40.1949 17.8191
40.2425 17.8622
40.2899 17.7057
40.3375 17.7021
40.385 17.659
40.4326 17.5833
40.48 17.5237
40.5277 17.4564
40.5752 17.4482
40.6228 17.3823
40.6703 17.3232
40.718 17.214
40.7655 17.1624
40.8132 17.1876
40.8607 17.1297
40.9084 17.0602
40.9559 17.008
41.0036 16.9625
41.0512 16.928
41.0989 16.8501
41.1465 16.7768
41.1942 16.696
41.242 16.6505
41.2896 16.5995
41.3373 16.5356
41.3849 16.4788
41.4327 16.4205
41.4803 16.3493
41.5281 16.3286
41.5758 16.2546
41.6236 16.1283
41.6712 16.1002
41.7191 16.0314
41.7667 16.0435
41.8146 15.9773
41.8622 15.9793
41.9101 15.9182
41.9578 15.8188
42.0057 15.7736
42.0534 15.7694
42.1013 15.6995
42.149 15.6188
42.1969 15.6204
42.2446 15.5281
42.2925 15.4803
42.3403 15.4368
42.3882 15.3998
42.436 15.344
42.4839 15.2656
42.5319 15.2609
42.5797 15.1179
42.6277 15.1044
42.6755 15.0933
42.7235 14.954
42.7713 14.9973
42.8193 14.9239
42.8671 14.9198
42.9152 14.8248
42.963 14.7071
43.0111 14.6681
43.0589 14.6666
43.107 14.5665
43.1549 14.5843
43.2029 14.5113
43.2508 14.4781
43.2989 14.3876
43.3468 14.3341
43.3949 14.3018
43.4429 14.245
43.491 14.2066
43.5389 14.1734
43.5871 14.1431
43.635 14.047
43.6832 14.0491
43.7312 13.931
43.7793 13.8742
43.8273 13.8802
43.8755 13.8735
43.9237 13.7744
43.9717 13.7288
44.0199 13.688
44.068 13.6267
44.1162 13.5878
44.1642 13.5279
44.2125 13.4718
44.2606 13.3992
44.3088 13.3971
44.3569 13.3446
44.4052 13.3394
44.4533 13.2614
44.5016 13.2346
44.5497 13.1766
44.598 13.1089
44.6461 13.0717
44.6945 12.9952
44.7426 12.9754
44.791 12.9448
44.8391 12.8808
44.8875 12.849
44.9357 12.7885
44.984 12.765
45.0322 12.6992
45.0806 12.6737
45.1288 12.6124
45.1773 12.5367
45.2257 12.529
45.2739 12.5006
45.3224 12.4902
45.3706 12.3934
45.4191 12.3602
45.4673 12.3654
45.5158 12.2938
45.5641 12.2044
45.6126 12.1922
45.6609 12.131
45.7094 12.0372
45.7577 12.1004
45.8063 11.9773
45.8546 11.9783
45.9031 11.8964
45.9515 11.8997
46.0001 11.83
46.0484 11.8063
46.097 11.8008
46.1454 11.7312
46.194 11.6743
46.2424 11.6297
46.291 11.6037
46.3395 11.545
46.3881 11.4785
46.4365 11.4751
46.4852 11.4035
46.5337 11.3827
46.5823 11.3452
46.631 11.2917
46.6795 11.214
46.7282 11.2542
46.7767 11.1003
46.8254 11.0798
46.8739 11.0498
46.9226 11.0717
46.9712 10.9966
47.0199 10.9628
47.0685 10.8976
47.1173 10.8486
47.1658 10.832
47.2146 10.8252
47.2632 10.7425
47.312 10.7401
47.3606 10.6828
47.4095 10.6601
47.4581 10.6378
47.5069 10.5551
47.5556 10.5051
47.6044 10.4438
47.6531 10.4148
47.702 10.3905
47.7507 10.3642
47.7996 10.3001
47.8483 10.2958
47.8972 10.2358
47.9461 10.1843
47.9948 10.1491
48.0438 10.1503
48.0925 10.1134
48.1415 10.0784
48.1902 10.0067
48.2392 10.0223
48.288 9.99137
48.337 9.91235
48.3858 9.86862
48.4348 9.84405
48.4837 9.83743
48.5327 9.7957
48.5815 9.71962
48.6306 9.75488
48.6795 9.69605
48.7285 9.62273
48.7774 9.61079
48.8265 9.60466
48.8754 9.52069
48.9245 9.501
48.9734 9.45011
49.0226 9.42633
49.0715 9.37768
49.1206 9.3735
49.1696 9.32767
49.2188 9.3059
49.2679 9.23703
49.3169 9.20302
49.3661 9.15501
49.4151 9.15265
49.4643 9.13346
49.5134 9.06745
49.5626 9.06015
49.6117 8.99233
49.6609 8.97772
49.71 8.92291
49.7592 8.92257
49.8083 8.86503
49.8576 8.82987
49.9067 8.79585
49.956 8.7787
50.0052 8.71339
50.0545 8.6972
50.1036 8.66746
50.153 8.64851
50.2022 8.60299
50.2515 8.57768
50.3007 8.54296
50.3501 8.45469
50.3993 8.43355
50.4487 8.41731
50.498 8.39712
50.5474 8.37647
50.5966 8.34095
50.6461 8.28524
50.6955 8.24735
50.7448 8.26764
50.7943 8.23632
50.8436 8.17263
50.8931 8.15377
50.9424 8.11289
50.9919 8.07255
51.0413 8.03687
51.0908 8.01989
51.1402 8.01232
51.1897 7.97487
51.2391 7.94715
51.2887 7.86523
51.3381 7.87296
51.3877 7.83348
51.4371 7.78492
51.4867 7.75264
51.5362 7.72972
51.5858 7.66411
51.6353 7.67359
51.6849 7.65089
51.7344 7.62112
51.7841 7.57862
51.8336 7.56046
51.8833 7.48718
51.9328 7.45612
51.9826 7.4269
52.0323 7.4523
52.0818 7.40517
52.1316 7.31742
52.1812 7.30533
52.231 7.26526
52.2806 7.23596
52.3304 7.23804
52.38 7.20925
52.4298 7.15356
52.4794 7.13177
52.5293 7.09945
52.5789 7.0832
52.6288 7.06899
52.6785 7.03624
52.7284 6.95569
52.7781 6.99721
52.828 6.93109
52.8777 6.86398
52.9276 6.87798
52.9774 6.8521
53.0273 6.85675
53.0771 6.77804
53.1271 6.76444
53.1769 6.72715
53.2269 6.68595
53.2767 6.65723
53.3267 6.67702
53.3765 6.62944
53.4266 6.61907
53.4766 6.50357
53.5265 6.50695
53.5765 6.50902
53.6264 6.45799
53.6765 6.47341
53.7264 6.41963
53.7765 6.40129
53.8265 6.3263
53.8766 6.318
53.9266 6.33001
53.9767 6.25871
54.0267 6.2405
54.0769 6.22649
54.1269 6.18494
54.1771 6.17204
54.2271 6.1335
54.2773 6.04483
54.3274 6.04915
54.3776 6.02497
54.4277 6.01783
54.478 5.97333
54.528 5.89889
54.5783 5.88641
54.6285 5.86865
54.6788 5.77265
54.7289 5.78023
54.7792 5.79369
54.8296 5.65588
54.8798 5.61001
54.9301 5.60198
54.9803 5.56691
55.0307 5.53596
55.0809 5.54721
55.1314 5.49769
55.1816 5.42211
55.232 5.39082
55.2823 5.2886
55.3328 5.26852
55.383 5.19955
55.4335 5.15665
55.4838 5.12082
55.5344 5.0169
55.5847 5.06345
55.6352 5.00273
55.6856 4.99469
55.7361 4.91551