File: XRD/Ni3Fe_FD0914.xy
TT I
1.27165 7.68596
1.31627 6.58529
1.36089 6.56356
1.40551 6.19784
1.45013 6.23458
1.49476 5.3634
1.53938 6.20162
1.584 5.07264
1.62863 4.9181
1.67325 4.84125
1.71787 5.30342
1.7625 4.99169
1.80712 4.86034
1.85174 4.91163
1.89636 4.35366
1.94099 5.15692
1.98562 4.55613
2.03025 4.48059
2.07487 4.56813
2.11949 4.80459
2.16411 4.44529
2.20874 9.81405
2.25338 13.642
2.298 5.9552
2.34263 5.86439
2.38725 6.30569
2.43188 6.11204
2.4765 7.28294
2.52115 7.1884
2.56577 7.81603
2.6104 8.24198
2.65503 8.58136
2.69965 8.6274
2.7443 8.58943
2.78893 8.62284
2.83356 8.40135
2.87818 8.84996
2.92281 9.56582
2.96744 9.51338
3.01209 9.94148
3.05672 11.1442
3.10135 12.0432
3.14599 12.8196
3.19062 14.4273
3.23527 14.9352
3.2799 15.4862
3.32454 16.452
3.36917 17.7962
3.4138 18.4983
3.45844 19.031
3.50309 21.0158
3.54773 21.1212
3.59237 22.9037
3.637 57.1643
3.68164 39.972
3.7263 25.2443
3.77094 25.5329
3.81558 26.1024
3.86022 27.4966
3.90486 28.4981
3.9495 29.4467
3.99416 30.5569
4.0388 31.4968
4.08344 33.348
4.12809 34.1732
4.17273 35.6633
4.21738 39.5948
4.26204 141.581
4.30669 121.067
4.35133 44.8883
4.39598 43.222
4.44063 49.242
4.4853 55.2327
4.52995 54.4545
4.5746 56.0517
4.61925 52.9552
4.6639 54.9428
4.70855 57.6567
4.75322 60.2707
4.79788 66.0748
4.84253 67.5901
4.88719 72.9608
4.93184 75.3549
4.97652 79.8604
5.02118 85.9042
5.06583 92.9931
5.11049 104.085
5.15515 153.959
5.19981 355.547
5.24449 2733.17
5.28916 13662.2
5.33382 2624.48
5.37848 183.064
5.42315 126.703
5.46783 115.772
5.5125 108.959
5.55716 100.656
5.60183 96.8764
5.6465 95.0935
5.69117 92.9997
5.73586 91.4633
5.78053 95.4293
5.8252 94.9439
5.86988 96.7245
5.91455 93.1807
5.95924 101.846
6.00392 217.604
6.0486 924.355
6.09328 4621.23
6.13795 2994.11
6.18263 194.811
6.22733 87.6853
6.27201 79.2982
6.3167 86.174
6.36138 74.2593
6.40606 68.94
6.45075 68.0458
6.49545 63.963
6.54014 62.7272
6.58483 61.9539
6.62952 61.9623
6.67421 76.645
6.71892 97.9219
6.76361 62.1984
6.8083 58.3934
6.853 58.3063
6.89769 56.0263
6.94239 55.4833
6.98711 55.0557
7.03181 55.1419
7.07651 54.1023
7.12121 53.7088
7.16591 54.8653
7.21063 54.4825
7.25533 61.9676
7.30004 111.053
7.34475 70.6134
7.38945 54.4138
7.43416 53.2103
7.47889 53.3445
7.5236 53.6153
7.56831 54.1297
7.61303 55.1746
7.65774 55.6945
7.70247 55.9881
7.74719 55.4493
7.79191 55.5211
7.83663 55.7628
7.88135 57.1223
7.92607 57.8639
7.97081 58.524
8.01553 60.2087
8.06026 61.9348
8.10498 62.9296
8.14971 70.1193
8.19446 70.2154
8.23919 68.3511
8.28392 70.7439
8.32865 73.2788
8.37339 76.9266
8.41812 82.6604
8.46288 102.796
8.50761 168.308
8.55235 365.631
8.59709 1198.92
8.64183 2271.11
8.68658 828.521
8.73134 140.571
8.77609 96.2266
8.82083 90.7822
8.86558 90.358
8.91033 90.068
8.9551 88.6159
8.99985 84.0605
9.04461 82.8616
9.08936 82.9935
9.13412 81.6112
9.17888 80.8178
9.22365 81.0902
9.26841 81.0721
9.31318 82.9691
9.35794 84.646
9.4027 84.6381
9.44749 83.6509
9.49226 83.4773
9.53703 84.5291
9.5818 87.6625
9.62657 92.4613
9.67134 94.9066
9.71614 91.6797
9.76091 93.3975
9.80569 97.2072
9.85047 99.5079
9.89525 112.899
9.94005 125.998
9.98484 181.009
10.0296 329.008
10.0744 823.095
10.1192 1840.37
10.164 1468.01
10.2088 321.864
10.2536 117.998
10.2984 108.044
10.3432 107.406
10.388 103.022
10.4328 118.628
10.4776 157.185
10.5224 288.611
10.5672 542.806
10.612 486.302
10.6568 177.545
10.7017 91.6796
10.7465 84.6331
10.7913 81.8901
10.8361 79.5789
10.8809 77.6867
10.9257 76.7887
10.9706 76.7368
11.0154 73.967
11.0602 71.6195
11.105 70.3454
11.1499 72.0202
11.1947 74.7792
11.2395 69.7499
11.2844 67.7756
11.3292 65.8854
11.374 64.9085
11.4189 64.8466
11.4637 63.6146
11.5086 63.5769
11.5534 64.7349
11.5983 63.4516
11.6431 62.465
11.688 61.8958
11.7328 61.7885
11.7777 61.7972
11.8225 61.4614
11.8674 61.1964
11.9122 61.5836
11.9571 62.0588
12.002 63.3338
12.0468 67.3882
12.0917 76.9827
12.1366 101.444
12.1814 157.963
12.2263 213.299
12.2712 153.919
12.3161 85.8917
12.3609 66.1329
12.4058 62.8433
12.4507 63.164
12.4956 63.7724
12.5405 63.8906
12.5853 64.3654
12.6302 68.0225
12.6751 70.9353
12.72 67.1918
12.7649 66.6704
12.8098 67.2247
12.8547 68.998
12.8996 70.1401
12.9445 71.5392
12.9894 73.0947
13.0343 74.7574
13.0792 78.8704
13.1242 89.8926
13.1691 109.388
13.214 145.141
13.2589 244.974
13.3038 391.802
13.3487 423.867
13.3937 230.058
13.4386 113.67
13.4835 104.134
13.5285 117.836
13.5734 156.396
13.6183 258.166
13.6633 378.802
13.7082 328.622
13.7531 167.19
13.7981 91.549
13.843 79.8643
13.888 78.0718
13.9329 75.8978
13.9779 74.5978
14.0228 73.1573
14.0678 71.983
14.1127 71.1703
14.1577 70.8701
14.2027 70.2033
14.2476 69.305
14.2926 69.1333
14.3376 69.4952
14.3825 68.6686
14.4275 67.847
14.4725 67.5836
14.5175 67.6182
14.5624 67.7561
14.6074 69.0334
14.6524 69.5734
14.6974 69.6311
14.7424 71.9267
14.7874 78.2171
14.8324 87.0465
14.8774 110.044
14.9224 158.519
14.9674 218.076
15.0124 214.065
15.0574 137.383
15.1024 83.8373
15.1474 70.5774
15.1924 69.031
15.2374 68.6771
15.2824 67.8659
15.3274 66.5052
15.3725 65.7509
15.4175 65.47
15.4625 64.7381
15.5076 64.8684
15.5526 64.8751
15.5976 64.7479
15.6426 66.4876
15.6877 71.4785
15.7327 78.3179
15.7778 93.244
15.8228 128.607
15.8679 177.137
15.9129 194.345
15.958 145.263
16.003 86.7302
16.0481 64.7879
16.0931 62.1124
16.1382 60.5776
16.1833 59.2911
16.2283 57.9256
16.2734 57.1137
16.3185 56.8589
16.3636 57.0138
16.4086 55.9537
16.4537 54.865
16.4988 54.3689
16.5439 54.5759
16.589 54.1655
16.6341 54.0477
16.6792 53.412
16.7243 53.8142
16.7694 53.886
16.8145 53.7983
16.8596 53.8353
16.9047 54.7267
16.9498 55.0112
16.9949 54.5649
17.04 54.8696
17.0851 56.2122
17.1302 57.4926
17.1754 60.4857
17.2205 65.7776
17.2656 74.5474
17.3108 82.9881
17.3559 79.691
17.401 67.5933
17.4462 60.0583
17.4913 58.2104
17.5365 58.2186
17.5815 58.1862
17.6268 58.669
17.6718 59.1836
17.7171 59.5145
17.7622 60.5094
17.8074 61.2581
17.8525 63.8493
17.8977 67.2112
17.9428 72.2827
17.9881 81.5071
18.0331 100.743
18.0784 125.778
18.1237 139.438
18.1688 124.782
18.214 96.3517
18.2591 83.5083
18.3044 90.7066
18.3495 102.41
18.3948 105.553
18.4399 90.9285
18.4852 72.9116
18.5303 63.7254
18.5756 60.8976
18.6207 60.0619
18.666 59.1881
18.7112 58.5726
18.7565 57.9341
18.8016 57.6291
18.8469 56.9914
18.892 56.7197
18.9374 56.3231
18.9825 55.8763
19.0278 55.8319
19.073 56.0322
19.1183 56.255
19.1635 56.8867
19.2088 58.1989
19.254 61.2386
19.2993 66.2643
19.3447 72.4415
19.3898 74.8602
19.4352 69.1848
19.4804 60.3793
19.5257 54.9156
19.5709 53.0644
19.6163 52.9691
19.6615 52.9295
19.7068 52.2785
19.752 52.4104
19.7974 52.7273
19.8426 53.3588
19.888 54.0684
19.9332 55.1508
19.9786 58.2272
20.0238 62.1224
20.0692 67.3205
20.1144 69.4564
20.1598 66.2108
20.205 61.4622
20.2504 61.5226
20.2957 63.8624
20.3411 65.162
20.3863 62.1248
20.4318 56.1449
20.477 51.8867
20.5224 50.2316
20.5677 49.7809
20.6131 49.3093
20.6586 48.711
20.7038 48.7811
20.7493 48.1535
20.7945 48.1438
20.84 47.9252
20.8853 47.8735
20.9307 47.6816
20.976 47.8801
21.0215 47.8726
21.0668 48.0569
21.1122 48.5455
21.1575 49.2739
21.203 50.3831
21.2483 50.8426
21.2938 50.3091
21.3391 49.1146
21.3846 48.0296
21.4299 47.5182
21.4754 47.7478
21.5207 47.9354
21.5662 48.0433
21.6116 48.6029
21.6571 49.1197
21.7024 50.0595
21.7479 51.9821
21.7933 54.9832
21.8388 58.9971
21.8843 63.103
21.9297 64.2469
21.9752 61.4263
22.0206 57.4598
22.0661 55.3521
22.1115 55.5717
22.157 55.0406
22.2024 52.6598
22.248 49.972
22.2933 48.8105
22.3389 48.2211
22.3843 48.0001
22.4299 47.9184
22.4753 47.8201
22.5208 47.6608
22.5662 47.6365
22.6118 47.8255
22.6572 48.0614
22.7028 48.3798
22.7483 48.7847
22.7939 49.5167
22.8393 51.3654
22.8849 53.5556
22.9303 55.9663
22.9759 57.3585
23.0214 56.221
23.067 52.7525
23.1126 49.6067
23.1581 48.0496
23.2037 47.8976
23.2492 48.0981
23.2948 47.9224
23.3403 48.3482
23.3859 48.8789
23.4314 49.9874
23.477 52.0581
23.5225 54.7141
23.5682 57.0066
23.6137 57.0906
23.6593 54.1412
23.7048 49.8716
23.7505 47.0389
23.796 45.6072
23.8417 45.0771
23.8872 44.7447
23.9329 44.4975
23.9784 44.0031
24.0241 43.8936
24.0697 43.6556
24.1154 43.5154
24.1609 43.1938
24.2066 42.907
24.2522 42.8301
24.2979 42.6311
24.3434 42.6947
24.3892 42.3124
24.4349 42.3629
24.4805 42.257
24.5262 42.5105
24.5718 42.2385
24.6175 42.2118
24.6631 42.0411
24.7089 41.79
24.7545 41.6726
24.8002 41.488
24.8458 41.5631
24.8916 41.3455
24.9372 41.6191
24.983 41.8964
25.0286 42.2045
25.0744 42.8185
25.12 43.2016
25.1658 43.8109
25.2114 44.0565
25.2572 44.1504
25.3029 44.0978
25.3487 44.2625
25.3943 43.7169
25.4402 42.4211
25.4858 41.497
25.5316 40.679
25.5773 40.1105
25.6231 40.1668
25.669 39.9087
25.7147 39.8641
25.7605 39.8008
25.8062 39.8702
25.8521 39.8809
25.8977 39.8512
25.9436 40.1977
25.9893 40.4133
26.0352 40.889
26.0809 40.9392
26.1268 41.034
26.1725 40.6031
26.2184 39.9849
26.2641 39.509
26.31 39.4804
26.3557 39.3979
26.4017 39.3474
26.4474 39.803
26.4933 40.0771
26.5391 40.6954
26.585 41.1781
26.6308 41.6448
26.6767 41.6342
26.7225 41.3131
26.7684 40.6011
26.8142 40.2164
26.8601 39.8847
26.9059 39.197
26.9519 38.79
26.9979 38.5383
27.0437 38.2137
27.0896 38.1039
27.1354 38.1097
27.1814 38.0928
27.2272 38.0186
27.2732 37.8912
27.3191 37.6844
27.3651 37.891
27.4109 37.8514
27.4569 37.99
27.5027 37.9867
27.5488 38.013
27.5946 37.744
27.6407 37.5184
27.6865 37.3639
27.7326 37.2884
27.7784 37.2042
27.8245 37.1486
27.8703 37.4798
27.9164 37.7743
27.9623 37.9461
28.0084 38.217
28.0543 38.5705
28.1003 38.3788
28.1462 38.2124
28.1923 37.7546
28.2384 37.2821
28.2843 37.0129
28.3304 36.3552
28.3764 36.0433
28.4225 35.7453
28.4684 35.6334
28.5145 35.338
28.5605 35.3577
28.6066 35.1023
28.6526 35.1855
28.6987 35.0447
28.7447 34.9036
28.7908 34.8279
28.8368 34.9413
28.8829 34.8961
28.9289 34.6535
28.9751 34.5538
29.0211 34.187
29.0673 34.0951
29.1133 33.98
29.1595 33.841
29.2055 33.7704
29.2517 33.6771
29.2977 33.8278
29.3439 33.6938
29.3899 33.7145
29.4361 33.605
29.4824 33.393
29.5284 33.1068
29.5746 32.778
29.6207 32.5749
29.6669 32.5547
29.713 32.4317
29.7593 32.3042
29.8053 32.3028
29.8516 32.3117
29.8977 32.1849
29.9439 32.0657
29.99 32.0082
30.0363 31.8734
30.0824 31.962
30.1287 31.9194
30.1748 31.8508
30.2211 31.9427
30.2673 31.7091
30.3136 31.8498
30.3597 31.6623
30.406 31.6467
30.4522 31.4519
30.4985 31.5246
30.5447 31.6651
30.591 31.647
30.6372 31.7096
30.6835 31.6167
30.7297 31.675
30.7761 31.6402
30.8224 31.4058
30.8686 31.2875
30.915 31.0331
30.9612 31.0017
31.0076 30.7516
31.0538 30.6352
31.1002 30.6114
31.1464 30.3797
31.1928 30.4755
31.2391 30.3883
31.2855 30.3196
31.3317 30.3412
31.3781 30.3777
31.4244 30.4613
31.4708 30.3896
31.5171 30.3117
31.5636 30.2111
31.6098 30.0027
31.6563 29.8412
31.7026 29.7541
31.7491 29.6164
31.7953 29.6704
31.8418 29.6273
31.8881 29.6822
31.9346 29.5976
31.9809 29.5639
32.0275 29.4097
32.074 29.3385
32.1203 29.0631
32.1668 29.008
32.2132 28.8409
32.2597 28.8176
32.306 28.6865
32.3526 28.4497
32.399 28.4788
32.4455 28.3667
32.4919 28.1393
32.5385 28.1807
32.5848 28.0352
32.6314 28.0126
32.6778 27.9975
32.7244 27.8052
32.7708 27.7761
32.8174 27.7307
32.8638 27.5708
32.9104 27.4986
32.9569 27.6353
33.0035 27.3886
33.0499 27.44
33.0966 27.2591
33.143 27.4037
33.1897 27.3282
33.2361 27.1597
33.2828 27.1558
33.3293 26.9005
33.3759 26.9299
33.4226 26.753
33.4691 26.6014
33.5158 26.5895
33.5623 26.4735
33.609 26.3018
33.6555 26.1606
33.7022 26.1959
33.7487 26.1159
33.7954 26.0167
33.842 25.9681
33.8887 25.9337
33.9353 25.7809
33.982 25.773
34.0286 25.5303
34.0753 25.5131
34.1219 25.5072
34.1687 25.4049
34.2152 25.3016
34.262 25.1811
34.3086 25.1583
34.3554 25.152
34.402 24.955
34.4488 24.88
34.4954 24.8214
34.5422 24.7414
34.5889 24.6687
34.6357 24.5345
34.6825 24.5237
34.7292 24.376
34.776 24.3225
34.8227 24.2904
34.8695 24.2143
34.9162 24.0939
34.9631 24.087
35.0098 24.1123
35.0566 23.9464
35.1033 23.8501
35.1502 23.7843
35.1969 23.7731
35.2438 23.7933
35.2906 23.7123
35.3375 23.604
35.3842 23.6025
35.4311 23.6184
35.4779 23.5536
35.5248 23.5133
35.5716 23.4479
35.6185 23.2956
35.6653 23.2137
35.7123 23.1313
35.759 23.0515
35.806 22.9958
35.8528 22.8146
35.8998 22.8313
35.9468 22.723
35.9936 22.6687
36.0406 22.6582
36.0874 22.6619
36.1345 22.4723
36.1813 22.4578
36.2283 22.3056
36.2752 22.2939
36.3222 22.3022
36.3691 22.1437
36.4161 22.0936
36.463 22.0671
36.5101 22.0276
36.557 22.0395
36.6041 21.8215
36.651 21.7753
36.6981 21.7333
36.745 21.6628
36.7921 21.562
36.839 21.5128
36.8861 21.4224
36.9331 21.3259
36.9802 21.3128
37.0272 21.1963
37.0743 21.123
37.1213 21.0963
37.1684 21.0302
37.2154 20.9257
37.2626 20.863
37.3098 20.8635
37.3568 20.7601
37.404 20.7313
37.451 20.6308
37.4982 20.5813
37.5452 20.5356
37.5924 20.4466
37.6395 20.4887
37.6867 20.3669
37.7337 20.3622
37.781 20.1351
37.8281 20.1396
37.8753 19.994
37.9224 19.9585
37.9697 19.9572
38.0168 19.8836
38.064 19.816
38.1111 19.7268
38.1584 19.7071
38.2056 19.6229
38.2529 19.5621
38.3 19.5035
38.3473 19.5074
38.3945 19.3463
38.4418 19.2526
38.489 19.3356
38.5363 19.2309
38.5837 19.1459
38.6309 19.0658
38.6782 18.9573
38.7254 18.9172
38.7728 18.8742
38.82 18.8259
38.8674 18.7174
38.9146 18.706
38.9621 18.6802
39.0093 18.645
39.0567 18.4946
39.104 18.4402
39.1514 18.3884
39.1987 18.3952
39.2461 18.2638
39.2934 18.2534
39.3409 18.1482
39.3882 18.1073
39.4356 18.0791
39.483 18.0195
39.5304 17.9587
39.5778 17.8994
39.6253 17.8469
39.6726 17.8068
39.7201 17.7701
39.7675 17.7184
39.815 17.592
39.8624 17.5569
39.9099 17.5216
39.9575 17.4175
40.0049 17.4042
40.0525 17.3158
40.0999 17.2888
40.1474 17.2323
40.1949 17.1346
40.2425 17.1338
40.2899 17.0559
40.3375 16.9626
40.385 16.9216
40.4326 16.8991
40.48 16.714
40.5277 16.7806
40.5752 16.7283
40.6228 16.6265
40.6703 16.6094
40.718 16.6329
40.7655 16.5691
40.8132 16.4169
40.8607 16.469
40.9084 16.3945
40.9559 16.3183
41.0036 16.3217
41.0512 16.2673
41.0989 16.2093
41.1465 16.087
41.1942 16.1341
41.242 15.9566
41.2896 15.9788
41.3373 15.911
41.3849 15.8833
41.4327 15.7796
41.4803 15.7252
41.5281 15.6772
41.5758 15.6112
41.6236 15.553
41.6712 15.4692
41.7191 15.4285
41.7667 15.4231
41.8146 15.3499
41.8622 15.3389
41.9101 15.3302
41.9578 15.1617
42.0057 15.1475
42.0534 15.1451
42.1013 15.1256
42.149 15.0345
42.1969 14.9733
42.2446 14.8647
42.2925 14.834
42.3403 14.8676
42.3882 14.7921
42.436 14.7925
42.4839 14.6748
42.5319 14.6414
42.5797 14.5981
42.6277 14.5295
42.6755 14.47
42.7235 14.3612
42.7713 14.3593
42.8193 14.3098
42.8671 14.2729
42.9152 14.2363
42.963 14.1673
43.0111 14.0992
43.0589 14.0806
43.107 13.976
43.1549 14.0098
43.2029 13.9418
43.2508 13.9402
43.2989 13.8641
43.3468 13.7454
43.3949 13.7015
43.4429 13.7077
43.491 13.6219
43.5389 13.6281
43.5871 13.5243
43.635 13.5002
43.6832 13.5113
43.7312 13.3973
43.7793 13.3412
43.8273 13.3474
43.8755 13.2693
43.9237 13.2339
43.9717 13.2112
44.0199 13.1659
44.068 13.119
44.1162 13.0298
44.1642 13.0381
44.2125 13.0179
44.2606 12.92
44.3088 12.8392
44.3569 12.8502
44.4052 12.7461
44.4533 12.7579
44.5016 12.6721
44.5497 12.6197
44.598 12.6335
44.6461 12.5022
44.6945 12.4529
44.7426 12.4871
44.791 12.4227
44.8391 12.3586
44.8875 12.3351
44.9357 12.3458
44.984 12.3011
45.0322 12.2076
45.0806 12.2094
45.1288 12.127
45.1773 12.0734
45.2257 12.0347
45.2739 11.9689
45.3224 11.9548
45.3706 11.9486
45.4191 11.8292
45.4673 11.853
45.5158 11.7862
45.5641 11.7285
45.6126 11.6889
45.6609 11.6041
45.7094 11.5709
45.7577 11.5519
45.8063 11.4813
45.8546 11.4991
45.9031 11.4467
45.9515 11.4458
46.0001 11.3692
46.0484 11.2866
46.097 11.3073
46.1454 11.2693
46.194 11.2324
46.2424 11.1591
46.291 11.1147
46.3395 11.0624
46.3881 11.0725
46.4365 11.0239
46.4852 10.9837
46.5337 10.9024
46.5823 10.9014
46.631 10.8652
46.6795 10.8283
46.7282 10.7913
46.7767 10.7346
46.8254 10.7295
46.8739 10.5982
46.9226 10.6006
46.9712 10.5334
47.0199 10.5329
47.0685 10.4688
47.1173 10.4617
47.1658 10.4151
47.2146 10.3665
47.2632 10.3676
47.312 10.2894
47.3606 10.2414
47.4095 10.1983
47.4581 10.1824
47.5069 10.1531
47.5556 10.0768
47.6044 10.0625
47.6531 10.046
47.702 10.007
47.7507 9.94974
47.7996 9.88979
47.8483 9.90735
47.8972 9.87445
47.9461 9.81417
47.9948 9.79513
48.0438 9.71956
48.0925 9.72724
48.1415 9.67565
48.1902 9.61339
48.2392 9.61532
48.288 9.59828
48.337 9.54943
48.3858 9.49295
48.4348 9.4726
48.4837 9.41832
48.5327 9.38545
48.5815 9.36454
48.6306 9.34943
48.6795 9.29269
48.7285 9.21657
48.7774 9.22798
48.8265 9.20765
48.8754 9.13464
48.9245 9.13045
48.9734 9.07246
49.0226 9.06492
49.0715 9.03908
49.1206 8.99238
49.1696 8.93708
49.2188 8.92169
49.2679 8.89652
49.3169 8.82995
49.3661 8.77302
49.4151 8.77866
49.4643 8.73791
49.5134 8.72663
49.5626 8.64896
49.6117 8.64979
49.6609 8.64405
49.71 8.60929
49.7592 8.57676
49.8083 8.49708
49.8576 8.47682
49.9067 8.43359
49.956 8.44455
50.0052 8.39491
50.0545 8.3666
50.1036 8.32618
50.153 8.27696
50.2022 8.26731
50.2515 8.25545
50.3007 8.23035
50.3501 8.15821
50.3993 8.12691
50.4487 8.09514
50.498 8.04926
50.5474 8.01752
50.5966 7.99143
50.6461 7.99179
50.6955 7.94344
50.7448 7.91738
50.7943 7.88861
50.8436 7.8345
50.8931 7.84713
50.9424 7.80134
50.9919 7.78506
51.0413 7.7249
51.0908 7.68495
51.1402 7.70053
51.1897 7.61213
51.2391 7.62381
51.2887 7.56713
51.3381 7.52403
51.3877 7.50282
51.4371 7.46874
51.4867 7.42651
51.5362 7.4171
51.5858 7.4054
51.6353 7.33792
51.6849 7.31411
51.7344 7.31529
51.7841 7.2769
51.8336 7.25557
51.8833 7.20734
51.9328 7.21691
51.9826 7.14189
52.0323 7.13124
52.0818 7.06136
52.1316 7.07016
52.1812 7.06239
52.231 6.98342
52.2806 6.96416
52.3304 6.98798
52.38 6.90965
52.4298 6.88972
52.4794 6.87329
52.5293 6.85122
52.5789 6.83032
52.6288 6.77698
52.6785 6.73894
52.7284 6.70944
52.7781 6.70153
52.828 6.66388
52.8777 6.62018
52.9276 6.65832
52.9774 6.59355
53.0273 6.61248
53.0771 6.53234
53.1271 6.51442
53.1769 6.43588
53.2269 6.46625
53.2767 6.41324
53.3267 6.39697
53.3765 6.33027
53.4266 6.33329
53.4766 6.30747
53.5265 6.28807
53.5765 6.2666
53.6264 6.23428
53.6765 6.23928
53.7264 6.17989
53.7765 6.18279
53.8265 6.104
53.8766 6.07098
53.9266 6.09923
53.9767 6.01512
54.0267 6.01056
54.0769 5.95144
54.1269 5.96382
54.1771 5.92387
54.2271 5.88758
54.2773 5.85669
54.3274 5.85705
54.3776 5.80539
54.4277 5.77368
54.478 5.74099
54.528 5.68565
54.5783 5.66258
54.6285 5.63797
54.6788 5.54971
54.7289 5.58861
54.7792 5.48781
54.8296 5.47186
54.8798 5.40766
54.9301 5.44893
54.9803 5.35099
55.0307 5.35648
55.0809 5.27516
55.1314 5.2383
55.1816 5.18479
55.232 5.14356
55.2823 5.11732
55.3328 5.02961
55.383 4.9739
55.4335 4.95515
55.4838 4.95215
55.5344 4.82688
55.5847 4.83777
55.6352 4.77944
55.6856 4.68935
55.7361 4.72675