File: XRD/Ni3Fe_FD0415.xy
TT I
1.27165 7.34388
1.31627 6.69943
1.36089 7.19294
1.40551 6.84509
1.45013 5.94581
1.49476 5.79892
1.53938 6.256
1.584 6.18303
1.62863 4.48399
1.67325 4.95971
1.71787 5.24016
1.7625 5.18443
1.80712 4.76385
1.85174 4.85504
1.89636 4.45267
1.94099 5.11179
1.98562 4.83025
2.03025 4.28441
2.07487 5.48012
2.11949 5.25843
2.16411 5.24406
2.20874 17.5445
2.25338 28.5945
2.298 6.00738
2.34263 5.11748
2.38725 5.62441
2.43188 5.38113
2.4765 5.95376
2.52115 6.30674
2.56577 6.57023
2.6104 7.00899
2.65503 7.52759
2.69965 7.69688
2.7443 7.63512
2.78893 7.49952
2.83356 8.16584
2.87818 8.39045
2.92281 8.19923
2.96744 9.92126
3.01209 10.4111
3.05672 11.4894
3.10135 12.5307
3.14599 13.0507
3.19062 14.0619
3.23527 14.7655
3.2799 16.0557
3.32454 17.0165
3.36917 18.0849
3.4138 19.1538
3.45844 20.1079
3.50309 21.0925
3.54773 22.5004
3.59237 24.9657
3.637 118.146
3.68164 72.901
3.7263 26.8944
3.77094 27.0307
3.81558 27.2385
3.86022 27.6995
3.90486 29.4712
3.9495 30.2155
3.99416 31.3412
4.0388 33.2682
4.08344 34.4793
4.12809 35.7046
4.17273 38.3816
4.21738 46.0147
4.26204 323.0
4.30669 284.08
4.35133 51.4791
4.39598 46.1558
4.44063 57.2721
4.4853 73.5693
4.52995 51.9509
4.5746 52.1187
4.61925 54.0666
4.6639 56.7507
4.70855 59.0574
4.75322 61.561
4.79788 64.9465
4.84253 68.3942
4.88719 72.635
4.93184 76.4581
4.97652 81.9047
5.02118 89.0541
5.06583 96.3628
5.11049 109.665
5.15515 201.317
5.19981 424.287
5.24449 2894.97
5.28916 11459.1
5.33382 3535.73
5.37848 223.227
5.42315 137.903
5.46783 118.566
5.5125 109.59
5.55716 104.19
5.60183 101.213
5.6465 99.3761
5.69117 96.5959
5.73586 94.2165
5.78053 93.5082
5.8252 93.6489
5.86988 94.0363
5.91455 97.5246
5.95924 106.414
6.00392 228.467
6.0486 1008.77
6.09328 3867.26
6.13795 3552.7
6.18263 312.583
6.22733 100.671
6.27201 86.973
6.3167 114.558
6.36138 86.206
6.40606 70.6575
6.45075 69.0579
6.49545 67.2757
6.54014 65.2037
6.58483 65.0195
6.62952 64.4689
6.67421 105.579
6.71892 177.241
6.76361 73.5971
6.8083 60.2209
6.853 58.9166
6.89769 58.7447
6.94239 58.2344
6.98711 57.3359
7.03181 56.7683
7.07651 56.8448
7.12121 56.2997
7.16591 56.8794
7.21063 57.448
7.25533 76.3579
7.30004 226.795
7.34475 107.409
7.38945 58.5058
7.43416 56.405
7.47889 55.6643
7.5236 55.8117
7.56831 56.8452
7.61303 58.8696
7.65774 59.9473
7.70247 57.306
7.74719 57.4904
7.79191 57.9196
7.83663 58.1149
7.88135 58.8124
7.92607 60.1387
7.97081 61.0649
8.01553 62.0433
8.06026 63.671
8.10498 65.2844
8.14971 77.9139
8.19446 75.8809
8.23919 70.7993
8.28392 73.0902
8.32865 75.4978
8.37339 79.8432
8.41812 87.8727
8.46288 124.92
8.50761 175.874
8.55235 400.083
8.59709 1063.08
8.64183 2072.0
8.68658 1128.86
8.73134 194.601
8.77609 104.354
8.82083 95.7281
8.86558 91.8869
8.91033 92.6315
8.9551 95.7258
8.99985 87.9166
9.04461 85.3259
9.08936 84.3803
9.13412 83.2015
9.17888 83.8341
9.22365 84.5128
9.26841 83.5894
9.31318 84.4002
9.35794 84.0676
9.4027 84.6783
9.44749 85.2912
9.49226 86.225
9.53703 87.2486
9.5818 89.0016
9.62657 94.7635
9.67134 103.557
9.71614 95.9075
9.76091 95.806
9.80569 98.2098
9.85047 102.162
9.89525 132.884
9.94005 148.934
9.98484 184.636
10.0296 355.537
10.0744 749.367
10.1192 1578.12
10.164 1773.19
10.2088 514.69
10.2536 141.35
10.2984 119.211
10.3432 122.0
10.388 108.184
10.4328 121.592
10.4776 163.628
10.5224 262.934
10.5672 471.921
10.612 530.468
10.6568 232.853
10.7017 102.207
10.7465 88.9849
10.7913 85.2259
10.8361 82.7285
10.8809 80.7738
10.9257 80.8884
10.9706 82.1718
11.0154 77.0723
11.0602 74.4841
11.105 73.6012
11.1499 79.7549
11.1947 90.379
11.2395 78.2737
11.2844 73.1971
11.3292 68.8829
11.374 67.7044
11.4189 67.4272
11.4637 66.6758
11.5086 67.2411
11.5534 71.6429
11.5983 67.5556
11.6431 65.155
11.688 64.3521
11.7328 64.4134
11.7777 64.4315
11.8225 63.7639
11.8674 63.809
11.9122 63.919
11.9571 64.3249
12.002 64.9469
12.0468 69.4424
12.0917 81.3861
12.1366 102.081
12.1814 141.737
12.2263 199.815
12.2712 184.574
12.3161 110.379
12.3609 74.9763
12.4058 66.762
12.4507 65.798
12.4956 66.0833
12.5405 66.0218
12.5853 67.2027
12.6302 77.5521
12.6751 85.2435
12.72 72.9184
12.7649 69.2774
12.8098 70.0298
12.8547 71.3444
12.8996 72.3495
12.9445 73.7367
12.9894 75.3035
13.0343 77.2396
13.0792 80.4322
13.1242 90.1546
13.1691 115.697
13.214 149.808
13.2589 222.54
13.3038 337.155
13.3487 431.955
13.3937 299.212
13.4386 138.673
13.4835 109.457
13.5285 123.778
13.5734 156.526
13.6183 226.903
13.6633 328.628
13.7082 363.268
13.7531 219.011
13.7981 106.624
13.843 84.3816
13.888 81.4727
13.9329 78.9663
13.9779 77.3469
14.0228 76.0057
14.0678 74.5933
14.1127 74.0496
14.1577 74.5551
14.2027 73.3817
14.2476 71.6491
14.2926 72.1423
14.3376 73.8988
14.3825 72.3495
14.4275 70.3786
14.4725 70.1596
14.5175 70.3303
14.5624 70.3016
14.6074 73.3035
14.6524 73.7068
14.6974 72.2459
14.7424 73.4866
14.7874 80.5655
14.8324 91.1981
14.8774 109.674
14.9224 143.996
14.9674 192.993
15.0124 222.566
15.0574 164.331
15.1024 100.224
15.1474 74.9528
15.1924 72.4675
15.2374 73.5464
15.2824 72.8471
15.3274 70.202
15.3725 68.4468
15.4175 67.8155
15.4625 67.5702
15.5076 67.8719
15.5526 67.8495
15.5976 67.5082
15.6426 68.1249
15.6877 74.0314
15.7327 81.8636
15.7778 94.6861
15.8228 119.649
15.8679 157.794
15.9129 193.033
15.958 171.523
16.003 108.038
16.0481 71.9876
16.0931 67.3932
16.1382 65.1052
16.1833 62.4052
16.2283 60.5131
16.2734 59.879
16.3185 60.3763
16.3636 61.6483
16.4086 59.9129
16.4537 57.6206
16.4988 56.6819
16.5439 56.6665
16.589 56.3743
16.6341 56.3858
16.6792 55.8802
16.7243 56.3739
16.7694 56.3198
16.8145 56.196
16.8596 56.5873
16.9047 58.9001
16.9498 59.0373
16.9949 57.2397
17.04 56.8031
17.0851 58.1905
17.1302 59.8145
17.1754 62.95
17.2205 66.8693
17.2656 73.1649
17.3108 81.1857
17.3559 83.4474
17.401 74.5066
17.4462 64.59
17.4913 60.7375
17.5365 60.499
17.5815 60.5922
17.6268 60.6391
17.6718 61.7623
17.7171 62.434
17.7622 62.5799
17.8074 63.2022
17.8525 65.303
17.8977 70.0442
17.9428 75.4683
17.9881 82.5982
18.0331 96.1531
18.0784 115.085
18.1237 136.591
18.1688 137.944
18.214 112.184
18.2591 89.6726
18.3044 89.1596
18.3495 97.487
18.3948 106.941
18.4399 101.661
18.4852 82.6217
18.5303 68.5626
18.5756 63.6279
18.6207 62.7797
18.666 61.7308
18.7112 61.223
18.7565 60.3256
18.8016 60.1717
18.8469 59.4086
18.892 58.993
18.9374 58.5755
18.9825 58.3987
19.0278 58.0619
19.073 58.3562
19.1183 58.9499
19.1635 59.9366
19.2088 60.849
19.254 62.8792
19.2993 66.2116
19.3447 72.3767
19.3898 77.5746
19.4352 75.3803
19.4804 66.6695
19.5257 59.0199
19.5709 55.7028
19.6163 55.1389
19.6615 54.9113
19.7068 54.4773
19.752 54.3955
19.7974 54.9111
19.8426 55.6592
19.888 56.4946
19.9332 57.3376
19.9786 59.5019
20.0238 62.3855
20.0692 66.9013
20.1144 70.6548
20.1598 70.665
20.205 65.7411
20.2504 63.0482
20.2957 63.6427
20.3411 66.3886
20.3863 66.2935
20.4318 61.0117
20.477 55.9763
20.5224 53.3208
20.5677 52.6457
20.6131 51.5775
20.6586 50.6891
20.7038 50.826
20.7493 50.1341
20.7945 50.0486
20.84 49.7611
20.8853 49.9296
20.9307 49.6782
20.976 49.8509
21.0215 49.6658
21.0668 49.9834
21.1122 50.4355
21.1575 50.9998
21.203 51.6914
21.2483 52.3504
21.2938 52.8282
21.3391 51.7675
21.3846 50.3399
21.4299 49.5141
21.4754 49.3829
21.5207 49.5779
21.5662 49.8867
21.6116 50.1491
21.6571 50.918
21.7024 51.9689
21.7479 53.489
21.7933 55.7688
21.8388 58.9072
21.8843 62.617
21.9297 65.5627
21.9752 65.7396
22.0206 61.8584
22.0661 58.0289
22.1115 56.8585
22.157 57.2435
22.2024 56.0758
22.248 53.2441
22.2933 51.4556
22.3389 50.468
22.3843 50.2578
22.4299 50.1952
22.4753 50.1355
22.5208 49.662
22.5662 49.4066
22.6118 49.5855
22.6572 50.1524
22.7028 50.287
22.7483 50.8444
22.7939 51.3538
22.8393 52.6393
22.8849 54.2259
22.9303 56.2677
22.9759 58.4465
23.0214 59.0961
23.067 56.7363
23.1126 52.9498
23.1581 50.5454
23.2037 50.2208
23.2492 50.0053
23.2948 50.1387
23.3403 50.2157
23.3859 50.8182
23.4314 51.5855
23.477 53.189
23.5225 54.7859
23.5682 57.1183
23.6137 58.9066
23.6593 57.9343
23.7048 53.7994
23.7505 49.9429
23.796 47.8997
23.8417 47.3033
23.8872 46.5845
23.9329 46.3062
23.9784 46.1174
24.0241 45.6927
24.0697 45.6216
24.1154 45.2801
24.1609 45.0608
24.2066 44.9223
24.2522 44.7926
24.2979 44.458
24.3434 44.3051
24.3892 44.0748
24.4349 44.1841
24.4805 43.7911
24.5262 44.045
24.5718 43.9156
24.6175 43.7414
24.6631 43.749
24.7089 43.5333
24.7545 43.5147
24.8002 43.3982
24.8458 43.1792
24.8916 43.002
24.9372 43.2178
24.983 43.468
25.0286 43.6925
25.0744 44.0096
25.12 44.4983
25.1658 45.201
25.2114 45.5496
25.2572 45.6782
25.3029 45.5769
25.3487 46.0156
25.3943 45.7363
25.4402 44.7007
25.4858 43.6816
25.5316 42.4957
25.5773 41.9802
25.6231 41.836
25.669 41.5605
25.7147 41.5349
25.7605 41.3937
25.8062 41.4803
25.8521 41.7326
25.8977 41.545
25.9436 41.7097
25.9893 41.7935
26.0352 42.2678
26.0809 42.1721
26.1268 42.7377
26.1725 42.4725
26.2184 41.8385
26.2641 41.2855
26.31 41.0832
26.3557 41.1604
26.4017 40.995
26.4474 41.2582
26.4933 41.615
26.5391 41.9114
26.585 42.3798
26.6308 42.8393
26.6767 43.0592
26.7225 43.0082
26.7684 42.4633
26.8142 41.8624
26.8601 41.4255
26.9059 41.0551
26.9519 40.4964
26.9979 40.2017
27.0437 39.8016
27.0896 39.627
27.1354 39.6724
27.1814 39.3597
27.2272 39.2728
27.2732 39.4015
27.3191 39.2209
27.3651 39.3272
27.4109 39.2757
27.4569 39.3852
27.5027 39.3507
27.5488 39.3862
27.5946 39.3381
27.6407 39.1044
27.6865 38.9809
27.7326 38.8527
27.7784 38.7861
27.8245 38.7516
27.8703 38.6724
27.9164 39.042
27.9623 39.1871
28.0084 39.4572
28.0543 39.9074
28.1003 39.7169
28.1462 39.7235
28.1923 39.3294
28.2384 38.7966
28.2843 38.4754
28.3304 38.1524
28.3764 37.7625
28.4225 37.3708
28.4684 37.0852
28.5145 36.8243
28.5605 36.7403
28.6066 36.5536
28.6526 36.4812
28.6987 36.4509
28.7447 36.3056
28.7908 36.2425
28.8368 36.2438
28.8829 36.2127
28.9289 36.2383
28.9751 36.1237
29.0211 35.7516
29.0673 35.5365
29.1133 35.3761
29.1595 35.1736
29.2055 35.188
29.2517 35.1452
29.2977 35.0661
29.3439 34.9976
29.3899 35.038
29.4361 34.8282
29.4824 34.8201
29.5284 34.6602
29.5746 34.2698
29.6207 33.9192
29.6669 33.8373
29.713 33.7521
29.7593 33.6528
29.8053 33.7388
29.8516 33.5104
29.8977 33.464
29.9439 33.3933
29.99 33.1998
30.0363 33.2471
30.0824 33.3479
30.1287 33.1078
30.1748 33.1798
30.2211 33.193
30.2673 33.0296
30.3136 33.1043
30.3597 32.9834
30.406 32.8554
30.4522 32.846
30.4985 32.6612
30.5447 32.8477
30.591 32.7751
30.6372 32.8595
30.6835 32.8607
30.7297 32.9021
30.7761 32.983
30.8224 32.7161
30.8686 32.6896
30.915 32.4042
30.9612 32.2815
31.0076 31.9874
31.0538 31.801
31.1002 31.7637
31.1464 31.6776
31.1928 31.6557
31.2391 31.6552
31.2855 31.5292
31.3317 31.678
31.3781 31.5451
31.4244 31.5323
31.4708 31.508
31.5171 31.4741
31.5636 31.4846
31.6098 31.2775
31.6563 31.0206
31.7026 30.8783
31.7491 30.7244
31.7953 30.8961
31.8418 30.8456
31.8881 30.7506
31.9346 30.6713
31.9809 30.7154
32.0275 30.6062
32.074 30.4335
32.1203 30.3245
32.1668 30.237
32.2132 30.1251
32.2597 29.8759
32.306 29.8574
32.3526 29.7012
32.399 29.638
32.4455 29.4667
32.4919 29.368
32.5385 29.2946
32.5848 29.113
32.6314 29.1939
32.6778 29.1078
32.7244 28.9986
32.7708 28.7831
32.8174 28.917
32.8638 28.6994
32.9104 28.7084
32.9569 28.6661
33.0035 28.438
33.0499 28.4462
33.0966 28.4391
33.143 28.4431
33.1897 28.3103
33.2361 28.2261
33.2828 28.2113
33.3293 28.089
33.3759 28.0447
33.4226 27.8595
33.4691 27.7281
33.5158 27.644
33.5623 27.4724
33.609 27.377
33.6555 27.3232
33.7022 27.2591
33.7487 27.2117
33.7954 27.0674
33.842 26.9191
33.8887 26.8849
33.9353 26.831
33.982 26.8155
34.0286 26.6597
34.0753 26.574
34.1219 26.5335
34.1687 26.3707
34.2152 26.3539
34.262 26.1907
34.3086 26.1772
34.3554 26.1448
34.402 25.9842
34.4488 25.9206
34.4954 25.8017
34.5422 25.7321
34.5889 25.6881
34.6357 25.6018
34.6825 25.5202
34.7292 25.3817
34.776 25.2461
34.8227 25.1926
34.8695 25.218
34.9162 25.0971
34.9631 25.1164
35.0098 25.0807
35.0566 24.9608
35.1033 24.8414
35.1502 24.8486
35.1969 24.704
35.2438 24.6996
35.2906 24.6803
35.3375 24.5718
35.3842 24.5168
35.4311 24.4865
35.4779 24.4817
35.5248 24.4533
35.5716 24.2907
35.6185 24.2227
35.6653 24.1764
35.7123 23.9998
35.759 23.9929
35.806 23.9284
35.8528 23.7794
35.8998 23.7091
35.9468 23.6499
35.9936 23.5719
36.0406 23.5264
36.0874 23.4866
36.1345 23.4784
36.1813 23.3393
36.2283 23.222
36.2752 23.1676
36.3222 23.0971
36.3691 23.0886
36.4161 22.978
36.463 22.9216
36.5101 22.9506
36.557 22.8174
36.6041 22.7343
36.651 22.6424
36.6981 22.6141
36.745 22.6032
36.7921 22.5016
36.839 22.4107
36.8861 22.3281
36.9331 22.2121
36.9802 22.2164
37.0272 22.0626
37.0743 22.0226
37.1213 21.9222
37.1684 21.9675
37.2154 21.8728
37.2626 21.8093
37.3098 21.7319
37.3568 21.6403
37.404 21.5678
37.451 21.4913
37.4982 21.4872
37.5452 21.2959
37.5924 21.2925
37.6395 21.2772
37.6867 21.1998
37.7337 21.0691
37.781 21.0238
37.8281 20.9928
37.8753 20.8843
37.9224 20.8072
37.9697 20.7838
38.0168 20.6877
38.064 20.5883
38.1111 20.5401
38.1584 20.4547
38.2056 20.43
38.2529 20.3305
38.3 20.2669
38.3473 20.3143
38.3945 20.1526
38.4418 20.0632
38.489 20.0904
38.5363 19.9551
38.5837 19.942
38.6309 19.8972
38.6782 19.781
38.7254 19.6733
38.7728 19.5999
38.82 19.5455
38.8674 19.5781
38.9146 19.4077
38.9621 19.3551
39.0093 19.4439
39.0567 19.2969
39.104 19.2904
39.1514 19.1649
39.1987 19.197
39.2461 19.0635
39.2934 18.9702
39.3409 18.8736
39.3882 18.8456
39.4356 18.8274
39.483 18.6877
39.5304 18.6651
39.5778 18.6105
39.6253 18.5886
39.6726 18.5216
39.7201 18.4901
39.7675 18.3329
39.815 18.3646
39.8624 18.2951
39.9099 18.2833
39.9575 18.1195
40.0049 18.1036
40.0525 18.0489
40.0999 17.9893
40.1474 17.925
40.1949 17.8466
40.2425 17.8295
40.2899 17.7892
40.3375 17.713
40.385 17.6036
40.4326 17.6663
40.48 17.5106
40.5277 17.5002
40.5752 17.4367
40.6228 17.3451
40.6703 17.2944
40.718 17.2389
40.7655 17.243
40.8132 17.1431
40.8607 17.099
40.9084 17.0265
40.9559 16.9906
41.0036 16.9302
41.0512 16.8722
41.0989 16.8342
41.1465 16.7651
41.1942 16.7208
41.242 16.6093
41.2896 16.597
41.3373 16.5127
41.3849 16.5341
41.4327 16.4121
41.4803 16.3701
41.5281 16.3314
41.5758 16.2807
41.6236 16.169
41.6712 16.0698
41.7191 16.0861
41.7667 16.1012
41.8146 16.0263
41.8622 15.9361
41.9101 15.9267
41.9578 15.7898
42.0057 15.8139
42.0534 15.7249
42.1013 15.6686
42.149 15.5975
42.1969 15.5867
42.2446 15.5547
42.2925 15.4337
42.3403 15.4351
42.3882 15.3535
42.436 15.3473
42.4839 15.2663
42.5319 15.2169
42.5797 15.1781
42.6277 15.1376
42.6755 15.0309
42.7235 14.9808
42.7713 14.9561
42.8193 14.8514
42.8671 14.8224
42.9152 14.8222
42.963 14.7664
43.0111 14.6971
43.0589 14.6832
43.107 14.5917
43.1549 14.5391
43.2029 14.5255
43.2508 14.4639
43.2989 14.4032
43.3468 14.3354
43.3949 14.309
43.4429 14.2806
43.491 14.232
43.5389 14.1673
43.5871 14.1334
43.635 14.0343
43.6832 14.0206
43.7312 13.9717
43.7793 13.9084
43.8273 13.8659
43.8755 13.7795
43.9237 13.7885
43.9717 13.7181
44.0199 13.6592
44.068 13.6513
44.1162 13.5661
44.1642 13.598
44.2125 13.4979
44.2606 13.4467
44.3088 13.4011
44.3569 13.3147
44.4052 13.3313
44.4533 13.2535
44.5016 13.221
44.5497 13.141
44.598 13.1055
44.6461 13.102
44.6945 13.0269
44.7426 12.9909
44.791 12.8846
44.8391 12.9058
44.8875 12.8597
44.9357 12.8237
44.984 12.7654
45.0322 12.6951
45.0806 12.6461
45.1288 12.6261
45.1773 12.5711
45.2257 12.5454
45.2739 12.4737
45.3224 12.4364
45.3706 12.3987
45.4191 12.3226
45.4673 12.3026
45.5158 12.3047
45.5641 12.208
45.6126 12.176
45.6609 12.1166
45.7094 12.0533
45.7577 12.0353
45.8063 11.974
45.8546 11.9773
45.9031 11.933
45.9515 11.9154
46.0001 11.8505
46.0484 11.7956
46.097 11.761
46.1454 11.7427
46.194 11.6988
46.2424 11.6361
46.291 11.5514
46.3395 11.5293
46.3881 11.5006
46.4365 11.4651
46.4852 11.4155
46.5337 11.3277
46.5823 11.3257
46.631 11.2677
46.6795 11.2427
46.7282 11.2101
46.7767 11.1524
46.8254 11.1367
46.8739 11.0903
46.9226 11.0366
46.9712 10.9839
47.0199 10.987
47.0685 10.9488
47.1173 10.8605
47.1658 10.8482
47.2146 10.7965
47.2632 10.7355
47.312 10.7149
47.3606 10.6756
47.4095 10.6172
47.4581 10.5998
47.5069 10.5422
47.5556 10.5404
47.6044 10.4817
47.6531 10.4176
47.702 10.376
47.7507 10.3614
47.7996 10.2722
47.8483 10.2967
47.8972 10.2801
47.9461 10.2281
47.9948 10.1926
48.0438 10.1242
48.0925 10.1018
48.1415 10.1236
48.1902 10.0611
48.2392 10.0141
48.288 9.97713
48.337 9.94865
48.3858 9.88474
48.4348 9.85121
48.4837 9.84593
48.5327 9.78245
48.5815 9.73077
48.6306 9.71754
48.6795 9.68507
48.7285 9.62613
48.7774 9.56059
48.8265 9.58344
48.8754 9.51892
48.9245 9.50708
48.9734 9.44432
49.0226 9.48124
49.0715 9.37445
49.1206 9.35647
49.1696 9.28072
49.2188 9.30309
49.2679 9.23492
49.3169 9.2189
49.3661 9.14989
49.4151 9.14608
49.4643 9.08883
49.5134 9.05967
49.5626 8.97914
49.6117 9.00014
49.6609 8.9679
49.71 8.94944
49.7592 8.8896
49.8083 8.87647
49.8576 8.84688
49.9067 8.82534
49.956 8.74808
50.0052 8.7507
50.0545 8.69742
50.1036 8.65489
50.153 8.64349
50.2022 8.61511
50.2515 8.5781
50.3007 8.51414
50.3501 8.4717
50.3993 8.45857
50.4487 8.44568
50.498 8.41985
50.5474 8.37406
50.5966 8.33731
50.6461 8.32548
50.6955 8.27665
50.7448 8.24027
50.7943 8.25146
50.8436 8.20707
50.8931 8.12314
50.9424 8.12081
50.9919 8.07231
51.0413 8.0931
51.0908 8.01699
51.1402 8.01348
51.1897 7.95843
51.2391 7.94507
51.2887 7.89046
51.3381 7.85168
51.3877 7.8062
51.4371 7.7855
51.4867 7.74325
51.5362 7.71334
51.5858 7.75915
51.6353 7.62951
51.6849 7.64135
51.7344 7.61196
51.7841 7.57811
51.8336 7.54287
51.8833 7.53555
51.9328 7.44681
51.9826 7.43136
52.0323 7.40509
52.0818 7.37255
52.1316 7.38371
52.1812 7.33663
52.231 7.25983
52.2806 7.26683
52.3304 7.22539
52.38 7.20215
52.4298 7.17736
52.4794 7.13198
52.5293 7.10707
52.5789 7.08773
52.6288 7.04818
52.6785 7.02221
52.7284 7.02462
52.7781 6.94198
52.828 6.91574
52.8777 6.8889
52.9276 6.88553
52.9774 6.85348
53.0273 6.79769
53.0771 6.79851
53.1271 6.80151
53.1769 6.74588
53.2269 6.72357
53.2767 6.65011
53.3267 6.6521
53.3765 6.6316
53.4266 6.57564
53.4766 6.55513
53.5265 6.53226
53.5765 6.52359
53.6264 6.50345
53.6765 6.47748
53.7264 6.40958
53.7765 6.42453
53.8265 6.37945
53.8766 6.34063
53.9266 6.32825
53.9767 6.29155
54.0267 6.28141
54.0769 6.23982
54.1269 6.23244
54.1771 6.18312
54.2271 6.13184
54.2773 6.12706
54.3274 6.08552
54.3776 6.02988
54.4277 5.94624
54.478 5.98577
54.528 5.94839
54.5783 5.85325
54.6285 5.86638
54.6788 5.78636
54.7289 5.76718
54.7792 5.70691
54.8296 5.66956
54.8798 5.65005
54.9301 5.58658
54.9803 5.55854
55.0307 5.56276
55.0809 5.52705
55.1314 5.51382
55.1816 5.41898
55.232 5.35361
55.2823 5.3281
55.3328 5.29239
55.383 5.22134
55.4335 5.18884
55.4838 5.10519
55.5344 5.10105
55.5847 5.01354
55.6352 5.00034
55.6856 4.95467
55.7361 4.95275