File: XRD/Ni3Fe_FD0956.xy
TT I
1.27165 7.20557
1.31627 6.97619
1.36089 6.72643
1.40551 6.09848
1.45013 6.08049
1.49476 6.06409
1.53938 5.79962
1.584 5.28717
1.62863 4.97202
1.67325 5.4649
1.71787 4.80769
1.7625 4.60792
1.80712 4.8833
1.85174 4.93354
1.89636 4.65422
1.94099 4.73421
1.98562 5.00693
2.03025 4.59637
2.07487 4.62004
2.11949 5.06972
2.16411 5.14222
2.20874 11.8579
2.25338 17.2634
2.298 5.78009
2.34263 5.85847
2.38725 6.13311
2.43188 6.86488
2.4765 7.06948
2.52115 7.17178
2.56577 8.13296
2.6104 9.00512
2.65503 8.91491
2.69965 8.62421
2.7443 8.38644
2.78893 8.44019
2.83356 8.80251
2.87818 8.61544
2.92281 9.21306
2.96744 10.015
3.01209 10.3536
3.05672 11.7067
3.10135 12.1075
3.14599 13.3728
3.19062 14.1586
3.23527 15.551
3.2799 15.7526
3.32454 16.6077
3.36917 17.7404
3.4138 18.8984
3.45844 20.1586
3.50309 20.3618
3.54773 21.5399
3.59237 23.8238
3.637 72.1811
3.68164 48.4066
3.7263 25.7706
3.77094 26.0642
3.81558 26.6111
3.86022 27.0871
3.90486 28.4007
3.9495 29.0549
3.99416 30.2708
4.0388 31.8411
4.08344 33.2343
4.12809 33.9058
4.17273 36.2233
4.21738 41.1259
4.26204 188.844
4.30669 163.871
4.35133 46.4399
4.39598 43.9026
4.44063 51.0236
4.4853 59.1719
4.52995 50.8314
4.5746 52.5451
4.61925 52.8837
4.6639 54.8596
4.70855 57.1294
4.75322 60.435
4.79788 64.4759
4.84253 66.4458
4.88719 71.4306
4.93184 74.489
4.97652 78.7793
5.02118 85.2971
5.06583 91.5734
5.11049 102.541
5.15515 157.72
5.19981 294.199
5.24449 2561.55
5.28916 13381.3
5.33382 2802.83
5.37848 178.425
5.42315 125.191
5.46783 112.286
5.5125 106.057
5.55716 100.027
5.60183 96.9513
5.6465 94.7574
5.69117 92.4605
5.73586 90.5381
5.78053 91.2659
5.8252 91.3147
5.86988 92.3401
5.91455 91.4949
5.95924 97.9802
6.00392 183.131
6.0486 847.993
6.09328 4534.93
6.13795 3094.43
6.18263 215.977
6.22733 88.4401
6.27201 79.9675
6.3167 92.3601
6.36138 76.3544
6.40606 68.4646
6.45075 66.9125
6.49545 64.1536
6.54014 63.048
6.58483 61.5473
6.62952 61.8218
6.67421 84.6617
6.71892 117.151
6.76361 65.3569
6.8083 57.8389
6.853 57.5323
6.89769 55.5857
6.94239 55.6954
6.98711 54.6969
7.03181 54.8246
7.07651 54.1885
7.12121 54.0687
7.16591 54.4713
7.21063 54.7404
7.25533 65.7926
7.30004 140.888
7.34475 79.3789
7.38945 55.4346
7.43416 53.4737
7.47889 53.4409
7.5236 53.7692
7.56831 54.5032
7.61303 55.7334
7.65774 56.1457
7.70247 55.7048
7.74719 55.2047
7.79191 55.7316
7.83663 55.8028
7.88135 56.7494
7.92607 57.7748
7.97081 58.8673
8.01553 59.9956
8.06026 61.4023
8.10498 62.7495
8.14971 70.6939
8.19446 70.2072
8.23919 68.3941
8.28392 70.3104
8.32865 72.9527
8.37339 76.6099
8.41812 82.7772
8.46288 104.44
8.50761 147.295
8.55235 349.027
8.59709 1177.7
8.64183 2228.16
8.68658 923.007
8.73134 156.2
8.77609 96.418
8.82083 90.7417
8.86558 88.9447
8.91033 88.9078
8.9551 89.0697
8.99985 83.8017
9.04461 82.3763
9.08936 82.1973
9.13412 80.9714
9.17888 80.6326
9.22365 81.0029
9.26841 81.0727
9.31318 81.9523
9.35794 82.6882
9.4027 82.6842
9.44749 83.1207
9.49226 83.4163
9.53703 84.4109
9.5818 86.1867
9.62657 90.8833
9.67134 95.04
9.71614 91.6241
9.76091 92.3849
9.80569 95.375
9.85047 98.4926
9.89525 116.215
9.94005 125.279
9.98484 162.356
10.0296 314.092
10.0744 795.858
10.1192 1788.24
10.164 1549.15
10.2088 362.234
10.2536 122.487
10.2984 109.404
10.3432 109.381
10.388 101.951
10.4328 112.892
10.4776 152.314
10.5224 278.316
10.5672 525.08
10.612 495.509
10.6568 192.504
10.7017 93.8694
10.7465 84.969
10.7913 81.8944
10.8361 79.7802
10.8809 77.4841
10.9257 76.6308
10.9706 76.9511
11.0154 73.8931
11.0602 71.4271
11.105 70.4905
11.1499 73.1196
11.1947 77.5811
11.2395 71.2822
11.2844 68.3652
11.3292 65.9857
11.374 64.9209
11.4189 64.3001
11.4637 63.8458
11.5086 64.0674
11.5534 65.6994
11.5983 63.8986
11.6431 62.5245
11.688 61.7375
11.7328 61.4994
11.7777 61.7671
11.8225 61.4202
11.8674 61.4426
11.9122 61.7811
11.9571 61.6113
12.002 62.0217
12.0468 65.6987
12.0917 75.7138
12.1366 100.345
12.1814 156.782
12.2263 203.577
12.2712 161.471
12.3161 92.9233
12.3609 67.923
12.4058 62.9658
12.4507 63.1292
12.4956 63.0959
12.5405 63.586
12.5853 64.3607
12.6302 70.0685
12.6751 73.4391
12.72 67.6933
12.7649 66.5638
12.8098 66.9228
12.8547 68.4969
12.8996 70.0154
12.9445 71.2199
12.9894 72.7691
13.0343 74.4926
13.0792 77.5453
13.1242 85.1632
13.1691 105.558
13.214 142.54
13.2589 239.689
13.3038 383.661
13.3487 421.1
13.3937 247.277
13.4386 118.868
13.4835 100.994
13.5285 114.778
13.5734 153.333
13.6183 252.911
13.6633 361.025
13.7082 323.545
13.7531 177.254
13.7981 95.0143
13.843 80.0259
13.888 78.0199
13.9329 75.6324
13.9779 74.3485
14.0228 73.0053
14.0678 71.7138
14.1127 71.2524
14.1577 70.8197
14.2027 70.1965
14.2476 68.939
14.2926 69.1084
14.3376 69.7906
14.3825 68.5462
14.4275 67.5528
14.4725 67.4478
14.5175 67.4415
14.5624 67.7565
14.6074 69.2263
14.6524 69.746
14.6974 69.158
14.7424 70.3974
14.7874 76.2496
14.8324 85.6707
14.8774 108.353
14.9224 156.19
14.9674 215.251
15.0124 216.11
15.0574 144.977
15.1024 87.206
15.1474 70.7268
15.1924 68.8423
15.2374 69.0405
15.2824 68.3649
15.3274 66.4816
15.3725 65.6327
15.4175 65.1698
15.4625 64.7606
15.5076 64.9477
15.5526 65.0152
15.5976 64.3953
15.6426 65.0891
15.6877 69.7247
15.7327 77.1577
15.7778 92.7115
15.8228 126.741
15.8679 174.826
15.9129 193.448
15.958 148.965
16.003 92.1861
16.0481 66.4693
16.0931 62.8004
16.1382 60.9305
16.1833 59.1185
16.2283 57.7191
16.2734 57.1361
16.3185 57.3888
16.3636 57.5008
16.4086 56.1203
16.4537 55.2294
16.4988 54.3887
16.5439 54.1875
16.589 54.0872
16.6341 53.91
16.6792 53.3249
16.7243 53.8486
16.7694 53.6483
16.8145 53.5701
16.8596 54.0187
16.9047 55.2068
16.9498 55.2103
16.9949 54.3579
17.04 54.611
17.0851 55.84
17.1302 57.2098
17.1754 60.2255
17.2205 65.8427
17.2656 74.7646
17.3108 82.7778
17.3559 79.7644
17.401 69.0952
17.4462 60.8669
17.4913 57.8857
17.5365 58.1361
17.5815 58.0695
17.6268 58.5131
17.6718 59.1834
17.7171 59.5316
17.7622 59.933
17.8074 60.6494
17.8525 62.6724
17.8977 66.4006
17.9428 71.4536
17.9881 80.6591
18.0331 99.4624
18.0784 122.678
18.1237 136.938
18.1688 125.279
18.214 99.366
18.2591 84.6237
18.3044 90.0976
18.3495 101.208
18.3948 104.704
18.4399 93.0376
18.4852 75.1256
18.5303 64.6211
18.5756 61.0504
18.6207 60.3076
18.666 59.4262
18.7112 58.3763
18.7565 57.7839
18.8016 57.6098
18.8469 57.0493
18.892 56.7523
18.9374 56.1248
18.9825 56.035
19.0278 55.6781
19.073 55.8942
19.1183 56.1154
19.1635 56.823
19.2088 58.1274
19.254 61.1454
19.2993 65.8361
19.3447 71.6018
19.3898 74.3371
19.4352 69.6747
19.4804 61.5631
19.5257 55.584
19.5709 53.213
19.6163 52.9263
19.6615 52.8422
19.7068 52.3679
19.752 52.3868
19.7974 52.5385
19.8426 53.0974
19.888 53.7906
19.9332 55.1747
19.9786 57.8021
20.0238 61.7817
20.0692 66.7866
20.1144 68.632
20.1598 66.3178
20.205 62.1196
20.2504 61.3937
20.2957 64.0424
20.3411 64.6221
20.3863 62.3667
20.4318 57.1066
20.477 52.6569
20.5224 50.554
20.5677 49.792
20.6131 49.1803
20.6586 48.7612
20.7038 48.6218
20.7493 48.1029
20.7945 48.0511
20.84 47.8811
20.8853 47.7751
20.9307 47.6529
20.976 47.9143
21.0215 47.6536
21.0668 47.9742
21.1122 48.5935
21.1575 49.4367
21.203 50.0128
21.2483 50.6016
21.2938 50.3097
21.3391 48.9574
21.3846 48.0348
21.4299 47.4769
21.4754 47.3777
21.5207 47.6954
21.5662 47.7735
21.6116 48.2117
21.6571 48.6456
21.7024 49.9934
21.7479 51.609
21.7933 54.6811
21.8388 58.4485
21.8843 62.3191
21.9297 63.3548
21.9752 61.419
22.0206 58.3257
22.0661 55.5774
22.1115 55.256
22.157 54.8857
22.2024 53.0712
22.248 50.4893
22.2933 48.9059
22.3389 48.1825
22.3843 48.0784
22.4299 47.9041
22.4753 47.7698
22.5208 47.7284
22.5662 47.6344
22.6118 47.7508
22.6572 47.7806
22.7028 48.5313
22.7483 48.8128
22.7939 49.376
22.8393 50.9331
22.8849 53.3756
22.9303 55.4269
22.9759 56.9341
23.0214 56.1512
23.067 53.198
23.1126 50.0754
23.1581 48.1806
23.2037 47.9426
23.2492 47.8192
23.2948 47.8685
23.3403 48.0763
23.3859 48.6505
23.4314 49.9874
23.477 51.9825
23.5225 54.5304
23.5682 56.3947
23.6137 56.9712
23.6593 54.3369
23.7048 50.3844
23.7505 47.4414
23.796 45.8884
23.8417 45.2162
23.8872 44.8013
23.9329 44.2922
23.9784 43.8825
24.0241 43.8882
24.0697 43.6327
24.1154 43.4382
24.1609 43.1782
24.2066 43.0746
24.2522 43.0061
24.2979 42.6355
24.3434 42.5559
24.3892 42.2663
24.4349 42.3979
24.4805 42.1521
24.5262 42.3891
24.5718 42.1445
24.6175 42.147
24.6631 42.0755
24.7089 41.7541
24.7545 41.6796
24.8002 41.5824
24.8458 41.464
24.8916 41.262
24.9372 41.4532
24.983 41.7992
25.0286 42.1003
25.0744 42.6965
25.12 43.0352
25.1658 43.6049
25.2114 43.8885
25.2572 44.1406
25.3029 44.292
25.3487 44.3268
25.3943 43.5486
25.4402 42.6197
25.4858 41.7342
25.5316 40.6782
25.5773 40.1894
25.6231 40.1745
25.669 39.7806
25.7147 39.7367
25.7605 39.7093
25.8062 39.7199
25.8521 39.7903
25.8977 39.8153
25.9436 40.0921
25.9893 40.3436
26.0352 40.6953
26.0809 40.8676
26.1268 40.9696
26.1725 40.7467
26.2184 39.8989
26.2641 39.6433
26.31 39.4857
26.3557 39.3227
26.4017 39.4338
26.4474 39.647
26.4933 39.9307
26.5391 40.569
26.585 41.0389
26.6308 41.4961
26.6767 41.4318
26.7225 41.3151
26.7684 40.785
26.8142 40.1629
26.8601 39.8099
26.9059 39.3673
26.9519 38.7409
26.9979 38.6174
27.0437 38.2711
27.0896 38.1274
27.1354 38.1092
27.1814 38.0303
27.2272 37.8203
27.2732 37.926
27.3191 37.6209
27.3651 37.7587
27.4109 37.6659
27.4569 37.9409
27.5027 37.8835
27.5488 37.7614
27.5946 37.6827
27.6407 37.5783
27.6865 37.3569
27.7326 37.1445
27.7784 37.2327
27.8245 37.0292
27.8703 37.3263
27.9164 37.6637
27.9623 37.8535
28.0084 38.1959
28.0543 38.5661
28.1003 38.3616
28.1462 38.1561
28.1923 37.8514
28.2384 37.2768
28.2843 36.9993
28.3304 36.4585
28.3764 36.0607
28.4225 35.7557
28.4684 35.6557
28.5145 35.3951
28.5605 35.2
28.6066 35.1108
28.6526 34.9978
28.6987 34.9774
28.7447 34.8943
28.7908 34.8341
28.8368 34.766
28.8829 34.8143
28.9289 34.7291
28.9751 34.4936
29.0211 34.3526
29.0673 34.1103
29.1133 33.9441
29.1595 33.773
29.2055 33.6492
29.2517 33.7815
29.2977 33.7162
29.3439 33.7084
29.3899 33.7251
29.4361 33.5156
29.4824 33.3502
29.5284 33.1204
29.5746 32.8121
29.6207 32.5748
29.6669 32.5868
29.713 32.4753
29.7593 32.3041
29.8053 32.3026
29.8516 32.1076
29.8977 32.1831
29.9439 32.0748
29.99 32.0045
30.0363 31.9541
30.0824 31.8573
30.1287 31.8886
30.1748 31.9013
30.2211 31.8325
30.2673 31.7481
30.3136 31.7569
30.3597 31.6565
30.406 31.8135
30.4522 31.61
30.4985 31.476
30.5447 31.6372
30.591 31.5793
30.6372 31.7505
30.6835 31.7355
30.7297 31.6565
30.7761 31.6391
30.8224 31.393
30.8686 31.2644
30.915 30.9917
30.9612 30.8798
31.0076 30.9194
31.0538 30.6262
31.1002 30.6406
31.1464 30.4687
31.1928 30.3832
31.2391 30.4074
31.2855 30.3067
31.3317 30.3735
31.3781 30.465
31.4244 30.3516
31.4708 30.3118
31.5171 30.2218
31.5636 30.1953
31.6098 29.9608
31.6563 29.8899
31.7026 29.6968
31.7491 29.5206
31.7953 29.6193
31.8418 29.6115
31.8881 29.6843
31.9346 29.5386
31.9809 29.5099
32.0275 29.3389
32.074 29.2657
32.1203 29.1008
32.1668 29.0064
32.2132 28.8321
32.2597 28.8133
32.306 28.6407
32.3526 28.4835
32.399 28.4466
32.4455 28.2936
32.4919 28.2616
32.5385 28.1452
32.5848 27.8651
32.6314 28.0131
32.6778 27.9363
32.7244 27.7627
32.7708 27.6602
32.8174 27.6524
32.8638 27.5302
32.9104 27.6523
32.9569 27.5254
33.0035 27.2539
33.0499 27.3646
33.0966 27.2908
33.143 27.2558
33.1897 27.31
33.2361 27.0954
33.2828 27.1609
33.3293 26.9417
33.3759 26.8363
33.4226 26.8027
33.4691 26.6481
33.5158 26.5805
33.5623 26.4901
33.609 26.271
33.6555 26.2063
33.7022 26.1149
33.7487 26.0312
33.7954 26.0282
33.842 25.859
33.8887 25.9059
33.9353 25.8438
33.982 25.6211
34.0286 25.6054
34.0753 25.5275
34.1219 25.4566
34.1687 25.35
34.2152 25.2696
34.262 25.2373
34.3086 25.1386
34.3554 25.1401
34.402 24.9826
34.4488 24.8737
34.4954 24.8145
34.5422 24.7987
34.5889 24.6333
34.6357 24.5216
34.6825 24.5307
34.7292 24.3813
34.776 24.3446
34.8227 24.2681
34.8695 24.1719
34.9162 24.1634
34.9631 24.0829
35.0098 24.1056
35.0566 23.9525
35.1033 23.837
35.1502 23.8331
35.1969 23.7895
35.2438 23.8016
35.2906 23.6929
35.3375 23.6503
35.3842 23.5986
35.4311 23.6114
35.4779 23.5667
35.5248 23.5149
35.5716 23.3025
35.6185 23.3536
35.6653 23.214
35.7123 23.1795
35.759 23.1023
35.806 22.892
35.8528 22.9069
35.8998 22.8161
35.9468 22.7213
35.9936 22.7284
36.0406 22.623
36.0874 22.5961
36.1345 22.4601
36.1813 22.4448
36.2283 22.3839
36.2752 22.273
36.3222 22.2101
36.3691 22.205
36.4161 22.0945
36.463 22.0524
36.5101 22.1115
36.557 21.9473
36.6041 21.834
36.651 21.8168
36.6981 21.7581
36.745 21.7197
36.7921 21.5934
36.839 21.5279
36.8861 21.4135
36.9331 21.3777
36.9802 21.3372
37.0272 21.2325
37.0743 21.1321
37.1213 21.0753
37.1684 21.0529
37.2154 20.9973
37.2626 20.8669
37.3098 20.8009
37.3568 20.7554
37.404 20.7178
37.451 20.5809
37.4982 20.5344
37.5452 20.4758
37.5924 20.5178
37.6395 20.5289
37.6867 20.3256
37.7337 20.2623
37.781 20.1541
37.8281 20.1745
37.8753 20.0053
37.9224 19.9835
37.9697 19.965
38.0168 19.8864
38.064 19.7486
38.1111 19.7168
38.1584 19.656
38.2056 19.6011
38.2529 19.5077
38.3 19.4942
38.3473 19.5331
38.3945 19.3378
38.4418 19.3167
38.489 19.2989
38.5363 19.1939
38.5837 19.0852
38.6309 19.0966
38.6782 19.0466
38.7254 18.9261
38.7728 18.9552
38.82 18.8625
38.8674 18.7434
38.9146 18.689
38.9621 18.6877
39.0093 18.6413
39.0567 18.4973
39.104 18.5101
39.1514 18.3232
39.1987 18.3226
39.2461 18.3624
39.2934 18.3391
39.3409 18.1385
39.3882 18.0916
39.4356 18.0618
39.483 18.0364
39.5304 17.9637
39.5778 17.9259
39.6253 17.8184
39.6726 17.7418
39.7201 17.7795
39.7675 17.7037
39.815 17.6592
39.8624 17.5474
39.9099 17.5872
39.9575 17.4508
40.0049 17.3725
40.0525 17.3494
40.0999 17.2881
40.1474 17.2344
40.1949 17.1792
40.2425 17.0859
40.2899 17.0544
40.3375 17.0636
40.385 16.9525
40.4326 16.8956
40.48 16.8179
40.5277 16.8123
40.5752 16.779
40.6228 16.6594
40.6703 16.6456
40.718 16.5859
40.7655 16.5339
40.8132 16.4552
40.8607 16.4744
40.9084 16.3828
40.9559 16.3449
41.0036 16.2817
41.0512 16.2462
41.0989 16.1804
41.1465 16.1127
41.1942 16.0181
41.242 15.9834
41.2896 15.958
41.3373 15.9012
41.3849 15.8555
41.4327 15.8274
41.4803 15.7313
41.5281 15.6928
41.5758 15.6666
41.6236 15.5662
41.6712 15.4737
41.7191 15.5072
41.7667 15.44
41.8146 15.3695
41.8622 15.3116
41.9101 15.3208
41.9578 15.1424
42.0057 15.1861
42.0534 15.1286
42.1013 15.0771
42.149 15.0051
42.1969 14.9658
42.2446 14.8878
42.2925 14.8977
42.3403 14.82
42.3882 14.7971
42.436 14.7573
42.4839 14.6685
42.5319 14.5643
42.5797 14.5574
42.6277 14.5183
42.6755 14.49
42.7235 14.416
42.7713 14.3708
42.8193 14.3223
42.8671 14.2889
42.9152 14.2272
42.963 14.2137
43.0111 14.1118
43.0589 14.1044
43.107 14.0488
43.1549 14.026
43.2029 13.8758
43.2508 13.8507
43.2989 13.8371
43.3468 13.7874
43.3949 13.77
43.4429 13.6977
43.491 13.612
43.5389 13.6165
43.5871 13.5454
43.635 13.4933
43.6832 13.496
43.7312 13.4298
43.7793 13.3887
43.8273 13.3471
43.8755 13.2765
43.9237 13.2494
43.9717 13.1859
44.0199 13.171
44.068 13.1504
44.1162 13.0605
44.1642 13.0471
44.2125 13.0184
44.2606 12.932
44.3088 12.8772
44.3569 12.8347
44.4052 12.7741
44.4533 12.7261
44.5016 12.6724
44.5497 12.7036
44.598 12.5795
44.6461 12.6073
44.6945 12.5123
44.7426 12.517
44.791 12.4109
44.8391 12.3956
44.8875 12.3448
44.9357 12.3125
44.984 12.2782
45.0322 12.262
45.0806 12.1698
45.1288 12.0764
45.1773 12.071
45.2257 12.0519
45.2739 11.9701
45.3224 11.9613
45.3706 11.9348
45.4191 11.8751
45.4673 11.8667
45.5158 11.835
45.5641 11.7245
45.6126 11.7141
45.6609 11.6422
45.7094 11.5897
45.7577 11.5612
45.8063 11.538
45.8546 11.521
45.9031 11.4607
45.9515 11.3797
46.0001 11.3728
46.0484 11.3202
46.097 11.2798
46.1454 11.2941
46.194 11.2216
46.2424 11.1529
46.291 11.1194
46.3395 11.0937
46.3881 11.0726
46.4365 11.0019
46.4852 10.9703
46.5337 10.941
46.5823 10.9227
46.631 10.8229
46.6795 10.8059
46.7282 10.8138
46.7767 10.7577
46.8254 10.6753
46.8739 10.6312
46.9226 10.6274
46.9712 10.5498
47.0199 10.5032
47.0685 10.4679
47.1173 10.4486
47.1658 10.4306
47.2146 10.3747
47.2632 10.3353
47.312 10.3197
47.3606 10.3175
47.4095 10.232
47.4581 10.2147
47.5069 10.1576
47.5556 10.108
47.6044 10.0871
47.6531 10.0666
47.702 9.98421
47.7507 9.93642
47.7996 9.88839
47.8483 9.89072
47.8972 9.86492
47.9461 9.82573
47.9948 9.79329
48.0438 9.7487
48.0925 9.69047
48.1415 9.67798
48.1902 9.61266
48.2392 9.63313
48.288 9.5693
48.337 9.56594
48.3858 9.4877
48.4348 9.50289
48.4837 9.48934
48.5327 9.40751
48.5815 9.37643
48.6306 9.36516
48.6795 9.33002
48.7285 9.23511
48.7774 9.25443
48.8265 9.21888
48.8754 9.15575
48.9245 9.12121
48.9734 9.10137
49.0226 9.08902
49.0715 9.05915
49.1206 8.97071
49.1696 8.94423
49.2188 8.90137
49.2679 8.8728
49.3169 8.87444
49.3661 8.8456
49.4151 8.78598
49.4643 8.77068
49.5134 8.74438
49.5626 8.70591
49.6117 8.64499
49.6609 8.61801
49.71 8.58947
49.7592 8.57695
49.8083 8.51542
49.8576 8.47266
49.9067 8.44118
49.956 8.41688
50.0052 8.39906
50.0545 8.39511
50.1036 8.31191
50.153 8.29748
50.2022 8.26061
50.2515 8.24983
50.3007 8.16633
50.3501 8.1406
50.3993 8.14833
50.4487 8.10881
50.498 8.06861
50.5474 8.03771
50.5966 7.99545
50.6461 7.99742
50.6955 7.98743
50.7448 7.9241
50.7943 7.87772
50.8436 7.87116
50.8931 7.83861
50.9424 7.81402
50.9919 7.7712
51.0413 7.73619
51.0908 7.72166
51.1402 7.68348
51.1897 7.64122
51.2391 7.61705
51.2887 7.5547
51.3381 7.57489
51.3877 7.53808
51.4371 7.48664
51.4867 7.45247
51.5362 7.43445
51.5858 7.38059
51.6353 7.38177
51.6849 7.31618
51.7344 7.31404
51.7841 7.26001
51.8336 7.24617
51.8833 7.24997
51.9328 7.20944
51.9826 7.12339
52.0323 7.09267
52.0818 7.10737
52.1316 7.08292
52.1812 7.02953
52.231 7.00509
52.2806 6.96906
52.3304 6.96084
52.38 6.93647
52.4298 6.85612
52.4794 6.86412
52.5293 6.7782
52.5789 6.80637
52.6288 6.79405
52.6785 6.73714
52.7284 6.73482
52.7781 6.71328
52.828 6.66551
52.8777 6.64838
52.9276 6.63928
52.9774 6.59753
53.0273 6.5871
53.0771 6.51421
53.1271 6.53458
53.1769 6.45953
53.2269 6.46513
53.2767 6.40164
53.3267 6.38289
53.3765 6.34007
53.4266 6.35976
53.4766 6.32857
53.5265 6.27253
53.5765 6.25134
53.6264 6.24629
53.6765 6.23562
53.7264 6.1719
53.7765 6.14959
53.8265 6.15059
53.8766 6.09659
53.9266 6.08196
53.9767 6.03924
54.0267 6.01072
54.0769 5.99377
54.1269 5.9714
54.1771 5.90797
54.2271 5.88517
54.2773 5.82726
54.3274 5.84921
54.3776 5.78814
54.4277 5.76688
54.478 5.77582
54.528 5.67091
54.5783 5.66435
54.6285 5.6498
54.6788 5.58803
54.7289 5.51715
54.7792 5.52897
54.8296 5.46378
54.8798 5.41911
54.9301 5.39136
54.9803 5.32956
55.0307 5.30984
55.0809 5.29083
55.1314 5.22533
55.1816 5.17187
55.232 5.17685
55.2823 5.0818
55.3328 5.04034
55.383 5.00272
55.4335 4.96942
55.4838 4.8945
55.5344 4.8641
55.5847 4.81789
55.6352 4.7661
55.6856 4.78841
55.7361 4.72683