File: XRD/Ni3Fe_FD0592.xy
TT I
1.27165 7.35831
1.31627 6.46504
1.36089 5.88488
1.40551 6.07208
1.45013 5.79654
1.49476 6.15031
1.53938 5.63722
1.584 5.97455
1.62863 5.13349
1.67325 4.60899
1.71787 4.824
1.7625 5.12019
1.80712 4.56683
1.85174 4.04059
1.89636 4.77253
1.94099 5.03077
1.98562 4.92767
2.03025 4.69052
2.07487 4.65827
2.11949 4.76428
2.16411 4.7897
2.20874 9.18002
2.25338 11.8253
2.298 5.22298
2.34263 5.46018
2.38725 5.70381
2.43188 5.95579
2.4765 7.13742
2.52115 6.79086
2.56577 6.94624
2.6104 7.96684
2.65503 7.52649
2.69965 7.94709
2.7443 7.89832
2.78893 8.42189
2.83356 7.94234
2.87818 9.04656
2.92281 8.58179
2.96744 9.65627
3.01209 10.3469
3.05672 11.0147
3.10135 12.1834
3.14599 13.0202
3.19062 14.095
3.23527 15.2355
3.2799 15.7836
3.32454 16.5054
3.36917 17.9684
3.4138 19.2817
3.45844 19.0072
3.50309 20.4755
3.54773 21.6239
3.59237 23.4286
3.637 51.8137
3.68164 37.9185
3.7263 25.6212
3.77094 25.7666
3.81558 26.5313
3.86022 27.3436
3.90486 28.6779
3.9495 29.3741
3.99416 30.7678
4.0388 32.1063
4.08344 33.4885
4.12809 34.2711
4.17273 36.0622
4.21738 40.1299
4.26204 128.275
4.30669 109.24
4.35133 44.5958
4.39598 43.6869
4.44063 49.049
4.4853 55.4151
4.52995 54.1472
4.5746 55.5325
4.61925 54.1256
4.6639 55.9499
4.70855 58.4012
4.75322 61.9613
4.79788 67.3979
4.84253 69.1082
4.88719 75.0033
4.93184 77.1796
4.97652 81.7974
5.02118 89.01
5.06583 97.1232
5.11049 109.35
5.15515 161.919
5.19981 481.455
5.24449 3249.23
5.28916 12418.1
5.33382 2766.47
5.37848 202.21
5.42315 133.214
5.46783 119.561
5.5125 111.7
5.55716 103.873
5.60183 98.9966
5.6465 97.4347
5.69117 95.8734
5.73586 94.1966
5.78053 97.8147
5.8252 97.169
5.86988 99.5177
5.91455 97.3088
5.95924 109.258
6.00392 275.581
6.0486 1106.93
6.09328 4361.53
6.13795 3277.56
6.18263 237.232
6.22733 93.1883
6.27201 82.0875
6.3167 86.0241
6.36138 75.5415
6.40606 70.1356
6.45075 69.0389
6.49545 65.8269
6.54014 64.115
6.58483 63.1581
6.62952 62.7418
6.67421 74.8755
6.71892 94.0556
6.76361 63.0145
6.8083 59.0599
6.853 59.2881
6.89769 57.0681
6.94239 55.888
6.98711 55.7473
7.03181 55.9357
7.07651 55.2648
7.12121 55.3728
7.16591 56.0714
7.21063 55.4413
7.25533 61.2555
7.30004 104.574
7.34475 69.3257
7.38945 55.3824
7.43416 54.2402
7.47889 54.2899
7.5236 54.6203
7.56831 55.0707
7.61303 55.928
7.65774 56.4604
7.70247 57.2508
7.74719 56.7376
7.79191 57.0738
7.83663 57.0958
7.88135 58.2566
7.92607 59.1903
7.97081 59.9704
8.01553 61.4091
8.06026 62.8196
8.10498 64.5417
8.14971 70.8526
8.19446 71.1258
8.23919 70.1586
8.28392 72.3677
8.32865 74.8683
8.37339 79.3766
8.41812 85.2184
8.46288 106.848
8.50761 198.622
8.55235 438.631
8.59709 1265.47
8.64183 2200.11
8.68658 921.74
8.73134 158.132
8.77609 99.5987
8.82083 93.5298
8.86558 92.5081
8.91033 92.3577
8.9551 89.9878
8.99985 85.9811
9.04461 84.425
9.08936 84.9724
9.13412 83.6351
9.17888 82.7662
9.22365 83.0208
9.26841 82.7234
9.31318 85.1757
9.35794 85.9567
9.4027 85.4849
9.44749 85.5922
9.49226 85.6691
9.53703 86.5983
9.5818 89.7551
9.62657 93.4289
9.67134 95.8254
9.71614 93.573
9.76091 95.7797
9.80569 99.6794
9.85047 102.215
9.89525 114.456
9.94005 132.22
9.98484 210.576
10.0296 383.112
10.0744 874.972
10.1192 1739.22
10.164 1538.94
10.2088 365.979
10.2536 124.549
10.2984 111.08
10.3432 109.995
10.388 107.111
10.4328 127.579
10.4776 172.137
10.5224 299.227
10.5672 516.122
10.612 474.624
10.6568 187.724
10.7017 95.5235
10.7465 87.0259
10.7913 83.7582
10.8361 81.669
10.8809 79.4181
10.9257 78.2586
10.9706 78.4677
11.0154 75.6109
11.0602 73.0147
11.105 72.123
11.1499 72.8025
11.1947 75.1117
11.2395 70.9083
11.2844 69.0956
11.3292 67.4052
11.374 66.6128
11.4189 66.2543
11.4637 65.4065
11.5086 64.9728
11.5534 65.7727
11.5983 64.6336
11.6431 63.72
11.688 63.2716
11.7328 63.1638
11.7777 63.2493
11.8225 62.8979
11.8674 62.9951
11.9122 63.1776
11.9571 63.5311
12.002 65.0696
12.0468 70.6348
12.0917 81.6941
12.1366 106.69
12.1814 157.132
12.2263 204.123
12.2712 161.587
12.3161 90.0167
12.3609 67.5925
12.4058 64.6513
12.4507 64.8745
12.4956 64.8777
12.5405 64.9146
12.5853 65.717
12.6302 68.8958
12.6751 71.8824
12.72 68.726
12.7649 68.1173
12.8098 69.117
12.8547 70.2546
12.8996 71.9908
12.9445 73.3929
12.9894 75.1129
13.0343 76.8172
13.0792 81.5579
13.1242 95.9775
13.1691 117.732
13.214 158.078
13.2589 254.408
13.3038 376.795
13.3487 419.747
13.3937 249.71
13.4386 121.304
13.4835 111.051
13.5285 126.889
13.5734 169.209
13.6183 255.286
13.6633 350.892
13.7082 327.689
13.7531 179.503
13.7981 96.5534
13.843 82.5557
13.888 80.0442
13.9329 77.8392
13.9779 76.4249
14.0228 74.9396
14.0678 73.5388
14.1127 73.0951
14.1577 72.2197
14.2027 71.7574
14.2476 70.8873
14.2926 70.5646
14.3376 70.792
14.3825 70.2556
14.4275 69.7223
14.4725 69.2285
14.5175 69.6453
14.5624 69.6005
14.6074 70.6087
14.6524 71.2646
14.6974 71.3881
14.7424 75.2724
14.7874 82.1808
14.8324 92.9283
14.8774 116.609
14.9224 159.402
14.9674 209.758
15.0124 213.177
15.0574 144.056
15.1024 88.2195
15.1474 72.6019
15.1924 70.7218
15.2374 70.2747
15.2824 69.4928
15.3274 68.0904
15.3725 67.3617
15.4175 66.9534
15.4625 66.3572
15.5076 66.3324
15.5526 66.4638
15.5976 66.7028
15.6426 69.3531
15.6877 75.0057
15.7327 82.8841
15.7778 99.7732
15.8228 131.657
15.8679 173.039
15.9129 191.848
15.958 149.243
16.003 92.3737
16.0481 66.9298
16.0931 63.551
16.1382 62.0219
16.1833 60.6063
16.2283 59.3598
16.2734 58.5604
16.3185 58.3357
16.3636 58.302
16.4086 57.03
16.4537 56.2808
16.4988 55.6793
16.5439 55.742
16.589 55.4255
16.6341 55.1387
16.6792 54.8179
16.7243 55.0451
16.7694 55.3491
16.8145 55.0159
16.8596 55.1745
16.9047 56.193
16.9498 56.4534
16.9949 55.8828
17.04 56.6507
17.0851 57.8895
17.1302 59.4058
17.1754 62.6629
17.2205 68.1012
17.2656 75.4408
17.3108 82.7828
17.3559 81.7218
17.401 70.9343
17.4462 62.2473
17.4913 59.8775
17.5365 59.4699
17.5815 59.7226
17.6268 59.9012
17.6718 60.8994
17.7171 61.1922
17.7622 61.968
17.8074 63.2812
17.8525 66.3826
17.8977 69.9333
17.9428 75.7092
17.9881 85.5304
18.0331 103.291
18.0784 123.816
18.1237 141.612
18.1688 131.202
18.214 102.301
18.2591 87.464
18.3044 92.1448
18.3495 101.44
18.3948 105.977
18.4399 95.0357
18.4852 76.6978
18.5303 65.7513
18.5756 62.4348
18.6207 61.5754
18.666 60.5013
18.7112 59.8859
18.7565 59.2763
18.8016 59.0584
18.8469 58.4012
18.892 58.1066
18.9374 57.4752
18.9825 57.4525
19.0278 57.1595
19.073 57.4257
19.1183 58.1223
19.1635 58.5343
19.2088 60.1131
19.254 63.1286
19.2993 67.4988
19.3447 72.9839
19.3898 75.8392
19.4352 71.6413
19.4804 62.9008
19.5257 56.7219
19.5709 54.5742
19.6163 54.2882
19.6615 54.0683
19.7068 53.5385
19.752 53.95
19.7974 54.0753
19.8426 54.954
19.888 55.4344
19.9332 57.1165
19.9786 59.8611
20.0238 63.3247
20.0692 67.8985
20.1144 70.2465
20.1598 68.1852
20.205 63.7264
20.2504 62.5511
20.2957 64.4461
20.3411 65.7239
20.3863 63.9792
20.4318 58.2277
20.477 53.3265
20.5224 51.5316
20.5677 50.9986
20.6131 50.5325
20.6586 49.9061
20.7038 49.9973
20.7493 49.3951
20.7945 49.1949
20.84 49.0835
20.8853 49.0544
20.9307 48.95
20.976 49.0534
21.0215 49.039
21.0668 49.3453
21.1122 49.923
21.1575 50.4738
21.203 51.1169
21.2483 51.7944
21.2938 51.7527
21.3391 50.3613
21.3846 49.2332
21.4299 48.7437
21.4754 48.7897
21.5207 48.9033
21.5662 49.4726
21.6116 49.8501
21.6571 50.6687
21.7024 51.7082
21.7479 53.4917
21.7933 56.3589
21.8388 59.6595
21.8843 63.1523
21.9297 65.0051
21.9752 63.1788
22.0206 59.5068
22.0661 56.8404
22.1115 56.324
22.157 56.1934
22.2024 54.277
22.248 51.4871
22.2933 49.936
22.3389 49.3308
22.3843 49.0651
22.4299 49.0718
22.4753 49.2426
22.5208 48.7981
22.5662 48.7696
22.6118 49.3014
22.6572 49.3611
22.7028 49.7292
22.7483 50.2614
22.7939 50.9901
22.8393 52.6353
22.8849 54.5675
22.9303 56.5352
22.9759 58.2061
23.0214 57.305
23.067 54.401
23.1126 50.9877
23.1581 49.4229
23.2037 49.1082
23.2492 49.3752
23.2948 49.194
23.3403 49.7343
23.3859 50.4064
23.4314 51.5093
23.477 53.3224
23.5225 55.3194
23.5682 57.2244
23.6137 58.1511
23.6593 55.5165
23.7048 51.4252
23.7505 48.2393
23.796 46.8337
23.8417 46.2568
23.8872 45.8508
23.9329 45.4466
23.9784 45.0124
24.0241 44.8457
24.0697 44.7089
24.1154 44.4015
24.1609 44.1456
24.2066 44.0819
24.2522 44.0365
24.2979 43.6343
24.3434 43.5867
24.3892 43.4636
24.4349 43.2779
24.4805 43.168
24.5262 43.4489
24.5718 43.1441
24.6175 42.9842
24.6631 43.055
24.7089 42.7155
24.7545 42.661
24.8002 42.4995
24.8458 42.6573
24.8916 42.4429
24.9372 42.4562
24.983 42.9799
25.0286 43.2346
25.0744 43.6995
25.12 44.2105
25.1658 44.6897
25.2114 45.186
25.2572 45.0109
25.3029 45.0707
25.3487 45.2919
25.3943 44.8536
25.4402 43.5575
25.4858 42.6205
25.5316 41.5892
25.5773 41.2581
25.6231 41.0659
25.669 40.7158
25.7147 40.8081
25.7605 40.7155
25.8062 40.6932
25.8521 40.8437
25.8977 40.7989
25.9436 41.2388
25.9893 41.2071
26.0352 41.774
26.0809 41.7646
26.1268 42.151
26.1725 41.6811
26.2184 40.8821
26.2641 40.6991
26.31 40.4102
26.3557 40.328
26.4017 40.3433
26.4474 40.7706
26.4933 41.1487
26.5391 41.6289
26.585 41.9562
26.6308 42.2648
26.6767 42.4011
26.7225 42.2797
26.7684 41.5763
26.8142 41.0003
26.8601 40.7248
26.9059 40.2189
26.9519 39.7353
26.9979 39.441
27.0437 39.0483
27.0896 39.0415
27.1354 39.0889
27.1814 38.897
27.2272 38.754
27.2732 38.8945
27.3191 38.5393
27.3651 38.7736
27.4109 38.5814
27.4569 38.7973
27.5027 38.8641
27.5488 38.8529
27.5946 38.5002
27.6407 38.5066
27.6865 38.357
27.7326 38.1005
27.7784 38.2535
27.8245 38.1851
27.8703 38.2749
27.9164 38.6363
27.9623 38.6663
28.0084 39.0186
28.0543 39.4778
28.1003 39.2488
28.1462 38.9297
28.1923 38.6979
28.2384 38.0759
28.2843 37.747
28.3304 37.3007
28.3764 36.8743
28.4225 36.5121
28.4684 36.5554
28.5145 36.1706
28.5605 36.0826
28.6066 35.6913
28.6526 35.8691
28.6987 35.9499
28.7447 35.7988
28.7908 35.7086
28.8368 35.664
28.8829 35.5935
28.9289 35.6133
28.9751 35.3627
29.0211 35.2205
29.0673 34.9037
29.1133 34.7136
29.1595 34.6405
29.2055 34.5255
29.2517 34.554
29.2977 34.4042
29.3439 34.4866
29.3899 34.5018
29.4361 34.3081
29.4824 34.1001
29.5284 33.9027
29.5746 33.6651
29.6207 33.3177
29.6669 33.2258
29.713 33.1946
29.7593 32.9978
29.8053 33.0297
29.8516 33.0378
29.8977 33.0386
29.9439 32.7906
29.99 32.7544
30.0363 32.6402
30.0824 32.657
30.1287 32.6153
30.1748 32.5709
30.2211 32.5961
30.2673 32.4931
30.3136 32.639
30.3597 32.5811
30.406 32.4154
30.4522 32.3211
30.4985 32.2286
30.5447 32.3441
30.591 32.3515
30.6372 32.4063
30.6835 32.3753
30.7297 32.4057
30.7761 32.3
30.8224 32.1964
30.8686 32.0736
30.915 31.7462
30.9612 31.6056
31.0076 31.4409
31.0538 31.3258
31.1002 31.1798
31.1464 31.2085
31.1928 31.1499
31.2391 31.2001
31.2855 31.0759
31.3317 31.051
31.3781 31.0813
31.4244 31.0809
31.4708 31.009
31.5171 31.0053
31.5636 30.9771
31.6098 30.6262
31.6563 30.5757
31.7026 30.4559
31.7491 30.3086
31.7953 30.46
31.8418 30.3637
31.8881 30.4107
31.9346 30.2618
31.9809 30.1354
32.0275 30.0394
32.074 29.9494
32.1203 29.7399
32.1668 29.7007
32.2132 29.5054
32.2597 29.5003
32.306 29.3849
32.3526 29.1487
32.399 29.1799
32.4455 28.928
32.4919 28.8409
32.5385 28.9044
32.5848 28.7909
32.6314 28.6436
32.6778 28.5507
32.7244 28.6345
32.7708 28.398
32.8174 28.3047
32.8638 28.1586
32.9104 28.156
32.9569 28.1725
33.0035 28.0318
33.0499 28.0119
33.0966 27.9449
33.143 28.0243
33.1897 27.8531
33.2361 27.7489
33.2828 27.7428
33.3293 27.5583
33.3759 27.5228
33.4226 27.4042
33.4691 27.2348
33.5158 27.1968
33.5623 27.1554
33.609 26.8381
33.6555 26.8229
33.7022 26.7676
33.7487 26.6535
33.7954 26.6261
33.842 26.5466
33.8887 26.4692
33.9353 26.459
33.982 26.2444
34.0286 26.2168
34.0753 26.189
34.1219 25.9518
34.1687 26.0034
34.2152 25.9337
34.262 25.7874
34.3086 25.7381
34.3554 25.7372
34.402 25.5288
34.4488 25.4924
34.4954 25.4519
34.5422 25.3361
34.5889 25.1269
34.6357 25.0827
34.6825 25.0307
34.7292 24.9678
34.776 24.8292
34.8227 24.8
34.8695 24.6992
34.9162 24.7171
34.9631 24.6458
35.0098 24.6575
35.0566 24.5313
35.1033 24.4271
35.1502 24.4056
35.1969 24.3109
35.2438 24.3411
35.2906 24.2522
35.3375 24.18
35.3842 24.12
35.4311 24.1032
35.4779 24.1124
35.5248 23.9337
35.5716 23.8895
35.6185 23.942
35.6653 23.7645
35.7123 23.6479
35.759 23.5679
35.806 23.5835
35.8528 23.4189
35.8998 23.4041
35.9468 23.2179
35.9936 23.2497
36.0406 23.091
36.0874 23.1027
36.1345 23.0738
36.1813 22.9766
36.2283 22.9167
36.2752 22.7528
36.3222 22.7621
36.3691 22.7238
36.4161 22.5432
36.463 22.581
36.5101 22.5449
36.557 22.5254
36.6041 22.3112
36.651 22.2482
36.6981 22.2383
36.745 22.2094
36.7921 22.0709
36.839 22.0103
36.8861 21.961
36.9331 21.8691
36.9802 21.7944
37.0272 21.7352
37.0743 21.571
37.1213 21.6637
37.1684 21.4635
37.2154 21.5024
37.2626 21.4114
37.3098 21.3338
37.3568 21.2749
37.404 21.2352
37.451 21.1396
37.4982 21.0667
37.5452 20.9257
37.5924 20.9276
37.6395 20.944
37.6867 20.8384
37.7337 20.7075
37.781 20.6764
37.8281 20.5851
37.8753 20.5301
37.9224 20.4915
37.9697 20.3904
38.0168 20.3059
38.064 20.3149
38.1111 20.143
38.1584 20.1147
38.2056 20.0003
38.2529 20.0252
38.3 19.9582
38.3473 19.9627
38.3945 19.7843
38.4418 19.8184
38.489 19.7218
38.5363 19.6383
38.5837 19.5351
38.6309 19.526
38.6782 19.3813
38.7254 19.3163
38.7728 19.3013
38.82 19.2752
38.8674 19.1767
38.9146 19.1127
38.9621 19.0623
39.0093 19.0486
39.0567 18.9969
39.104 18.893
39.1514 18.7817
39.1987 18.7552
39.2461 18.7767
39.2934 18.6827
39.3409 18.5826
39.3882 18.5547
39.4356 18.4348
39.483 18.4038
39.5304 18.2915
39.5778 18.3035
39.6253 18.2093
39.6726 18.1759
39.7201 18.2373
39.7675 18.0349
39.815 18.0189
39.8624 17.9139
39.9099 17.9454
39.9575 17.8516
40.0049 17.7884
40.0525 17.7502
40.0999 17.6455
40.1474 17.5858
40.1949 17.5196
40.2425 17.4752
40.2899 17.4788
40.3375 17.4351
40.385 17.3277
40.4326 17.2995
40.48 17.2515
40.5277 17.1991
40.5752 17.115
40.6228 17.0348
40.6703 17.0307
40.718 16.9186
40.7655 16.8723
40.8132 16.8164
40.8607 16.811
40.9084 16.7862
40.9559 16.6875
41.0036 16.5821
41.0512 16.6037
41.0989 16.6016
41.1465 16.4483
41.1942 16.4628
41.242 16.3721
41.2896 16.3085
41.3373 16.2886
41.3849 16.2089
41.4327 16.1471
41.4803 16.0917
41.5281 16.0342
41.5758 16.0076
41.6236 15.9204
41.6712 15.8468
41.7191 15.7877
41.7667 15.7538
41.8146 15.6723
41.8622 15.6891
41.9101 15.6055
41.9578 15.5323
42.0057 15.5039
42.0534 15.4069
42.1013 15.476
42.149 15.284
42.1969 15.345
42.2446 15.2227
42.2925 15.2663
42.3403 15.1657
42.3882 15.0919
42.436 15.0615
42.4839 14.9954
42.5319 14.9161
42.5797 14.899
42.6277 14.8477
42.6755 14.8019
42.7235 14.718
42.7713 14.701
42.8193 14.6426
42.8671 14.6003
42.9152 14.6245
42.963 14.5211
43.0111 14.4483
43.0589 14.4468
43.107 14.3165
43.1549 14.2979
43.2029 14.2493
43.2508 14.2063
43.2989 14.1406
43.3468 14.0495
43.3949 14.0323
43.4429 13.9646
43.491 13.9471
43.5389 13.9171
43.5871 13.8338
43.635 13.7572
43.6832 13.791
43.7312 13.6831
43.7793 13.6659
43.8273 13.5971
43.8755 13.5589
43.9237 13.5183
43.9717 13.5075
44.0199 13.4214
44.068 13.4204
44.1162 13.3365
44.1642 13.3057
44.2125 13.2516
44.2606 13.1883
44.3088 13.1601
44.3569 13.1143
44.4052 13.1022
44.4533 13.0483
44.5016 12.9549
44.5497 12.9484
44.598 12.8909
44.6461 12.8641
44.6945 12.819
44.7426 12.7306
44.791 12.6801
44.8391 12.6488
44.8875 12.6097
44.9357 12.6103
44.984 12.476
45.0322 12.4674
45.0806 12.3931
45.1288 12.3878
45.1773 12.3557
45.2257 12.2881
45.2739 12.2864
45.3224 12.1922
45.3706 12.2146
45.4191 12.0913
45.4673 12.1252
45.5158 12.0365
45.5641 11.9757
45.6126 11.9541
45.6609 11.8768
45.7094 11.8679
45.7577 11.8063
45.8063 11.7668
45.8546 11.7608
45.9031 11.7279
45.9515 11.6673
46.0001 11.584
46.0484 11.6104
46.097 11.5457
46.1454 11.5333
46.194 11.4471
46.2424 11.4331
46.291 11.3867
46.3395 11.3221
46.3881 11.2998
46.4365 11.2521
46.4852 11.2409
46.5337 11.1741
46.5823 11.1688
46.631 11.1024
46.6795 11.0509
46.7282 11.0171
46.7767 10.9549
46.8254 10.9401
46.8739 10.8862
46.9226 10.8317
46.9712 10.7906
47.0199 10.7773
47.0685 10.7069
47.1173 10.6572
47.1658 10.6555
47.2146 10.6283
47.2632 10.5584
47.312 10.5367
47.3606 10.5008
47.4095 10.4378
47.4581 10.4119
47.5069 10.3857
47.5556 10.3422
47.6044 10.2636
47.6531 10.247
47.702 10.1794
47.7507 10.1815
47.7996 10.1215
47.8483 10.0926
47.8972 10.0916
47.9461 10.0549
47.9948 9.96328
48.0438 9.97804
48.0925 9.9503
48.1415 9.90103
48.1902 9.80571
48.2392 9.8369
48.288 9.83357
48.337 9.75093
48.3858 9.73152
48.4348 9.69579
48.4837 9.69445
48.5327 9.66641
48.5815 9.58877
48.6306 9.56186
48.6795 9.51481
48.7285 9.44507
48.7774 9.43084
48.8265 9.40943
48.8754 9.33496
48.9245 9.36095
48.9734 9.31171
49.0226 9.2736
49.0715 9.2221
49.1206 9.15082
49.1696 9.1375
49.2188 9.14146
49.2679 9.07504
49.3169 9.05253
49.3661 8.99588
49.4151 8.97971
49.4643 8.96085
49.5134 8.92746
49.5626 8.88579
49.6117 8.85212
49.6609 8.81747
49.71 8.76555
49.7592 8.75613
49.8083 8.69462
49.8576 8.70941
49.9067 8.63342
49.956 8.61226
50.0052 8.56382
50.0545 8.51142
50.1036 8.49167
50.153 8.49204
50.2022 8.40539
50.2515 8.43085
50.3007 8.38153
50.3501 8.35255
50.3993 8.3186
50.4487 8.31564
50.498 8.24588
50.5474 8.21425
50.5966 8.22175
50.6461 8.126
50.6955 8.1209
50.7448 8.10507
50.7943 8.06067
50.8436 8.02056
50.8931 8.01776
50.9424 7.97191
50.9919 7.90265
51.0413 7.89756
51.0908 7.85744
51.1402 7.83107
51.1897 7.82381
51.2391 7.77466
51.2887 7.76084
51.3381 7.72823
51.3877 7.70023
51.4371 7.63016
51.4867 7.60005
51.5362 7.57552
51.5858 7.54042
51.6353 7.52019
51.6849 7.5052
51.7344 7.47181
51.7841 7.44435
51.8336 7.39388
51.8833 7.39321
51.9328 7.31353
51.9826 7.28732
52.0323 7.29259
52.0818 7.26786
52.1316 7.24354
52.1812 7.21363
52.231 7.17859
52.2806 7.1416
52.3304 7.13446
52.38 7.06734
52.4298 7.04856
52.4794 6.98739
52.5293 6.9974
52.5789 6.9588
52.6288 6.92367
52.6785 6.85597
52.7284 6.87095
52.7781 6.84611
52.828 6.79569
52.8777 6.74488
52.9276 6.75765
52.9774 6.73548
53.0273 6.72068
53.0771 6.67564
53.1271 6.60493
53.1769 6.60741
53.2269 6.57505
53.2767 6.52291
53.3267 6.51424
53.3765 6.48951
53.4266 6.50239
53.4766 6.46167
53.5265 6.41449
53.5765 6.39888
53.6264 6.35907
53.6765 6.34299
53.7264 6.29887
53.7765 6.29805
53.8265 6.25087
53.8766 6.25567
53.9266 6.21372
53.9767 6.15614
54.0267 6.15309
54.0769 6.12254
54.1269 6.0989
54.1771 6.03794
54.2271 6.05097
54.2773 6.02984
54.3274 5.9533
54.3776 5.91352
54.4277 5.92452
54.478 5.87971
54.528 5.82776
54.5783 5.85188
54.6285 5.78205
54.6788 5.75442
54.7289 5.65045
54.7792 5.59162
54.8296 5.57539
54.8798 5.52829
54.9301 5.49504
54.9803 5.44755
55.0307 5.47197
55.0809 5.40102
55.1314 5.37049
55.1816 5.28898
55.232 5.26342
55.2823 5.20687
55.3328 5.17442
55.383 5.10512
55.4335 5.08112
55.4838 5.02547
55.5344 4.96375
55.5847 4.92882
55.6352 4.93984
55.6856 4.91504
55.7361 4.84722