File: XRD/Ni3Fe_FD0815.xy
TT I
1.27165 7.05047
1.31627 6.47982
1.36089 6.33365
1.40551 6.07681
1.45013 6.39605
1.49476 5.50212
1.53938 5.32106
1.584 5.37673
1.62863 4.84002
1.67325 5.17311
1.71787 5.41642
1.7625 4.75327
1.80712 4.43903
1.85174 4.25137
1.89636 4.58621
1.94099 5.02849
1.98562 4.74682
2.03025 3.96522
2.07487 4.20786
2.11949 4.98221
2.16411 4.65302
2.20874 8.29837
2.25338 11.4041
2.298 5.54096
2.34263 5.26468
2.38725 5.41476
2.43188 6.33028
2.4765 6.65215
2.52115 7.30456
2.56577 7.21208
2.6104 7.95475
2.65503 8.51343
2.69965 7.87369
2.7443 8.58609
2.78893 8.27089
2.83356 8.34204
2.87818 9.18113
2.92281 8.38104
2.96744 9.50423
3.01209 10.8924
3.05672 11.0017
3.10135 12.2062
3.14599 12.9964
3.19062 14.4612
3.23527 14.9662
3.2799 15.4398
3.32454 16.4441
3.36917 17.4607
3.4138 19.1073
3.45844 18.9273
3.50309 20.5251
3.54773 21.1607
3.59237 22.7761
3.637 49.3921
3.68164 36.9727
3.7263 25.3332
3.77094 25.4723
3.81558 26.3193
3.86022 26.7918
3.90486 28.6471
3.9495 29.2335
3.99416 30.684
4.0388 31.7943
4.08344 33.1527
4.12809 34.2382
4.17273 35.7144
4.21738 38.839
4.26204 120.704
4.30669 106.963
4.35133 43.6823
4.39598 43.034
4.44063 48.2846
4.4853 53.5231
4.52995 57.1391
4.5746 57.5996
4.61925 53.2636
4.6639 54.9472
4.70855 57.974
4.75322 61.3314
4.79788 68.023
4.84253 68.4405
4.88719 74.9657
4.93184 76.6153
4.97652 80.7158
5.02118 86.8353
5.06583 94.2921
5.11049 105.83
5.15515 156.138
5.19981 399.324
5.24449 2884.79
5.28916 12487.0
5.33382 2468.57
5.37848 190.993
5.42315 129.653
5.46783 118.391
5.5125 111.818
5.55716 101.556
5.60183 97.2887
5.6465 95.2685
5.69117 93.3861
5.73586 92.4159
5.78053 97.2012
5.8252 97.5075
5.86988 100.435
5.91455 94.6659
5.95924 103.873
6.00392 239.303
6.0486 964.985
6.09328 4602.28
6.13795 2997.92
6.18263 206.566
6.22733 89.2286
6.27201 79.6178
6.3167 83.8966
6.36138 73.7217
6.40606 69.4148
6.45075 69.1492
6.49545 64.5005
6.54014 63.0062
6.58483 62.2948
6.62952 62.4309
6.67421 72.9626
6.71892 89.466
6.76361 61.7465
6.8083 59.1694
6.853 59.6381
6.89769 56.4301
6.94239 55.5071
6.98711 54.8965
7.03181 55.6128
7.07651 54.1958
7.12121 54.1023
7.16591 55.6041
7.21063 55.1759
7.25533 60.1382
7.30004 100.577
7.34475 67.8743
7.38945 54.3554
7.43416 53.2501
7.47889 53.5232
7.5236 53.939
7.56831 54.1675
7.61303 55.1289
7.65774 55.8053
7.70247 56.3927
7.74719 55.8937
7.79191 55.9118
7.83663 56.0059
7.88135 57.2527
7.92607 58.3022
7.97081 59.1143
8.01553 60.29
8.06026 62.1023
8.10498 63.6197
8.14971 70.8303
8.19446 70.0906
8.23919 68.8418
8.28392 70.9426
8.32865 73.5058
8.37339 77.9906
8.41812 83.1261
8.46288 102.567
8.50761 176.715
8.55235 382.164
8.59709 1221.61
8.64183 2196.61
8.68658 837.676
8.73134 146.833
8.77609 97.0345
8.82083 91.7943
8.86558 91.8265
8.91033 91.6731
8.9551 88.9155
8.99985 84.8771
9.04461 83.4274
9.08936 83.9343
9.13412 82.5238
9.17888 81.4263
9.22365 81.6317
9.26841 81.2347
9.31318 84.3109
9.35794 86.0064
9.4027 85.4141
9.44749 84.8951
9.49226 84.3336
9.53703 85.5569
9.5818 88.702
9.62657 93.8233
9.67134 94.7173
9.71614 92.1775
9.76091 94.3727
9.80569 98.8383
9.85047 100.669
9.89525 111.523
9.94005 126.321
9.98484 189.73
10.0296 343.199
10.0744 837.436
10.1192 1824.54
10.164 1512.37
10.2088 347.394
10.2536 119.72
10.2984 108.54
10.3432 107.118
10.388 104.653
10.4328 121.407
10.4776 162.533
10.5224 294.195
10.5672 537.958
10.612 487.247
10.6568 183.978
10.7017 93.9252
10.7465 85.2229
10.7913 82.3682
10.8361 80.4239
10.8809 78.24
10.9257 77.47
10.9706 77.7008
11.0154 74.7941
11.0602 72.3278
11.105 70.893
11.1499 71.6776
11.1947 73.4601
11.2395 70.0452
11.2844 67.7167
11.3292 66.006
11.374 65.6286
11.4189 64.969
11.4637 64.0034
11.5086 64.1008
11.5534 64.5668
11.5983 63.4697
11.6431 62.9815
11.688 61.7772
11.7328 62.3084
11.7777 61.8975
11.8225 61.8685
11.8674 61.9027
11.9122 62.2291
11.9571 62.396
12.002 63.7335
12.0468 68.2641
12.0917 77.9768
12.1366 102.744
12.1814 160.247
12.2263 216.241
12.2712 164.904
12.3161 86.8768
12.3609 66.1178
12.4058 63.4051
12.4507 63.4803
12.4956 64.2545
12.5405 64.5846
12.5853 64.4857
12.6302 67.4802
12.6751 70.5249
12.72 67.4683
12.7649 66.8669
12.8098 67.9033
12.8547 69.0322
12.8996 70.5999
12.9445 72.4374
12.9894 73.9849
13.0343 75.4838
13.0792 79.709
13.1242 91.9424
13.1691 111.211
13.214 149.173
13.2589 248.786
13.3038 393.156
13.3487 413.13
13.3937 235.02
13.4386 117.649
13.4835 105.931
13.5285 119.765
13.5734 161.354
13.6183 258.913
13.6633 364.048
13.7082 328.058
13.7531 169.761
13.7981 93.1718
13.843 80.655
13.888 79.0412
13.9329 76.4284
13.9779 74.9725
14.0228 73.593
14.0678 72.2416
14.1127 71.7706
14.1577 71.1786
14.2027 70.6998
14.2476 69.6736
14.2926 69.5691
14.3376 69.6628
14.3825 69.0913
14.4275 68.4229
14.4725 68.1369
14.5175 68.2863
14.5624 68.268
14.6074 69.2997
14.6524 69.7962
14.6974 70.1655
14.7424 73.4179
14.7874 79.1046
14.8324 88.8613
14.8774 111.854
14.9224 160.341
14.9674 218.533
15.0124 220.013
15.0574 140.39
15.1024 85.6463
15.1474 71.1694
15.1924 69.5834
15.2374 68.6967
15.2824 68.2716
15.3274 66.685
15.3725 66.0607
15.4175 65.5687
15.4625 64.978
15.5076 65.1793
15.5526 65.1873
15.5976 65.661
15.6426 67.7364
15.6877 72.4818
15.7327 79.4923
15.7778 95.5976
15.8228 129.978
15.8679 177.314
15.9129 197.095
15.958 145.952
16.003 88.6321
16.0481 65.7405
16.0931 62.2899
16.1382 61.0239
16.1833 59.5568
16.2283 58.2824
16.2734 57.6294
16.3185 57.3795
16.3636 57.1417
16.4086 56.3053
16.4537 55.3334
16.4988 54.8001
16.5439 54.8081
16.589 54.476
16.6341 54.0833
16.6792 53.7364
16.7243 54.1825
16.7694 54.1019
16.8145 54.0629
16.8596 54.2718
16.9047 55.0315
16.9498 55.0802
16.9949 54.764
17.04 55.3544
17.0851 56.7704
17.1302 58.2273
17.1754 61.2672
17.2205 66.8564
17.2656 75.3433
17.3108 84.2016
17.3559 80.856
17.401 68.2919
17.4462 60.5973
17.4913 58.6085
17.5365 58.6037
17.5815 58.674
17.6268 58.9185
17.6718 59.5094
17.7171 60.0557
17.7622 60.6782
17.8074 61.9815
17.8525 64.5676
17.8977 67.7437
17.9428 73.1599
17.9881 82.4364
18.0331 101.74
18.0784 125.586
18.1237 141.286
18.1688 126.504
18.214 98.4219
18.2591 84.8334
18.3044 91.2771
18.3495 101.932
18.3948 105.188
18.4399 91.725
18.4852 73.8979
18.5303 64.4223
18.5756 61.2776
18.6207 60.4647
18.666 59.6534
18.7112 59.0003
18.7565 58.3242
18.8016 58.2545
18.8469 57.4145
18.892 57.1228
18.9374 56.4666
18.9825 56.3442
19.0278 56.2869
19.073 56.4287
19.1183 56.6463
19.1635 57.1556
19.2088 58.6733
19.254 61.937
19.2993 66.6757
19.3447 72.6748
19.3898 75.6846
19.4352 69.9992
19.4804 60.8184
19.5257 55.3212
19.5709 53.5143
19.6163 53.1443
19.6615 53.0372
19.7068 52.6482
19.752 52.7211
19.7974 53.1595
19.8426 53.8024
19.888 54.3568
19.9332 55.8332
19.9786 58.475
20.0238 62.7139
20.0692 67.7891
20.1144 69.8025
20.1598 66.9557
20.205 62.2727
20.2504 61.689
20.2957 64.0103
20.3411 65.3412
20.3863 62.5662
20.4318 56.7037
20.477 52.4493
20.5224 50.4764
20.5677 50.0465
20.6131 49.566
20.6586 49.0741
20.7038 49.0274
20.7493 48.6418
20.7945 48.3615
20.84 48.3426
20.8853 48.1499
20.9307 48.0217
20.976 48.3992
21.0215 48.0442
21.0668 48.4493
21.1122 48.8675
21.1575 49.629
21.203 50.603
21.2483 51.0906
21.2938 51.0037
21.3391 49.3411
21.3846 48.327
21.4299 47.7539
21.4754 47.944
21.5207 48.0311
21.5662 48.4662
21.6116 49.0367
21.6571 49.4006
21.7024 50.41
21.7479 52.1869
21.7933 55.1952
21.8388 59.1859
21.8843 62.9348
21.9297 63.992
21.9752 61.8221
22.0206 57.7921
22.0661 55.862
22.1115 55.8019
22.157 55.2758
22.2024 53.1869
22.248 50.2949
22.2933 49.0873
22.3389 48.5144
22.3843 48.2732
22.4299 48.0044
22.4753 48.1256
22.5208 48.094
22.5662 47.803
22.6118 48.1833
22.6572 48.4127
22.7028 48.5774
22.7483 49.2958
22.7939 49.9437
22.8393 51.6982
22.8849 53.9642
22.9303 56.239
22.9759 57.6337
23.0214 56.411
23.067 53.2505
23.1126 50.2116
23.1581 48.3198
23.2037 48.2894
23.2492 48.2977
23.2948 48.3115
23.3403 48.5497
23.3859 49.4412
23.4314 50.4621
23.477 52.3986
23.5225 54.8674
23.5682 56.9303
23.6137 57.3508
23.6593 54.4648
23.7048 50.2379
23.7505 47.4297
23.796 46.0218
23.8417 45.6114
23.8872 44.9682
23.9329 44.7626
23.9784 44.555
24.0241 44.1399
24.0697 43.8792
24.1154 43.6003
24.1609 43.5333
24.2066 43.2325
24.2522 43.2553
24.2979 42.9175
24.3434 42.7981
24.3892 42.6934
24.4349 42.6351
24.4805 42.3771
24.5262 42.6777
24.5718 42.5704
24.6175 42.4312
24.6631 42.3435
24.7089 41.9664
24.7545 41.9269
24.8002 41.7699
24.8458 41.6745
24.8916 41.6224
24.9372 41.803
24.983 42.1396
25.0286 42.5137
25.0744 42.8151
25.12 43.4028
25.1658 43.9891
25.2114 44.2656
25.2572 44.3599
25.3029 44.5312
25.3487 44.4613
25.3943 44.0747
25.4402 42.7589
25.4858 41.7169
25.5316 40.9266
25.5773 40.458
25.6231 40.3908
25.669 40.0516
25.7147 40.0474
25.7605 40.1118
25.8062 40.0434
25.8521 40.1171
25.8977 40.2422
25.9436 40.351
25.9893 40.5395
26.0352 41.1642
26.0809 41.2794
26.1268 41.2181
26.1725 40.9617
26.2184 40.2755
26.2641 39.9777
26.31 39.5326
26.3557 39.7616
26.4017 39.7715
26.4474 40.1751
26.4933 40.3731
26.5391 40.9252
26.585 41.4806
26.6308 41.8048
26.6767 41.7356
26.7225 41.4005
26.7684 40.948
26.8142 40.4255
26.8601 40.0221
26.9059 39.5761
26.9519 38.9994
26.9979 38.6901
27.0437 38.5716
27.0896 38.4262
27.1354 38.4532
27.1814 38.1885
27.2272 38.2275
27.2732 38.2108
27.3191 37.9117
27.3651 38.0375
27.4109 38.0335
27.4569 38.1659
27.5027 38.1672
27.5488 38.2238
27.5946 38.0136
27.6407 37.7008
27.6865 37.6377
27.7326 37.538
27.7784 37.3852
27.8245 37.3731
27.8703 37.6757
27.9164 37.968
27.9623 38.0499
28.0084 38.5106
28.0543 38.8864
28.1003 38.6223
28.1462 38.3707
28.1923 38.0809
28.2384 37.4229
28.2843 37.1713
28.3304 36.6493
28.3764 36.2895
28.4225 36.0245
28.4684 35.9262
28.5145 35.5637
28.5605 35.5019
28.6066 35.3107
28.6526 35.269
28.6987 35.2681
28.7447 35.1025
28.7908 35.1506
28.8368 35.1231
28.8829 35.0024
28.9289 35.0173
28.9751 34.7556
29.0211 34.4322
29.0673 34.2319
29.1133 34.2684
29.1595 34.0794
29.2055 33.9123
29.2517 33.9035
29.2977 34.0349
29.3439 33.8564
29.3899 33.9508
29.4361 33.6809
29.4824 33.4842
29.5284 33.2924
29.5746 33.1103
29.6207 32.6567
29.6669 32.7489
29.713 32.622
29.7593 32.5855
29.8053 32.5199
29.8516 32.3467
29.8977 32.3899
29.9439 32.2626
29.99 32.1834
30.0363 32.084
30.0824 32.1607
30.1287 32.0452
30.1748 32.1344
30.2211 32.0386
30.2673 31.9046
30.3136 32.0074
30.3597 31.8675
30.406 31.8797
30.4522 31.7897
30.4985 31.8555
30.5447 31.8707
30.591 31.892
30.6372 31.8947
30.6835 31.8768
30.7297 31.8737
30.7761 31.8511
30.8224 31.5828
30.8686 31.5336
30.915 31.2836
30.9612 31.2033
31.0076 31.0115
31.0538 30.8694
31.1002 30.9067
31.1464 30.718
31.1928 30.6101
31.2391 30.6507
31.2855 30.526
31.3317 30.5434
31.3781 30.6833
31.4244 30.5699
31.4708 30.4607
31.5171 30.472
31.5636 30.4363
31.6098 30.2233
31.6563 30.0477
31.7026 29.8531
31.7491 29.742
31.7953 29.87
31.8418 29.8538
31.8881 29.8009
31.9346 29.7801
31.9809 29.7131
32.0275 29.6221
32.074 29.5088
32.1203 29.1743
32.1668 29.2153
32.2132 29.0507
32.2597 28.9515
32.306 28.7909
32.3526 28.6222
32.399 28.579
32.4455 28.4643
32.4919 28.3277
32.5385 28.3696
32.5848 28.2124
32.6314 28.1732
32.6778 28.1816
32.7244 27.9471
32.7708 27.9149
32.8174 27.8049
32.8638 27.7357
32.9104 27.7914
32.9569 27.6744
33.0035 27.6033
33.0499 27.4884
33.0966 27.5527
33.143 27.5601
33.1897 27.4195
33.2361 27.311
33.2828 27.2479
33.3293 27.133
33.3759 27.1023
33.4226 26.8764
33.4691 26.8229
33.5158 26.6324
33.5623 26.6541
33.609 26.4996
33.6555 26.3816
33.7022 26.3181
33.7487 26.2514
33.7954 26.2165
33.842 26.1173
33.8887 26.1067
33.9353 25.9042
33.982 25.8898
34.0286 25.7272
34.0753 25.647
34.1219 25.603
34.1687 25.604
34.2152 25.5582
34.262 25.4041
34.3086 25.2935
34.3554 25.2561
34.402 25.1895
34.4488 25.0757
34.4954 24.9357
34.5422 24.9308
34.5889 24.8055
34.6357 24.6385
34.6825 24.645
34.7292 24.6097
34.776 24.5326
34.8227 24.4555
34.8695 24.4068
34.9162 24.3455
34.9631 24.2571
35.0098 24.3213
35.0566 24.0622
35.1033 24.0687
35.1502 24.0058
35.1969 23.9902
35.2438 23.9032
35.2906 23.8746
35.3375 23.7812
35.3842 23.7662
35.4311 23.7729
35.4779 23.7621
35.5248 23.5688
35.5716 23.551
35.6185 23.4412
35.6653 23.3783
35.7123 23.3178
35.759 23.226
35.806 23.0926
35.8528 22.9731
35.8998 22.9819
35.9468 22.8762
35.9936 22.8692
36.0406 22.6988
36.0874 22.7825
36.1345 22.7159
36.1813 22.5984
36.2283 22.5062
36.2752 22.387
36.3222 22.4519
36.3691 22.3069
36.4161 22.2393
36.463 22.214
36.5101 22.1358
36.557 22.0744
36.6041 21.9288
36.651 21.9503
36.6981 21.9331
36.745 21.819
36.7921 21.7093
36.839 21.6453
36.8861 21.5354
36.9331 21.5908
36.9802 21.4531
37.0272 21.3656
37.0743 21.2888
37.1213 21.2475
37.1684 21.231
37.2154 21.0898
37.2626 21.1091
37.3098 20.9913
37.3568 20.9212
37.404 20.9029
37.451 20.7613
37.4982 20.6596
37.5452 20.6415
37.5924 20.5961
37.6395 20.6279
37.6867 20.4684
37.7337 20.3931
37.781 20.2704
37.8281 20.2921
37.8753 20.1662
37.9224 20.0973
37.9697 20.0636
38.0168 19.9989
38.064 19.8725
38.1111 19.8709
38.1584 19.7835
38.2056 19.7565
38.2529 19.7005
38.3 19.5828
38.3473 19.5662
38.3945 19.4829
38.4418 19.4064
38.489 19.3365
38.5363 19.2907
38.5837 19.2497
38.6309 19.2159
38.6782 19.0779
38.7254 19.0708
38.7728 19.0671
38.82 18.9312
38.8674 18.8898
38.9146 18.8306
38.9621 18.6933
39.0093 18.7572
39.0567 18.6282
39.104 18.5583
39.1514 18.5465
39.1987 18.4923
39.2461 18.4074
39.2934 18.4054
39.3409 18.2372
39.3882 18.2057
39.4356 18.1366
39.483 18.1002
39.5304 18.0521
39.5778 18.01
39.6253 17.9158
39.6726 17.8517
39.7201 17.8848
39.7675 17.7645
39.815 17.7463
39.8624 17.6803
39.9099 17.6597
39.9575 17.5551
40.0049 17.492
40.0525 17.4572
40.0999 17.3974
40.1474 17.3224
40.1949 17.2798
40.2425 17.1697
40.2899 17.1985
40.3375 17.1027
40.385 17.0482
40.4326 17.0223
40.48 16.8821
40.5277 16.9014
40.5752 16.8301
40.6228 16.8045
40.6703 16.8177
40.718 16.6781
40.7655 16.6196
40.8132 16.5434
40.8607 16.5225
40.9084 16.5043
40.9559 16.4563
41.0036 16.3611
41.0512 16.3366
41.0989 16.3017
41.1465 16.1905
41.1942 16.1297
41.242 16.0196
41.2896 16.0593
41.3373 15.9848
41.3849 15.9269
41.4327 15.8659
41.4803 15.7686
41.5281 15.7914
41.5758 15.6692
41.6236 15.6782
41.6712 15.6222
41.7191 15.5641
41.7667 15.5291
41.8146 15.4823
41.8622 15.4773
41.9101 15.3275
41.9578 15.3015
42.0057 15.294
42.0534 15.2543
42.1013 15.1928
42.149 15.0774
42.1969 15.0487
42.2446 14.9788
42.2925 15.0071
42.3403 14.9569
42.3882 14.8894
42.436 14.8464
42.4839 14.7554
42.5319 14.6936
42.5797 14.6918
42.6277 14.6231
42.6755 14.5485
42.7235 14.52
42.7713 14.459
42.8193 14.4221
42.8671 14.3958
42.9152 14.332
42.963 14.26
43.0111 14.211
43.0589 14.1798
43.107 14.1236
43.1549 14.0536
43.2029 14.0271
43.2508 13.9463
43.2989 13.8995
43.3468 13.8933
43.3949 13.8396
43.4429 13.7619
43.491 13.7332
43.5389 13.71
43.5871 13.6109
43.635 13.55
43.6832 13.5958
43.7312 13.5378
43.7793 13.454
43.8273 13.362
43.8755 13.3383
43.9237 13.3315
43.9717 13.2354
44.0199 13.1921
44.068 13.2151
44.1162 13.1121
44.1642 13.101
44.2125 13.0579
44.2606 12.9726
44.3088 12.9359
44.3569 12.9446
44.4052 12.8785
44.4533 12.8116
44.5016 12.7786
44.5497 12.7527
44.598 12.6708
44.6461 12.6368
44.6945 12.6279
44.7426 12.5166
44.791 12.5316
44.8391 12.4657
44.8875 12.3798
44.9357 12.3592
44.984 12.3026
45.0322 12.2581
45.0806 12.2047
45.1288 12.1693
45.1773 12.158
45.2257 12.1195
45.2739 12.0686
45.3224 12.0162
45.3706 12.0249
45.4191 11.8988
45.4673 11.9258
45.5158 11.8224
45.5641 11.8439
45.6126 11.7624
45.6609 11.6818
45.7094 11.654
45.7577 11.7029
45.8063 11.5965
45.8546 11.5595
45.9031 11.463
45.9515 11.5185
46.0001 11.4192
46.0484 11.4095
46.097 11.3558
46.1454 11.3142
46.194 11.3396
46.2424 11.1883
46.291 11.193
46.3395 11.1191
46.3881 11.09
46.4365 11.0545
46.4852 11.0739
46.5337 10.9798
46.5823 10.9863
46.631 10.9154
46.6795 10.8647
46.7282 10.8489
46.7767 10.8095
46.8254 10.7593
46.8739 10.6975
46.9226 10.6984
46.9712 10.6871
47.0199 10.6277
47.0685 10.5334
47.1173 10.4888
47.1658 10.4574
47.2146 10.4717
47.2632 10.3883
47.312 10.3285
47.3606 10.3268
47.4095 10.256
47.4581 10.2474
47.5069 10.2426
47.5556 10.1922
47.6044 10.141
47.6531 10.1051
47.702 10.0424
47.7507 10.0579
47.7996 9.9899
47.8483 9.96957
47.8972 9.91964
47.9461 9.88841
47.9948 9.82713
48.0438 9.81154
48.0925 9.7535
48.1415 9.77245
48.1902 9.67707
48.2392 9.66544
48.288 9.63464
48.337 9.61782
48.3858 9.58193
48.4348 9.525
48.4837 9.50428
48.5327 9.43526
48.5815 9.42406
48.6306 9.41675
48.6795 9.3692
48.7285 9.33726
48.7774 9.27299
48.8265 9.26452
48.8754 9.20701
48.9245 9.17779
48.9734 9.11468
49.0226 9.15306
49.0715 9.08143
49.1206 9.04763
49.1696 8.98789
49.2188 9.01332
49.2679 8.94408
49.3169 8.90561
49.3661 8.85764
49.4151 8.8434
49.4643 8.81113
49.5134 8.7674
49.5626 8.74752
49.6117 8.7017
49.6609 8.66272
49.71 8.62027
49.7592 8.63368
49.8083 8.55363
49.8576 8.54471
49.9067 8.52075
49.956 8.45112
50.0052 8.42375
50.0545 8.43787
50.1036 8.35231
50.153 8.35069
50.2022 8.28588
50.2515 8.28373
50.3007 8.2181
50.3501 8.17447
50.3993 8.19175
50.4487 8.1482
50.498 8.12038
50.5474 8.10709
50.5966 8.05437
50.6461 8.00869
50.6955 7.99317
50.7448 7.96194
50.7943 7.95089
50.8436 7.91705
50.8931 7.87202
50.9424 7.84845
50.9919 7.81638
51.0413 7.77627
51.0908 7.72357
51.1402 7.71232
51.1897 7.70567
51.2391 7.63688
51.2887 7.63014
51.3381 7.60045
51.3877 7.54606
51.4371 7.51087
51.4867 7.54525
51.5362 7.48065
51.5858 7.43688
51.6353 7.41653
51.6849 7.3874
51.7344 7.36044
51.7841 7.35068
51.8336 7.27787
51.8833 7.25398
51.9328 7.22267
51.9826 7.21872
52.0323 7.13347
52.0818 7.11878
52.1316 7.10588
52.1812 7.08579
52.231 7.0577
52.2806 7.00901
52.3304 6.98542
52.38 6.99632
52.4298 6.95167
52.4794 6.92001
52.5293 6.88514
52.5789 6.84787
52.6288 6.85513
52.6785 6.80553
52.7284 6.74788
52.7781 6.73648
52.828 6.70614
52.8777 6.6451
52.9276 6.65246
52.9774 6.63767
53.0273 6.6037
53.0771 6.561
53.1271 6.54936
53.1769 6.5023
53.2269 6.46871
53.2767 6.45728
53.3267 6.42277
53.3765 6.37854
53.4266 6.35418
53.4766 6.36257
53.5265 6.28901
53.5765 6.33219
53.6264 6.23437
53.6765 6.2509
53.7264 6.24132
53.7765 6.21079
53.8265 6.15542
53.8766 6.14687
53.9266 6.09379
53.9767 6.07297
54.0267 6.0562
54.0769 6.02399
54.1269 5.96973
54.1771 5.92465
54.2271 5.93387
54.2773 5.88284
54.3274 5.88471
54.3776 5.86402
54.4277 5.85817
54.478 5.79724
54.528 5.73539
54.5783 5.71051
54.6285 5.65859
54.6788 5.61058
54.7289 5.59214
54.7792 5.49716
54.8296 5.47284
54.8798 5.45321
54.9301 5.44047
54.9803 5.37223
55.0307 5.38445
55.0809 5.31408
55.1314 5.26772
55.1816 5.21747
55.232 5.15871
55.2823 5.10172
55.3328 5.05278
55.383 5.03996
55.4335 5.04515
55.4838 4.93305
55.5344 4.90643
55.5847 4.92778
55.6352 4.86367
55.6856 4.83545
55.7361 4.79013