File: XRD/Ni3Fe_FD0476.xy
TT I
1.27165 6.92118
1.31627 7.44512
1.36089 7.13165
1.40551 7.00652
1.45013 6.40026
1.49476 5.69789
1.53938 6.18609
1.584 5.39663
1.62863 5.58117
1.67325 4.77681
1.71787 5.60765
1.7625 4.69251
1.80712 5.079
1.85174 5.05151
1.89636 5.06329
1.94099 5.12827
1.98562 4.69881
2.03025 5.13162
2.07487 4.88292
2.11949 4.55634
2.16411 4.81579
2.20874 8.65961
2.25338 12.0909
2.298 5.40569
2.34263 5.07049
2.38725 5.28081
2.43188 5.58174
2.4765 6.96522
2.52115 6.94024
2.56577 7.57077
2.6104 7.70908
2.65503 7.15465
2.69965 7.19146
2.7443 7.48195
2.78893 7.17923
2.83356 7.98201
2.87818 8.17143
2.92281 8.70855
2.96744 9.5812
3.01209 10.6352
3.05672 11.3938
3.10135 12.3013
3.14599 12.9792
3.19062 14.2297
3.23527 15.073
3.2799 15.5404
3.32454 16.4458
3.36917 17.8826
3.4138 18.832
3.45844 19.591
3.50309 21.0135
3.54773 21.6805
3.59237 23.4521
3.637 53.9477
3.68164 38.8236
3.7263 25.8216
3.77094 26.2491
3.81558 26.1631
3.86022 27.4721
3.90486 29.5753
3.9495 29.667
3.99416 31.1392
4.0388 32.2918
4.08344 33.5016
4.12809 34.4267
4.17273 36.6251
4.21738 39.7879
4.26204 130.606
4.30669 114.423
4.35133 45.4206
4.39598 44.0549
4.44063 49.2906
4.4853 55.5733
4.52995 53.7822
4.5746 54.8038
4.61925 54.3288
4.6639 56.053
4.70855 59.3763
4.75322 62.5056
4.79788 66.8437
4.84253 69.4095
4.88719 74.9526
4.93184 77.5733
4.97652 82.9054
5.02118 90.0778
5.06583 98.7249
5.11049 111.914
5.15515 164.62
5.19981 539.284
5.24449 3530.12
5.28916 11692.0
5.33382 2849.37
5.37848 206.051
5.42315 135.233
5.46783 120.519
5.5125 111.752
5.55716 104.887
5.60183 100.711
5.6465 98.6412
5.69117 96.7808
5.73586 95.1978
5.78053 97.3801
5.8252 97.1375
5.86988 98.8745
5.91455 99.3111
5.95924 112.216
6.00392 300.021
6.0486 1188.99
6.09328 4247.95
6.13795 3281.75
6.18263 249.755
6.22733 96.0378
6.27201 83.2889
6.3167 88.2246
6.36138 76.2827
6.40606 70.7781
6.45075 68.8684
6.49545 66.5189
6.54014 65.0244
6.58483 63.93
6.62952 63.4016
6.67421 75.4563
6.71892 96.3061
6.76361 63.5202
6.8083 59.4073
6.853 59.0255
6.89769 57.2966
6.94239 56.8967
6.98711 56.4364
7.03181 56.3796
7.07651 55.6944
7.12121 55.608
7.16591 56.1773
7.21063 55.5629
7.25533 61.8932
7.30004 107.57
7.34475 70.698
7.38945 55.8882
7.43416 54.4581
7.47889 54.6972
7.5236 55.282
7.56831 55.9501
7.61303 56.1734
7.65774 56.7823
7.70247 56.9188
7.74719 56.8203
7.79191 57.0752
7.83663 57.7335
7.88135 58.5688
7.92607 59.4242
7.97081 60.2311
8.01553 61.4715
8.06026 63.583
8.10498 64.899
8.14971 70.9283
8.19446 71.0304
8.23919 70.6459
8.28392 73.1253
8.32865 76.0363
8.37339 80.523
8.41812 86.2364
8.46288 109.067
8.50761 211.577
8.55235 467.333
8.59709 1245.05
8.64183 2188.9
8.68658 954.356
8.73134 164.727
8.77609 101.232
8.82083 94.6941
8.86558 92.7442
8.91033 91.8556
8.9551 90.5172
8.99985 87.0066
9.04461 85.2035
9.08936 84.8734
9.13412 84.2522
9.17888 83.6439
9.22365 83.9471
9.26841 83.7309
9.31318 85.4244
9.35794 86.0466
9.4027 86.1575
9.44749 86.0887
9.49226 86.1045
9.53703 87.1702
9.5818 90.1885
9.62657 93.7067
9.67134 96.8397
9.71614 94.717
9.76091 96.5311
9.80569 100.366
9.85047 102.82
9.89525 115.325
9.94005 134.601
9.98484 223.801
10.0296 412.325
10.0744 890.214
10.1192 1702.19
10.164 1614.11
10.2088 401.243
10.2536 129.553
10.2984 112.548
10.3432 111.507
10.388 108.577
10.4328 132.359
10.4776 180.095
10.5224 303.306
10.5672 500.812
10.612 492.297
10.6568 199.254
10.7017 97.3285
10.7465 87.9013
10.7913 84.4636
10.8361 82.4949
10.8809 80.0217
10.9257 78.7114
10.9706 78.8866
11.0154 75.9215
11.0602 73.658
11.105 72.6006
11.1499 73.3308
11.1947 76.6492
11.2395 71.6205
11.2844 69.9816
11.3292 68.0408
11.374 66.9713
11.4189 66.5641
11.4637 66.0302
11.5086 65.7346
11.5534 66.7475
11.5983 65.3321
11.6431 64.4364
11.688 63.8464
11.7328 63.6572
11.7777 63.6477
11.8225 63.5555
11.8674 63.51
11.9122 63.8518
11.9571 64.139
12.002 65.6816
12.0468 72.3896
12.0917 83.9868
12.1366 109.508
12.1814 156.131
12.2263 201.116
12.2712 168.323
12.3161 91.5827
12.3609 68.8081
12.4058 65.327
12.4507 65.1908
12.4956 65.7766
12.5405 65.6629
12.5853 66.2209
12.6302 69.7033
12.6751 72.6421
12.72 69.4664
12.7649 68.9747
12.8098 69.6365
12.8547 70.9153
12.8996 72.5946
12.9445 74.1258
12.9894 75.6952
13.0343 77.396
13.0792 82.4264
13.1242 98.1907
13.1691 122.512
13.214 163.613
13.2589 252.405
13.3038 368.094
13.3487 419.691
13.3937 260.109
13.4386 125.09
13.4835 114.296
13.5285 131.882
13.5734 172.48
13.6183 254.142
13.6633 340.14
13.7082 341.419
13.7531 188.375
13.7981 97.6209
13.843 82.9652
13.888 81.1571
13.9329 78.3697
13.9779 77.1426
14.0228 75.4816
14.0678 74.5601
14.1127 73.5829
14.1577 73.1276
14.2027 72.5365
14.2476 71.761
14.2926 71.3734
14.3376 71.7288
14.3825 70.8986
14.4275 70.0737
14.4725 69.8938
14.5175 70.3086
14.5624 70.227
14.6074 71.2635
14.6524 72.0317
14.6974 71.9762
14.7424 76.07
14.7874 84.2527
14.8324 95.3088
14.8774 118.852
14.9224 158.014
14.9674 202.417
15.0124 214.778
15.0574 147.743
15.1024 90.3635
15.1474 73.3602
15.1924 71.3687
15.2374 70.8917
15.2824 70.0931
15.3274 68.7203
15.3725 68.0786
15.4175 67.5782
15.4625 66.9757
15.5076 67.0596
15.5526 67.0453
15.5976 67.3446
15.6426 70.4541
15.6877 76.9127
15.7327 84.7875
15.7778 101.496
15.8228 131.499
15.8679 169.031
15.9129 191.053
15.958 154.412
16.003 95.4312
16.0481 68.0358
16.0931 64.2221
16.1382 62.5057
16.1833 61.2276
16.2283 59.6786
16.2734 59.4001
16.3185 58.8613
16.3636 58.8124
16.4086 57.8438
16.4537 56.9113
16.4988 56.3189
16.5439 56.1543
16.589 56.0334
16.6341 55.5913
16.6792 55.5429
16.7243 55.5435
16.7694 55.6026
16.8145 55.4734
16.8596 55.8835
16.9047 56.6285
16.9498 56.8264
16.9949 56.4511
17.04 57.2079
17.0851 58.8034
17.1302 60.5323
17.1754 63.6045
17.2205 68.9869
17.2656 75.3332
17.3108 82.3182
17.3559 81.8084
17.401 71.5805
17.4462 63.0206
17.4913 60.0536
17.5365 60.1148
17.5815 60.2412
17.6268 60.8376
17.6718 61.3389
17.7171 62.1265
17.7622 62.4096
17.8074 63.7239
17.8525 67.439
17.8977 71.4285
17.9428 77.4002
17.9881 86.9072
18.0331 103.258
18.0784 121.892
18.1237 140.142
18.1688 132.719
18.214 105.643
18.2591 88.9263
18.3044 92.142
18.3495 100.903
18.3948 106.562
18.4399 97.1347
18.4852 78.1663
18.5303 66.6113
18.5756 63.1082
18.6207 62.2347
18.666 61.208
18.7112 60.8564
18.7565 60.0883
18.8016 59.7431
18.8469 58.9493
18.892 58.7787
18.9374 58.1708
18.9825 57.7989
19.0278 57.9027
19.073 58.1436
19.1183 58.6898
19.1635 59.2248
19.2088 60.8828
19.254 63.6692
19.2993 67.879
19.3447 72.7173
19.3898 76.2541
19.4352 72.7884
19.4804 63.918
19.5257 57.2832
19.5709 55.0012
19.6163 54.7583
19.6615 54.6609
19.7068 54.1714
19.752 54.1696
19.7974 54.7823
19.8426 55.6208
19.888 56.3422
19.9332 57.6549
19.9786 60.1727
20.0238 63.8374
20.0692 67.974
20.1144 70.618
20.1598 69.3052
20.205 64.5868
20.2504 63.0748
20.2957 64.2046
20.3411 66.136
20.3863 64.667
20.4318 58.6079
20.477 54.0521
20.5224 52.0484
20.5677 51.4356
20.6131 50.7795
20.6586 50.5733
20.7038 50.3605
20.7493 49.9135
20.7945 50.0424
20.84 49.7183
20.8853 49.4121
20.9307 49.4773
20.976 49.6091
21.0215 49.5201
21.0668 49.8541
21.1122 50.3663
21.1575 50.9932
21.203 51.5618
21.2483 52.0678
21.2938 52.3103
21.3391 50.6872
21.3846 49.742
21.4299 49.1622
21.4754 49.2321
21.5207 49.5087
21.5662 49.9994
21.6116 50.3619
21.6571 50.9798
21.7024 52.156
21.7479 53.8353
21.7933 56.5719
21.8388 59.9595
21.8843 63.2482
21.9297 65.4818
21.9752 64.0216
22.0206 60.0942
22.0661 56.8219
22.1115 56.6467
22.157 56.621
22.2024 54.9406
22.248 52.1822
22.2933 50.5231
22.3389 49.8215
22.3843 49.6546
22.4299 49.5067
22.4753 49.4046
22.5208 49.3198
22.5662 49.2777
22.6118 49.7735
22.6572 49.7252
22.7028 50.2
22.7483 50.8602
22.7939 51.4359
22.8393 52.8431
22.8849 55.0974
22.9303 56.6581
22.9759 58.3634
23.0214 57.8347
23.067 55.1699
23.1126 51.7213
23.1581 49.9974
23.2037 49.6212
23.2492 49.8497
23.2948 49.9188
23.3403 50.202
23.3859 50.9197
23.4314 51.9768
23.477 53.6349
23.5225 55.4513
23.5682 57.4202
23.6137 58.2968
23.6593 56.0528
23.7048 52.2858
23.7505 48.9689
23.796 47.2676
23.8417 46.6018
23.8872 46.3121
23.9329 45.8754
23.9784 45.5305
24.0241 45.4305
24.0697 45.1722
24.1154 44.6787
24.1609 44.6672
24.2066 44.525
24.2522 44.266
24.2979 44.0651
24.3434 43.9529
24.3892 43.7163
24.4349 43.6244
24.4805 43.6601
24.5262 43.8075
24.5718 43.579
24.6175 43.6562
24.6631 43.471
24.7089 43.1607
24.7545 42.9482
24.8002 42.9141
24.8458 42.993
24.8916 42.9456
24.9372 42.8774
24.983 43.2284
25.0286 43.6123
25.0744 44.0579
25.12 44.4947
25.1658 45.0255
25.2114 45.354
25.2572 45.4173
25.3029 45.3218
25.3487 45.4728
25.3943 45.1734
25.4402 44.1027
25.4858 43.1002
25.5316 42.1393
25.5773 41.4723
25.6231 41.6074
25.669 41.2102
25.7147 41.2416
25.7605 41.0783
25.8062 41.1728
25.8521 41.2284
25.8977 41.3874
25.9436 41.5173
25.9893 41.7021
26.0352 42.0634
26.0809 42.1174
26.1268 42.3365
26.1725 42.0174
26.2184 41.3545
26.2641 40.9088
26.31 40.7879
26.3557 40.6392
26.4017 40.8481
26.4474 41.1491
26.4933 41.4466
26.5391 41.8584
26.585 42.1688
26.6308 42.7009
26.6767 42.7689
26.7225 42.5123
26.7684 42.061
26.8142 41.348
26.8601 41.0548
26.9059 40.56
26.9519 40.0267
26.9979 39.776
27.0437 39.4619
27.0896 39.4173
27.1354 39.4772
27.1814 39.1711
27.2272 39.1128
27.2732 39.1963
27.3191 39.0613
27.3651 38.9983
27.4109 39.0885
27.4569 39.1384
27.5027 39.1595
27.5488 39.1935
27.5946 38.9078
27.6407 38.8705
27.6865 38.6364
27.7326 38.5485
27.7784 38.5701
27.8245 38.4264
27.8703 38.5776
27.9164 38.7407
27.9623 39.0217
28.0084 39.3104
28.0543 39.7433
28.1003 39.5871
28.1462 39.4186
28.1923 39.1067
28.2384 38.4524
28.2843 38.1985
28.3304 37.5138
28.3764 37.1821
28.4225 36.8993
28.4684 36.7912
28.5145 36.5423
28.5605 36.4474
28.6066 36.1044
28.6526 36.1652
28.6987 36.1814
28.7447 36.1375
28.7908 35.9236
28.8368 35.8376
28.8829 36.0031
28.9289 35.818
28.9751 35.6842
29.0211 35.4052
29.0673 35.1464
29.1133 35.1036
29.1595 34.8129
29.2055 34.8331
29.2517 34.9167
29.2977 34.7417
29.3439 34.7745
29.3899 34.6976
29.4361 34.6553
29.4824 34.4147
29.5284 34.0823
29.5746 33.9766
29.6207 33.6642
29.6669 33.5682
29.713 33.5113
29.7593 33.48
29.8053 33.3937
29.8516 33.2745
29.8977 33.2457
29.9439 33.0944
29.99 33.0417
30.0363 32.9655
30.0824 33.0376
30.1287 32.9172
30.1748 32.9658
30.2211 32.8753
30.2673 32.8315
30.3136 32.9259
30.3597 32.6968
30.406 32.6286
30.4522 32.5674
30.4985 32.4966
30.5447 32.7163
30.591 32.6357
30.6372 32.6825
30.6835 32.5619
30.7297 32.8217
30.7761 32.5969
30.8224 32.4871
30.8686 32.3503
30.915 32.0655
30.9612 32.0194
31.0076 31.727
31.0538 31.6547
31.1002 31.6343
31.1464 31.3707
31.1928 31.395
31.2391 31.3648
31.2855 31.33
31.3317 31.233
31.3781 31.3534
31.4244 31.3548
31.4708 31.3167
31.5171 31.2018
31.5636 31.2834
31.6098 31.023
31.6563 30.7617
31.7026 30.6402
31.7491 30.5729
31.7953 30.663
31.8418 30.5596
31.8881 30.5747
31.9346 30.5286
31.9809 30.4492
32.0275 30.3556
32.074 30.2925
32.1203 30.0639
32.1668 30.0578
32.2132 29.826
32.2597 29.5934
32.306 29.6449
32.3526 29.478
32.399 29.4364
32.4455 29.2243
32.4919 29.1476
32.5385 29.1139
32.5848 28.8364
32.6314 28.9412
32.6778 28.7498
32.7244 28.6947
32.7708 28.6085
32.8174 28.6129
32.8638 28.5148
32.9104 28.4421
32.9569 28.434
33.0035 28.2984
33.0499 28.2495
33.0966 28.2347
33.143 28.0961
33.1897 28.1523
33.2361 28.0004
33.2828 27.9174
33.3293 27.783
33.3759 27.7837
33.4226 27.6576
33.4691 27.5695
33.5158 27.4347
33.5623 27.2478
33.609 27.1045
33.6555 27.0856
33.7022 27.007
33.7487 26.8853
33.7954 26.9646
33.842 26.7719
33.8887 26.7051
33.9353 26.6165
33.982 26.5616
34.0286 26.4166
34.0753 26.365
34.1219 26.4044
34.1687 26.2578
34.2152 26.1506
34.262 26.0765
34.3086 25.8593
34.3554 25.9322
34.402 25.73
34.4488 25.6136
34.4954 25.5789
34.5422 25.5043
34.5889 25.3508
34.6357 25.3229
34.6825 25.3068
34.7292 25.2018
34.776 25.1408
34.8227 24.942
34.8695 24.9949
34.9162 24.9165
34.9631 24.9233
35.0098 24.9262
35.0566 24.7785
35.1033 24.6219
35.1502 24.6589
35.1969 24.5502
35.2438 24.5399
35.2906 24.4289
35.3375 24.4314
35.3842 24.3232
35.4311 24.3357
35.4779 24.2409
35.5248 24.2455
35.5716 24.1404
35.6185 24.1091
35.6653 23.9882
35.7123 23.9172
35.759 23.808
35.806 23.778
35.8528 23.5974
35.8998 23.6401
35.9468 23.4066
35.9936 23.4484
36.0406 23.3302
36.0874 23.3421
36.1345 23.1931
36.1813 23.1481
36.2283 22.9826
36.2752 23.0002
36.3222 23.0277
36.3691 22.8768
36.4161 22.7549
36.463 22.7158
36.5101 22.6826
36.557 22.7041
36.6041 22.5322
36.651 22.4305
36.6981 22.459
36.745 22.3634
36.7921 22.3199
36.839 22.159
36.8861 22.1572
36.9331 22.0158
36.9802 21.9176
37.0272 21.8859
37.0743 21.8107
37.1213 21.7922
37.1684 21.6737
37.2154 21.6033
37.2626 21.5733
37.3098 21.5132
37.3568 21.4526
37.404 21.4255
37.451 21.2769
37.4982 21.2224
37.5452 21.1664
37.5924 21.0535
37.6395 21.0816
37.6867 21.0654
37.7337 20.8635
37.781 20.835
37.8281 20.8355
37.8753 20.6829
37.9224 20.5794
37.9697 20.583
38.0168 20.5386
38.064 20.4459
38.1111 20.3763
38.1584 20.3189
38.2056 20.2176
38.2529 20.2222
38.3 20.0517
38.3473 20.0975
38.3945 19.9748
38.4418 19.965
38.489 19.9062
38.5363 19.8718
38.5837 19.7769
38.6309 19.7037
38.6782 19.5992
38.7254 19.4887
38.7728 19.5159
38.82 19.4415
38.8674 19.3275
38.9146 19.3326
38.9621 19.1938
39.0093 19.2049
39.0567 19.1233
39.104 19.0827
39.1514 18.994
39.1987 18.8872
39.2461 18.9448
39.2934 18.8699
39.3409 18.7
39.3882 18.7043
39.4356 18.646
39.483 18.5579
39.5304 18.5283
39.5778 18.5221
39.6253 18.4069
39.6726 18.3449
39.7201 18.3096
39.7675 18.2598
39.815 18.2311
39.8624 18.0806
39.9099 18.0878
39.9575 18.0009
40.0049 17.8988
40.0525 17.9397
40.0999 17.7891
40.1474 17.792
40.1949 17.673
40.2425 17.5757
40.2899 17.57
40.3375 17.5658
40.385 17.4833
40.4326 17.4873
40.48 17.4028
40.5277 17.3871
40.5752 17.2887
40.6228 17.1528
40.6703 17.0951
40.718 17.1234
40.7655 17.0396
40.8132 16.9779
40.8607 17.0435
40.9084 16.8756
40.9559 16.8613
41.0036 16.83
41.0512 16.7754
41.0989 16.7278
41.1465 16.624
41.1942 16.5386
41.242 16.4657
41.2896 16.438
41.3373 16.3987
41.3849 16.3485
41.4327 16.3111
41.4803 16.1747
41.5281 16.1936
41.5758 16.1131
41.6236 16.0972
41.6712 15.9578
41.7191 15.9714
41.7667 15.9276
41.8146 15.8812
41.8622 15.8166
41.9101 15.7736
41.9578 15.6322
42.0057 15.6263
42.0534 15.5685
42.1013 15.5531
42.149 15.4943
42.1969 15.4233
42.2446 15.3706
42.2925 15.3761
42.3403 15.2863
42.3882 15.2389
42.436 15.1978
42.4839 15.1021
42.5319 15.0162
42.5797 14.9562
42.6277 14.9566
42.6755 14.9761
42.7235 14.8424
42.7713 14.7927
42.8193 14.7868
42.8671 14.7612
42.9152 14.6673
42.963 14.6278
43.0111 14.5824
43.0589 14.5257
43.107 14.4379
43.1549 14.3982
43.2029 14.3999
43.2508 14.318
43.2989 14.2479
43.3468 14.1858
43.3949 14.1744
43.4429 14.139
43.491 14.0541
43.5389 13.9905
43.5871 13.9949
43.635 13.9457
43.6832 13.9291
43.7312 13.7926
43.7793 13.8004
43.8273 13.7726
43.8755 13.6381
43.9237 13.617
43.9717 13.5962
44.0199 13.5649
44.068 13.5302
44.1162 13.4382
44.1642 13.4657
44.2125 13.3508
44.2606 13.278
44.3088 13.2333
44.3569 13.2194
44.4052 13.2095
44.4533 13.1315
44.5016 13.0959
44.5497 13.0452
44.598 13.0063
44.6461 12.9075
44.6945 12.8686
44.7426 12.8617
44.791 12.801
44.8391 12.7758
44.8875 12.7216
44.9357 12.6857
44.984 12.6493
45.0322 12.5207
45.0806 12.5283
45.1288 12.5651
45.1773 12.4387
45.2257 12.4105
45.2739 12.3883
45.3224 12.2937
45.3706 12.2831
45.4191 12.2521
45.4673 12.1939
45.5158 12.1559
45.5641 12.0832
45.6126 12.0896
45.6609 12.0099
45.7094 11.9919
45.7577 11.9173
45.8063 11.863
45.8546 11.8619
45.9031 11.7772
45.9515 11.7911
46.0001 11.7036
46.0484 11.6933
46.097 11.6446
46.1454 11.6531
46.194 11.5768
46.2424 11.5062
46.291 11.4918
46.3395 11.4136
46.3881 11.3985
46.4365 11.3593
46.4852 11.2967
46.5337 11.2566
46.5823 11.2453
46.631 11.1511
46.6795 11.1197
46.7282 11.059
46.7767 11.0603
46.8254 11.0214
46.8739 10.9524
46.9226 10.9279
46.9712 10.9069
47.0199 10.8609
47.0685 10.8084
47.1173 10.7973
47.1658 10.6986
47.2146 10.7147
47.2632 10.6246
47.312 10.632
47.3606 10.5747
47.4095 10.4973
47.4581 10.5294
47.5069 10.4524
47.5556 10.4134
47.6044 10.3569
47.6531 10.3984
47.702 10.2796
47.7507 10.2935
47.7996 10.1954
47.8483 10.2114
47.8972 10.1585
47.9461 10.1149
47.9948 10.0952
48.0438 10.0455
48.0925 10.0113
48.1415 10.0278
48.1902 9.91225
48.2392 9.94472
48.288 9.85794
48.337 9.84011
48.3858 9.74342
48.4348 9.713
48.4837 9.73202
48.5327 9.67321
48.5815 9.68975
48.6306 9.61847
48.6795 9.65359
48.7285 9.57236
48.7774 9.52183
48.8265 9.50469
48.8754 9.43078
48.9245 9.39102
48.9734 9.37076
49.0226 9.38216
49.0715 9.29744
49.1206 9.27367
49.1696 9.23591
49.2188 9.22655
49.2679 9.16607
49.3169 9.09218
49.3661 9.07898
49.4151 9.03477
49.4643 9.02383
49.5134 8.99914
49.5626 8.89773
49.6117 8.9122
49.6609 8.90832
49.71 8.81496
49.7592 8.81334
49.8083 8.74956
49.8576 8.75416
49.9067 8.69087
49.956 8.70675
50.0052 8.65956
50.0545 8.62016
50.1036 8.53657
50.153 8.55194
50.2022 8.51551
50.2515 8.49864
50.3007 8.45309
50.3501 8.42318
50.3993 8.40197
50.4487 8.36366
50.498 8.34675
50.5474 8.28575
50.5966 8.23757
50.6461 8.20485
50.6955 8.22458
50.7448 8.156
50.7943 8.10538
50.8436 8.08932
50.8931 8.04278
50.9424 7.98684
50.9919 7.98444
51.0413 7.96885
51.0908 7.92392
51.1402 7.87962
51.1897 7.82326
51.2391 7.85024
51.2887 7.82132
51.3381 7.75988
51.3877 7.76529
51.4371 7.7242
51.4867 7.66977
51.5362 7.61953
51.5858 7.64158
51.6353 7.60535
51.6849 7.58074
51.7344 7.51233
51.7841 7.5145
51.8336 7.4976
51.8833 7.40804
51.9328 7.40164
51.9826 7.34162
52.0323 7.35703
52.0818 7.31993
52.1316 7.25131
52.1812 7.24046
52.231 7.21892
52.2806 7.21251
52.3304 7.14522
52.38 7.13481
52.4298 7.10499
52.4794 7.04185
52.5293 7.02234
52.5789 7.04143
52.6288 6.99684
52.6785 6.96803
52.7284 6.96598
52.7781 6.87534
52.828 6.87293
52.8777 6.86356
52.9276 6.77168
52.9774 6.81542
53.0273 6.76283
53.0771 6.73872
53.1271 6.6863
53.1769 6.65877
53.2269 6.65231
53.2767 6.61879
53.3267 6.59398
53.3765 6.60298
53.4266 6.54415
53.4766 6.49769
53.5265 6.49112
53.5765 6.44948
53.6264 6.42368
53.6765 6.41844
53.7264 6.38177
53.7765 6.30245
53.8265 6.33498
53.8766 6.26369
53.9266 6.26158
53.9767 6.23477
54.0267 6.21378
54.0769 6.19785
54.1269 6.12748
54.1771 6.08599
54.2271 6.12053
54.2773 6.01257
54.3274 6.0282
54.3776 5.98996
54.4277 5.95616
54.478 5.90448
54.528 5.89951
54.5783 5.85374
54.6285 5.78926
54.6788 5.75276
54.7289 5.72726
54.7792 5.66145
54.8296 5.62954
54.8798 5.60812
54.9301 5.52731
54.9803 5.52167
55.0307 5.49883
55.0809 5.45032
55.1314 5.46016
55.1816 5.31446
55.232 5.33338
55.2823 5.30173
55.3328 5.21153
55.383 5.15794
55.4335 5.13065
55.4838 5.09537
55.5344 5.04427
55.5847 4.98194
55.6352 4.99994
55.6856 4.90367
55.7361 4.86083