File: XRD/Ni3Fe_FD1013.xy
TT I
1.27165 7.00344
1.31627 6.11283
1.36089 6.48006
1.40551 6.49169
1.45013 5.77079
1.49476 6.138
1.53938 5.87265
1.584 5.43378
1.62863 5.03272
1.67325 4.30699
1.71787 4.55502
1.7625 4.35517
1.80712 4.20527
1.85174 4.62199
1.89636 4.27606
1.94099 4.74306
1.98562 4.23112
2.03025 4.1837
2.07487 3.90731
2.11949 4.91128
2.16411 4.27644
2.20874 5.33718
2.25338 6.81623
2.298 5.10389
2.34263 5.64585
2.38725 5.43383
2.43188 5.81465
2.4765 7.09778
2.52115 7.44525
2.56577 7.75097
2.6104 8.61693
2.65503 8.01788
2.69965 8.45335
2.7443 8.30667
2.78893 8.22771
2.83356 8.84941
2.87818 9.32817
2.92281 8.74605
2.96744 9.86778
3.01209 10.2225
3.05672 11.4231
3.10135 12.2832
3.14599 13.1949
3.19062 14.1079
3.23527 14.527
3.2799 15.5203
3.32454 16.2469
3.36917 16.7158
3.4138 18.4844
3.45844 18.9387
3.50309 19.99
3.54773 20.7198
3.59237 21.3156
3.637 29.6167
3.68164 28.1986
3.7263 24.417
3.77094 24.6643
3.81558 25.1198
3.86022 25.9163
3.90486 27.4184
3.9495 28.1322
3.99416 29.0535
4.0388 29.8671
4.08344 31.5062
4.12809 32.0207
4.17273 33.2526
4.21738 35.4797
4.26204 57.0584
4.30669 62.0164
4.35133 40.6967
4.39598 40.5779
4.44063 43.1852
4.4853 46.2055
4.52995 46.2809
4.5746 47.8762
4.61925 49.7661
4.6639 51.5654
4.70855 54.5427
4.75322 57.0395
4.79788 59.7148
4.84253 63.1242
4.88719 67.1472
4.93184 70.7447
4.97652 75.7421
5.02118 81.8287
5.06583 88.4695
5.11049 96.5539
5.15515 117.147
5.19981 222.127
5.24449 2183.63
5.28916 13382.8
5.33382 3515.58
5.37848 252.245
5.42315 127.455
5.46783 107.749
5.5125 100.449
5.55716 96.4801
5.60183 92.0983
5.6465 90.5602
5.69117 88.6185
5.73586 86.5994
5.78053 85.8779
5.8252 85.4271
5.86988 85.6286
5.91455 87.1954
5.95924 93.0246
6.00392 154.277
6.0486 753.041
6.09328 4346.5
6.13795 3482.73
6.18263 242.801
6.22733 86.3087
6.27201 75.1722
6.3167 72.9527
6.36138 68.1638
6.40606 64.2409
6.45075 62.6103
6.49545 60.7475
6.54014 59.4287
6.58483 58.1712
6.62952 57.3183
6.67421 58.9086
6.71892 65.9523
6.76361 56.4969
6.8083 53.9414
6.853 53.2725
6.89769 52.7148
6.94239 52.2323
6.98711 51.6968
7.03181 51.5626
7.07651 51.4842
7.12121 51.3076
7.16591 51.2747
7.21063 51.0282
7.25533 51.4128
7.30004 64.5641
7.34475 57.25
7.38945 51.3725
7.43416 51.0603
7.47889 51.7905
7.5236 65.1163
7.56831 90.619
7.61303 61.0313
7.65774 53.0044
7.70247 52.5021
7.74719 52.4553
7.79191 53.4738
7.83663 53.2697
7.88135 53.8631
7.92607 55.05
7.97081 55.9651
8.01553 56.8415
8.06026 58.3055
8.10498 59.3538
8.14971 61.5631
8.19446 63.0399
8.23919 64.8732
8.28392 66.8137
8.32865 69.0832
8.37339 72.7379
8.41812 76.238
8.46288 84.8775
8.50761 122.414
8.55235 313.356
8.59709 1031.96
8.64183 2271.84
8.68658 1083.26
8.73134 173.99
8.77609 94.3549
8.82083 87.5879
8.86558 84.4506
8.91033 82.6115
8.9551 81.6034
8.99985 80.184
9.04461 79.5816
9.08936 78.8677
9.13412 78.278
9.17888 79.9523
9.22365 101.807
9.26841 142.571
9.31318 98.3428
9.35794 80.2921
9.4027 79.3349
9.44749 79.4267
9.49226 79.9331
9.53703 80.533
9.5818 81.8005
9.62657 83.115
9.67134 85.3814
9.71614 86.4874
9.76091 88.104
9.80569 89.9935
9.85047 92.5225
9.89525 97.6153
9.94005 104.779
9.98484 140.022
10.0296 294.582
10.0744 694.922
10.1192 1708.95
10.164 1729.61
10.2088 462.052
10.2536 126.632
10.2984 101.591
10.3432 99.8526
10.388 96.3059
10.4328 104.325
10.4776 143.857
10.5224 248.414
10.5672 495.877
10.612 541.568
10.6568 228.709
10.7017 109.616
10.7465 88.1556
10.7913 79.096
10.8361 76.7281
10.8809 74.3218
10.9257 72.4769
10.9706 71.6265
11.0154 69.6648
11.0602 68.3238
11.105 67.2388
11.1499 66.1907
11.1947 66.5545
11.2395 64.9429
11.2844 63.8275
11.3292 62.7129
11.374 62.2974
11.4189 61.6855
11.4637 61.17
11.5086 60.4058
11.5534 60.5944
11.5983 59.9215
11.6431 59.6217
11.688 59.1815
11.7328 59.1521
11.7777 59.1929
11.8225 58.8068
11.8674 59.4959
11.9122 63.0741
11.9571 74.0138
12.002 71.0663
12.0468 64.2057
12.0917 72.2953
12.1366 91.9905
12.1814 140.425
12.2263 202.4
12.2712 172.753
12.3161 94.9151
12.3609 63.8025
12.4058 60.0992
12.4507 60.1237
12.4956 60.4019
12.5405 60.4795
12.5853 60.8638
12.6302 61.5555
12.6751 63.1812
12.72 62.8128
12.7649 63.3069
12.8098 64.2437
12.8547 65.123
12.8996 66.5003
12.9445 68.1723
12.9894 69.7854
13.0343 71.3523
13.0792 76.028
13.1242 81.9707
13.1691 101.109
13.214 133.485
13.2589 213.118
13.3038 357.169
13.3487 441.288
13.3937 279.813
13.4386 126.612
13.4835 96.5866
13.5285 111.86
13.5734 143.615
13.6183 224.769
13.6633 350.036
13.7082 359.452
13.7531 203.559
13.7981 99.6107
13.843 78.2592
13.888 75.8333
13.9329 73.3781
13.9779 72.2225
14.0228 71.0965
14.0678 70.1789
14.1127 72.2165
14.1577 79.7633
14.2027 76.9101
14.2476 68.947
14.2926 66.6294
14.3376 66.4108
14.3825 65.8963
14.4275 65.2964
14.4725 65.1812
14.5175 65.2778
14.5624 65.1662
14.6074 65.4646
14.6524 66.1257
14.6974 66.0776
14.7424 67.4014
14.7874 71.9824
14.8324 83.1421
14.8774 102.484
14.9224 141.528
14.9674 203.63
15.0124 224.704
15.0574 159.081
15.1024 93.2238
15.1474 70.3915
15.1924 67.2372
15.2374 65.6929
15.2824 64.7441
15.3274 63.6989
15.3725 63.2193
15.4175 63.1098
15.4625 62.5047
15.5076 62.3549
15.5526 62.2569
15.5976 62.3404
15.6426 62.4589
15.6877 66.5682
15.7327 74.7875
15.7778 87.5294
15.8228 116.19
15.8679 166.977
15.9129 203.313
15.958 172.114
16.003 105.038
16.0481 69.9806
16.0931 63.8436
16.1382 59.9287
16.1833 57.6007
16.2283 56.2602
16.2734 55.4379
16.3185 54.787
16.3636 54.3084
16.4086 53.5521
16.4537 53.2274
16.4988 52.6353
16.5439 52.6091
16.589 52.1811
16.6341 52.1672
16.6792 51.762
16.7243 51.8865
16.7694 51.7269
16.8145 51.8013
16.8596 52.2799
16.9047 53.1463
16.9498 54.0986
16.9949 53.6604
17.04 52.9859
17.0851 53.6203
17.1302 55.6113
17.1754 58.0991
17.2205 62.5791
17.2656 71.1262
17.3108 81.6716
17.3559 81.485
17.401 70.9317
17.4462 60.5855
17.4913 56.6611
17.5365 56.1972
17.5815 56.3481
17.6268 56.5269
17.6718 56.9546
17.7171 57.6669
17.7622 59.3917
17.8074 60.2656
17.8525 60.7816
17.8977 64.2635
17.9428 69.5054
17.9881 77.3658
18.0331 93.4254
18.0784 117.998
18.1237 140.828
18.1688 136.27
18.214 107.689
18.2591 85.9218
18.3044 86.6849
18.3495 97.8927
18.3948 106.24
18.4399 97.3435
18.4852 77.826
18.5303 65.2316
18.5756 60.8763
18.6207 59.359
18.666 58.2249
18.7112 57.117
18.7565 56.4396
18.8016 55.9832
18.8469 55.5446
18.892 55.1716
18.9374 54.74
18.9825 54.4201
19.0278 54.177
19.073 54.1196
19.1183 54.379
19.1635 55.0785
19.2088 56.4425
19.254 59.0865
19.2993 64.5238
19.3447 71.6163
19.3898 75.9066
19.4352 71.8427
19.4804 62.6434
19.5257 55.6211
19.5709 52.0762
19.6163 51.6129
19.6615 51.4987
19.7068 50.956
19.752 50.8323
19.7974 51.0216
19.8426 51.6873
19.888 52.3389
19.9332 53.5181
19.9786 55.9883
20.0238 59.4003
20.0692 65.3605
20.1144 69.4716
20.1598 67.9212
20.205 62.665
20.2504 60.2509
20.2957 62.3476
20.3411 64.7853
20.3863 63.3959
20.4318 57.3505
20.477 52.1741
20.5224 49.1675
20.5677 48.5278
20.6131 48.1231
20.6586 47.6364
20.7038 47.5252
20.7493 47.3387
20.7945 47.5592
20.84 47.3269
20.8853 46.9965
20.9307 46.6208
20.976 46.6234
21.0215 46.4467
21.0668 47.0204
21.1122 47.2015
21.1575 47.8463
21.203 48.5751
21.2483 49.4817
21.2938 49.6642
21.3391 48.3905
21.3846 47.309
21.4299 46.6198
21.4754 46.5738
21.5207 46.6154
21.5662 46.6848
21.6116 47.0827
21.6571 47.7522
21.7024 48.6174
21.7479 50.3749
21.7933 52.8668
21.8388 56.5513
21.8843 61.403
21.9297 64.4065
21.9752 63.3077
22.0206 59.057
22.0661 55.421
22.1115 55.366
22.157 55.5319
22.2024 53.8588
22.248 50.3987
22.2933 48.2311
22.3389 47.2197
22.3843 46.9992
22.4299 46.7117
22.4753 46.7584
22.5208 46.5393
22.5662 46.639
22.6118 46.6191
22.6572 46.8675
22.7028 47.3501
22.7483 47.8634
22.7939 48.6763
22.8393 50.065
22.8849 52.2488
22.9303 54.6018
22.9759 56.7662
23.0214 56.7335
23.067 53.8775
23.1126 50.2256
23.1581 47.9751
23.2037 46.9867
23.2492 46.8936
23.2948 46.935
23.3403 47.4541
23.3859 48.3082
23.4314 49.326
23.477 51.1188
23.5225 53.629
23.5682 56.3482
23.6137 57.8108
23.6593 55.7939
23.7048 51.3564
23.7505 47.5235
23.796 45.2058
23.8417 44.4504
23.8872 43.8644
23.9329 43.6265
23.9784 43.3106
24.0241 43.008
24.0697 42.8861
24.1154 42.4022
24.1609 42.3726
24.2066 42.0017
24.2522 42.0436
24.2979 41.9089
24.3434 41.6512
24.3892 41.3913
24.4349 41.4622
24.4805 41.3283
24.5262 41.6107
24.5718 41.3698
24.6175 41.4887
24.6631 41.3811
24.7089 41.1124
24.7545 40.8208
24.8002 40.5255
24.8458 40.5847
24.8916 40.441
24.9372 40.5927
24.983 40.9114
25.0286 41.2118
25.0744 41.803
25.12 42.4776
25.1658 43.0264
25.2114 43.495
25.2572 43.6812
25.3029 43.8993
25.3487 43.977
25.3943 43.7049
25.4402 42.6705
25.4858 41.5599
25.5316 40.3212
25.5773 39.6359
25.6231 39.5299
25.669 39.0974
25.7147 39.01
25.7605 38.9185
25.8062 38.9799
25.8521 39.1985
25.8977 39.09
25.9436 39.2421
25.9893 39.491
26.0352 40.065
26.0809 40.44
26.1268 40.546
26.1725 40.3944
26.2184 39.6009
26.2641 38.909
26.31 38.8341
26.3557 38.7376
26.4017 38.7961
26.4474 38.976
26.4933 39.2342
26.5391 39.863
26.585 40.3626
26.6308 41.1195
26.6767 41.3527
26.7225 41.2156
26.7684 40.5936
26.8142 39.9288
26.8601 39.3394
26.9059 39.027
26.9519 38.5676
26.9979 38.1488
27.0437 37.6847
27.0896 37.5614
27.1354 37.4794
27.1814 37.3885
27.2272 37.253
27.2732 37.2489
27.3191 37.0794
27.3651 37.1926
27.4109 37.1818
27.4569 37.3217
27.5027 37.3947
27.5488 37.5451
27.5946 37.3371
27.6407 37.0961
27.6865 37.0022
27.7326 36.623
27.7784 36.7083
27.8245 36.6259
27.8703 36.7267
27.9164 36.9551
27.9623 37.3621
28.0084 37.8507
28.0543 38.206
28.1003 38.2829
28.1462 37.9798
28.1923 37.685
28.2384 37.1223
28.2843 36.7947
28.3304 36.1628
28.3764 35.7696
28.4225 35.4245
28.4684 35.2184
28.5145 34.9006
28.5605 34.7672
28.6066 34.5579
28.6526 34.3933
28.6987 34.4871
28.7447 34.4361
28.7908 34.3089
28.8368 34.2213
28.8829 34.3737
28.9289 34.2268
28.9751 34.0282
29.0211 33.8042
29.0673 33.5553
29.1133 33.5103
29.1595 33.2239
29.2055 33.1802
29.2517 33.1976
29.2977 33.1423
29.3439 33.2745
29.3899 33.1899
29.4361 33.1867
29.4824 32.8737
29.5284 32.7623
29.5746 32.338
29.6207 31.9904
29.6669 32.0256
29.713 31.7831
29.7593 31.7385
29.8053 31.7668
29.8516 31.7028
29.8977 31.6586
29.9439 31.4602
29.99 31.5213
30.0363 31.4076
30.0824 31.4193
30.1287 31.3897
30.1748 31.3124
30.2211 31.3996
30.2673 31.2482
30.3136 31.3574
30.3597 31.3488
30.406 31.0838
30.4522 30.9953
30.4985 30.9546
30.5447 31.0763
30.591 31.1233
30.6372 31.2551
30.6835 31.2145
30.7297 31.3477
30.7761 31.3785
30.8224 31.1166
30.8686 30.9586
30.915 30.8026
30.9612 30.512
31.0076 30.3697
31.0538 30.2951
31.1002 30.2173
31.1464 30.026
31.1928 29.9165
31.2391 30.0301
31.2855 29.9324
31.3317 29.898
31.3781 29.9826
31.4244 30.0799
31.4708 29.9358
31.5171 29.9333
31.5636 29.9313
31.6098 29.7286
31.6563 29.4021
31.7026 29.3467
31.7491 29.1826
31.7953 29.3018
31.8418 29.2054
31.8881 29.1877
31.9346 29.2083
31.9809 29.2202
32.0275 29.0487
32.074 28.9258
32.1203 28.7756
32.1668 28.601
32.2132 28.4966
32.2597 28.3284
32.306 28.2388
32.3526 28.0211
32.399 27.948
32.4455 27.8655
32.4919 27.7444
32.5385 27.7523
32.5848 27.6112
32.6314 27.5967
32.6778 27.4913
32.7244 27.3471
32.7708 27.2448
32.8174 27.2917
32.8638 27.1454
32.9104 27.1859
32.9569 27.121
33.0035 26.9524
33.0499 27.0563
33.0966 26.9947
33.143 26.9034
33.1897 26.8947
33.2361 26.8057
33.2828 26.8414
33.3293 26.5663
33.3759 26.5157
33.4226 26.4202
33.4691 26.2184
33.5158 26.1769
33.5623 26.0469
33.609 25.9053
33.6555 25.8019
33.7022 25.771
33.7487 25.6577
33.7954 25.6776
33.842 25.5398
33.8887 25.5217
33.9353 25.4364
33.982 25.3008
34.0286 25.2733
34.0753 25.2184
34.1219 25.0607
34.1687 25.0156
34.2152 24.9523
34.262 24.8712
34.3086 24.7839
34.3554 24.6995
34.402 24.5509
34.4488 24.4265
34.4954 24.3585
34.5422 24.3406
34.5889 24.2797
34.6357 24.1715
34.6825 24.1007
34.7292 24.0783
34.776 23.9748
34.8227 23.9264
34.8695 23.9006
34.9162 23.7851
34.9631 23.6776
35.0098 23.7329
35.0566 23.6021
35.1033 23.4773
35.1502 23.4958
35.1969 23.4546
35.2438 23.3876
35.2906 23.3825
35.3375 23.3343
35.3842 23.2854
35.4311 23.3036
35.4779 23.2507
35.5248 23.2105
35.5716 23.092
35.6185 22.9982
35.6653 22.8782
35.7123 22.8149
35.759 22.7451
35.806 22.608
35.8528 22.4932
35.8998 22.4792
35.9468 22.3352
35.9936 22.3938
36.0406 22.3053
36.0874 22.2507
36.1345 22.2226
36.1813 22.1625
36.2283 22.0784
36.2752 21.9013
36.3222 21.9742
36.3691 21.8637
36.4161 21.7395
36.463 21.7875
36.5101 21.7796
36.557 21.7549
36.6041 21.5532
36.651 21.5687
36.6981 21.4698
36.745 21.4547
36.7921 21.3117
36.839 21.2407
36.8861 21.1551
36.9331 21.066
36.9802 21.0139
37.0272 20.932
37.0743 20.8514
37.1213 20.8407
37.1684 20.7547
37.2154 20.6468
37.2626 20.6646
37.3098 20.576
37.3568 20.5553
37.404 20.4164
37.451 20.3381
37.4982 20.2786
37.5452 20.2362
37.5924 20.2157
37.6395 20.2146
37.6867 20.1055
37.7337 19.9689
37.781 19.9772
37.8281 19.8841
37.8753 19.7556
37.9224 19.7429
37.9697 19.651
38.0168 19.5628
38.064 19.539
38.1111 19.463
38.1584 19.3818
38.2056 19.3067
38.2529 19.3117
38.3 19.215
38.3473 19.2017
38.3945 19.0875
38.4418 19.0964
38.489 19.0072
38.5363 18.9534
38.5837 18.8172
38.6309 18.8093
38.6782 18.7844
38.7254 18.6938
38.7728 18.6216
38.82 18.5728
38.8674 18.5088
38.9146 18.4256
38.9621 18.3524
39.0093 18.3122
39.0567 18.3258
39.104 18.179
39.1514 18.1287
39.1987 18.0795
39.2461 18.0427
39.2934 17.9996
39.3409 17.8514
39.3882 17.9107
39.4356 17.7564
39.483 17.7733
39.5304 17.7409
39.5778 17.6241
39.6253 17.5677
39.6726 17.5245
39.7201 17.5352
39.7675 17.4479
39.815 17.3817
39.8624 17.3486
39.9099 17.2878
39.9575 17.2171
40.0049 17.0806
40.0525 17.0991
40.0999 17.0711
40.1474 16.9525
40.1949 16.9435
40.2425 16.8221
40.2899 16.7887
40.3375 16.8141
40.385 16.7258
40.4326 16.6654
40.48 16.5885
40.5277 16.5882
40.5752 16.4861
40.6228 16.4247
40.6703 16.3595
40.718 16.3837
40.7655 16.3249
40.8132 16.2492
40.8607 16.2419
40.9084 16.1221
40.9559 16.0814
41.0036 16.092
41.0512 16.0071
41.0989 15.9377
41.1465 15.8952
41.1942 15.8659
41.242 15.7965
41.2896 15.7085
41.3373 15.6329
41.3849 15.6491
41.4327 15.6152
41.4803 15.4976
41.5281 15.4875
41.5758 15.3981
41.6236 15.3134
41.6712 15.3314
41.7191 15.2533
41.7667 15.2596
41.8146 15.2253
41.8622 15.0919
41.9101 15.07
41.9578 14.9573
42.0057 14.9769
42.0534 14.8671
42.1013 14.8327
42.149 14.8212
42.1969 14.7015
42.2446 14.7511
42.2925 14.6741
42.3403 14.5757
42.3882 14.5983
42.436 14.5461
42.4839 14.4182
42.5319 14.4097
42.5797 14.3667
42.6277 14.3452
42.6755 14.2428
42.7235 14.2023
42.7713 14.194
42.8193 14.1062
42.8671 14.0904
42.9152 14.0051
42.963 13.9949
43.0111 13.9618
43.0589 13.8265
43.107 13.8598
43.1549 13.7511
43.2029 13.7359
43.2508 13.7396
43.2989 13.6557
43.3468 13.6159
43.3949 13.5447
43.4429 13.5491
43.491 13.457
43.5389 13.4096
43.5871 13.4076
43.635 13.32
43.6832 13.2885
43.7312 13.285
43.7793 13.1868
43.8273 13.1037
43.8755 13.0653
43.9237 13.0223
43.9717 13.0085
44.0199 12.9768
44.068 12.9384
44.1162 12.8788
44.1642 12.8417
44.2125 12.8082
44.2606 12.7216
44.3088 12.6756
44.3569 12.6664
44.4052 12.6234
44.4533 12.5321
44.5016 12.5241
44.5497 12.4364
44.598 12.3869
44.6461 12.3853
44.6945 12.3207
44.7426 12.3485
44.791 12.2092
44.8391 12.2414
44.8875 12.1884
44.9357 12.1178
44.984 12.1
45.0322 12.0277
45.0806 12.0016
45.1288 11.9481
45.1773 11.8886
45.2257 11.9071
45.2739 11.82
45.3224 11.7897
45.3706 11.7744
45.4191 11.6692
45.4673 11.6812
45.5158 11.6554
45.5641 11.5866
45.6126 11.5483
45.6609 11.4646
45.7094 11.4379
45.7577 11.3978
45.8063 11.3742
45.8546 11.3295
45.9031 11.2846
45.9515 11.2257
46.0001 11.2083
46.0484 11.1711
46.097 11.1465
46.1454 11.1229
46.194 11.08
46.2424 11.0053
46.291 10.9663
46.3395 10.9433
46.3881 10.882
46.4365 10.8773
46.4852 10.8233
46.5337 10.7479
46.5823 10.7982
46.631 10.688
46.6795 10.6663
46.7282 10.6224
46.7767 10.567
46.8254 10.5339
46.8739 10.4972
46.9226 10.5032
46.9712 10.4049
47.0199 10.3863
47.0685 10.3634
47.1173 10.3079
47.1658 10.2714
47.2146 10.2563
47.2632 10.1901
47.312 10.1763
47.3606 10.0765
47.4095 10.0737
47.4581 10.0454
47.5069 10.0143
47.5556 9.98078
47.6044 9.95594
47.6531 9.86969
47.702 9.85546
47.7507 9.82261
47.7996 9.78877
47.8483 9.77219
47.8972 9.70214
47.9461 9.68213
47.9948 9.62939
48.0438 9.57228
48.0925 9.60402
48.1415 9.49979
48.1902 9.50598
48.2392 9.5273
48.288 9.4406
48.337 9.4033
48.3858 9.40303
48.4348 9.32275
48.4837 9.32951
48.5327 9.29963
48.5815 9.22736
48.6306 9.20743
48.6795 9.20167
48.7285 9.16012
48.7774 9.12025
48.8265 9.07021
48.8754 9.03857
48.9245 9.02752
48.9734 8.97701
49.0226 8.99427
49.0715 8.89478
49.1206 8.86149
49.1696 8.84568
49.2188 8.79373
49.2679 8.7658
49.3169 8.72021
49.3661 8.69202
49.4151 8.64576
49.4643 8.62451
49.5134 8.61278
49.5626 8.52397
49.6117 8.51742
49.6609 8.53427
49.71 8.45237
49.7592 8.42205
49.8083 8.39533
49.8576 8.38575
49.9067 8.32358
49.956 8.32492
50.0052 8.25212
50.0545 8.22944
50.1036 8.19645
50.153 8.19127
50.2022 8.15061
50.2515 8.07386
50.3007 8.08166
50.3501 8.06865
50.3993 8.02844
50.4487 8.00422
50.498 7.97274
50.5474 7.92483
50.5966 7.85199
50.6461 7.8668
50.6955 7.80722
50.7448 7.79737
50.7943 7.77699
50.8436 7.7182
50.8931 7.70375
50.9424 7.69495
50.9919 7.65104
51.0413 7.64925
51.0908 7.56718
51.1402 7.58379
51.1897 7.53733
51.2391 7.52098
51.2887 7.46731
51.3381 7.43943
51.3877 7.4344
51.4371 7.37274
51.4867 7.34578
51.5362 7.3835
51.5858 7.30875
51.6353 7.23643
51.6849 7.2443
51.7344 7.18755
51.7841 7.20697
51.8336 7.1804
51.8833 7.1456
51.9328 7.05551
51.9826 7.05448
52.0323 7.03072
52.0818 6.95156
52.1316 6.95206
52.1812 6.93902
52.231 6.90158
52.2806 6.87866
52.3304 6.85536
52.38 6.85338
52.4298 6.77694
52.4794 6.76315
52.5293 6.74861
52.5789 6.71609
52.6288 6.70666
52.6785 6.66792
52.7284 6.64056
52.7781 6.6276
52.828 6.60846
52.8777 6.53643
52.9276 6.5137
52.9774 6.5104
53.0273 6.45046
53.0771 6.44478
53.1271 6.38406
53.1769 6.41352
53.2269 6.38371
53.2767 6.31582
53.3267 6.28045
53.3765 6.30824
53.4266 6.31538
53.4766 6.23029
53.5265 6.20014
53.5765 6.1856
53.6264 6.13402
53.6765 6.12203
53.7264 6.09261
53.7765 6.08404
53.8265 6.03913
53.8766 6.02731
53.9266 5.98508
53.9767 5.93626
54.0267 5.93701
54.0769 5.91458
54.1269 5.83279
54.1771 5.80162
54.2271 5.82218
54.2773 5.76158
54.3274 5.78492
54.3776 5.72684
54.4277 5.71456
54.478 5.6768
54.528 5.63604
54.5783 5.59712
54.6285 5.5492
54.6788 5.50725
54.7289 5.44854
54.7792 5.45213
54.8296 5.35803
54.8798 5.34294
54.9301 5.3419
54.9803 5.27596
55.0307 5.24887
55.0809 5.2158
55.1314 5.17422
55.1816 5.11136
55.232 5.05154
55.2823 5.0729
55.3328 4.98732
55.383 4.92776
55.4335 4.88853
55.4838 4.85765
55.5344 4.80555
55.5847 4.76783
55.6352 4.7431
55.6856 4.74828
55.7361 4.68265