File: XRD/Ni3Fe_FD0816.xy
TT I
1.27165 7.05276
1.31627 6.74332
1.36089 6.4681
1.40551 5.61576
1.45013 6.42818
1.49476 6.65505
1.53938 6.33859
1.584 5.4198
1.62863 5.55446
1.67325 5.51556
1.71787 5.055
1.7625 4.42449
1.80712 4.44623
1.85174 4.84262
1.89636 5.0112
1.94099 4.65212
1.98562 4.86927
2.03025 4.48447
2.07487 4.60032
2.11949 4.69393
2.16411 4.99862
2.20874 8.2135
2.25338 11.7889
2.298 5.65229
2.34263 6.25932
2.38725 6.03225
2.43188 6.65252
2.4765 6.59028
2.52115 6.71947
2.56577 8.1681
2.6104 8.41334
2.65503 7.95314
2.69965 8.31239
2.7443 8.65664
2.78893 8.90729
2.83356 8.66189
2.87818 9.32465
2.92281 8.93678
2.96744 8.81639
3.01209 10.4215
3.05672 10.991
3.10135 11.7743
3.14599 12.9541
3.19062 14.627
3.23527 15.1284
3.2799 15.8734
3.32454 16.6303
3.36917 17.7598
3.4138 18.949
3.45844 19.209
3.50309 20.1019
3.54773 21.5426
3.59237 23.2605
3.637 49.2601
3.68164 36.2265
3.7263 25.0865
3.77094 25.7329
3.81558 26.5728
3.86022 27.2112
3.90486 28.7565
3.9495 29.6677
3.99416 30.2897
4.0388 31.6116
4.08344 33.0145
4.12809 33.9101
4.17273 35.6965
4.21738 38.8986
4.26204 119.451
4.30669 105.86
4.35133 44.0444
4.39598 43.3865
4.44063 48.2424
4.4853 53.7866
4.52995 56.9176
4.5746 57.5154
4.61925 53.3409
4.6639 55.4267
4.70855 58.1992
4.75322 61.2728
4.79788 68.6835
4.84253 68.1415
4.88719 75.2737
4.93184 76.3304
4.97652 80.7899
5.02118 86.8286
5.06583 95.0527
5.11049 106.272
5.15515 156.546
5.19981 400.31
5.24449 2869.74
5.28916 12391.0
5.33382 2466.16
5.37848 191.408
5.42315 129.489
5.46783 118.786
5.5125 112.72
5.55716 101.855
5.60183 97.7009
5.6465 95.39
5.69117 93.7757
5.73586 92.9665
5.78053 98.173
5.8252 98.3957
5.86988 100.734
5.91455 94.8684
5.95924 103.616
6.00392 240.554
6.0486 969.242
6.09328 4586.61
6.13795 3021.61
6.18263 204.878
6.22733 89.0358
6.27201 79.7819
6.3167 83.9619
6.36138 73.8427
6.40606 69.5918
6.45075 69.4856
6.49545 64.8005
6.54014 63.1069
6.58483 62.5827
6.62952 62.7063
6.67421 72.9632
6.71892 88.7764
6.76361 61.3028
6.8083 59.2326
6.853 59.6635
6.89769 56.7409
6.94239 55.8954
6.98711 54.8399
7.03181 55.4938
7.07651 54.68
7.12121 54.4843
7.16591 55.7257
7.21063 55.29
7.25533 60.3022
7.30004 98.7853
7.34475 66.9016
7.38945 54.5617
7.43416 53.2536
7.47889 53.0113
7.5236 53.7919
7.56831 54.5368
7.61303 54.854
7.65774 55.773
7.70247 56.4562
7.74719 56.181
7.79191 55.9292
7.83663 56.2784
7.88135 57.2533
7.92607 57.8815
7.97081 58.8185
8.01553 60.4361
8.06026 62.3069
8.10498 63.9809
8.14971 70.4577
8.19446 70.3198
8.23919 68.9336
8.28392 71.6082
8.32865 73.6475
8.37339 77.9407
8.41812 83.4455
8.46288 102.714
8.50761 177.879
8.55235 384.981
8.59709 1229.21
8.64183 2196.4
8.68658 824.505
8.73134 145.957
8.77609 97.1319
8.82083 92.0173
8.86558 92.3771
8.91033 91.5499
8.9551 88.8992
8.99985 84.7901
9.04461 83.4426
9.08936 83.9499
9.13412 82.6746
9.17888 81.7242
9.22365 81.7447
9.26841 81.7659
9.31318 84.5187
9.35794 86.5926
9.4027 85.7484
9.44749 84.9408
9.49226 84.3094
9.53703 85.2345
9.5818 88.8858
9.62657 93.7135
9.67134 95.2083
9.71614 92.2332
9.76091 94.8708
9.80569 98.7557
9.85047 101.059
9.89525 111.576
9.94005 126.723
9.98484 190.545
10.0296 345.413
10.0744 843.117
10.1192 1824.46
10.164 1497.01
10.2088 346.68
10.2536 120.271
10.2984 108.38
10.3432 107.491
10.388 104.831
10.4328 121.833
10.4776 162.825
10.5224 296.29
10.5672 542.054
10.612 486.205
10.6568 182.899
10.7017 93.7521
10.7465 85.4608
10.7913 82.6298
10.8361 80.1911
10.8809 78.1391
10.9257 77.4706
10.9706 77.5419
11.0154 74.7675
11.0602 72.4788
11.105 71.0761
11.1499 71.9446
11.1947 73.7127
11.2395 69.6135
11.2844 67.8963
11.3292 66.3294
11.374 65.479
11.4189 64.8561
11.4637 64.3201
11.5086 64.0772
11.5534 64.7387
11.5983 63.6075
11.6431 62.9326
11.688 62.3029
11.7328 62.268
11.7777 62.1279
11.8225 62.2447
11.8674 62.1477
11.9122 62.3985
11.9571 62.7083
12.002 63.8383
12.0468 68.391
12.0917 78.229
12.1366 103.517
12.1814 162.007
12.2263 219.567
12.2712 164.554
12.3161 86.6902
12.3609 66.1262
12.4058 63.4655
12.4507 63.7192
12.4956 64.2109
12.5405 64.2767
12.5853 64.9459
12.6302 67.606
12.6751 70.1314
12.72 67.5321
12.7649 67.2269
12.8098 67.8862
12.8547 69.5273
12.8996 70.8888
12.9445 72.4867
12.9894 74.2313
13.0343 75.6261
13.0792 79.8043
13.1242 92.1177
13.1691 111.221
13.214 149.728
13.2589 249.951
13.3038 392.725
13.3487 411.111
13.3937 232.892
13.4386 117.055
13.4835 106.112
13.5285 120.408
13.5734 161.473
13.6183 259.89
13.6633 366.045
13.7082 327.818
13.7531 168.166
13.7981 93.1209
13.843 80.9254
13.888 78.9726
13.9329 76.6548
13.9779 75.3648
14.0228 73.7749
14.0678 72.4193
14.1127 71.7137
14.1577 71.3781
14.2027 70.5693
14.2476 69.7241
14.2926 69.2873
14.3376 69.761
14.3825 69.3001
14.4275 68.2608
14.4725 68.2285
14.5175 68.683
14.5624 68.2638
14.6074 69.354
14.6524 69.898
14.6974 70.2508
14.7424 73.3545
14.7874 79.2163
14.8324 88.8518
14.8774 111.941
14.9224 160.316
14.9674 219.189
15.0124 219.028
15.0574 139.223
15.1024 85.4412
15.1474 71.3806
15.1924 69.6736
15.2374 69.021
15.2824 67.935
15.3274 66.7422
15.3725 65.9356
15.4175 65.6545
15.4625 65.1492
15.5076 65.3236
15.5526 65.2658
15.5976 65.4644
15.6426 67.7689
15.6877 72.6959
15.7327 79.5985
15.7778 95.773
15.8228 130.428
15.8679 179.165
15.9129 197.627
15.958 145.738
16.003 87.9492
16.0481 65.3412
16.0931 62.4479
16.1382 60.7869
16.1833 59.5671
16.2283 58.237
16.2734 57.6531
16.3185 57.3767
16.3636 57.3008
16.4086 56.085
16.4537 55.4009
16.4988 54.9527
16.5439 54.8543
16.589 54.6707
16.6341 54.3506
16.6792 53.8712
16.7243 54.19
16.7694 54.2888
16.8145 54.1862
16.8596 54.1589
16.9047 54.801
16.9498 55.2095
16.9949 54.8777
17.04 55.6245
17.0851 56.7803
17.1302 58.2141
17.1754 61.2093
17.2205 66.9169
17.2656 75.564
17.3108 83.7191
17.3559 80.6185
17.401 68.3092
17.4462 60.6525
17.4913 58.6325
17.5365 58.6689
17.5815 58.5492
17.6268 58.9814
17.6718 59.8931
17.7171 60.1512
17.7622 60.9631
17.8074 62.0381
17.8525 64.6243
17.8977 67.9569
17.9428 73.4547
17.9881 83.0317
18.0331 101.955
18.0784 125.87
18.1237 141.615
18.1688 126.36
18.214 98.3702
18.2591 84.8341
18.3044 91.1345
18.3495 102.173
18.3948 105.274
18.4399 91.5761
18.4852 74.0079
18.5303 64.0289
18.5756 61.4016
18.6207 60.5676
18.666 59.6609
18.7112 59.0792
18.7565 58.246
18.8016 58.1951
18.8469 57.5798
18.892 57.1489
18.9374 56.773
18.9825 56.4967
19.0278 56.1869
19.073 56.5198
19.1183 56.7176
19.1635 57.3744
19.2088 58.8672
19.254 61.7058
19.2993 66.5204
19.3447 72.5927
19.3898 75.4805
19.4352 69.6948
19.4804 60.8608
19.5257 55.4613
19.5709 53.4782
19.6163 53.2886
19.6615 53.284
19.7068 52.8322
19.752 52.7928
19.7974 53.2972
19.8426 53.8472
19.888 54.4697
19.9332 55.611
19.9786 58.7254
20.0238 62.9804
20.0692 67.8492
20.1144 69.6924
20.1598 66.7868
20.205 62.1281
20.2504 61.5962
20.2957 64.0415
20.3411 65.1891
20.3863 62.497
20.4318 56.6711
20.477 52.4072
20.5224 50.6871
20.5677 49.8565
20.6131 49.6483
20.6586 49.18
20.7038 48.9468
20.7493 48.6636
20.7945 48.3037
20.84 48.2896
20.8853 48.1876
20.9307 48.1566
20.976 48.2901
21.0215 48.1088
21.0668 48.5311
21.1122 48.974
21.1575 49.5467
21.203 50.5443
21.2483 51.0883
21.2938 50.9119
21.3391 49.2356
21.3846 48.3262
21.4299 47.9858
21.4754 47.9298
21.5207 48.0384
21.5662 48.673
21.6116 48.9282
21.6571 49.4197
21.7024 50.5038
21.7479 52.4464
21.7933 55.3934
21.8388 59.083
21.8843 62.9131
21.9297 64.0974
21.9752 61.6693
22.0206 57.825
22.0661 55.8118
22.1115 55.6045
22.157 55.1554
22.2024 53.1143
22.248 50.4744
22.2933 49.0664
22.3389 48.4757
22.3843 48.3275
22.4299 48.0123
22.4753 48.1569
22.5208 48.1635
22.5662 48.0487
22.6118 48.3052
22.6572 48.4432
22.7028 48.9356
22.7483 49.333
22.7939 50.0369
22.8393 51.6661
22.8849 53.9561
22.9303 56.1528
22.9759 57.483
23.0214 56.5939
23.067 53.336
23.1126 50.1349
23.1581 48.5429
23.2037 48.3801
23.2492 48.4466
23.2948 48.4746
23.3403 48.5604
23.3859 49.2275
23.4314 50.3643
23.477 52.5616
23.5225 54.8884
23.5682 57.1382
23.6137 57.4906
23.6593 54.3039
23.7048 50.2686
23.7505 47.4044
23.796 45.9793
23.8417 45.4005
23.8872 44.9597
23.9329 44.8082
23.9784 44.3727
24.0241 44.0704
24.0697 43.8359
24.1154 43.6675
24.1609 43.5126
24.2066 43.3036
24.2522 43.1225
24.2979 43.0062
24.3434 42.6991
24.3892 42.6034
24.4349 42.6693
24.4805 42.4926
24.5262 42.6907
24.5718 42.5966
24.6175 42.4978
24.6631 42.4272
24.7089 42.009
24.7545 41.8141
24.8002 41.6684
24.8458 41.8559
24.8916 41.6185
24.9372 41.9061
24.983 42.0441
25.0286 42.5947
25.0744 42.9415
25.12 43.3472
25.1658 44.1456
25.2114 44.2572
25.2572 44.2815
25.3029 44.4239
25.3487 44.5721
25.3943 44.1488
25.4402 42.7666
25.4858 41.8583
25.5316 40.896
25.5773 40.54
25.6231 40.4991
25.669 40.2873
25.7147 40.092
25.7605 40.0106
25.8062 40.0274
25.8521 40.2405
25.8977 40.1888
25.9436 40.4555
25.9893 40.608
26.0352 41.1233
26.0809 41.221
26.1268 41.3696
26.1725 40.7445
26.2184 40.2973
26.2641 39.8137
26.31 39.6698
26.3557 39.7167
26.4017 39.7128
26.4474 40.0826
26.4933 40.401
26.5391 40.9607
26.585 41.4775
26.6308 41.6803
26.6767 41.7343
26.7225 41.3868
26.7684 40.8726
26.8142 40.2451
26.8601 40.0036
26.9059 39.6185
26.9519 39.128
26.9979 38.767
27.0437 38.5011
27.0896 38.3275
27.1354 38.4098
27.1814 38.2287
27.2272 38.14
27.2732 38.132
27.3191 38.0316
27.3651 37.9791
27.4109 37.9958
27.4569 38.1223
27.5027 38.324
27.5488 38.1137
27.5946 38.0345
27.6407 37.6746
27.6865 37.6702
27.7326 37.3919
27.7784 37.4994
27.8245 37.4679
27.8703 37.6462
27.9164 37.9985
27.9623 38.0888
28.0084 38.5061
28.0543 38.721
28.1003 38.6583
28.1462 38.3458
28.1923 38.0311
28.2384 37.4447
28.2843 37.1705
28.3304 36.7104
28.3764 36.2797
28.4225 35.9652
28.4684 35.8073
28.5145 35.5735
28.5605 35.4915
28.6066 35.3514
28.6526 35.2839
28.6987 35.343
28.7447 35.1701
28.7908 35.1199
28.8368 35.1977
28.8829 35.0515
28.9289 35.012
28.9751 34.84
29.0211 34.6006
29.0673 34.2541
29.1133 34.2433
29.1595 34.0072
29.2055 33.9567
29.2517 34.0394
29.2977 33.9425
29.3439 33.9746
29.3899 34.0404
29.4361 33.6962
29.4824 33.5847
29.5284 33.3359
29.5746 33.0016
29.6207 32.7832
29.6669 32.7128
29.713 32.6738
29.7593 32.4577
29.8053 32.6426
29.8516 32.4925
29.8977 32.5118
29.9439 32.301
29.99 32.2154
30.0363 32.1056
30.0824 32.179
30.1287 32.0937
30.1748 32.117
30.2211 32.0117
30.2673 31.9662
30.3136 31.9143
30.3597 31.8919
30.406 31.8962
30.4522 31.7879
30.4985 31.7795
30.5447 31.9309
30.591 31.8629
30.6372 31.9804
30.6835 31.9204
30.7297 31.908
30.7761 31.7746
30.8224 31.6793
30.8686 31.4731
30.915 31.1882
30.9612 31.2222
31.0076 30.9147
31.0538 30.8911
31.1002 30.767
31.1464 30.6404
31.1928 30.5977
31.2391 30.6793
31.2855 30.5656
31.3317 30.6091
31.3781 30.611
31.4244 30.587
31.4708 30.6118
31.5171 30.557
31.5636 30.4963
31.6098 30.1769
31.6563 29.987
31.7026 30.0512
31.7491 29.8003
31.7953 29.8945
31.8418 29.9033
31.8881 29.916
31.9346 29.745
31.9809 29.7422
32.0275 29.5853
32.074 29.4659
32.1203 29.2132
32.1668 29.2224
32.2132 29.0182
32.2597 28.9827
32.306 28.844
32.3526 28.678
32.399 28.6621
32.4455 28.5207
32.4919 28.4534
32.5385 28.3598
32.5848 28.0649
32.6314 28.2215
32.6778 28.1382
32.7244 27.9687
32.7708 27.9057
32.8174 27.8828
32.8638 27.806
32.9104 27.7468
32.9569 27.7662
33.0035 27.5934
33.0499 27.558
33.0966 27.4601
33.143 27.4861
33.1897 27.263
33.2361 27.3334
33.2828 27.3397
33.3293 27.0691
33.3759 27.1212
33.4226 26.9193
33.4691 26.8642
33.5158 26.7065
33.5623 26.5881
33.609 26.5204
33.6555 26.3843
33.7022 26.2859
33.7487 26.2102
33.7954 26.2054
33.842 26.0197
33.8887 26.0339
33.9353 25.9763
33.982 25.8401
34.0286 25.7757
34.0753 25.7497
34.1219 25.6392
34.1687 25.6101
34.2152 25.5125
34.262 25.3228
34.3086 25.3259
34.3554 25.272
34.402 25.2069
34.4488 25.0152
34.4954 24.9267
34.5422 24.837
34.5889 24.7871
34.6357 24.7776
34.6825 24.6582
34.7292 24.6131
34.776 24.4496
34.8227 24.3771
34.8695 24.3925
34.9162 24.248
34.9631 24.2323
35.0098 24.161
35.0566 24.162
35.1033 24.0621
35.1502 24.1052
35.1969 24.0182
35.2438 23.8782
35.2906 23.7972
35.3375 23.7911
35.3842 23.7614
35.4311 23.7081
35.4779 23.7404
35.5248 23.7231
35.5716 23.541
35.6185 23.4732
35.6653 23.3458
35.7123 23.2879
35.759 23.2524
35.806 23.1788
35.8528 22.9689
35.8998 22.9639
35.9468 22.8616
35.9936 22.8624
36.0406 22.7927
36.0874 22.8311
36.1345 22.6503
36.1813 22.5532
36.2283 22.4653
36.2752 22.3974
36.3222 22.4107
36.3691 22.2899
36.4161 22.1946
36.463 22.2266
36.5101 22.1937
36.557 22.0926
36.6041 21.8818
36.651 21.9532
36.6981 21.8801
36.745 21.8605
36.7921 21.7287
36.839 21.6331
36.8861 21.5271
36.9331 21.4665
36.9802 21.4214
37.0272 21.3952
37.0743 21.2232
37.1213 21.2873
37.1684 21.2044
37.2154 21.1309
37.2626 21.0361
37.3098 20.9835
37.3568 20.8986
37.404 20.859
37.451 20.7571
37.4982 20.7242
37.5452 20.66
37.5924 20.5735
37.6395 20.5895
37.6867 20.5196
37.7337 20.4421
37.781 20.2788
37.8281 20.2194
37.8753 20.1658
37.9224 20.0944
37.9697 20.0606
38.0168 19.9513
38.064 19.9499
38.1111 19.9283
38.1584 19.8443
38.2056 19.7252
38.2529 19.6701
38.3 19.6655
38.3473 19.5774
38.3945 19.4482
38.4418 19.4654
38.489 19.3414
38.5363 19.323
38.5837 19.2233
38.6309 19.2012
38.6782 19.0634
38.7254 19.0392
38.7728 18.9599
38.82 18.9482
38.8674 18.9022
38.9146 18.8914
38.9621 18.7115
39.0093 18.7254
39.0567 18.6294
39.104 18.629
39.1514 18.4546
39.1987 18.4322
39.2461 18.3936
39.2934 18.3952
39.3409 18.288
39.3882 18.1973
39.4356 18.1967
39.483 18.093
39.5304 18.0584
39.5778 17.9975
39.6253 17.9761
39.6726 17.8997
39.7201 17.8531
39.7675 17.8169
39.815 17.7747
39.8624 17.6567
39.9099 17.6319
39.9575 17.5436
40.0049 17.4796
40.0525 17.4185
40.0999 17.4482
40.1474 17.3873
40.1949 17.3222
40.2425 17.2466
40.2899 17.2155
40.3375 17.1013
40.385 17.0384
40.4326 17.0144
40.48 16.9267
40.5277 16.9223
40.5752 16.8501
40.6228 16.748
40.6703 16.7292
40.718 16.7108
40.7655 16.6524
40.8132 16.5938
40.8607 16.4799
40.9084 16.4884
40.9559 16.434
41.0036 16.3514
41.0512 16.3365
41.0989 16.3052
41.1465 16.1557
41.1942 16.1599
41.242 16.1117
41.2896 16.0476
41.3373 15.9608
41.3849 15.9306
41.4327 15.8785
41.4803 15.829
41.5281 15.7958
41.5758 15.7736
41.6236 15.6265
41.6712 15.6233
41.7191 15.5697
41.7667 15.5305
41.8146 15.5263
41.8622 15.4624
41.9101 15.372
41.9578 15.2172
42.0057 15.2462
42.0534 15.1842
42.1013 15.2107
42.149 15.1328
42.1969 15.0267
42.2446 15.022
42.2925 14.9722
42.3403 14.8898
42.3882 14.8942
42.436 14.8461
42.4839 14.7447
42.5319 14.6889
42.5797 14.6655
42.6277 14.5946
42.6755 14.5946
42.7235 14.4761
42.7713 14.4853
42.8193 14.4187
42.8671 14.3939
42.9152 14.2876
42.963 14.2564
43.0111 14.2432
43.0589 14.1466
43.107 14.0939
43.1549 14.0986
43.2029 14.0192
43.2508 13.9843
43.2989 13.9385
43.3468 13.8442
43.3949 13.8167
43.4429 13.7578
43.491 13.7125
43.5389 13.6819
43.5871 13.6481
43.635 13.5784
43.6832 13.5604
43.7312 13.4781
43.7793 13.4124
43.8273 13.3795
43.8755 13.3443
43.9237 13.2976
43.9717 13.3247
44.0199 13.2268
44.068 13.2191
44.1162 13.105
44.1642 13.1198
44.2125 13.036
44.2606 13.0062
44.3088 12.88
44.3569 12.9338
44.4052 12.892
44.4533 12.7966
44.5016 12.7267
44.5497 12.74
44.598 12.673
44.6461 12.6245
44.6945 12.5726
44.7426 12.54
44.791 12.4584
44.8391 12.4368
44.8875 12.4403
44.9357 12.3904
44.984 12.3579
45.0322 12.3084
45.0806 12.2263
45.1288 12.1924
45.1773 12.1714
45.2257 12.13
45.2739 12.0554
45.3224 12.02
45.3706 11.9617
45.4191 11.9615
45.4673 11.9465
45.5158 11.8705
45.5641 11.8186
45.6126 11.7731
45.6609 11.7042
45.7094 11.705
45.7577 11.6331
45.8063 11.5862
45.8546 11.5852
45.9031 11.5215
45.9515 11.4729
46.0001 11.4308
46.0484 11.3934
46.097 11.3484
46.1454 11.3316
46.194 11.2956
46.2424 11.2469
46.291 11.1753
46.3395 11.1513
46.3881 11.1033
46.4365 11.0797
46.4852 11.0267
46.5337 10.9929
46.5823 10.9641
46.631 10.9113
46.6795 10.8926
46.7282 10.8482
46.7767 10.8208
46.8254 10.73
46.8739 10.7141
46.9226 10.6629
46.9712 10.6421
47.0199 10.5901
47.0685 10.5844
47.1173 10.5569
47.1658 10.4817
47.2146 10.4299
47.2632 10.39
47.312 10.37
47.3606 10.3731
47.4095 10.2899
47.4581 10.2561
47.5069 10.2013
47.5556 10.1671
47.6044 10.1149
47.6531 10.1143
47.702 10.026
47.7507 10.0394
47.7996 9.97065
47.8483 9.95089
47.8972 9.92414
47.9461 9.89391
47.9948 9.83124
48.0438 9.79269
48.0925 9.77717
48.1415 9.73069
48.1902 9.69667
48.2392 9.67687
48.288 9.63726
48.337 9.59854
48.3858 9.55613
48.4348 9.51542
48.4837 9.5118
48.5327 9.49814
48.5815 9.44043
48.6306 9.38877
48.6795 9.33912
48.7285 9.32467
48.7774 9.27173
48.8265 9.27073
48.8754 9.15167
48.9245 9.19579
48.9734 9.14075
49.0226 9.1613
49.0715 9.06362
49.1206 9.04721
49.1696 8.9836
49.2188 8.96736
49.2679 8.95292
49.3169 8.92305
49.3661 8.84851
49.4151 8.87288
49.4643 8.8484
49.5134 8.78565
49.5626 8.72968
49.6117 8.6947
49.6609 8.65946
49.71 8.60263
49.7592 8.61125
49.8083 8.57167
49.8576 8.56006
49.9067 8.49346
49.956 8.46187
50.0052 8.43585
50.0545 8.41206
50.1036 8.36783
50.153 8.32304
50.2022 8.30827
50.2515 8.26927
50.3007 8.21779
50.3501 8.21303
50.3993 8.18087
50.4487 8.15862
50.498 8.11795
50.5474 8.09681
50.5966 8.0268
50.6461 8.03291
50.6955 7.98069
50.7448 7.956
50.7943 7.9506
50.8436 7.901
50.8931 7.86828
50.9424 7.88403
50.9919 7.78757
51.0413 7.81269
51.0908 7.72528
51.1402 7.70803
51.1897 7.69015
51.2391 7.64616
51.2887 7.59178
51.3381 7.61321
51.3877 7.57477
51.4371 7.51805
51.4867 7.50855
51.5362 7.48446
51.5858 7.46393
51.6353 7.4014
51.6849 7.3856
51.7344 7.40384
51.7841 7.32986
51.8336 7.31443
51.8833 7.25556
51.9328 7.21275
51.9826 7.19707
52.0323 7.15753
52.0818 7.12684
52.1316 7.11121
52.1812 7.0711
52.231 7.05892
52.2806 7.02189
52.3304 6.99828
52.38 6.93603
52.4298 6.93511
52.4794 6.89894
52.5293 6.87019
52.5789 6.8722
52.6288 6.84858
52.6785 6.80828
52.7284 6.76874
52.7781 6.78123
52.828 6.69531
52.8777 6.68133
52.9276 6.65059
52.9774 6.65871
53.0273 6.63386
53.0771 6.55687
53.1271 6.55508
53.1769 6.48855
53.2269 6.4857
53.2767 6.43534
53.3267 6.45122
53.3765 6.42101
53.4266 6.40166
53.4766 6.37137
53.5265 6.32428
53.5765 6.2817
53.6264 6.27374
53.6765 6.21741
53.7264 6.21593
53.7765 6.23169
53.8265 6.17342
53.8766 6.1233
53.9266 6.13053
53.9767 6.0581
54.0267 6.05614
54.0769 5.98954
54.1269 5.99737
54.1771 5.93741
54.2271 5.93566
54.2773 5.87148
54.3274 5.8998
54.3776 5.85034
54.4277 5.79654
54.478 5.73011
54.528 5.76711
54.5783 5.68524
54.6285 5.68418
54.6788 5.64392
54.7289 5.59688
54.7792 5.60318
54.8296 5.52584
54.8798 5.42316
54.9301 5.4296
54.9803 5.35579
55.0307 5.36508
55.0809 5.32795
55.1314 5.31253
55.1816 5.22604
55.232 5.1791
55.2823 5.13961
55.3328 5.10312
55.383 5.05864
55.4335 4.98954
55.4838 4.96532
55.5344 4.85549
55.5847 4.92078
55.6352 4.85478
55.6856 4.77919
55.7361 4.78377