File: XRD/Ni3Fe_FD0703.xy
TT I
1.27165 6.70257
1.31627 6.49753
1.36089 6.80155
1.40551 7.08353
1.45013 6.14766
1.49476 5.28756
1.53938 5.48886
1.584 5.40786
1.62863 5.19362
1.67325 4.9217
1.71787 4.58327
1.7625 4.48876
1.80712 4.53473
1.85174 4.51848
1.89636 4.63657
1.94099 4.84509
1.98562 4.79319
2.03025 4.5507
2.07487 4.23402
2.11949 4.58075
2.16411 4.61551
2.20874 8.86236
2.25338 11.5913
2.298 5.53572
2.34263 5.17641
2.38725 5.96491
2.43188 6.71061
2.4765 6.64419
2.52115 7.06288
2.56577 7.80385
2.6104 8.05732
2.65503 8.24131
2.69965 7.86251
2.7443 8.15248
2.78893 8.24524
2.83356 8.39697
2.87818 8.90624
2.92281 8.67283
2.96744 9.24743
3.01209 9.91783
3.05672 11.02
3.10135 12.4328
3.14599 12.71
3.19062 14.2592
3.23527 14.8775
3.2799 15.4777
3.32454 16.7354
3.36917 17.6515
3.4138 18.5525
3.45844 19.2885
3.50309 20.0368
3.54773 21.4582
3.59237 23.0091
3.637 52.8788
3.68164 37.7791
3.7263 25.0958
3.77094 25.4168
3.81558 26.5646
3.86022 27.2614
3.90486 28.512
3.9495 29.4857
3.99416 30.6969
4.0388 32.0347
4.08344 33.259
4.12809 33.9311
4.17273 35.7066
4.21738 39.0191
4.26204 125.342
4.30669 109.623
4.35133 44.2605
4.39598 43.2395
4.44063 49.0227
4.4853 54.0629
4.52995 55.8995
4.5746 56.2441
4.61925 53.495
4.6639 55.5162
4.70855 58.2806
4.75322 61.8528
4.79788 68.0183
4.84253 68.3871
4.88719 74.7797
4.93184 76.8492
4.97652 81.4332
5.02118 87.6901
5.06583 95.2391
5.11049 107.792
5.15515 157.69
5.19981 435.166
5.24449 3056.21
5.28916 12740.3
5.33382 2651.66
5.37848 195.75
5.42315 131.165
5.46783 118.954
5.5125 111.172
5.55716 102.746
5.60183 98.1987
5.6465 95.9768
5.69117 94.4589
5.73586 93.3052
5.78053 97.4518
5.8252 97.4848
5.86988 100.022
5.91455 96.5511
5.95924 106.587
6.00392 255.793
6.0486 1045.7
6.09328 4609.14
6.13795 3103.22
6.18263 222.167
6.22733 91.3811
6.27201 80.5137
6.3167 85.1859
6.36138 74.674
6.40606 69.9874
6.45075 69.1706
6.49545 65.2877
6.54014 63.1792
6.58483 62.8024
6.62952 62.9213
6.67421 74.2627
6.71892 93.5282
6.76361 62.5031
6.8083 59.2796
6.853 59.2685
6.89769 56.9047
6.94239 56.1288
6.98711 55.4713
7.03181 55.8856
7.07651 54.8526
7.12121 54.5813
7.16591 55.7635
7.21063 55.5357
7.25533 60.9836
7.30004 104.113
7.34475 68.7418
7.38945 54.885
7.43416 53.4675
7.47889 53.9335
7.5236 54.3337
7.56831 54.753
7.61303 55.5913
7.65774 55.9854
7.70247 56.6163
7.74719 56.1893
7.79191 56.1836
7.83663 56.4971
7.88135 57.6058
7.92607 58.4269
7.97081 59.4264
8.01553 60.9927
8.06026 62.7581
8.10498 64.2748
8.14971 70.8493
8.19446 70.4097
8.23919 69.4639
8.28392 72.026
8.32865 74.2919
8.37339 78.5826
8.41812 84.328
8.46288 104.415
8.50761 188.508
8.55235 410.496
8.59709 1246.36
8.64183 2192.74
8.68658 849.393
8.73134 149.322
8.77609 98.3916
8.82083 92.436
8.86558 92.3018
8.91033 92.1095
8.9551 89.3974
8.99985 85.1667
9.04461 83.729
9.08936 83.9502
9.13412 82.92
9.17888 81.869
9.22365 82.3269
9.26841 81.9548
9.31318 84.4995
9.35794 86.2345
9.4027 85.3369
9.44749 85.0503
9.49226 85.1122
9.53703 86.2311
9.5818 89.3243
9.62657 93.7421
9.67134 95.8133
9.71614 93.0726
9.76091 94.9448
9.80569 99.5967
9.85047 101.481
9.89525 112.89
9.94005 129.894
9.98484 200.594
10.0296 366.493
10.0744 856.641
10.1192 1798.6
10.164 1542.81
10.2088 356.234
10.2536 122.336
10.2984 110.176
10.3432 108.752
10.388 105.927
10.4328 124.85
10.4776 166.608
10.5224 293.621
10.5672 518.687
10.612 497.548
10.6568 193.215
10.7017 94.3168
10.7465 86.1706
10.7913 82.9203
10.8361 80.7747
10.8809 78.9637
10.9257 77.9183
10.9706 78.0752
11.0154 75.1717
11.0602 73.0623
11.105 71.1507
11.1499 72.3274
11.1947 74.773
11.2395 70.2504
11.2844 68.4949
11.3292 67.124
11.374 66.1992
11.4189 65.7019
11.4637 64.5517
11.5086 64.718
11.5534 65.7093
11.5983 64.3225
11.6431 63.5671
11.688 62.8469
11.7328 62.6498
11.7777 62.7511
11.8225 62.4658
11.8674 62.4802
11.9122 62.5584
11.9571 63.2562
12.002 64.5035
12.0468 69.5559
12.0917 79.5459
12.1366 105.685
12.1814 155.904
12.2263 205.701
12.2712 156.383
12.3161 87.666
12.3609 67.3318
12.4058 64.1466
12.4507 64.1221
12.4956 64.6547
12.5405 64.9268
12.5853 65.1891
12.6302 68.4325
12.6751 71.0276
12.72 68.2574
12.7649 67.6133
12.8098 68.5335
12.8547 69.653
12.8996 71.5278
12.9445 72.9719
12.9894 75.0144
13.0343 76.0762
13.0792 80.4808
13.1242 94.0972
13.1691 114.547
13.214 153.641
13.2589 249.994
13.3038 381.212
13.3487 415.332
13.3937 247.874
13.4386 120.426
13.4835 108.638
13.5285 123.262
13.5734 165.503
13.6183 259.06
13.6633 358.244
13.7082 329.381
13.7531 173.811
13.7981 94.3187
13.843 81.8206
13.888 79.735
13.9329 77.0524
13.9779 75.7536
14.0228 74.4543
14.0678 73.1743
14.1127 72.204
14.1577 72.0531
14.2027 71.2596
14.2476 70.5428
14.2926 70.1807
14.3376 70.3826
14.3825 69.5335
14.4275 68.6818
14.4725 68.5201
14.5175 68.8125
14.5624 69.0034
14.6074 69.9347
14.6524 70.6671
14.6974 70.7731
14.7424 74.2697
14.7874 80.5715
14.8324 90.7404
14.8774 114.707
14.9224 159.862
14.9674 212.609
15.0124 215.264
15.0574 139.645
15.1024 86.5497
15.1474 71.7307
15.1924 70.2034
15.2374 69.7303
15.2824 68.6501
15.3274 67.5455
15.3725 66.7506
15.4175 66.4691
15.4625 65.9634
15.5076 65.8325
15.5526 65.8834
15.5976 65.9824
15.6426 68.6449
15.6877 73.6671
15.7327 81.0708
15.7778 97.2533
15.8228 130.7
15.8679 175.253
15.9129 195.321
15.958 148.906
16.003 91.1528
16.0481 66.2667
16.0931 62.984
16.1382 61.5299
16.1833 59.9027
16.2283 58.6959
16.2734 58.1418
16.3185 58.1245
16.3636 57.7922
16.4086 56.5473
16.4537 55.7948
16.4988 55.2116
16.5439 55.2918
16.589 55.1307
16.6341 54.7931
16.6792 54.2272
16.7243 54.8025
16.7694 54.761
16.8145 54.4914
16.8596 54.8607
16.9047 55.5682
16.9498 55.5655
16.9949 55.3719
17.04 56.2642
17.0851 57.3679
17.1302 58.7882
17.1754 62.093
17.2205 67.5509
17.2656 75.2796
17.3108 82.9743
17.3559 81.1017
17.401 69.7306
17.4462 61.4822
17.4913 59.1914
17.5365 59.0451
17.5815 59.3294
17.6268 59.6866
17.6718 60.3268
17.7171 60.67
17.7622 61.3168
17.8074 62.6323
17.8525 65.5332
17.8977 69.0125
17.9428 74.4707
17.9881 84.4197
18.0331 102.738
18.0784 125.842
18.1237 141.923
18.1688 130.281
18.214 100.834
18.2591 85.9176
18.3044 91.6221
18.3495 101.027
18.3948 106.011
18.4399 93.8646
18.4852 74.9313
18.5303 65.1128
18.5756 61.8323
18.6207 61.1936
18.666 60.2607
18.7112 59.4807
18.7565 58.9949
18.8016 58.6005
18.8469 58.1279
18.892 57.6895
18.9374 57.2689
18.9825 56.8648
19.0278 56.6532
19.073 56.9927
19.1183 57.3583
19.1635 57.8595
19.2088 59.359
19.254 62.4766
19.2993 67.2456
19.3447 73.0764
19.3898 75.9334
19.4352 71.0099
19.4804 62.0953
19.5257 56.1195
19.5709 54.0255
19.6163 53.8019
19.6615 53.7761
19.7068 53.2642
19.752 53.2933
19.7974 53.8206
19.8426 54.5574
19.888 54.9254
19.9332 56.368
19.9786 59.183
20.0238 63.0401
20.0692 67.8486
20.1144 69.7987
20.1598 67.748
20.205 63.1175
20.2504 62.3153
20.2957 64.2039
20.3411 65.4927
20.3863 63.1939
20.4318 57.4263
20.477 52.8519
20.5224 51.0712
20.5677 50.532
20.6131 50.0375
20.6586 49.5806
20.7038 49.5633
20.7493 48.9683
20.7945 48.9339
20.84 48.7996
20.8853 48.7643
20.9307 48.6401
20.976 48.832
21.0215 48.6402
21.0668 48.9853
21.1122 49.5115
21.1575 50.0737
21.203 50.8047
21.2483 51.5628
21.2938 51.3379
21.3391 49.9125
21.3846 48.6887
21.4299 48.3761
21.4754 48.4242
21.5207 48.3835
21.5662 48.9933
21.6116 49.4907
21.6571 50.0269
21.7024 50.866
21.7479 53.0417
21.7933 55.8251
21.8388 59.6708
21.8843 63.0903
21.9297 64.844
21.9752 62.764
22.0206 59.0811
22.0661 56.2733
22.1115 55.941
22.157 55.5998
22.2024 53.9108
22.248 50.9894
22.2933 49.5818
22.3389 48.9504
22.3843 48.7546
22.4299 48.6863
22.4753 48.5825
22.5208 48.3523
22.5662 48.4512
22.6118 48.7739
22.6572 48.9339
22.7028 49.3692
22.7483 49.7699
22.7939 50.6675
22.8393 52.1131
22.8849 54.3811
22.9303 56.4909
22.9759 57.8137
23.0214 57.0187
23.067 54.1317
23.1126 50.6752
23.1581 49.0263
23.2037 48.7665
23.2492 48.9307
23.2948 48.8164
23.3403 48.9738
23.3859 49.8814
23.4314 50.8989
23.477 52.8979
23.5225 55.3012
23.5682 57.3494
23.6137 57.8915
23.6593 55.0237
23.7048 50.9495
23.7505 47.8137
23.796 46.4629
23.8417 45.9096
23.8872 45.5149
23.9329 45.0233
23.9784 44.757
24.0241 44.4817
24.0697 44.3888
24.1154 43.9854
24.1609 43.8641
24.2066 43.7382
24.2522 43.703
24.2979 43.381
24.3434 43.1714
24.3892 43.1055
24.4349 43.055
24.4805 42.72
24.5262 43.0083
24.5718 42.8754
24.6175 42.8623
24.6631 42.6804
24.7089 42.4161
24.7545 42.2186
24.8002 42.0915
24.8458 42.1803
24.8916 41.9417
24.9372 42.2677
24.983 42.6358
25.0286 42.9013
25.0744 43.404
25.12 43.8684
25.1658 44.4108
25.2114 44.6365
25.2572 44.6726
25.3029 44.7497
25.3487 44.9351
25.3943 44.4761
25.4402 43.4163
25.4858 42.0999
25.5316 41.2669
25.5773 40.7856
25.6231 40.7955
25.669 40.4196
25.7147 40.403
25.7605 40.3765
25.8062 40.4826
25.8521 40.479
25.8977 40.5225
25.9436 40.8271
25.9893 41.1106
26.0352 41.5139
26.0809 41.6444
26.1268 41.6022
26.1725 41.3698
26.2184 40.6239
26.2641 40.1667
26.31 40.0791
26.3557 40.103
26.4017 40.0646
26.4474 40.4298
26.4933 40.7325
26.5391 41.2464
26.585 41.8471
26.6308 42.1475
26.6767 42.092
26.7225 41.8482
26.7684 41.2862
26.8142 40.6613
26.8601 40.4782
26.9059 39.9173
26.9519 39.281
26.9979 39.1075
27.0437 38.8316
27.0896 38.7637
27.1354 38.7406
27.1814 38.543
27.2272 38.4709
27.2732 38.5018
27.3191 38.2704
27.3651 38.4952
27.4109 38.3982
27.4569 38.4477
27.5027 38.6212
27.5488 38.5923
27.5946 38.4238
27.6407 38.077
27.6865 37.8954
27.7326 37.8146
27.7784 37.8554
27.8245 37.8091
27.8703 38.038
27.9164 38.4009
27.9623 38.5672
28.0084 38.7579
28.0543 39.1082
28.1003 38.9823
28.1462 38.8132
28.1923 38.4478
28.2384 37.7936
28.2843 37.513
28.3304 36.9474
28.3764 36.6155
28.4225 36.2096
28.4684 36.1183
28.5145 35.8543
28.5605 35.8538
28.6066 35.5833
28.6526 35.5416
28.6987 35.574
28.7447 35.4241
28.7908 35.4227
28.8368 35.3161
28.8829 35.3998
28.9289 35.274
28.9751 34.9829
29.0211 34.8084
29.0673 34.4954
29.1133 34.4645
29.1595 34.3937
29.2055 34.2657
29.2517 34.2739
29.2977 34.2584
29.3439 34.1309
29.3899 34.2412
29.4361 34.0992
29.4824 33.9138
29.5284 33.7346
29.5746 33.3593
29.6207 33.0455
29.6669 33.0347
29.713 32.9232
29.7593 32.7765
29.8053 32.7926
29.8516 32.8169
29.8977 32.7617
29.9439 32.5866
29.99 32.4843
30.0363 32.3717
30.0824 32.5363
30.1287 32.329
30.1748 32.3698
30.2211 32.3972
30.2673 32.3047
30.3136 32.2855
30.3597 32.1701
30.406 32.193
30.4522 32.0294
30.4985 31.9586
30.5447 32.1813
30.591 32.0532
30.6372 32.1766
30.6835 32.0856
30.7297 32.1745
30.7761 31.9718
30.8224 31.9187
30.8686 31.8199
30.915 31.5775
30.9612 31.4969
31.0076 31.151
31.0538 31.205
31.1002 31.1127
31.1464 30.9394
31.1928 30.8409
31.2391 30.9836
31.2855 30.855
31.3317 30.8956
31.3781 30.8864
31.4244 30.8281
31.4708 30.7471
31.5171 30.6497
31.5636 30.7161
31.6098 30.5812
31.6563 30.3323
31.7026 30.1811
31.7491 30.0989
31.7953 30.223
31.8418 30.1092
31.8881 30.1347
31.9346 30.1504
31.9809 29.9762
32.0275 29.858
32.074 29.7548
32.1203 29.5333
32.1668 29.378
32.2132 29.3198
32.2597 29.1907
32.306 29.1045
32.3526 28.9164
32.399 28.9009
32.4455 28.7369
32.4919 28.5873
32.5385 28.6076
32.5848 28.4503
32.6314 28.4246
32.6778 28.3769
32.7244 28.233
32.7708 28.104
32.8174 28.1256
32.8638 27.8968
32.9104 27.9943
32.9569 27.9903
33.0035 27.8694
33.0499 27.7599
33.0966 27.8165
33.143 27.7707
33.1897 27.664
33.2361 27.5595
33.2828 27.5749
33.3293 27.3243
33.3759 27.3686
33.4226 27.2312
33.4691 27.0067
33.5158 26.8787
33.5623 26.8714
33.609 26.6879
33.6555 26.6556
33.7022 26.518
33.7487 26.5503
33.7954 26.3898
33.842 26.2738
33.8887 26.2667
33.9353 26.2695
33.982 26.0714
34.0286 25.9979
34.0753 25.9383
34.1219 25.8578
34.1687 25.7026
34.2152 25.7749
34.262 25.5939
34.3086 25.5343
34.3554 25.4804
34.402 25.2318
34.4488 25.2387
34.4954 25.2161
34.5422 25.1658
34.5889 24.9541
34.6357 24.8453
34.6825 24.8686
34.7292 24.8096
34.776 24.686
34.8227 24.6549
34.8695 24.6154
34.9162 24.4697
34.9631 24.4959
35.0098 24.4107
35.0566 24.3484
35.1033 24.3156
35.1502 24.1336
35.1969 24.1314
35.2438 24.0549
35.2906 24.0509
35.3375 23.9617
35.3842 23.9141
35.4311 24.0116
35.4779 23.9584
35.5248 23.8377
35.5716 23.7851
35.6185 23.665
35.6653 23.5291
35.7123 23.4751
35.759 23.3989
35.806 23.2498
35.8528 23.2257
35.8998 23.1819
35.9468 23.0942
35.9936 23.0287
36.0406 23.0261
36.0874 23.0102
36.1345 22.892
36.1813 22.7399
36.2283 22.6201
36.2752 22.6118
36.3222 22.5897
36.3691 22.5465
36.4161 22.3918
36.463 22.4124
36.5101 22.4323
36.557 22.3078
36.6041 22.0848
36.651 22.0695
36.6981 22.1529
36.745 22.0088
36.7921 21.8807
36.839 21.8368
36.8861 21.6976
36.9331 21.6972
36.9802 21.6033
37.0272 21.5122
37.0743 21.3839
37.1213 21.3871
37.1684 21.3735
37.2154 21.3459
37.2626 21.2105
37.3098 21.1721
37.3568 21.1014
37.404 21.1137
37.451 20.9183
37.4982 20.9057
37.5452 20.8152
37.5924 20.7101
37.6395 20.7541
37.6867 20.7106
37.7337 20.566
37.781 20.5011
37.8281 20.4351
37.8753 20.3143
37.9224 20.2757
37.9697 20.2566
38.0168 20.1847
38.064 20.0549
38.1111 20.0276
38.1584 19.9623
38.2056 19.9155
38.2529 19.8798
38.3 19.8004
38.3473 19.8123
38.3945 19.6502
38.4418 19.6224
38.489 19.5677
38.5363 19.4583
38.5837 19.4101
38.6309 19.2977
38.6782 19.2167
38.7254 19.2055
38.7728 19.2337
38.82 19.0579
38.8674 19.0959
38.9146 18.9461
38.9621 18.9191
39.0093 18.8606
39.0567 18.8722
39.104 18.7147
39.1514 18.6682
39.1987 18.672
39.2461 18.6305
39.2934 18.5657
39.3409 18.436
39.3882 18.2984
39.4356 18.3166
39.483 18.3208
39.5304 18.1861
39.5778 18.1653
39.6253 18.1383
39.6726 18.0815
39.7201 17.9654
39.7675 17.9279
39.815 17.8682
39.8624 17.8172
39.9099 17.7798
39.9575 17.7124
40.0049 17.6631
40.0525 17.5724
40.0999 17.5531
40.1474 17.5076
40.1949 17.4765
40.2425 17.3905
40.2899 17.2786
40.3375 17.2713
40.385 17.1394
40.4326 17.1622
40.48 17.102
40.5277 17.0507
40.5752 16.9596
40.6228 16.8835
40.6703 16.8519
40.718 16.838
40.7655 16.828
40.8132 16.708
40.8607 16.6757
40.9084 16.6124
40.9559 16.5785
41.0036 16.5791
41.0512 16.5117
41.0989 16.3768
41.1465 16.3468
41.1942 16.3244
41.242 16.2294
41.2896 16.2046
41.3373 16.1523
41.3849 16.1353
41.4327 15.9774
41.4803 15.9124
41.5281 15.9468
41.5758 15.8409
41.6236 15.8254
41.6712 15.7656
41.7191 15.6948
41.7667 15.6453
41.8146 15.5751
41.8622 15.5128
41.9101 15.5088
41.9578 15.452
42.0057 15.4227
42.0534 15.3102
42.1013 15.3035
42.149 15.21
42.1969 15.2308
42.2446 15.1318
42.2925 15.1593
42.3403 14.9849
42.3882 14.9742
42.436 14.9601
42.4839 14.8814
42.5319 14.8881
42.5797 14.7843
42.6277 14.7201
42.6755 14.7006
42.7235 14.6312
42.7713 14.61
42.8193 14.5473
42.8671 14.4967
42.9152 14.4582
42.963 14.4339
43.0111 14.3459
43.0589 14.3048
43.107 14.2436
43.1549 14.1955
43.2029 14.0969
43.2508 14.1426
43.2989 14.0666
43.3468 13.9098
43.3949 13.9447
43.4429 13.9297
43.491 13.8699
43.5389 13.7969
43.5871 13.7609
43.635 13.7151
43.6832 13.6824
43.7312 13.564
43.7793 13.5517
43.8273 13.5294
43.8755 13.4312
43.9237 13.4172
43.9717 13.3826
44.0199 13.3455
44.068 13.3387
44.1162 13.2014
44.1642 13.2183
44.2125 13.1614
44.2606 13.1225
44.3088 13.0435
44.3569 12.991
44.4052 12.9788
44.4533 12.9144
44.5016 12.8492
44.5497 12.8206
44.598 12.7758
44.6461 12.6931
44.6945 12.6959
44.7426 12.7095
44.791 12.6008
44.8391 12.5406
44.8875 12.5617
44.9357 12.503
44.984 12.4327
45.0322 12.36
45.0806 12.358
45.1288 12.2975
45.1773 12.2686
45.2257 12.2099
45.2739 12.1393
45.3224 12.1763
45.3706 12.0565
45.4191 11.9987
45.4673 12.0085
45.5158 11.9815
45.5641 11.9018
45.6126 11.8759
45.6609 11.8052
45.7094 11.8032
45.7577 11.7562
45.8063 11.6908
45.8546 11.723
45.9031 11.5907
45.9515 11.5724
46.0001 11.5441
46.0484 11.533
46.097 11.4764
46.1454 11.4327
46.194 11.3953
46.2424 11.3499
46.291 11.3073
46.3395 11.252
46.3881 11.1882
46.4365 11.1765
46.4852 11.1222
46.5337 11.0966
46.5823 11.0728
46.631 10.9851
46.6795 10.9883
46.7282 10.9367
46.7767 10.8802
46.8254 10.8275
46.8739 10.8117
46.9226 10.7517
46.9712 10.7451
47.0199 10.7066
47.0685 10.6216
47.1173 10.577
47.1658 10.5803
47.2146 10.5382
47.2632 10.4611
47.312 10.4814
47.3606 10.397
47.4095 10.3546
47.4581 10.3314
47.5069 10.2927
47.5556 10.2848
47.6044 10.1883
47.6531 10.1737
47.702 10.1251
47.7507 10.0798
47.7996 10.0628
47.8483 10.05
47.8972 10.0198
47.9461 9.95927
47.9948 9.90059
48.0438 9.87381
48.0925 9.91042
48.1415 9.839
48.1902 9.77271
48.2392 9.75063
48.288 9.73681
48.337 9.68321
48.3858 9.65286
48.4348 9.6236
48.4837 9.62613
48.5327 9.53125
48.5815 9.50052
48.6306 9.49491
48.6795 9.43832
48.7285 9.39097
48.7774 9.41547
48.8265 9.38309
48.8754 9.2721
48.9245 9.28284
48.9734 9.23265
49.0226 9.20331
49.0715 9.15441
49.1206 9.10966
49.1696 9.10981
49.2188 9.04842
49.2679 9.05098
49.3169 9.00294
49.3661 8.94281
49.4151 8.91373
49.4643 8.88583
49.5134 8.84768
49.5626 8.77581
49.6117 8.77752
49.6609 8.75515
49.71 8.66968
49.7592 8.64466
49.8083 8.63523
49.8576 8.59198
49.9067 8.56923
49.956 8.55855
50.0052 8.53047
50.0545 8.46305
50.1036 8.44749
50.153 8.39275
50.2022 8.39115
50.2515 8.35543
50.3007 8.29799
50.3501 8.27314
50.3993 8.23886
50.4487 8.257
50.498 8.20777
50.5474 8.13554
50.5966 8.09683
50.6461 8.12118
50.6955 8.04843
50.7448 8.05953
50.7943 8.04048
50.8436 7.9669
50.8931 7.92117
50.9424 7.90745
50.9919 7.86821
51.0413 7.86753
51.0908 7.79719
51.1402 7.76805
51.1897 7.76948
51.2391 7.71495
51.2887 7.69602
51.3381 7.63881
51.3877 7.62611
51.4371 7.60202
51.4867 7.55372
51.5362 7.51799
51.5858 7.50791
51.6353 7.47325
51.6849 7.42442
51.7344 7.40495
51.7841 7.40633
51.8336 7.36322
51.8833 7.33226
51.9328 7.27847
51.9826 7.2525
52.0323 7.22351
52.0818 7.18629
52.1316 7.17004
52.1812 7.13417
52.231 7.09393
52.2806 7.07098
52.3304 7.05053
52.38 7.023
52.4298 6.99906
52.4794 6.96459
52.5293 6.93297
52.5789 6.90128
52.6288 6.85222
52.6785 6.84544
52.7284 6.84478
52.7781 6.81072
52.828 6.7531
52.8777 6.72336
52.9276 6.72528
52.9774 6.66903
53.0273 6.64445
53.0771 6.643
53.1271 6.61306
53.1769 6.57692
53.2269 6.52001
53.2767 6.4804
53.3267 6.51387
53.3765 6.46417
53.4266 6.43006
53.4766 6.4135
53.5265 6.34145
53.5765 6.36439
53.6264 6.28673
53.6765 6.29712
53.7264 6.24547
53.7765 6.24596
53.8265 6.18144
53.8766 6.15671
53.9266 6.14552
53.9767 6.14755
54.0267 6.10661
54.0769 6.0666
54.1269 6.05303
54.1771 6.01726
54.2271 5.9879
54.2773 5.95689
54.3274 5.92827
54.3776 5.86655
54.4277 5.8595
54.478 5.8435
54.528 5.79143
54.5783 5.76327
54.6285 5.69852
54.6788 5.6671
54.7289 5.64334
54.7792 5.5835
54.8296 5.52292
54.8798 5.50749
54.9301 5.45285
54.9803 5.43175
55.0307 5.42973
55.0809 5.36672
55.1314 5.32685
55.1816 5.2889
55.232 5.24213
55.2823 5.18574
55.3328 5.13111
55.383 5.11249
55.4335 5.05413
55.4838 4.96358
55.5344 4.92544
55.5847 4.93739
55.6352 4.90612
55.6856 4.85222
55.7361 4.78855