File: XRD/Ni3Fe_FD0865.xy
TT I
1.27165 6.83227
1.31627 6.53389
1.36089 6.02934
1.40551 6.19292
1.45013 6.03485
1.49476 5.96674
1.53938 6.30816
1.584 5.4599
1.62863 5.30611
1.67325 5.10404
1.71787 4.7828
1.7625 4.80892
1.80712 4.52402
1.85174 4.26849
1.89636 4.6273
1.94099 4.83262
1.98562 4.19566
2.03025 4.09147
2.07487 4.5214
2.11949 5.29409
2.16411 4.82973
2.20874 15.3288
2.25338 25.2878
2.298 6.45908
2.34263 5.94343
2.38725 6.42482
2.43188 6.43332
2.4765 7.40714
2.52115 7.28043
2.56577 8.12764
2.6104 8.39199
2.65503 7.86791
2.69965 8.77315
2.7443 8.64602
2.78893 8.67466
2.83356 8.60703
2.87818 8.54759
2.92281 8.94893
2.96744 9.9381
3.01209 10.3763
3.05672 10.922
3.10135 12.3665
3.14599 13.032
3.19062 14.3449
3.23527 15.2884
3.2799 15.5852
3.32454 17.0567
3.36917 17.7893
3.4138 19.0831
3.45844 19.9581
3.50309 20.3932
3.54773 22.1303
3.59237 23.9494
3.637 96.9099
3.68164 61.4886
3.7263 26.1838
3.77094 26.3191
3.81558 26.626
3.86022 27.4794
3.90486 28.8335
3.9495 29.756
3.99416 30.9467
4.0388 32.0436
4.08344 32.9642
4.12809 34.7208
4.17273 36.9117
4.21738 43.3445
4.26204 262.922
4.30669 233.682
4.35133 49.4706
4.39598 44.3123
4.44063 54.0227
4.4853 67.1455
4.52995 49.9198
4.5746 50.363
4.61925 52.8502
4.6639 54.6516
4.70855 57.4984
4.75322 60.3447
4.79788 62.7808
4.84253 65.8461
4.88719 70.4878
4.93184 73.5557
4.97652 79.1199
5.02118 85.1704
5.06583 92.2103
5.11049 101.695
5.15515 168.757
5.19981 292.692
5.24449 2415.74
5.28916 12642.8
5.33382 2824.66
5.37848 177.738
5.42315 125.402
5.46783 110.8
5.5125 103.883
5.55716 100.021
5.60183 97.0999
5.6465 94.464
5.69117 92.5771
5.73586 90.4576
5.78053 89.5215
5.8252 88.9337
5.86988 89.7054
5.91455 91.0443
5.95924 97.1867
6.00392 172.78
6.0486 815.929
6.09328 4318.45
6.13795 3207.04
6.18263 222.892
6.22733 90.768
6.27201 81.5747
6.3167 102.783
6.36138 80.01
6.40606 68.2157
6.45075 66.18
6.49545 64.436
6.54014 62.9926
6.58483 62.3778
6.62952 62.1388
6.67421 94.6912
6.71892 149.302
6.76361 69.0592
6.8083 57.9626
6.853 56.8832
6.89769 56.4069
6.94239 56.1595
6.98711 55.1144
7.03181 55.0021
7.07651 54.7715
7.12121 54.8284
7.16591 54.9102
7.21063 55.4504
7.25533 70.8369
7.30004 185.019
7.34475 93.979
7.38945 56.2566
7.43416 54.2017
7.47889 53.6938
7.5236 54.4023
7.56831 54.602
7.61303 56.6755
7.65774 56.9668
7.70247 55.6328
7.74719 55.3033
7.79191 56.1429
7.83663 56.1533
7.88135 57.2751
7.92607 57.8031
7.97081 59.045
8.01553 59.9424
8.06026 61.368
8.10498 62.9263
8.14971 72.8557
8.19446 71.633
8.23919 68.5107
8.28392 70.3835
8.32865 72.7681
8.37339 76.9676
8.41812 83.6897
8.46288 112.543
8.50761 145.109
8.55235 333.935
8.59709 1132.11
8.64183 2250.05
8.68658 965.639
8.73134 172.296
8.77609 97.2618
8.82083 91.1205
8.86558 88.279
8.91033 88.7653
8.9551 91.0287
8.99985 84.2385
9.04461 82.2025
9.08936 81.7569
9.13412 80.8539
9.17888 80.9769
9.22365 82.2231
9.26841 80.7995
9.31318 80.9628
9.35794 81.325
9.4027 82.2582
9.44749 82.4798
9.49226 83.0348
9.53703 84.0857
9.5818 85.8949
9.62657 90.7966
9.67134 98.3785
9.71614 92.4903
9.76091 92.2913
9.80569 94.5549
9.85047 97.7875
9.89525 122.941
9.94005 135.06
9.98484 156.966
10.0296 302.191
10.0744 758.542
10.1192 1760.43
10.164 1593.79
10.2088 405.019
10.2536 124.836
10.2984 111.66
10.3432 113.826
10.388 102.726
10.4328 111.522
10.4776 146.991
10.5224 266.264
10.5672 522.685
10.612 502.368
10.6568 201.973
10.7017 95.698
10.7465 85.0646
10.7913 82.1693
10.8361 80.2128
10.8809 77.8599
10.9257 77.5564
10.9706 78.2534
11.0154 73.8684
11.0602 71.9816
11.105 71.0364
11.1499 75.7263
11.1947 83.7916
11.2395 74.2501
11.2844 69.7396
11.3292 66.4217
11.374 65.2899
11.4189 64.8024
11.4637 63.9684
11.5086 64.6194
11.5534 67.9161
11.5983 65.308
11.6431 62.4806
11.688 62.0664
11.7328 62.2081
11.7777 62.2341
11.8225 61.801
11.8674 61.5542
11.9122 61.8578
11.9571 62.1826
12.002 62.2084
12.0468 65.3663
12.0917 75.1172
12.1366 98.1381
12.1814 150.095
12.2263 207.067
12.2712 169.088
12.3161 97.0229
12.3609 70.1454
12.4058 63.9969
12.4507 63.3507
12.4956 63.2646
12.5405 63.6886
12.5853 64.9461
12.6302 72.9198
12.6751 78.6487
12.72 69.5055
12.7649 66.9045
12.8098 67.2264
12.8547 68.5994
12.8996 69.6601
12.9445 71.017
12.9894 72.7725
13.0343 74.4786
13.0792 78.3663
13.1242 84.3326
13.1691 104.745
13.214 138.521
13.2589 228.616
13.3038 370.431
13.3487 423.247
13.3937 261.393
13.4386 123.042
13.4835 100.513
13.5285 113.565
13.5734 150.104
13.6183 243.24
13.6633 352.188
13.7082 340.671
13.7531 183.659
13.7981 96.0122
13.843 80.4489
13.888 78.555
13.9329 75.923
13.9779 74.5957
14.0228 73.1379
14.0678 71.9337
14.1127 71.4679
14.1577 71.5718
14.2027 70.4477
14.2476 69.4307
14.2926 69.6507
14.3376 70.6633
14.3825 69.1056
14.4275 67.6842
14.4725 67.496
14.5175 67.735
14.5624 67.9301
14.6074 70.1126
14.6524 70.8927
14.6974 69.2112
14.7424 70.2238
14.7874 75.6658
14.8324 84.5667
14.8774 105.065
14.9224 150.368
14.9674 210.067
15.0124 216.882
15.0574 146.182
15.1024 89.4222
15.1474 71.2546
15.1924 69.4002
15.2374 70.3127
15.2824 69.3624
15.3274 67.2624
15.3725 65.8672
15.4175 65.3695
15.4625 65.2289
15.5076 65.2661
15.5526 65.2385
15.5976 64.8753
15.6426 65.199
15.6877 69.5079
15.7327 76.1165
15.7778 90.4155
15.8228 122.728
15.8679 170.125
15.9129 195.649
15.958 155.23
16.003 94.0235
16.0481 67.2462
16.0931 64.1028
16.1382 62.0468
16.1833 59.9047
16.2283 58.0542
16.2734 57.7016
16.3185 57.9955
16.3636 58.867
16.4086 57.1721
16.4537 55.3635
16.4988 54.702
16.5439 54.6894
16.589 54.2801
16.6341 54.0554
16.6792 53.7363
16.7243 54.1383
16.7694 54.2107
16.8145 54.1032
16.8596 54.5042
16.9047 56.2146
16.9498 56.436
16.9949 54.895
17.04 54.8071
17.0851 55.6406
17.1302 57.3353
17.1754 60.2264
17.2205 65.1768
17.2656 73.4008
17.3108 83.1804
17.3559 82.2072
17.401 70.213
17.4462 60.9423
17.4913 58.1475
17.5365 58.0627
17.5815 58.3556
17.6268 58.5839
17.6718 59.5211
17.7171 59.9118
17.7622 60.178
17.8074 60.6295
17.8525 62.4395
17.8977 66.0505
17.9428 70.8551
17.9881 79.5956
18.0331 97.4176
18.0784 120.951
18.1237 138.476
18.1688 127.995
18.214 100.537
18.2591 84.4482
18.3044 89.3166
18.3495 100.392
18.3948 105.209
18.4399 95.3166
18.4852 76.6378
18.5303 64.8797
18.5756 61.0833
18.6207 60.3428
18.666 59.4606
18.7112 58.7952
18.7565 58.0598
18.8016 57.811
18.8469 57.1712
18.892 56.6943
18.9374 56.2471
18.9825 56.1887
19.0278 56.1158
19.073 56.1572
19.1183 56.3828
19.1635 57.3308
19.2088 58.2646
19.254 60.8525
19.2993 65.4293
19.3447 72.2417
19.3898 76.0942
19.4352 71.3634
19.4804 62.2801
19.5257 55.8949
19.5709 53.3359
19.6163 53.1822
19.6615 52.9471
19.7068 52.5107
19.752 52.5054
19.7974 52.6347
19.8426 53.4112
19.888 53.9876
19.9332 55.0434
19.9786 57.643
20.0238 61.6367
20.0692 66.6335
20.1144 68.932
20.1598 67.0038
20.205 62.4227
20.2504 61.2059
20.2957 63.7712
20.3411 65.2462
20.3863 63.6612
20.4318 57.7393
20.477 53.2433
20.5224 51.0733
20.5677 50.3817
20.6131 49.511
20.6586 48.9564
20.7038 48.9356
20.7493 48.4505
20.7945 48.3098
20.84 48.2266
20.8853 48.0464
20.9307 47.7221
20.976 47.9413
21.0215 47.8868
21.0668 48.4011
21.1122 48.7326
21.1575 49.4644
21.203 50.3179
21.2483 50.8084
21.2938 50.6441
21.3391 49.4536
21.3846 48.3803
21.4299 47.6468
21.4754 47.6347
21.5207 47.8942
21.5662 47.9525
21.6116 48.3776
21.6571 48.9018
21.7024 49.8558
21.7479 51.6404
21.7933 54.3064
21.8388 58.1221
21.8843 62.1808
21.9297 63.861
21.9752 62.225
22.0206 58.5934
22.0661 55.9117
22.1115 55.6105
22.157 55.3139
22.2024 53.3754
22.248 50.6353
22.2933 49.1817
22.3389 48.4304
22.3843 48.3292
22.4299 48.1775
22.4753 48.3335
22.5208 47.9413
22.5662 47.8009
22.6118 47.8576
22.6572 48.0149
22.7028 48.2964
22.7483 48.9156
22.7939 49.4783
22.8393 51.0788
22.8849 53.2719
22.9303 55.4926
22.9759 57.355
23.0214 56.5593
23.067 53.775
23.1126 50.533
23.1581 48.5737
23.2037 48.0169
23.2492 48.1702
23.2948 48.1524
23.3403 48.2921
23.3859 48.6509
23.4314 49.7505
23.477 51.6601
23.5225 54.1349
23.5682 56.4985
23.6137 57.4296
23.6593 54.8552
23.7048 50.8206
23.7505 47.7101
23.796 45.9824
23.8417 45.4602
23.8872 44.9045
23.9329 44.5839
23.9784 44.3224
24.0241 44.0998
24.0697 43.8252
24.1154 43.4996
24.1609 43.4692
24.2066 43.2729
24.2522 43.1208
24.2979 42.804
24.3434 42.6835
24.3892 42.4987
24.4349 42.561
24.4805 42.409
24.5262 42.4665
24.5718 42.3852
24.6175 42.2756
24.6631 42.3475
24.7089 41.9005
24.7545 41.7582
24.8002 41.6151
24.8458 41.5879
24.8916 41.3571
24.9372 41.7676
24.983 41.8833
25.0286 42.173
25.0744 42.7353
25.12 43.13
25.1658 43.784
25.2114 44.1232
25.2572 44.2488
25.3029 44.3184
25.3487 44.5484
25.3943 44.07
25.4402 43.0225
25.4858 41.8999
25.5316 40.984
25.5773 40.4115
25.6231 40.2762
25.669 40.032
25.7147 39.9808
25.7605 39.7832
25.8062 39.9174
25.8521 40.0379
25.8977 40.0747
25.9436 40.3127
25.9893 40.563
26.0352 40.913
26.0809 40.9593
26.1268 41.1679
26.1725 40.8707
26.2184 40.2145
26.2641 39.6198
26.31 39.5758
26.3557 39.5113
26.4017 39.6237
26.4474 39.8103
26.4933 40.1824
26.5391 40.5812
26.585 41.2316
26.6308 41.5382
26.6767 41.5884
26.7225 41.4824
26.7684 40.7696
26.8142 40.3544
26.8601 39.9284
26.9059 39.5608
26.9519 38.9164
26.9979 38.6305
27.0437 38.3763
27.0896 38.1948
27.1354 38.2389
27.1814 38.1362
27.2272 37.9226
27.2732 38.0601
27.3191 37.9167
27.3651 37.9208
27.4109 37.7734
27.4569 37.8471
27.5027 38.0095
27.5488 38.0406
27.5946 37.7601
27.6407 37.6384
27.6865 37.6871
27.7326 37.2854
27.7784 37.2938
27.8245 37.2665
27.8703 37.3985
27.9164 37.882
27.9623 37.9338
28.0084 38.2467
28.0543 38.578
28.1003 38.4915
28.1462 38.3534
28.1923 37.9261
28.2384 37.4971
28.2843 37.1342
28.3304 36.6419
28.3764 36.3057
28.4225 35.788
28.4684 35.7451
28.5145 35.3853
28.5605 35.4484
28.6066 35.3802
28.6526 35.1562
28.6987 35.0605
28.7447 35.0254
28.7908 35.0262
28.8368 35.0794
28.8829 34.9183
28.9289 34.8932
28.9751 34.7229
29.0211 34.4932
29.0673 34.2507
29.1133 34.0741
29.1595 33.8573
29.2055 33.8837
29.2517 33.8482
29.2977 33.807
29.3439 33.8001
29.3899 33.895
29.4361 33.7541
29.4824 33.5377
29.5284 33.2893
29.5746 32.9251
29.6207 32.7163
29.6669 32.6541
29.713 32.4952
29.7593 32.4167
29.8053 32.5062
29.8516 32.466
29.8977 32.3702
29.9439 32.1657
29.99 32.073
30.0363 32.0196
30.0824 32.1576
30.1287 31.9608
30.1748 32.1183
30.2211 31.9191
30.2673 31.7373
30.3136 31.949
30.3597 31.7577
30.406 31.7145
30.4522 31.6085
30.4985 31.6255
30.5447 31.747
30.591 31.6146
30.6372 31.7507
30.6835 31.7355
30.7297 31.7306
30.7761 31.7268
30.8224 31.6119
30.8686 31.4713
30.915 31.264
30.9612 31.007
31.0076 30.8871
31.0538 30.6553
31.1002 30.6884
31.1464 30.4848
31.1928 30.548
31.2391 30.5624
31.2855 30.5139
31.3317 30.4338
31.3781 30.5343
31.4244 30.5157
31.4708 30.4208
31.5171 30.3939
31.5636 30.2784
31.6098 30.1532
31.6563 29.9904
31.7026 29.8738
31.7491 29.6666
31.7953 29.7869
31.8418 29.7087
31.8881 29.7758
31.9346 29.7685
31.9809 29.6053
32.0275 29.592
32.074 29.3656
32.1203 29.1965
32.1668 29.2376
32.2132 29.038
32.2597 28.8382
32.306 28.7788
32.3526 28.5209
32.399 28.6267
32.4455 28.3867
32.4919 28.2881
32.5385 28.3077
32.5848 28.1346
32.6314 28.1161
32.6778 28.0885
32.7244 27.8689
32.7708 27.7636
32.8174 27.7103
32.8638 27.6872
32.9104 27.7232
32.9569 27.5898
33.0035 27.444
33.0499 27.5029
33.0966 27.3157
33.143 27.4347
33.1897 27.2769
33.2361 27.2719
33.2828 27.2083
33.3293 26.97
33.3759 26.9822
33.4226 26.9076
33.4691 26.7375
33.5158 26.6938
33.5623 26.5541
33.609 26.3914
33.6555 26.3302
33.7022 26.2238
33.7487 26.2195
33.7954 26.103
33.842 26.1088
33.8887 26.0017
33.9353 25.9505
33.982 25.8211
34.0286 25.6305
34.0753 25.5811
34.1219 25.4917
34.1687 25.422
34.2152 25.4849
34.262 25.3743
34.3086 25.278
34.3554 25.1454
34.402 25.0461
34.4488 24.9682
34.4954 24.8803
34.5422 24.8093
34.5889 24.7103
34.6357 24.6923
34.6825 24.6001
34.7292 24.4868
34.776 24.4329
34.8227 24.342
34.8695 24.3395
34.9162 24.2036
34.9631 24.1081
35.0098 24.2069
35.0566 24.0403
35.1033 24.0094
35.1502 23.9984
35.1969 23.8408
35.2438 23.7834
35.2906 23.754
35.3375 23.7062
35.3842 23.6814
35.4311 23.6486
35.4779 23.5646
35.5248 23.5302
35.5716 23.5149
35.6185 23.3599
35.6653 23.2965
35.7123 23.1384
35.759 23.2012
35.806 23.1011
35.8528 22.9173
35.8998 22.9032
35.9468 22.8454
35.9936 22.7657
36.0406 22.7091
36.0874 22.7319
36.1345 22.6216
36.1813 22.4541
36.2283 22.4248
36.2752 22.3438
36.3222 22.4096
36.3691 22.3029
36.4161 22.2105
36.463 22.1591
36.5101 22.1323
36.557 22.0738
36.6041 21.9297
36.651 21.9931
36.6981 21.7475
36.745 21.7697
36.7921 21.6325
36.839 21.4837
36.8861 21.5431
36.9331 21.4434
36.9802 21.4023
37.0272 21.2986
37.0743 21.218
37.1213 21.2058
37.1684 21.1678
37.2154 21.057
37.2626 21.0265
37.3098 20.9062
37.3568 20.8562
37.404 20.8227
37.451 20.7698
37.4982 20.6893
37.5452 20.5746
37.5924 20.5489
37.6395 20.5605
37.6867 20.4539
37.7337 20.3783
37.781 20.2229
37.8281 20.2398
37.8753 20.0673
37.9224 20.0968
37.9697 20.0424
38.0168 20.0053
38.064 19.891
38.1111 19.7848
38.1584 19.784
38.2056 19.7105
38.2529 19.6153
38.3 19.6062
38.3473 19.5217
38.3945 19.4351
38.4418 19.3799
38.489 19.3538
38.5363 19.2743
38.5837 19.1875
38.6309 19.1361
38.6782 19.0832
38.7254 19.0186
38.7728 18.9678
38.82 18.9257
38.8674 18.9027
38.9146 18.7176
38.9621 18.7268
39.0093 18.7152
39.0567 18.5969
39.104 18.6051
39.1514 18.5117
39.1987 18.424
39.2461 18.325
39.2934 18.3551
39.3409 18.2163
39.3882 18.1148
39.4356 18.0999
39.483 18.0951
39.5304 18.0251
39.5778 18.0268
39.6253 17.9426
39.6726 17.8418
39.7201 17.8465
39.7675 17.7397
39.815 17.7289
39.8624 17.6272
39.9099 17.6256
39.9575 17.4712
40.0049 17.3947
40.0525 17.3731
40.0999 17.3723
40.1474 17.2953
40.1949 17.2791
40.2425 17.1515
40.2899 17.1577
40.3375 17.1048
40.385 17.005
40.4326 17.0096
40.48 16.9238
40.5277 16.8916
40.5752 16.8389
40.6228 16.7136
40.6703 16.7091
40.718 16.644
40.7655 16.5944
40.8132 16.5123
40.8607 16.5193
40.9084 16.4259
40.9559 16.4183
41.0036 16.3638
41.0512 16.3217
41.0989 16.2484
41.1465 16.2029
41.1942 16.2
41.242 16.0207
41.2896 16.0148
41.3373 16.0229
41.3849 15.9146
41.4327 15.8507
41.4803 15.7916
41.5281 15.7509
41.5758 15.6777
41.6236 15.6042
41.6712 15.5595
41.7191 15.4855
41.7667 15.4912
41.8146 15.5043
41.8622 15.4015
41.9101 15.3832
41.9578 15.2357
42.0057 15.2208
42.0534 15.1308
42.1013 15.1516
42.149 15.102
42.1969 15.0364
42.2446 15.0045
42.2925 14.9355
42.3403 14.8883
42.3882 14.8347
42.436 14.7913
42.4839 14.7399
42.5319 14.6888
42.5797 14.652
42.6277 14.5625
42.6755 14.5204
42.7235 14.4851
42.7713 14.4456
42.8193 14.4267
42.8671 14.3282
42.9152 14.3116
42.963 14.2518
43.0111 14.1546
43.0589 14.1834
43.107 14.0973
43.1549 14.0743
43.2029 13.9801
43.2508 13.9277
43.2989 13.9175
43.3468 13.855
43.3949 13.8137
43.4429 13.7283
43.491 13.7002
43.5389 13.6597
43.5871 13.6047
43.635 13.5829
43.6832 13.5399
43.7312 13.4294
43.7793 13.405
43.8273 13.3857
43.8755 13.3103
43.9237 13.2788
43.9717 13.2601
44.0199 13.1585
44.068 13.1247
44.1162 13.1415
44.1642 13.092
44.2125 13.0537
44.2606 13.004
44.3088 12.9286
44.3569 12.8639
44.4052 12.8027
44.4533 12.7902
44.5016 12.7644
44.5497 12.7164
44.598 12.6346
44.6461 12.5552
44.6945 12.5706
44.7426 12.5141
44.791 12.4378
44.8391 12.4375
44.8875 12.3884
44.9357 12.3566
44.984 12.3123
45.0322 12.2941
45.0806 12.1841
45.1288 12.1602
45.1773 12.0772
45.2257 12.1036
45.2739 12.0392
45.3224 11.9748
45.3706 11.9761
45.4191 11.9173
45.4673 11.8917
45.5158 11.8406
45.5641 11.7796
45.6126 11.7586
45.6609 11.6607
45.7094 11.6426
45.7577 11.62
45.8063 11.5588
45.8546 11.5783
45.9031 11.4896
45.9515 11.4509
46.0001 11.4012
46.0484 11.4268
46.097 11.3231
46.1454 11.2817
46.194 11.2568
46.2424 11.2291
46.291 11.1786
46.3395 11.1581
46.3881 11.0764
46.4365 11.1005
46.4852 10.9821
46.5337 10.9786
46.5823 10.9424
46.631 10.8895
46.6795 10.8551
46.7282 10.8788
46.7767 10.8021
46.8254 10.6925
46.8739 10.6738
46.9226 10.6617
46.9712 10.602
47.0199 10.5415
47.0685 10.5667
47.1173 10.4782
47.1658 10.4502
47.2146 10.4787
47.2632 10.3501
47.312 10.3379
47.3606 10.3084
47.4095 10.2239
47.4581 10.2789
47.5069 10.1537
47.5556 10.1506
47.6044 10.0982
47.6531 10.0455
47.702 10.0158
47.7507 9.99518
47.7996 9.99106
47.8483 9.93131
47.8972 9.90427
47.9461 9.83382
47.9948 9.81337
48.0438 9.79345
48.0925 9.77039
48.1415 9.72899
48.1902 9.6811
48.2392 9.69592
48.288 9.66078
48.337 9.57704
48.3858 9.56321
48.4348 9.53332
48.4837 9.52089
48.5327 9.44892
48.5815 9.40213
48.6306 9.36899
48.6795 9.32987
48.7285 9.30274
48.7774 9.27061
48.8265 9.26233
48.8754 9.21871
48.9245 9.17186
48.9734 9.12506
49.0226 9.1305
49.0715 9.06055
49.1206 9.01142
49.1696 9.00009
49.2188 9.02402
49.2679 8.93155
49.3169 8.92252
49.3661 8.84454
49.4151 8.83419
49.4643 8.80213
49.5134 8.77586
49.5626 8.71556
49.6117 8.67296
49.6609 8.64845
49.71 8.62434
49.7592 8.59909
49.8083 8.55299
49.8576 8.5141
49.9067 8.48817
49.956 8.47602
50.0052 8.41941
50.0545 8.41164
50.1036 8.3823
50.153 8.35288
50.2022 8.33152
50.2515 8.29236
50.3007 8.19045
50.3501 8.18436
50.3993 8.1685
50.4487 8.12374
50.498 8.11055
50.5474 8.05978
50.5966 8.04636
50.6461 8.0011
50.6955 8.00722
50.7448 7.98795
50.7943 7.97262
50.8436 7.88948
50.8931 7.86112
50.9424 7.83297
50.9919 7.79791
51.0413 7.78849
51.0908 7.75718
51.1402 7.71108
51.1897 7.65999
51.2391 7.68333
51.2887 7.6306
51.3381 7.57799
51.3877 7.53949
51.4371 7.51886
51.4867 7.49757
51.5362 7.44484
51.5858 7.44487
51.6353 7.40754
51.6849 7.36946
51.7344 7.34622
51.7841 7.33481
51.8336 7.27008
51.8833 7.26316
51.9328 7.2344
51.9826 7.18405
52.0323 7.15841
52.0818 7.12457
52.1316 7.1065
52.1812 7.04527
52.231 7.01294
52.2806 7.01555
52.3304 6.99432
52.38 6.943
52.4298 6.96345
52.4794 6.90778
52.5293 6.87808
52.5789 6.88345
52.6288 6.78489
52.6785 6.79452
52.7284 6.7762
52.7781 6.72729
52.828 6.72915
52.8777 6.67678
52.9276 6.60617
52.9774 6.64537
53.0273 6.61234
53.0771 6.54126
53.1271 6.50847
53.1769 6.50049
53.2269 6.49753
53.2767 6.43298
53.3267 6.4361
53.3765 6.38058
53.4266 6.36889
53.4766 6.34785
53.5265 6.23944
53.5765 6.26138
53.6264 6.23691
53.6765 6.2231
53.7264 6.20943
53.7765 6.20999
53.8265 6.1679
53.8766 6.10035
53.9266 6.10348
53.9767 6.04054
54.0267 6.02384
54.0769 6.01337
54.1269 6.00168
54.1771 5.93665
54.2271 5.95172
54.2773 5.85017
54.3274 5.89404
54.3776 5.80698
54.4277 5.83267
54.478 5.78554
54.528 5.80683
54.5783 5.69195
54.6285 5.65144
54.6788 5.59437
54.7289 5.53465
54.7792 5.50325
54.8296 5.49752
54.8798 5.44227
54.9301 5.44347
54.9803 5.34966
55.0307 5.36068
55.0809 5.33735
55.1314 5.28253
55.1816 5.24702
55.232 5.15481
55.2823 5.15431
55.3328 5.09756
55.383 5.05019
55.4335 5.00891
55.4838 4.93763
55.5344 4.90144
55.5847 4.9046
55.6352 4.83393
55.6856 4.7829
55.7361 4.80004