File: XRD/Ni3Fe_FD0691.xy
TT I
1.27165 6.87908
1.31627 6.9097
1.36089 6.31236
1.40551 6.26559
1.45013 6.23965
1.49476 6.0892
1.53938 5.28231
1.584 5.02247
1.62863 5.20724
1.67325 5.21966
1.71787 4.77263
1.7625 4.86134
1.80712 4.74333
1.85174 4.49875
1.89636 4.11276
1.94099 5.30905
1.98562 4.98623
2.03025 4.93621
2.07487 4.43218
2.11949 4.67994
2.16411 4.5746
2.20874 9.49235
2.25338 13.1081
2.298 5.71275
2.34263 4.98403
2.38725 5.51874
2.43188 5.69468
2.4765 6.60389
2.52115 7.02035
2.56577 7.55766
2.6104 8.23371
2.65503 7.42854
2.69965 8.3492
2.7443 8.11641
2.78893 8.1405
2.83356 8.6533
2.87818 8.9197
2.92281 8.91005
2.96744 9.52682
3.01209 10.6304
3.05672 11.0483
3.10135 12.4087
3.14599 12.9764
3.19062 14.3576
3.23527 15.1733
3.2799 15.7344
3.32454 17.1253
3.36917 17.1312
3.4138 18.8361
3.45844 19.702
3.50309 20.2471
3.54773 21.6183
3.59237 23.0364
3.637 58.5197
3.68164 40.8136
3.7263 25.3611
3.77094 25.809
3.81558 26.2611
3.86022 27.2802
3.90486 28.3013
3.9495 29.7397
3.99416 30.7948
4.0388 31.5258
4.08344 32.9236
4.12809 34.2714
4.17273 36.0142
4.21738 40.1301
4.26204 144.086
4.30669 125.049
4.35133 44.867
4.39598 43.6362
4.44063 49.6833
4.4853 55.6506
4.52995 53.9799
4.5746 54.5346
4.61925 53.5403
4.6639 55.7618
4.70855 57.8597
4.75322 61.5617
4.79788 66.8804
4.84253 68.5014
4.88719 74.2881
4.93184 76.2374
4.97652 81.7353
5.02118 87.5876
5.06583 95.1507
5.11049 106.728
5.15515 159.753
5.19981 425.513
5.24449 3043.1
5.28916 12490.8
5.33382 2688.32
5.37848 192.177
5.42315 130.446
5.46783 116.583
5.5125 109.696
5.55716 102.072
5.60183 98.536
5.6465 96.3709
5.69117 94.7552
5.73586 92.7673
5.78053 95.4398
5.8252 95.2938
5.86988 96.9497
5.91455 95.474
5.95924 105.871
6.00392 248.655
6.0486 1025.23
6.09328 4596.0
6.13795 3129.45
6.18263 218.082
6.22733 90.8861
6.27201 80.4191
6.3167 87.5692
6.36138 75.8607
6.40606 69.2157
6.45075 68.6898
6.49545 65.2388
6.54014 63.4746
6.58483 62.5706
6.62952 62.3871
6.67421 77.1733
6.71892 101.513
6.76361 63.4569
6.8083 58.897
6.853 58.5416
6.89769 56.7547
6.94239 56.3075
6.98711 55.707
7.03181 55.5437
7.07651 54.6851
7.12121 54.9701
7.16591 55.9311
7.21063 55.0805
7.25533 62.5309
7.30004 115.571
7.34475 72.1106
7.38945 54.9238
7.43416 53.7828
7.47889 53.8376
7.5236 54.3921
7.56831 54.8827
7.61303 55.7319
7.65774 56.2816
7.70247 56.4026
7.74719 55.9491
7.79191 56.2419
7.83663 56.5099
7.88135 57.5897
7.92607 58.6076
7.97081 59.4645
8.01553 60.9864
8.06026 62.7197
8.10498 63.852
8.14971 70.6936
8.19446 70.7571
8.23919 69.5423
8.28392 71.9262
8.32865 74.3712
8.37339 78.5203
8.41812 84.312
8.46288 105.628
8.50761 186.202
8.55235 411.905
8.59709 1238.13
8.64183 2211.84
8.68658 873.45
8.73134 155.346
8.77609 98.1671
8.82083 92.5108
8.86558 91.0742
8.91033 90.9001
8.9551 89.6102
8.99985 85.1946
9.04461 83.6555
9.08936 83.3879
9.13412 82.4125
9.17888 82.0011
9.22365 82.5165
9.26841 82.1175
9.31318 83.8664
9.35794 84.8148
9.4027 84.6049
9.44749 85.0543
9.49226 84.8291
9.53703 85.7861
9.5818 88.3812
9.62657 93.0161
9.67134 95.5027
9.71614 92.9085
9.76091 94.7355
9.80569 97.8259
9.85047 101.008
9.89525 114.114
9.94005 130.582
9.98484 199.365
10.0296 366.556
10.0744 854.511
10.1192 1790.56
10.164 1557.28
10.2088 359.749
10.2536 122.728
10.2984 110.312
10.3432 109.452
10.388 105.2
10.4328 123.901
10.4776 166.528
10.5224 294.702
10.5672 514.653
10.612 494.265
10.6568 194.2
10.7017 94.2674
10.7465 86.4576
10.7913 83.3138
10.8361 80.6042
10.8809 78.761
10.9257 77.9572
10.9706 77.8423
11.0154 74.8896
11.0602 72.511
11.105 71.4532
11.1499 73.0692
11.1947 75.885
11.2395 71.1294
11.2844 68.9411
11.3292 67.0425
11.374 65.9535
11.4189 65.4737
11.4637 64.6613
11.5086 64.8838
11.5534 65.9109
11.5983 64.533
11.6431 63.339
11.688 62.932
11.7328 62.7739
11.7777 62.4437
11.8225 62.634
11.8674 62.4478
11.9122 62.6957
11.9571 62.9187
12.002 64.5164
12.0468 69.2422
12.0917 79.8898
12.1366 105.074
12.1814 154.127
12.2263 204.198
12.2712 158.555
12.3161 88.886
12.3609 67.6466
12.4058 64.1231
12.4507 64.4174
12.4956 64.5716
12.5405 64.4282
12.5853 65.1249
12.6302 69.0721
12.6751 72.5743
12.72 68.3004
12.7649 67.902
12.8098 68.4537
12.8547 69.9672
12.8996 71.2338
12.9445 72.804
12.9894 74.3482
13.0343 76.1478
13.0792 80.3314
13.1242 93.3034
13.1691 114.921
13.214 153.546
13.2589 250.063
13.3038 382.265
13.3487 419.642
13.3937 246.446
13.4386 120.2
13.4835 108.446
13.5285 123.682
13.5734 164.574
13.6183 255.88
13.6633 357.017
13.7082 329.398
13.7531 171.242
13.7981 93.6083
13.843 81.3635
13.888 79.2553
13.9329 77.045
13.9779 76.0566
14.0228 74.6518
14.0678 72.8734
14.1127 72.497
14.1577 72.0235
14.2027 71.3834
14.2476 70.4593
14.2926 70.0271
14.3376 70.3429
14.3825 69.798
14.4275 68.6458
14.4725 68.6872
14.5175 68.7671
14.5624 68.9046
14.6074 70.0186
14.6524 70.6893
14.6974 70.5308
14.7424 73.8465
14.7874 80.4921
14.8324 90.5684
14.8774 113.786
14.9224 159.836
14.9674 213.462
15.0124 217.59
15.0574 140.548
15.1024 87.1208
15.1474 71.8163
15.1924 70.1296
15.2374 69.9219
15.2824 68.9402
15.3274 67.6594
15.3725 66.8261
15.4175 66.3684
15.4625 66.1043
15.5076 65.8788
15.5526 66.1912
15.5976 66.2442
15.6426 68.3454
15.6877 73.7333
15.7327 80.9436
15.7778 97.0061
15.8228 130.265
15.8679 175.725
15.9129 195.199
15.958 150.15
16.003 91.2621
16.0481 66.6136
16.0931 63.2714
16.1382 61.6547
16.1833 60.1598
16.2283 58.8223
16.2734 58.1178
16.3185 58.0414
16.3636 57.8636
16.4086 56.863
16.4537 55.9407
16.4988 55.372
16.5439 55.4784
16.589 55.0522
16.6341 54.6702
16.6792 54.4445
16.7243 54.682
16.7694 54.8256
16.8145 54.7956
16.8596 54.9235
16.9047 55.5445
16.9498 55.9728
16.9949 55.5032
17.04 56.1514
17.0851 57.3678
17.1302 58.7348
17.1754 61.8797
17.2205 67.5748
17.2656 75.5013
17.3108 83.3606
17.3559 81.2715
17.401 69.8897
17.4462 61.5334
17.4913 59.14
17.5365 59.1656
17.5815 59.2111
17.6268 59.5555
17.6718 60.3477
17.7171 60.7588
17.7622 61.2451
17.8074 62.4873
17.8525 65.243
17.8977 68.9934
17.9428 74.4779
17.9881 84.1402
18.0331 102.527
18.0784 124.995
18.1237 142.505
18.1688 130.508
18.214 101.038
18.2591 86.1865
18.3044 91.3874
18.3495 101.146
18.3948 105.67
18.4399 94.2859
18.4852 75.3509
18.5303 64.956
18.5756 62.0772
18.6207 61.1707
18.666 60.1415
18.7112 59.5182
18.7565 59.0736
18.8016 58.6803
18.8469 57.987
18.892 57.6953
18.9374 57.1023
18.9825 56.8368
19.0278 56.6858
19.073 56.9965
19.1183 57.2298
19.1635 58.0306
19.2088 59.3939
19.254 62.538
19.2993 67.1899
19.3447 73.1341
19.3898 76.0722
19.4352 71.2161
19.4804 62.079
19.5257 55.9849
19.5709 54.0909
19.6163 53.7417
19.6615 53.7679
19.7068 53.3091
19.752 53.2382
19.7974 53.6565
19.8426 54.683
19.888 55.0357
19.9332 56.4283
19.9786 59.3178
20.0238 63.0857
20.0692 67.8709
20.1144 69.9405
20.1598 67.6372
20.205 63.428
20.2504 62.2361
20.2957 64.1956
20.3411 65.4005
20.3863 63.6135
20.4318 57.6588
20.477 52.9856
20.5224 51.0553
20.5677 50.6456
20.6131 50.0366
20.6586 49.5861
20.7038 49.4171
20.7493 48.9854
20.7945 48.8824
20.84 48.7115
20.8853 48.6849
20.9307 48.6601
20.976 48.7698
21.0215 48.5725
21.0668 49.0717
21.1122 49.4938
21.1575 49.9584
21.203 50.8323
21.2483 51.2567
21.2938 51.4451
21.3391 49.8408
21.3846 48.7422
21.4299 48.3996
21.4754 48.5188
21.5207 48.588
21.5662 49.1234
21.6116 49.4394
21.6571 49.9181
21.7024 51.033
21.7479 52.8847
21.7933 55.8521
21.8388 59.5268
21.8843 63.0265
21.9297 64.883
21.9752 62.9216
22.0206 59.0197
22.0661 56.1981
22.1115 56.05
22.157 55.8612
22.2024 53.7991
22.248 50.9635
22.2933 49.6033
22.3389 48.9215
22.3843 48.7426
22.4299 48.7684
22.4753 48.6555
22.5208 48.4155
22.5662 48.4943
22.6118 48.8041
22.6572 48.9847
22.7028 49.5215
22.7483 49.9886
22.7939 50.4793
22.8393 52.0544
22.8849 54.5223
22.9303 56.4003
22.9759 57.9335
23.0214 57.135
23.067 54.0725
23.1126 50.81
23.1581 49.0121
23.2037 48.8004
23.2492 48.9099
23.2948 48.9158
23.3403 49.1801
23.3859 49.6594
23.4314 50.9625
23.477 52.9272
23.5225 55.2794
23.5682 57.4494
23.6137 57.828
23.6593 55.1087
23.7048 51.0111
23.7505 47.8652
23.796 46.4561
23.8417 45.8334
23.8872 45.5774
23.9329 45.1596
23.9784 44.7055
24.0241 44.6081
24.0697 44.3428
24.1154 43.9964
24.1609 43.8868
24.2066 43.7778
24.2522 43.6517
24.2979 43.4173
24.3434 43.2015
24.3892 42.9932
24.4349 42.9583
24.4805 42.7822
24.5262 43.0169
24.5718 42.9357
24.6175 42.956
24.6631 42.7339
24.7089 42.349
24.7545 42.3235
24.8002 42.1312
24.8458 42.1902
24.8916 42.0471
24.9372 42.1895
24.983 42.65
25.0286 43.0308
25.0744 43.372
25.12 43.9284
25.1658 44.4005
25.2114 44.6224
25.2572 44.7783
25.3029 44.7279
25.3487 44.8522
25.3943 44.5488
25.4402 43.3285
25.4858 42.1643
25.5316 41.5203
25.5773 40.8333
25.6231 40.8437
25.669 40.4994
25.7147 40.5571
25.7605 40.3548
25.8062 40.51
25.8521 40.4896
25.8977 40.637
25.9436 40.7926
25.9893 41.0208
26.0352 41.5647
26.0809 41.6258
26.1268 41.5962
26.1725 41.3896
26.2184 40.7163
26.2641 40.2242
26.31 40.0563
26.3557 40.0245
26.4017 40.1116
26.4474 40.4344
26.4933 40.6985
26.5391 41.2609
26.585 41.7641
26.6308 42.0701
26.6767 42.1765
26.7225 41.8186
26.7684 41.2709
26.8142 40.7512
26.8601 40.2917
26.9059 39.8956
26.9519 39.3238
26.9979 39.1167
27.0437 38.9447
27.0896 38.7015
27.1354 38.7192
27.1814 38.4155
27.2272 38.5831
27.2732 38.4016
27.3191 38.2412
27.3651 38.409
27.4109 38.2965
27.4569 38.3585
27.5027 38.5204
27.5488 38.5049
27.5946 38.2841
27.6407 38.1587
27.6865 38.0207
27.7326 37.8792
27.7784 37.906
27.8245 37.8498
27.8703 37.9917
27.9164 38.2091
27.9623 38.548
28.0084 38.8355
28.0543 39.2139
28.1003 38.9444
28.1462 38.8392
28.1923 38.331
28.2384 37.8185
28.2843 37.5974
28.3304 37.0329
28.3764 36.6179
28.4225 36.3736
28.4684 36.3228
28.5145 35.9676
28.5605 35.8842
28.6066 35.5597
28.6526 35.6278
28.6987 35.6516
28.7447 35.4863
28.7908 35.4686
28.8368 35.3544
28.8829 35.3729
28.9289 35.3319
28.9751 35.1551
29.0211 34.8491
29.0673 34.5863
29.1133 34.5322
29.1595 34.3825
29.2055 34.2903
29.2517 34.3972
29.2977 34.3552
29.3439 34.3126
29.3899 34.1471
29.4361 34.08
29.4824 33.8542
29.5284 33.6421
29.5746 33.3778
29.6207 33.1057
29.6669 33.0073
29.713 32.8699
29.7593 32.8635
29.8053 32.7906
29.8516 32.7218
29.8977 32.7725
29.9439 32.5077
29.99 32.6057
30.0363 32.4613
30.0824 32.5666
30.1287 32.2374
30.1748 32.4691
30.2211 32.4176
30.2673 32.293
30.3136 32.3283
30.3597 32.1618
30.406 32.1568
30.4522 32.078
30.4985 32.0727
30.5447 32.2403
30.591 32.0608
30.6372 32.2858
30.6835 32.1614
30.7297 32.1347
30.7761 32.1961
30.8224 31.8662
30.8686 31.7729
30.915 31.5763
30.9612 31.4675
31.0076 31.323
31.0538 31.2337
31.1002 31.0865
31.1464 30.9952
31.1928 30.9529
31.2391 30.9603
31.2855 30.8444
31.3317 30.8928
31.3781 30.9404
31.4244 30.817
31.4708 30.8668
31.5171 30.7262
31.5636 30.741
31.6098 30.4592
31.6563 30.3436
31.7026 30.2338
31.7491 30.0964
31.7953 30.147
31.8418 30.1387
31.8881 30.0442
31.9346 30.0905
31.9809 29.9586
32.0275 29.8337
32.074 29.801
32.1203 29.5727
32.1668 29.4179
32.2132 29.3748
32.2597 29.2135
32.306 29.0681
32.3526 28.9936
32.399 28.819
32.4455 28.8339
32.4919 28.6178
32.5385 28.5299
32.5848 28.401
32.6314 28.4016
32.6778 28.3649
32.7244 28.2517
32.7708 28.1067
32.8174 28.2022
32.8638 28.0633
32.9104 28.1072
32.9569 27.9642
33.0035 27.8653
33.0499 27.8982
33.0966 27.7425
33.143 27.7469
33.1897 27.6641
33.2361 27.6588
33.2828 27.5618
33.3293 27.4409
33.3759 27.3723
33.4226 27.1838
33.4691 27.0835
33.5158 27.0405
33.5623 26.8676
33.609 26.7714
33.6555 26.6048
33.7022 26.5097
33.7487 26.5635
33.7954 26.4697
33.842 26.3226
33.8887 26.2912
33.9353 26.2088
33.982 26.0896
34.0286 26.0555
34.0753 25.9372
34.1219 25.884
34.1687 25.8044
34.2152 25.7409
34.262 25.5959
34.3086 25.54
34.3554 25.5854
34.402 25.3177
34.4488 25.2162
34.4954 25.2657
34.5422 25.1013
34.5889 25.0621
34.6357 24.9774
34.6825 24.9502
34.7292 24.8111
34.776 24.7084
34.8227 24.6139
34.8695 24.6012
34.9162 24.5777
34.9631 24.3976
35.0098 24.5182
35.0566 24.284
35.1033 24.2975
35.1502 24.233
35.1969 24.1151
35.2438 24.1186
35.2906 24.1367
35.3375 24.0651
35.3842 23.9693
35.4311 23.9617
35.4779 23.9193
35.5248 23.9108
35.5716 23.7014
35.6185 23.7233
35.6653 23.6641
35.7123 23.5409
35.759 23.3687
35.806 23.3632
35.8528 23.2127
35.8998 23.2047
35.9468 23.0889
35.9936 23.1128
36.0406 22.9095
36.0874 22.9886
36.1345 22.9891
36.1813 22.7897
36.2283 22.7235
36.2752 22.6271
36.3222 22.5757
36.3691 22.5712
36.4161 22.4267
36.463 22.3992
36.5101 22.358
36.557 22.3588
36.6041 22.1423
36.651 22.0957
36.6981 22.1133
36.745 22.0255
36.7921 21.9096
36.839 21.7999
36.8861 21.7913
36.9331 21.7193
36.9802 21.6562
37.0272 21.4883
37.0743 21.5397
37.1213 21.4551
37.1684 21.3579
37.2154 21.3267
37.2626 21.2615
37.3098 21.119
37.3568 21.1084
37.404 21.1133
37.451 20.9466
37.4982 20.9135
37.5452 20.8612
37.5924 20.7274
37.6395 20.8159
37.6867 20.6752
37.7337 20.5974
37.781 20.519
37.8281 20.4454
37.8753 20.3195
37.9224 20.2378
37.9697 20.2496
38.0168 20.1583
38.064 20.101
38.1111 20.0679
38.1584 20.022
38.2056 19.9384
38.2529 19.8557
38.3 19.7529
38.3473 19.7985
38.3945 19.6282
38.4418 19.6753
38.489 19.5614
38.5363 19.4929
38.5837 19.4539
38.6309 19.4019
38.6782 19.253
38.7254 19.2504
38.7728 19.1578
38.82 19.1155
38.8674 19.0728
38.9146 18.9924
38.9621 18.9228
39.0093 18.919
39.0567 18.8754
39.104 18.8028
39.1514 18.7302
39.1987 18.6885
39.2461 18.615
39.2934 18.5815
39.3409 18.4504
39.3882 18.3654
39.4356 18.3063
39.483 18.2964
39.5304 18.2391
39.5778 18.2568
39.6253 18.1258
39.6726 18.1488
39.7201 18.0912
39.7675 17.9324
39.815 17.9126
39.8624 17.7616
39.9099 17.8193
39.9575 17.6763
40.0049 17.6678
40.0525 17.6094
40.0999 17.5563
40.1474 17.506
40.1949 17.3892
40.2425 17.4049
40.2899 17.3154
40.3375 17.2677
40.385 17.1928
40.4326 17.1884
40.48 17.0484
40.5277 17.0758
40.5752 17.0109
40.6228 16.9188
40.6703 16.8877
40.718 16.8513
40.7655 16.7906
40.8132 16.7121
40.8607 16.7266
40.9084 16.587
40.9559 16.5811
41.0036 16.5741
41.0512 16.5195
41.0989 16.4508
41.1465 16.3688
41.1942 16.3171
41.242 16.2624
41.2896 16.1952
41.3373 16.1492
41.3849 16.1114
41.4327 16.0639
41.4803 15.9787
41.5281 15.9419
41.5758 15.859
41.6236 15.8137
41.6712 15.7597
41.7191 15.7249
41.7667 15.6773
41.8146 15.6657
41.8622 15.5153
41.9101 15.5285
41.9578 15.4576
42.0057 15.3794
42.0534 15.3505
42.1013 15.2844
42.149 15.3015
42.1969 15.1965
42.2446 15.1365
42.2925 15.1004
42.3403 15.0774
42.3882 14.9912
42.436 14.9511
42.4839 14.8914
42.5319 14.8514
42.5797 14.7883
42.6277 14.7359
42.6755 14.7322
42.7235 14.6158
42.7713 14.6107
42.8193 14.5308
42.8671 14.516
42.9152 14.4967
42.963 14.4079
43.0111 14.3338
43.0589 14.3138
43.107 14.1781
43.1549 14.1903
43.2029 14.0901
43.2508 14.1018
43.2989 14.0823
43.3468 14.0494
43.3949 13.9597
43.4429 13.8939
43.491 13.8581
43.5389 13.8311
43.5871 13.7578
43.635 13.7143
43.6832 13.6678
43.7312 13.6144
43.7793 13.553
43.8273 13.5305
43.8755 13.4854
43.9237 13.4385
43.9717 13.4584
44.0199 13.3133
44.068 13.3508
44.1162 13.2643
44.1642 13.2421
44.2125 13.1787
44.2606 13.1007
44.3088 13.0301
44.3569 13.0616
44.4052 12.9832
44.4533 12.9306
44.5016 12.8225
44.5497 12.8825
44.598 12.8157
44.6461 12.7636
44.6945 12.6892
44.7426 12.654
44.791 12.6008
44.8391 12.5393
44.8875 12.5716
44.9357 12.5066
44.984 12.4575
45.0322 12.3609
45.0806 12.3814
45.1288 12.3229
45.1773 12.2537
45.2257 12.224
45.2739 12.1947
45.3224 12.1299
45.3706 12.1063
45.4191 12.0295
45.4673 12.0601
45.5158 11.9579
45.5641 11.9271
45.6126 11.8836
45.6609 11.8633
45.7094 11.8077
45.7577 11.7835
45.8063 11.6568
45.8546 11.6674
45.9031 11.621
45.9515 11.6044
46.0001 11.553
46.0484 11.4874
46.097 11.4519
46.1454 11.4445
46.194 11.3771
46.2424 11.3624
46.291 11.2976
46.3395 11.2581
46.3881 11.2262
46.4365 11.1637
46.4852 11.1606
46.5337 11.0732
46.5823 11.0485
46.631 11.0096
46.6795 10.9515
46.7282 10.9423
46.7767 10.9367
46.8254 10.8484
46.8739 10.7627
46.9226 10.7342
46.9712 10.743
47.0199 10.7219
47.0685 10.6558
47.1173 10.6343
47.1658 10.5791
47.2146 10.5185
47.2632 10.4728
47.312 10.4503
47.3606 10.4142
47.4095 10.3528
47.4581 10.3507
47.5069 10.3206
47.5556 10.2176
47.6044 10.2007
47.6531 10.1956
47.702 10.1546
47.7507 10.1052
47.7996 10.0692
47.8483 9.99764
47.8972 10.0304
47.9461 9.97099
47.9948 9.90728
48.0438 9.92054
48.0925 9.8752
48.1415 9.80476
48.1902 9.78369
48.2392 9.78259
48.288 9.72804
48.337 9.72779
48.3858 9.66896
48.4348 9.6287
48.4837 9.6193
48.5327 9.54812
48.5815 9.52838
48.6306 9.49939
48.6795 9.40898
48.7285 9.40755
48.7774 9.36429
48.8265 9.35428
48.8754 9.32316
48.9245 9.27611
48.9734 9.25582
49.0226 9.21688
49.0715 9.15299
49.1206 9.11463
49.1696 9.09596
49.2188 9.04827
49.2679 9.03814
49.3169 9.02353
49.3661 8.95479
49.4151 8.88215
49.4643 8.89627
49.5134 8.84291
49.5626 8.8039
49.6117 8.74566
49.6609 8.74808
49.71 8.68806
49.7592 8.73544
49.8083 8.66538
49.8576 8.64154
49.9067 8.58562
49.956 8.52644
50.0052 8.49331
50.0545 8.51156
50.1036 8.46168
50.153 8.42087
50.2022 8.41263
50.2515 8.34066
50.3007 8.29278
50.3501 8.24645
50.3993 8.29275
50.4487 8.20357
50.498 8.21812
50.5474 8.18362
50.5966 8.12265
50.6461 8.11824
50.6955 8.08339
50.7448 8.04785
50.7943 8.00218
50.8436 7.95793
50.8931 7.92585
50.9424 7.92041
50.9919 7.86243
51.0413 7.8518
51.0908 7.81377
51.1402 7.78124
51.1897 7.75566
51.2391 7.73171
51.2887 7.67753
51.3381 7.65114
51.3877 7.65125
51.4371 7.61129
51.4867 7.55232
51.5362 7.53423
51.5858 7.4928
51.6353 7.45016
51.6849 7.4399
51.7344 7.44724
51.7841 7.41786
51.8336 7.34376
51.8833 7.32906
51.9328 7.29073
51.9826 7.23415
52.0323 7.23952
52.0818 7.20702
52.1316 7.17013
52.1812 7.14599
52.231 7.11647
52.2806 7.0897
52.3304 7.0345
52.38 7.04779
52.4298 6.98908
52.4794 6.97988
52.5293 6.9518
52.5789 6.9
52.6288 6.88682
52.6785 6.82163
52.7284 6.83414
52.7781 6.83584
52.828 6.74001
52.8777 6.72844
52.9276 6.67401
52.9774 6.66945
53.0273 6.63112
53.0771 6.65559
53.1271 6.62036
53.1769 6.55425
53.2269 6.56108
53.2767 6.51296
53.3267 6.45799
53.3765 6.44656
53.4266 6.42505
53.4766 6.35995
53.5265 6.37545
53.5765 6.35413
53.6264 6.35096
53.6765 6.30579
53.7264 6.29237
53.7765 6.28119
53.8265 6.22959
53.8766 6.1649
53.9266 6.15175
53.9767 6.1394
54.0267 6.13035
54.0769 6.05222
54.1269 6.01812
54.1771 6.02879
54.2271 6.01269
54.2773 5.93337
54.3274 5.92388
54.3776 5.87405
54.4277 5.83688
54.478 5.88444
54.528 5.80685
54.5783 5.71156
54.6285 5.74021
54.6788 5.68666
54.7289 5.54229
54.7792 5.63092
54.8296 5.53655
54.8798 5.52808
54.9301 5.44395
54.9803 5.44922
55.0307 5.4113
55.0809 5.37152
55.1314 5.36072
55.1816 5.29192
55.232 5.20234
55.2823 5.24365
55.3328 5.15992
55.383 5.07448
55.4335 5.07949
55.4838 5.02256
55.5344 4.95748
55.5847 4.97703
55.6352 4.95101
55.6856 4.84072
55.7361 4.8003