File: XRD/Ni3Fe_FD0924.xy
TT I
1.27165 7.28037
1.31627 6.23106
1.36089 6.74456
1.40551 6.5697
1.45013 5.55137
1.49476 6.48278
1.53938 5.3788
1.584 5.3206
1.62863 5.57762
1.67325 5.32073
1.71787 4.89141
1.7625 5.01738
1.80712 4.31166
1.85174 4.66102
1.89636 4.24493
1.94099 4.76525
1.98562 4.45454
2.03025 5.4766
2.07487 4.23918
2.11949 5.10333
2.16411 5.08439
2.20874 8.5826
2.25338 11.8092
2.298 5.02942
2.34263 6.19907
2.38725 5.89405
2.43188 6.44681
2.4765 6.75606
2.52115 7.47478
2.56577 7.85889
2.6104 8.91205
2.65503 8.63034
2.69965 8.77113
2.7443 8.51364
2.78893 8.92048
2.83356 8.66514
2.87818 9.29922
2.92281 9.16095
2.96744 9.46595
3.01209 10.6374
3.05672 11.7908
3.10135 12.7044
3.14599 13.3013
3.19062 14.1704
3.23527 15.1671
3.2799 15.5955
3.32454 16.4613
3.36917 17.3552
3.4138 18.4914
3.45844 19.2645
3.50309 20.5872
3.54773 21.5349
3.59237 22.9097
3.637 49.5678
3.68164 37.1347
3.7263 25.1106
3.77094 25.2986
3.81558 26.3505
3.86022 27.2294
3.90486 28.5364
3.9495 29.2635
3.99416 30.1544
4.0388 31.7945
4.08344 33.2628
4.12809 33.7375
4.17273 35.4021
4.21738 38.9208
4.26204 117.845
4.30669 103.948
4.35133 43.4397
4.39598 42.8391
4.44063 47.9761
4.4853 53.5267
4.52995 57.3474
4.5746 57.953
4.61925 52.9536
4.6639 55.0176
4.70855 58.0473
4.75322 61.5454
4.79788 67.4976
4.84253 67.8804
4.88719 74.5976
4.93184 75.7548
4.97652 79.5524
5.02118 85.768
5.06583 93.5884
5.11049 104.299
5.15515 152.968
5.19981 369.039
5.24449 2753.35
5.28916 13564.2
5.33382 2686.29
5.37848 191.537
5.42315 129.248
5.46783 118.561
5.5125 111.897
5.55716 100.786
5.60183 96.4903
5.6465 94.7227
5.69117 93.4432
5.73586 91.6105
5.78053 97.5205
5.8252 97.6118
5.86988 100.588
5.91455 93.2842
5.95924 102.435
6.00392 225.181
6.0486 913.98
6.09328 4649.74
6.13795 2982.05
6.18263 192.221
6.22733 87.707
6.27201 78.8096
6.3167 82.645
6.36138 73.6897
6.40606 69.4225
6.45075 69.0064
6.49545 64.4653
6.54014 62.8064
6.58483 62.0325
6.62952 62.37
6.67421 72.3266
6.71892 89.0318
6.76361 61.3434
6.8083 58.91
6.853 59.583
6.89769 56.1978
6.94239 55.2722
6.98711 54.7604
7.03181 55.4747
7.07651 54.2655
7.12121 54.0821
7.16591 55.769
7.21063 54.8386
7.25533 60.0949
7.30004 98.7156
7.34475 66.9785
7.38945 54.1784
7.43416 53.0848
7.47889 53.1603
7.5236 53.5926
7.56831 54.2639
7.61303 55.1064
7.65774 55.2727
7.70247 56.0236
7.74719 55.7461
7.79191 55.5052
7.83663 55.9269
7.88135 56.9108
7.92607 57.6273
7.97081 58.8119
8.01553 60.5816
8.06026 62.1667
8.10498 63.2904
8.14971 70.2749
8.19446 70.465
8.23919 68.2623
8.28392 70.938
8.32865 73.1168
8.37339 77.1178
8.41812 82.2704
8.46288 101.049
8.50761 169.943
8.55235 363.933
8.59709 1206.67
8.64183 2261.03
8.68658 844.951
8.73134 140.915
8.77609 96.0796
8.82083 90.7968
8.86558 91.484
8.91033 91.5177
8.9551 88.739
8.99985 84.3588
9.04461 83.0374
9.08936 83.2488
9.13412 81.8228
9.17888 80.8494
9.22365 80.9393
9.26841 81.2558
9.31318 83.7633
9.35794 85.9665
9.4027 85.2165
9.44749 84.3537
9.49226 83.688
9.53703 84.6965
9.5818 88.5272
9.62657 93.6732
9.67134 94.1884
9.71614 91.6792
9.76091 93.7406
9.80569 98.3637
9.85047 100.459
9.89525 111.047
9.94005 124.782
9.98484 183.82
10.0296 330.46
10.0744 826.462
10.1192 1848.14
10.164 1470.35
10.2088 324.346
10.2536 118.262
10.2984 107.548
10.3432 106.704
10.388 103.13
10.4328 119.36
10.4776 157.018
10.5224 288.754
10.5672 546.064
10.612 485.17
10.6568 178.843
10.7017 92.0915
10.7465 84.8337
10.7913 82.064
10.8361 79.8124
10.8809 77.3726
10.9257 77.0527
10.9706 76.9641
11.0154 74.3294
11.0602 72.037
11.105 70.3481
11.1499 70.8354
11.1947 73.0357
11.2395 69.0732
11.2844 67.6255
11.3292 65.9211
11.374 65.3761
11.4189 64.9425
11.4637 63.8347
11.5086 63.6897
11.5534 64.4019
11.5983 62.942
11.6431 62.5425
11.688 61.8171
11.7328 61.8219
11.7777 61.6159
11.8225 61.6164
11.8674 61.3435
11.9122 61.5273
11.9571 62.1353
12.002 63.4202
12.0468 67.5043
12.0917 76.8046
12.1366 101.803
12.1814 158.631
12.2263 211.717
12.2712 154.948
12.3161 85.925
12.3609 65.719
12.4058 62.9986
12.4507 62.7645
12.4956 63.6905
12.5405 64.2274
12.5853 64.0326
12.6302 67.012
12.6751 69.4965
12.72 66.9052
12.7649 66.5956
12.8098 67.6095
12.8547 69.0128
12.8996 70.1685
12.9445 71.8159
12.9894 73.5172
13.0343 74.9225
13.0792 78.9215
13.1242 90.7441
13.1691 109.09
13.214 145.182
13.2589 245.934
13.3038 392.653
13.3487 422.06
13.3937 229.258
13.4386 115.031
13.4835 103.919
13.5285 117.593
13.5734 156.844
13.6183 258.874
13.6633 376.482
13.7082 326.426
13.7531 167.719
13.7981 91.9185
13.843 80.1998
13.888 78.5293
13.9329 75.977
13.9779 74.5516
14.0228 73.077
14.0678 71.776
14.1127 71.046
14.1577 70.771
14.2027 69.9515
14.2476 69.2559
14.2926 68.9551
14.3376 69.1769
14.3825 68.6205
14.4275 67.7627
14.4725 67.5384
14.5175 67.828
14.5624 67.9497
14.6074 68.7018
14.6524 69.3524
14.6974 69.5978
14.7424 72.6139
14.7874 78.0913
14.8324 86.9813
14.8774 110.199
14.9224 159.172
14.9674 219.166
15.0124 213.02
15.0574 137.629
15.1024 84.0294
15.1474 70.4352
15.1924 69.1279
15.2374 68.444
15.2824 67.2093
15.3274 66.1786
15.3725 65.5381
15.4175 65.4883
15.4625 65.0616
15.5076 64.7514
15.5526 64.8475
15.5976 64.708
15.6426 66.8017
15.6877 71.3794
15.7327 78.4164
15.7778 93.7144
15.8228 128.206
15.8679 177.619
15.9129 196.146
15.958 146.728
16.003 87.2236
16.0481 64.6325
16.0931 61.9553
16.1382 60.287
16.1833 58.9783
16.2283 57.6282
16.2734 56.9936
16.3185 56.8914
16.3636 56.702
16.4086 55.8695
16.4537 54.8187
16.4988 54.5726
16.5439 54.415
16.589 54.1799
16.6341 53.7326
16.6792 53.6691
16.7243 53.7789
16.7694 53.8252
16.8145 53.6981
16.8596 53.9586
16.9047 54.4343
16.9498 54.8228
16.9949 54.4122
17.04 54.9649
17.0851 56.374
17.1302 57.5472
17.1754 60.5165
17.2205 65.9109
17.2656 74.6816
17.3108 82.9901
17.3559 80.2113
17.401 67.7032
17.4462 60.0532
17.4913 58.1742
17.5365 57.9938
17.5815 58.1095
17.6268 58.6568
17.6718 59.3375
17.7171 59.6384
17.7622 60.3156
17.8074 61.3626
17.8525 64.0979
17.8977 67.2697
17.9428 72.2872
17.9881 81.5617
18.0331 100.863
18.0784 126.16
18.1237 140.21
18.1688 125.788
18.214 96.7951
18.2591 83.9136
18.3044 90.7634
18.3495 101.731
18.3948 105.496
18.4399 90.8475
18.4852 72.7594
18.5303 63.6659
18.5756 61.0315
18.6207 60.0983
18.666 59.3119
18.7112 58.558
18.7565 57.9087
18.8016 57.6077
18.8469 57.0705
18.892 56.8035
18.9374 56.2295
18.9825 55.7489
19.0278 55.5997
19.073 55.9755
19.1183 56.3323
19.1635 56.706
19.2088 58.1818
19.254 61.0562
19.2993 66.1432
19.3447 72.0378
19.3898 74.8489
19.4352 69.1836
19.4804 60.4859
19.5257 55.0807
19.5709 53.1116
19.6163 52.7458
19.6615 52.7174
19.7068 52.3283
19.752 52.4397
19.7974 52.8484
19.8426 53.3088
19.888 53.9465
19.9332 55.3841
19.9786 58.1305
20.0238 62.4177
20.0692 67.5123
20.1144 69.6684
20.1598 66.3337
20.205 61.6974
20.2504 61.4547
20.2957 64.0721
20.3411 65.3237
20.3863 62.1608
20.4318 56.1811
20.477 51.9611
20.5224 50.139
20.5677 49.7715
20.6131 49.1946
20.6586 48.7039
20.7038 48.6393
20.7493 48.2122
20.7945 48.0141
20.84 47.9833
20.8853 47.8138
20.9307 47.7696
20.976 47.958
21.0215 47.82
21.0668 48.2792
21.1122 48.7009
21.1575 49.4071
21.203 50.2503
21.2483 50.8011
21.2938 50.4835
21.3391 48.9295
21.3846 47.9346
21.4299 47.7719
21.4754 47.624
21.5207 47.8457
21.5662 48.1653
21.6116 48.5347
21.6571 49.0885
21.7024 49.9036
21.7479 51.8099
21.7933 55.0022
21.8388 58.9592
21.8843 63.1404
21.9297 64.1558
21.9752 61.3746
22.0206 57.5388
22.0661 55.342
22.1115 55.6166
22.157 55.0084
22.2024 52.9064
22.248 50.099
22.2933 48.7253
22.3389 48.1618
22.3843 48.0146
22.4299 47.96
22.4753 47.8989
22.5208 47.6583
22.5662 47.6961
22.6118 47.9756
22.6572 48.1831
22.7028 48.4227
22.7483 48.78
22.7939 49.6603
22.8393 51.3608
22.8849 53.6124
22.9303 56.0725
22.9759 57.5598
23.0214 56.209
23.067 52.9102
23.1126 49.6861
23.1581 48.1541
23.2037 47.9352
23.2492 48.0362
23.2948 47.9867
23.3403 48.304
23.3859 48.9396
23.4314 49.9002
23.477 52.2031
23.5225 54.7049
23.5682 56.9611
23.6137 57.3072
23.6593 54.0307
23.7048 49.9032
23.7505 46.9096
23.796 45.5596
23.8417 45.131
23.8872 44.7662
23.9329 44.4463
23.9784 44.0794
24.0241 43.9089
24.0697 43.6177
24.1154 43.3111
24.1609 43.0939
24.2066 43.0038
24.2522 42.939
24.2979 42.6677
24.3434 42.5424
24.3892 42.4272
24.4349 42.4758
24.4805 42.4302
24.5262 42.4729
24.5718 42.246
24.6175 42.269
24.6631 42.1056
24.7089 41.74
24.7545 41.621
24.8002 41.3821
24.8458 41.393
24.8916 41.34
24.9372 41.5675
24.983 41.8378
25.0286 42.2892
25.0744 42.6791
25.12 43.2668
25.1658 43.738
25.2114 43.9595
25.2572 44.1354
25.3029 44.4156
25.3487 44.2558
25.3943 43.783
25.4402 42.4888
25.4858 41.5481
25.5316 40.541
25.5773 40.1787
25.6231 40.3312
25.669 39.7271
25.7147 39.7869
25.7605 39.8315
25.8062 39.7362
25.8521 39.921
25.8977 39.8912
25.9436 40.1455
25.9893 40.4219
26.0352 40.9147
26.0809 41.0571
26.1268 41.0723
26.1725 40.5671
26.2184 39.9089
26.2641 39.5879
26.31 39.4425
26.3557 39.4023
26.4017 39.3959
26.4474 39.8126
26.4933 40.088
26.5391 40.5973
26.585 41.3262
26.6308 41.6195
26.6767 41.4636
26.7225 41.1451
26.7684 40.6566
26.8142 40.1853
26.8601 39.7178
26.9059 39.4444
26.9519 38.6892
26.9979 38.5353
27.0437 38.2693
27.0896 38.1009
27.1354 38.1071
27.1814 37.9841
27.2272 37.8807
27.2732 37.8606
27.3191 37.6156
27.3651 37.9287
27.4109 37.7977
27.4569 38.016
27.5027 38.0393
27.5488 37.9451
27.5946 37.6507
27.6407 37.5567
27.6865 37.5128
27.7326 37.1493
27.7784 37.2534
27.8245 37.2284
27.8703 37.3496
27.9164 37.6983
27.9623 37.9169
28.0084 38.283
28.0543 38.6441
28.1003 38.3929
28.1462 38.0952
28.1923 37.8726
28.2384 37.3301
28.2843 37.0409
28.3304 36.4369
28.3764 35.9983
28.4225 35.8055
28.4684 35.6183
28.5145 35.3408
28.5605 35.3478
28.6066 35.156
28.6526 35.0038
28.6987 34.9655
28.7447 34.9014
28.7908 34.837
28.8368 34.8159
28.8829 34.9528
28.9289 34.6579
28.9751 34.5175
29.0211 34.3312
29.0673 34.0318
29.1133 33.9211
29.1595 33.7758
29.2055 33.7675
29.2517 33.7773
29.2977 33.744
29.3439 33.721
29.3899 33.6915
29.4361 33.5688
29.4824 33.3953
29.5284 33.0193
29.5746 32.8707
29.6207 32.5781
29.6669 32.432
29.713 32.4088
29.7593 32.317
29.8053 32.4249
29.8516 32.2604
29.8977 32.2375
29.9439 32.0546
29.99 31.9116
30.0363 31.9283
30.0824 31.9976
30.1287 31.9589
30.1748 31.9762
30.2211 31.9614
30.2673 31.672
30.3136 31.8335
30.3597 31.6639
30.406 31.6322
30.4522 31.4554
30.4985 31.6157
30.5447 31.6968
30.591 31.5782
30.6372 31.754
30.6835 31.7262
30.7297 31.7326
30.7761 31.5673
30.8224 31.4794
30.8686 31.3334
30.915 31.1364
30.9612 30.8645
31.0076 30.6912
31.0538 30.7402
31.1002 30.6715
31.1464 30.4397
31.1928 30.4251
31.2391 30.4017
31.2855 30.3991
31.3317 30.342
31.3781 30.3831
31.4244 30.4482
31.4708 30.2421
31.5171 30.372
31.5636 30.2457
31.6098 30.0022
31.6563 29.8341
31.7026 29.7285
31.7491 29.6529
31.7953 29.5421
31.8418 29.7446
31.8881 29.6442
31.9346 29.7001
31.9809 29.5449
32.0275 29.413
32.074 29.2997
32.1203 29.1249
32.1668 28.9691
32.2132 28.9113
32.2597 28.6651
32.306 28.7514
32.3526 28.5205
32.399 28.4348
32.4455 28.3418
32.4919 28.2079
32.5385 28.1137
32.5848 27.9725
32.6314 28.0986
32.6778 27.9597
32.7244 27.728
32.7708 27.7737
32.8174 27.7353
32.8638 27.508
32.9104 27.6475
32.9569 27.5867
33.0035 27.3371
33.0499 27.4446
33.0966 27.3817
33.143 27.2878
33.1897 27.1781
33.2361 27.1077
33.2828 27.2358
33.3293 26.9488
33.3759 26.8877
33.4226 26.7502
33.4691 26.715
33.5158 26.621
33.5623 26.3699
33.609 26.3206
33.6555 26.2344
33.7022 26.2045
33.7487 26.1629
33.7954 25.9715
33.842 25.9395
33.8887 25.9151
33.9353 25.7661
33.982 25.6804
34.0286 25.6953
34.0753 25.5692
34.1219 25.4754
34.1687 25.3536
34.2152 25.3132
34.262 25.2513
34.3086 25.2088
34.3554 25.0675
34.402 24.9711
34.4488 24.8937
34.4954 24.9096
34.5422 24.7167
34.5889 24.677
34.6357 24.5129
34.6825 24.4786
34.7292 24.3973
34.776 24.4071
34.8227 24.276
34.8695 24.234
34.9162 24.2462
34.9631 24.0707
35.0098 24.054
35.0566 23.9063
35.1033 23.8322
35.1502 23.8257
35.1969 23.7938
35.2438 23.7102
35.2906 23.6086
35.3375 23.6922
35.3842 23.5902
35.4311 23.5232
35.4779 23.5264
35.5248 23.4564
35.5716 23.3427
35.6185 23.2395
35.6653 23.2604
35.7123 23.1366
35.759 23.0744
35.806 23.0164
35.8528 22.8787
35.8998 22.8707
35.9468 22.7703
35.9936 22.7832
36.0406 22.6287
36.0874 22.6032
36.1345 22.49
36.1813 22.4827
36.2283 22.3246
36.2752 22.198
36.3222 22.2683
36.3691 22.2208
36.4161 22.0168
36.463 22.078
36.5101 22.0497
36.557 21.9689
36.6041 21.7879
36.651 21.8335
36.6981 21.7991
36.745 21.7004
36.7921 21.6132
36.839 21.4393
36.8861 21.4779
36.9331 21.372
36.9802 21.3274
37.0272 21.2073
37.0743 21.1112
37.1213 21.0767
37.1684 21.0107
37.2154 20.9681
37.2626 20.8433
37.3098 20.8385
37.3568 20.8464
37.404 20.727
37.451 20.6568
37.4982 20.5948
37.5452 20.4907
37.5924 20.423
37.6395 20.4687
37.6867 20.3676
37.7337 20.2865
37.781 20.1821
37.8281 20.1277
37.8753 20.0624
37.9224 19.956
37.9697 19.9428
38.0168 19.888
38.064 19.7639
38.1111 19.7012
38.1584 19.6641
38.2056 19.616
38.2529 19.5999
38.3 19.4355
38.3473 19.4568
38.3945 19.3209
38.4418 19.3159
38.489 19.2958
38.5363 19.1777
38.5837 19.0969
38.6309 19.048
38.6782 19.0711
38.7254 18.9147
38.7728 18.898
38.82 18.8411
38.8674 18.7454
38.9146 18.6538
38.9621 18.5536
39.0093 18.5724
39.0567 18.5132
39.104 18.4758
39.1514 18.3755
39.1987 18.2999
39.2461 18.3411
39.2934 18.2619
39.3409 18.1481
39.3882 18.0651
39.4356 18.0528
39.483 18.0189
39.5304 17.9185
39.5778 17.9345
39.6253 17.8316
39.6726 17.7664
39.7201 17.7412
39.7675 17.6617
39.815 17.6234
39.8624 17.5234
39.9099 17.5566
39.9575 17.4309
40.0049 17.3822
40.0525 17.3387
40.0999 17.3194
40.1474 17.2997
40.1949 17.2117
40.2425 17.0502
40.2899 17.1266
40.3375 16.9702
40.385 16.9499
40.4326 16.9273
40.48 16.8439
40.5277 16.8479
40.5752 16.7782
40.6228 16.7026
40.6703 16.6185
40.718 16.6162
40.7655 16.559
40.8132 16.4477
40.8607 16.414
40.9084 16.3502
40.9559 16.2847
41.0036 16.2388
41.0512 16.245
41.0989 16.2087
41.1465 16.099
41.1942 16.094
41.242 16.0203
41.2896 15.9912
41.3373 15.8776
41.3849 15.8672
41.4327 15.7864
41.4803 15.6711
41.5281 15.7532
41.5758 15.5872
41.6236 15.537
41.6712 15.5184
41.7191 15.4553
41.7667 15.4189
41.8146 15.3735
41.8622 15.3103
41.9101 15.2975
41.9578 15.1803
42.0057 15.2129
42.0534 15.1319
42.1013 15.0947
42.149 14.9995
42.1969 15.0034
42.2446 14.9384
42.2925 14.8516
42.3403 14.8105
42.3882 14.7902
42.436 14.699
42.4839 14.627
42.5319 14.6386
42.5797 14.5822
42.6277 14.5159
42.6755 14.5679
42.7235 14.3907
42.7713 14.3651
42.8193 14.3698
42.8671 14.3209
42.9152 14.228
42.963 14.1998
43.0111 14.1365
43.0589 14.0918
43.107 14.0044
43.1549 13.9754
43.2029 13.9216
43.2508 13.8835
43.2989 13.8308
43.3468 13.7619
43.3949 13.7918
43.4429 13.7037
43.491 13.6621
43.5389 13.6394
43.5871 13.5622
43.635 13.5003
43.6832 13.4563
43.7312 13.3841
43.7793 13.3885
43.8273 13.3605
43.8755 13.2695
43.9237 13.2346
43.9717 13.1876
44.0199 13.1267
44.068 13.0958
44.1162 13.0094
44.1642 13.0371
44.2125 12.9819
44.2606 12.8786
44.3088 12.8651
44.3569 12.808
44.4052 12.7838
44.4533 12.7348
44.5016 12.6831
44.5497 12.643
44.598 12.63
44.6461 12.5857
44.6945 12.52
44.7426 12.454
44.791 12.3822
44.8391 12.4457
44.8875 12.3677
44.9357 12.2878
44.984 12.2585
45.0322 12.2587
45.0806 12.1803
45.1288 12.1258
45.1773 12.1135
45.2257 12.0499
45.2739 11.9759
45.3224 11.9615
45.3706 11.916
45.4191 11.8855
45.4673 11.8401
45.5158 11.8139
45.5641 11.6851
45.6126 11.6884
45.6609 11.6766
45.7094 11.6195
45.7577 11.602
45.8063 11.5152
45.8546 11.5042
45.9031 11.4599
45.9515 11.4192
46.0001 11.3731
46.0484 11.3619
46.097 11.3084
46.1454 11.2587
46.194 11.2228
46.2424 11.1603
46.291 11.1153
46.3395 11.0882
46.3881 11.0768
46.4365 11.0124
46.4852 10.9861
46.5337 10.9399
46.5823 10.8816
46.631 10.8255
46.6795 10.8044
46.7282 10.7499
46.7767 10.6941
46.8254 10.6611
46.8739 10.661
46.9226 10.601
46.9712 10.5753
47.0199 10.537
47.0685 10.4898
47.1173 10.4506
47.1658 10.4343
47.2146 10.4022
47.2632 10.3203
47.312 10.3012
47.3606 10.2634
47.4095 10.1933
47.4581 10.177
47.5069 10.1316
47.5556 10.1315
47.6044 10.0922
47.6531 10.0374
47.702 9.98225
47.7507 9.93261
47.7996 9.92755
47.8483 9.88315
47.8972 9.8814
47.9461 9.7758
47.9948 9.75667
48.0438 9.77382
48.0925 9.74162
48.1415 9.68494
48.1902 9.63147
48.2392 9.6116
48.288 9.57833
48.337 9.55459
48.3858 9.48913
48.4348 9.47382
48.4837 9.46673
48.5327 9.40596
48.5815 9.36637
48.6306 9.29722
48.6795 9.30749
48.7285 9.27953
48.7774 9.25659
48.8265 9.24443
48.8754 9.15018
48.9245 9.16257
48.9734 9.07222
49.0226 9.06214
49.0715 9.02628
49.1206 9.01642
49.1696 8.94241
49.2188 8.90775
49.2679 8.88688
49.3169 8.85354
49.3661 8.80533
49.4151 8.78494
49.4643 8.72323
49.5134 8.70891
49.5626 8.63217
49.6117 8.67318
49.6609 8.6143
49.71 8.58759
49.7592 8.55833
49.8083 8.52437
49.8576 8.47805
49.9067 8.42825
49.956 8.42331
50.0052 8.38291
50.0545 8.35617
50.1036 8.34585
50.153 8.2739
50.2022 8.26183
50.2515 8.22059
50.3007 8.19369
50.3501 8.1517
50.3993 8.1267
50.4487 8.09489
50.498 8.06738
50.5474 8.02394
50.5966 7.97754
50.6461 7.96759
50.6955 7.95667
50.7448 7.89389
50.7943 7.85618
50.8436 7.85605
50.8931 7.82816
50.9424 7.8164
50.9919 7.78548
51.0413 7.7519
51.0908 7.70272
51.1402 7.69289
51.1897 7.64376
51.2391 7.621
51.2887 7.54683
51.3381 7.53431
51.3877 7.52496
51.4371 7.48944
51.4867 7.44283
51.5362 7.42611
51.5858 7.41434
51.6353 7.35917
51.6849 7.33745
51.7344 7.31098
51.7841 7.28745
51.8336 7.20978
51.8833 7.21936
51.9328 7.16709
51.9826 7.14871
52.0323 7.09085
52.0818 7.1264
52.1316 7.03956
52.1812 7.02274
52.231 6.97736
52.2806 6.96394
52.3304 6.97628
52.38 6.93913
52.4298 6.93169
52.4794 6.88023
52.5293 6.82811
52.5789 6.83428
52.6288 6.80104
52.6785 6.72367
52.7284 6.73331
52.7781 6.71685
52.828 6.66195
52.8777 6.6809
52.9276 6.5991
52.9774 6.57696
53.0273 6.60798
53.0771 6.535
53.1271 6.53616
53.1769 6.46323
53.2269 6.476
53.2767 6.42415
53.3267 6.37694
53.3765 6.37319
53.4266 6.31284
53.4766 6.2925
53.5265 6.27266
53.5765 6.25652
53.6264 6.24656
53.6765 6.23381
53.7264 6.18366
53.7765 6.17262
53.8265 6.1118
53.8766 6.09873
53.9266 6.0444
53.9767 6.04703
54.0267 6.01957
54.0769 5.99086
54.1269 5.95171
54.1771 5.93051
54.2271 5.92663
54.2773 5.85487
54.3274 5.83063
54.3776 5.78847
54.4277 5.79897
54.478 5.73608
54.528 5.68537
54.5783 5.66957
54.6285 5.63113
54.6788 5.59611
54.7289 5.59787
54.7792 5.51896
54.8296 5.462
54.8798 5.42361
54.9301 5.38251
54.9803 5.38496
55.0307 5.33819
55.0809 5.29164
55.1314 5.27738
55.1816 5.18347
55.232 5.19009
55.2823 5.12471
55.3328 5.06234
55.383 5.02296
55.4335 4.96709
55.4838 4.96565
55.5344 4.85341
55.5847 4.86843
55.6352 4.83254
55.6856 4.74733
55.7361 4.70419