File: XRD/Ni3Fe_FD1062.xy
TT I
1.27165 7.2753
1.31627 6.08537
1.36089 6.23938
1.40551 5.6117
1.45013 5.46383
1.49476 5.9656
1.53938 5.51379
1.584 4.51359
1.62863 5.22072
1.67325 4.28024
1.71787 4.72168
1.7625 4.2807
1.80712 4.08121
1.85174 4.40729
1.89636 3.91155
1.94099 4.91175
1.98562 3.88595
2.03025 3.95488
2.07487 4.18293
2.11949 4.25102
2.16411 4.35389
2.20874 4.83522
2.25338 6.26402
2.298 5.11383
2.34263 4.73003
2.38725 5.92597
2.43188 5.90486
2.4765 7.01146
2.52115 6.70217
2.56577 7.80522
2.6104 7.79219
2.65503 7.90877
2.69965 8.36559
2.7443 8.30006
2.78893 7.95452
2.83356 8.31197
2.87818 8.98245
2.92281 9.05925
2.96744 9.77175
3.01209 10.3786
3.05672 10.9741
3.10135 12.0678
3.14599 12.535
3.19062 13.6349
3.23527 14.523
3.2799 14.9101
3.32454 16.1754
3.36917 16.8837
3.4138 17.9143
3.45844 18.3686
3.50309 19.9834
3.54773 20.2577
3.59237 21.243
3.637 27.3908
3.68164 26.6684
3.7263 23.8198
3.77094 24.4453
3.81558 24.9608
3.86022 26.2863
3.90486 27.3637
3.9495 28.0191
3.99416 28.9737
4.0388 30.3015
4.08344 31.4515
4.12809 32.5735
4.17273 33.9853
4.21738 35.3483
4.26204 51.8497
4.30669 56.5435
4.35133 40.7904
4.39598 41.0318
4.44063 43.0831
4.4853 46.5123
4.52995 46.3747
4.5746 48.8258
4.61925 50.6138
4.6639 52.6565
4.70855 55.0567
4.75322 58.3351
4.79788 60.6661
4.84253 64.38
4.88719 67.7419
4.93184 71.6805
4.97652 77.0589
5.02118 83.089
5.06583 89.325
5.11049 97.7967
5.15515 117.978
5.19981 230.248
5.24449 2488.99
5.28916 13619.9
5.33382 3338.27
5.37848 210.328
5.42315 123.811
5.46783 107.943
5.5125 101.296
5.55716 97.3689
5.60183 93.4113
5.6465 91.5114
5.69117 89.3395
5.73586 88.2709
5.78053 86.9519
5.8252 86.215
5.86988 86.986
5.91455 88.8422
5.95924 95.3232
6.00392 162.985
6.0486 888.019
6.09328 4576.39
6.13795 3633.92
6.18263 241.255
6.22733 87.3966
6.27201 76.0075
6.3167 73.6375
6.36138 69.0258
6.40606 64.8009
6.45075 63.6071
6.49545 61.862
6.54014 60.3104
6.58483 59.0587
6.62952 57.8028
6.67421 58.5401
6.71892 64.1563
6.76361 56.531
6.8083 54.761
6.853 53.6614
6.89769 53.6128
6.94239 52.995
6.98711 52.5313
7.03181 52.2566
7.07651 52.0066
7.12121 51.8298
7.16591 51.4618
7.21063 51.3237
7.25533 51.9463
7.30004 61.6307
7.34475 55.8312
7.38945 51.7323
7.43416 51.4196
7.47889 51.4489
7.5236 58.0643
7.56831 72.5902
7.61303 56.4551
7.65774 52.7862
7.70247 53.1412
7.74719 53.0956
7.79191 53.6809
7.83663 53.8257
7.88135 54.6563
7.92607 55.766
7.97081 56.6681
8.01553 57.8723
8.06026 58.8282
8.10498 60.3804
8.14971 62.3142
8.19446 64.0853
8.23919 65.8233
8.28392 68.3579
8.32865 70.4457
8.37339 74.3295
8.41812 77.6685
8.46288 86.503
8.50761 128.025
8.55235 374.881
8.59709 1098.41
8.64183 2286.74
8.68658 1118.46
8.73134 171.258
8.77609 95.12
8.82083 88.8403
8.86558 85.6343
8.91033 83.9768
8.9551 82.5676
8.99985 81.3612
9.04461 80.2822
9.08936 79.3463
9.13412 79.0532
9.17888 79.8044
9.22365 90.9397
9.26841 112.661
9.31318 89.0878
9.35794 80.1953
9.4027 80.0506
9.44749 80.636
9.49226 81.1546
9.53703 81.8423
9.5818 83.5995
9.62657 84.2167
9.67134 86.439
9.71614 87.761
9.76091 89.651
9.80569 91.9567
9.85047 94.1222
9.89525 99.0866
9.94005 106.065
9.98484 147.117
10.0296 349.316
10.0744 775.168
10.1192 1782.4
10.164 1708.67
10.2088 449.022
10.2536 125.13
10.2984 103.286
10.3432 100.749
10.388 98.2765
10.4328 107.744
10.4776 162.357
10.5224 272.395
10.5672 509.602
10.612 564.496
10.6568 229.232
10.7017 103.499
10.7465 86.5534
10.7913 79.8027
10.8361 78.0731
10.8809 75.795
10.9257 73.671
10.9706 72.8255
11.0154 70.777
11.0602 69.6715
11.105 68.2323
11.1499 67.3114
11.1947 67.2805
11.2395 65.8265
11.2844 65.0609
11.3292 64.0074
11.374 63.0897
11.4189 62.7594
11.4637 62.0387
11.5086 61.4191
11.5534 61.4987
11.5983 60.8757
11.6431 60.5246
11.688 60.2331
11.7328 60.2023
11.7777 60.1872
11.8225 59.8611
11.8674 59.8921
11.9122 61.9693
11.9571 67.9767
12.002 66.467
12.0468 64.304
12.0917 76.8679
12.1366 99.192
12.1814 146.79
12.2263 203.765
12.2712 176.862
12.3161 97.7251
12.3609 64.8978
12.4058 61.4579
12.4507 61.4036
12.4956 61.6377
12.5405 61.3656
12.5853 61.8929
12.6302 62.7251
12.6751 64.1267
12.72 64.0879
12.7649 64.6624
12.8098 65.3275
12.8547 66.2594
12.8996 67.8638
12.9445 69.226
12.9894 71.074
13.0343 72.6784
13.0792 76.7133
13.1242 82.2121
13.1691 107.848
13.214 148.524
13.2589 229.294
13.3038 369.457
13.3487 451.603
13.3937 282.149
13.4386 128.063
13.4835 99.1816
13.5285 120.354
13.5734 157.0
13.6183 237.535
13.6633 356.387
13.7082 363.557
13.7531 206.288
13.7981 100.79
13.843 79.5267
13.888 77.1877
13.9329 74.7024
13.9779 73.5365
14.0228 72.0692
14.0678 70.8296
14.1127 71.8722
14.1577 75.0329
14.2027 73.3379
14.2476 68.9904
14.2926 67.6563
14.3376 67.3436
14.3825 66.7477
14.4275 66.2664
14.4725 66.3112
14.5175 66.6007
14.5624 66.4211
14.6074 66.9309
14.6524 67.3752
14.6974 67.5463
14.7424 68.4693
14.7874 74.4404
14.8324 89.0304
14.8774 110.387
14.9224 148.855
14.9674 208.852
15.0124 229.648
15.0574 161.037
15.1024 94.1779
15.1474 71.196
15.1924 68.2397
15.2374 66.7015
15.2824 65.8522
15.3274 64.9993
15.3725 64.5458
15.4175 64.2337
15.4625 63.8441
15.5076 63.5405
15.5526 63.5139
15.5976 63.6348
15.6426 64.018
15.6877 68.3268
15.7327 79.5452
15.7778 95.0003
15.8228 122.688
15.8679 169.614
15.9129 203.311
15.958 169.96
16.003 105.154
16.0481 69.737
16.0931 62.8542
16.1382 60.1132
16.1833 58.5038
16.2283 57.0064
16.2734 56.2976
16.3185 55.8006
16.3636 55.1181
16.4086 54.633
16.4537 53.9875
16.4988 53.6141
16.5439 53.4045
16.589 53.266
16.6341 52.9422
16.6792 52.6987
16.7243 52.807
16.7694 52.7884
16.8145 52.7185
16.8596 52.9915
16.9047 53.6523
16.9498 54.163
16.9949 53.9469
17.04 53.8027
17.0851 54.9
17.1302 57.2618
17.1754 60.1288
17.2205 64.8285
17.2656 72.4922
17.3108 82.2679
17.3559 82.8651
17.401 72.5116
17.4462 61.4547
17.4913 57.5285
17.5365 57.1683
17.5815 57.3927
17.6268 57.8779
17.6718 58.2883
17.7171 58.8231
17.7622 59.9449
17.8074 60.9183
17.8525 61.8286
17.8977 66.5358
17.9428 73.5698
17.9881 82.3241
18.0331 97.9693
18.0784 121.409
18.1237 142.839
18.1688 138.292
18.214 109.132
18.2591 88.5114
18.3044 89.3645
18.3495 99.69
18.3948 107.723
18.4399 99.1855
18.4852 79.2121
18.5303 65.8865
18.5756 61.2266
18.6207 60.208
18.666 59.053
18.7112 58.1413
18.7565 57.3942
18.8016 57.2493
18.8469 56.5881
18.892 56.3214
18.9374 55.7797
18.9825 55.5587
19.0278 54.9687
19.073 55.1139
19.1183 55.3933
19.1635 56.4398
19.2088 58.0605
19.254 60.8802
19.2993 65.5517
19.3447 72.1326
19.3898 76.3478
19.4352 72.6213
19.4804 63.483
19.5257 56.2901
19.5709 53.0776
19.6163 52.4548
19.6615 52.4192
19.7068 51.8635
19.752 51.7969
19.7974 52.0145
19.8426 52.926
19.888 53.7904
19.9332 55.1158
19.9786 57.6927
20.0238 61.0579
20.0692 66.5181
20.1144 70.7183
20.1598 69.3491
20.205 64.2811
20.2504 62.0178
20.2957 63.6193
20.3411 65.8573
20.3863 64.3023
20.4318 58.4403
20.477 52.8329
20.5224 50.0029
20.5677 49.4594
20.6131 48.7827
20.6586 48.3559
20.7038 48.2474
20.7493 48.1478
20.7945 48.1502
20.84 47.8345
20.8853 47.5591
20.9307 47.2671
20.976 47.3838
21.0215 47.5795
21.0668 47.9693
21.1122 48.262
21.1575 48.9029
21.203 49.6341
21.2483 50.5665
21.2938 50.6005
21.3391 49.2424
21.3846 47.9415
21.4299 47.44
21.4754 47.3473
21.5207 47.4817
21.5662 47.5399
21.6116 47.7808
21.6571 48.9733
21.7024 50.1719
21.7479 51.9856
21.7933 54.1921
21.8388 58.3574
21.8843 62.9141
21.9297 65.2868
21.9752 64.2554
22.0206 60.0339
22.0661 56.4751
22.1115 55.9817
22.157 56.1813
22.2024 54.4893
22.248 51.3069
22.2933 49.0851
22.3389 47.9253
22.3843 47.7566
22.4299 47.5503
22.4753 47.7067
22.5208 47.5701
22.5662 47.4985
22.6118 47.5625
22.6572 47.7111
22.7028 48.3815
22.7483 48.9044
22.7939 50.0552
22.8393 51.2752
22.8849 53.5033
22.9303 55.8308
22.9759 57.7941
23.0214 57.6123
23.067 54.7425
23.1126 51.0915
23.1581 48.4604
23.2037 47.8714
23.2492 47.8186
23.2948 47.9284
23.3403 48.5422
23.3859 49.4257
23.4314 50.6359
23.477 52.1218
23.5225 54.8736
23.5682 57.2855
23.6137 58.6232
23.6593 56.5969
23.7048 52.0855
23.7505 48.4014
23.796 45.979
23.8417 45.3555
23.8872 44.7173
23.9329 44.3838
23.9784 44.0106
24.0241 43.8702
24.0697 43.6788
24.1154 43.2313
24.1609 43.019
24.2066 42.9361
24.2522 42.7254
24.2979 42.6128
24.3434 42.3978
24.3892 42.1639
24.4349 42.2282
24.4805 42.0739
24.5262 42.3244
24.5718 42.2467
24.6175 42.225
24.6631 42.0486
24.7089 41.7047
24.7545 41.4915
24.8002 41.4063
24.8458 41.4026
24.8916 41.2725
24.9372 41.3927
24.983 41.6275
25.0286 42.1219
25.0744 42.6309
25.12 43.4601
25.1658 43.9331
25.2114 44.3178
25.2572 44.5216
25.3029 44.4292
25.3487 44.8375
25.3943 44.3788
25.4402 43.3663
25.4858 42.1567
25.5316 41.0361
25.5773 40.1157
25.6231 40.0736
25.669 39.7396
25.7147 39.7434
25.7605 39.7137
25.8062 39.8256
25.8521 40.0426
25.8977 39.8905
25.9436 40.214
25.9893 40.2637
26.0352 40.797
26.0809 41.0449
26.1268 41.4269
26.1725 41.0652
26.2184 40.4155
26.2641 39.7051
26.31 39.4781
26.3557 39.551
26.4017 39.621
26.4474 39.7795
26.4933 40.1044
26.5391 40.6672
26.585 41.3528
26.6308 41.8805
26.6767 42.1619
26.7225 41.9801
26.7684 41.2488
26.8142 40.6197
26.8601 40.1267
26.9059 39.7249
26.9519 39.0877
26.9979 38.8353
27.0437 38.3058
27.0896 38.2013
27.1354 38.1399
27.1814 38.0705
27.2272 37.9784
27.2732 37.9933
27.3191 37.7693
27.3651 37.763
27.4109 37.7408
27.4569 37.9466
27.5027 38.0653
27.5488 38.1708
27.5946 38.026
27.6407 37.716
27.6865 37.6348
27.7326 37.3612
27.7784 37.3364
27.8245 37.207
27.8703 37.4906
27.9164 37.8611
27.9623 38.0511
28.0084 38.5347
28.0543 39.014
28.1003 38.8323
28.1462 38.7784
28.1923 38.4216
28.2384 37.7565
28.2843 37.4308
28.3304 36.8202
28.3764 36.3383
28.4225 36.0278
28.4684 35.7422
28.5145 35.4843
28.5605 35.2775
28.6066 35.1822
28.6526 35.0554
28.6987 35.1482
28.7447 34.959
28.7908 34.8286
28.8368 34.8807
28.8829 34.8827
28.9289 34.8394
28.9751 34.6605
29.0211 34.4587
29.0673 34.1989
29.1133 34.0123
29.1595 33.9889
29.2055 33.8393
29.2517 33.7235
29.2977 33.7054
29.3439 33.8105
29.3899 33.7671
29.4361 33.7484
29.4824 33.5387
29.5284 33.3598
29.5746 32.8531
29.6207 32.571
29.6669 32.5099
29.713 32.3988
29.7593 32.3068
29.8053 32.3401
29.8516 32.1615
29.8977 32.235
29.9439 32.1409
29.99 32.1151
30.0363 31.9415
30.0824 32.0364
30.1287 31.9772
30.1748 31.9828
30.2211 31.9982
30.2673 31.7138
30.3136 31.9127
30.3597 31.782
30.406 31.671
30.4522 31.6147
30.4985 31.5696
30.5447 31.7631
30.591 31.7705
30.6372 31.7382
30.6835 31.7784
30.7297 32.029
30.7761 31.8295
30.8224 31.7215
30.8686 31.6142
30.915 31.2679
30.9612 31.2401
31.0076 30.8751
31.0538 30.8632
31.1002 30.7556
31.1464 30.5973
31.1928 30.5667
31.2391 30.6386
31.2855 30.452
31.3317 30.33
31.3781 30.5743
31.4244 30.6197
31.4708 30.5513
31.5171 30.467
31.5636 30.4328
31.6098 30.256
31.6563 30.001
31.7026 29.8577
31.7491 29.7576
31.7953 29.8891
31.8418 29.8967
31.8881 29.8316
31.9346 29.748
31.9809 29.837
32.0275 29.6281
32.074 29.5715
32.1203 29.3162
32.1668 29.1795
32.2132 28.9496
32.2597 28.9144
32.306 28.7808
32.3526 28.6254
32.399 28.429
32.4455 28.3616
32.4919 28.3059
32.5385 28.2498
32.5848 28.0862
32.6314 28.0575
32.6778 28.0341
32.7244 27.8703
32.7708 27.7277
32.8174 27.8046
32.8638 27.6975
32.9104 27.6778
32.9569 27.7334
33.0035 27.5248
33.0499 27.4255
33.0966 27.3928
33.143 27.4443
33.1897 27.3963
33.2361 27.2775
33.2828 27.2887
33.3293 27.0819
33.3759 27.1376
33.4226 26.9704
33.4691 26.7894
33.5158 26.714
33.5623 26.6319
33.609 26.4009
33.6555 26.3047
33.7022 26.2131
33.7487 26.209
33.7954 26.1054
33.842 26.0601
33.8887 26.0546
33.9353 25.9295
33.982 25.7153
34.0286 25.6819
34.0753 25.6524
34.1219 25.4825
34.1687 25.4182
34.2152 25.4261
34.262 25.3148
34.3086 25.2402
34.3554 25.2128
34.402 25.0717
34.4488 24.9896
34.4954 24.9337
34.5422 24.8236
34.5889 24.6874
34.6357 24.6268
34.6825 24.5041
34.7292 24.478
34.776 24.3756
34.8227 24.3392
34.8695 24.3426
34.9162 24.1991
34.9631 24.1449
35.0098 24.1074
35.0566 24.0399
35.1033 23.9371
35.1502 23.9262
35.1969 23.8511
35.2438 23.8176
35.2906 23.7723
35.3375 23.6788
35.3842 23.6323
35.4311 23.7397
35.4779 23.6803
35.5248 23.6444
35.5716 23.5642
35.6185 23.5301
35.6653 23.3013
35.7123 23.3052
35.759 23.2167
35.806 23.004
35.8528 22.852
35.8998 22.8213
35.9468 22.821
35.9936 22.821
36.0406 22.7809
36.0874 22.7113
36.1345 22.5793
36.1813 22.5103
36.2283 22.4744
36.2752 22.3266
36.3222 22.4803
36.3691 22.3601
36.4161 22.2156
36.463 22.1689
36.5101 22.2411
36.557 22.0717
36.6041 21.9225
36.651 21.9034
36.6981 21.8293
36.745 21.8369
36.7921 21.7131
36.839 21.5657
36.8861 21.4434
36.9331 21.4885
36.9802 21.4642
37.0272 21.3478
37.0743 21.2304
37.1213 21.1923
37.1684 21.1533
37.2154 21.1568
37.2626 21.0128
37.3098 20.9114
37.3568 20.8684
37.404 20.7383
37.451 20.7008
37.4982 20.7298
37.5452 20.5879
37.5924 20.4978
37.6395 20.5328
37.6867 20.5327
37.7337 20.2865
37.781 20.2685
37.8281 20.2
37.8753 20.1105
37.9224 20.0485
37.9697 19.9543
38.0168 19.9822
38.064 19.9235
38.1111 19.8268
38.1584 19.7683
38.2056 19.6779
38.2529 19.6627
38.3 19.5196
38.3473 19.5849
38.3945 19.3907
38.4418 19.3644
38.489 19.3435
38.5363 19.2032
38.5837 19.1232
38.6309 19.232
38.6782 19.0865
38.7254 19.0266
38.7728 18.9929
38.82 18.8682
38.8674 18.8179
38.9146 18.8344
38.9621 18.6844
39.0093 18.6727
39.0567 18.6958
39.104 18.5251
39.1514 18.3741
39.1987 18.4682
39.2461 18.4198
39.2934 18.4138
39.3409 18.2141
39.3882 18.1834
39.4356 18.1522
39.483 18.0571
39.5304 17.9917
39.5778 18.0158
39.6253 17.8988
39.6726 17.876
39.7201 17.8556
39.7675 17.7461
39.815 17.7206
39.8624 17.622
39.9099 17.6549
39.9575 17.5546
40.0049 17.4843
40.0525 17.4376
40.0999 17.3852
40.1474 17.304
40.1949 17.2163
40.2425 17.2019
40.2899 17.1663
40.3375 17.1085
40.385 16.9896
40.4326 16.957
40.48 16.914
40.5277 16.8614
40.5752 16.84
40.6228 16.7764
40.6703 16.7274
40.718 16.6401
40.7655 16.6322
40.8132 16.5649
40.8607 16.5236
40.9084 16.4942
40.9559 16.3731
41.0036 16.3691
41.0512 16.2768
41.0989 16.2572
41.1465 16.152
41.1942 16.1928
41.242 16.0458
41.2896 16.0764
41.3373 15.958
41.3849 15.9538
41.4327 15.8412
41.4803 15.7987
41.5281 15.7234
41.5758 15.7539
41.6236 15.6319
41.6712 15.5982
41.7191 15.5476
41.7667 15.5107
41.8146 15.4289
41.8622 15.375
41.9101 15.3273
41.9578 15.2807
42.0057 15.2497
42.0534 15.1901
42.1013 15.1021
42.149 15.0301
42.1969 15.0365
42.2446 14.94
42.2925 14.9424
42.3403 14.7987
42.3882 14.8641
42.436 14.7534
42.4839 14.7404
42.5319 14.7079
42.5797 14.5413
42.6277 14.5709
42.6755 14.5378
42.7235 14.4345
42.7713 14.4507
42.8193 14.3365
42.8671 14.3301
42.9152 14.3052
42.963 14.2592
43.0111 14.1925
43.0589 14.125
43.107 14.0977
43.1549 14.0661
43.2029 14.0086
43.2508 13.9423
43.2989 13.9021
43.3468 13.8207
43.3949 13.8006
43.4429 13.7443
43.491 13.6192
43.5389 13.6501
43.5871 13.6189
43.635 13.5229
43.6832 13.5195
43.7312 13.456
43.7793 13.4277
43.8273 13.4103
43.8755 13.298
43.9237 13.3012
43.9717 13.2757
44.0199 13.1816
44.068 13.1736
44.1162 13.0811
44.1642 13.0684
44.2125 13.0492
44.2606 12.9832
44.3088 12.9039
44.3569 12.8287
44.4052 12.8502
44.4533 12.7764
44.5016 12.7272
44.5497 12.7004
44.598 12.6299
44.6461 12.6137
44.6945 12.5829
44.7426 12.5058
44.791 12.4294
44.8391 12.3962
44.8875 12.3728
44.9357 12.3778
44.984 12.3008
45.0322 12.2594
45.0806 12.2101
45.1288 12.1545
45.1773 12.1133
45.2257 12.0696
45.2739 12.0374
45.3224 12.0188
45.3706 11.9542
45.4191 11.9091
45.4673 11.926
45.5158 11.8619
45.5641 11.7552
45.6126 11.7831
45.6609 11.6761
45.7094 11.6484
45.7577 11.6152
45.8063 11.5293
45.8546 11.5277
45.9031 11.4972
45.9515 11.448
46.0001 11.439
46.0484 11.3718
46.097 11.3452
46.1454 11.3173
46.194 11.2912
46.2424 11.1921
46.291 11.2011
46.3395 11.0968
46.3881 11.0995
46.4365 11.0463
46.4852 11.0295
46.5337 10.963
46.5823 10.9275
46.631 10.8628
46.6795 10.8419
46.7282 10.8087
46.7767 10.8245
46.8254 10.716
46.8739 10.6565
46.9226 10.6557
46.9712 10.6077
47.0199 10.5983
47.0685 10.5307
47.1173 10.4771
47.1658 10.4654
47.2146 10.4261
47.2632 10.3537
47.312 10.3347
47.3606 10.2932
47.4095 10.2156
47.4581 10.2056
47.5069 10.1568
47.5556 10.1201
47.6044 10.0422
47.6531 10.0474
47.702 10.0057
47.7507 10.0567
47.7996 9.93714
47.8483 9.93591
47.8972 9.92847
47.9461 9.82664
47.9948 9.8478
48.0438 9.79294
48.0925 9.76964
48.1415 9.72321
48.1902 9.6876
48.2392 9.65567
48.288 9.62016
48.337 9.59505
48.3858 9.50037
48.4348 9.52054
48.4837 9.51152
48.5327 9.42498
48.5815 9.38481
48.6306 9.36893
48.6795 9.32929
48.7285 9.28792
48.7774 9.25236
48.8265 9.26322
48.8754 9.20941
48.9245 9.12608
48.9734 9.11268
49.0226 9.11215
49.0715 9.04809
49.1206 8.98488
49.1696 9.01299
49.2188 8.93863
49.2679 8.92002
49.3169 8.87559
49.3661 8.84472
49.4151 8.7753
49.4643 8.78159
49.5134 8.74211
49.5626 8.71634
49.6117 8.66414
49.6609 8.67192
49.71 8.59696
49.7592 8.59759
49.8083 8.51732
49.8576 8.53426
49.9067 8.49057
49.956 8.46998
50.0052 8.43771
50.0545 8.40742
50.1036 8.32965
50.153 8.32438
50.2022 8.28976
50.2515 8.26951
50.3007 8.24256
50.3501 8.16484
50.3993 8.15336
50.4487 8.13888
50.498 8.13086
50.5474 8.07957
50.5966 8.00374
50.6461 7.9944
50.6955 7.95162
50.7448 7.91762
50.7943 7.94109
50.8436 7.84688
50.8931 7.84071
50.9424 7.78794
50.9919 7.78737
51.0413 7.78253
51.0908 7.73655
51.1402 7.70886
51.1897 7.652
51.2391 7.65193
51.2887 7.63038
51.3381 7.60607
51.3877 7.57088
51.4371 7.52582
51.4867 7.48053
51.5362 7.46204
51.5858 7.40941
51.6353 7.38919
51.6849 7.33879
51.7344 7.35678
51.7841 7.30993
51.8336 7.23247
51.8833 7.21999
51.9328 7.19507
51.9826 7.16359
52.0323 7.1432
52.0818 7.14945
52.1316 7.08092
52.1812 7.09504
52.231 7.05867
52.2806 7.00399
52.3304 6.97216
52.38 6.93611
52.4298 6.93469
52.4794 6.90845
52.5293 6.86024
52.5789 6.8461
52.6288 6.83003
52.6785 6.72618
52.7284 6.7523
52.7781 6.7106
52.828 6.66506
52.8777 6.62174
52.9276 6.6282
52.9774 6.61156
53.0273 6.54867
53.0771 6.53815
53.1271 6.55032
53.1769 6.47563
53.2269 6.4934
53.2767 6.44712
53.3267 6.42818
53.3765 6.39886
53.4266 6.41217
53.4766 6.32564
53.5265 6.28337
53.5765 6.29757
53.6264 6.2653
53.6765 6.20542
53.7264 6.1997
53.7765 6.16318
53.8265 6.14798
53.8766 6.07213
53.9266 6.07704
53.9767 6.04875
54.0267 6.02734
54.0769 6.02981
54.1269 5.95897
54.1771 5.9046
54.2271 5.92089
54.2773 5.8679
54.3274 5.87594
54.3776 5.80987
54.4277 5.8354
54.478 5.75692
54.528 5.7208
54.5783 5.67181
54.6285 5.66582
54.6788 5.59743
54.7289 5.60576
54.7792 5.5357
54.8296 5.50437
54.8798 5.41429
54.9301 5.38858
54.9803 5.38997
55.0307 5.36437
55.0809 5.31886
55.1314 5.28961
55.1816 5.19921
55.232 5.13359
55.2823 5.16356
55.3328 5.13306
55.383 5.04556
55.4335 4.98414
55.4838 4.89941
55.5344 4.88226
55.5847 4.91365
55.6352 4.85099
55.6856 4.77017
55.7361 4.74304