File: XRD/Ni3Fe_FD0311.xy
TT I
1.27165 7.69519
1.31627 6.87609
1.36089 6.87657
1.40551 6.65509
1.45013 6.58365
1.49476 5.82398
1.53938 5.56371
1.584 5.72168
1.62863 5.29427
1.67325 5.31646
1.71787 5.63491
1.7625 5.07002
1.80712 5.14276
1.85174 4.77764
1.89636 5.02652
1.94099 4.47902
1.98562 4.5908
2.03025 4.51402
2.07487 4.9504
2.11949 5.23444
2.16411 4.85984
2.20874 19.1252
2.25338 32.2313
2.298 5.79536
2.34263 5.51728
2.38725 5.41089
2.43188 5.02521
2.4765 5.74805
2.52115 5.87495
2.56577 6.18018
2.6104 6.60715
2.65503 7.20376
2.69965 6.45685
2.7443 7.15992
2.78893 7.29099
2.83356 7.76026
2.87818 8.69472
2.92281 8.60267
2.96744 9.49213
3.01209 9.95135
3.05672 11.0341
3.10135 12.2861
3.14599 13.6174
3.19062 13.9611
3.23527 15.1478
3.2799 15.7201
3.32454 17.1651
3.36917 18.4115
3.4138 19.2911
3.45844 20.1131
3.50309 21.2851
3.54773 22.5053
3.59237 25.3259
3.637 131.86
3.68164 80.1896
3.7263 27.2082
3.77094 26.7648
3.81558 27.2763
3.86022 28.1218
3.90486 29.651
3.9495 30.6633
3.99416 31.8774
4.0388 32.922
4.08344 34.5699
4.12809 36.2139
4.17273 38.7369
4.21738 46.7889
4.26204 362.176
4.30669 322.225
4.35133 53.2473
4.39598 46.6519
4.44063 59.2444
4.4853 78.0034
4.52995 53.0393
4.5746 52.8401
4.61925 54.8331
4.6639 56.8979
4.70855 59.1452
4.75322 62.3728
4.79788 65.8645
4.84253 68.7902
4.88719 73.7776
4.93184 77.2096
4.97652 83.3121
5.02118 90.2556
5.06583 99.1982
5.11049 113.235
5.15515 218.914
5.19981 477.705
5.24449 2854.75
5.28916 11162.1
5.33382 4114.53
5.37848 247.474
5.42315 143.055
5.46783 121.476
5.5125 111.482
5.55716 106.077
5.60183 102.474
5.6465 100.658
5.69117 97.4321
5.73586 95.6319
5.78053 95.8216
5.8252 95.8199
5.86988 96.792
5.91455 99.1357
5.95924 110.22
6.00392 246.359
6.0486 995.655
6.09328 3650.29
6.13795 3866.06
6.18263 351.784
6.22733 105.091
6.27201 89.9498
6.3167 121.479
6.36138 89.1298
6.40606 72.1801
6.45075 70.2493
6.49545 67.6972
6.54014 66.3112
6.58483 65.3002
6.62952 65.4606
6.67421 111.408
6.71892 195.532
6.76361 76.4719
6.8083 61.2641
6.853 59.9806
6.89769 58.8001
6.94239 58.2871
6.98711 58.2253
7.03181 57.7436
7.07651 57.1346
7.12121 57.3068
7.16591 57.6788
7.21063 58.0725
7.25533 79.632
7.30004 253.784
7.34475 116.455
7.38945 59.6483
7.43416 56.9827
7.47889 56.0971
7.5236 56.8131
7.56831 57.4388
7.61303 59.9248
7.65774 60.6267
7.70247 58.2803
7.74719 58.0774
7.79191 58.4626
7.83663 58.7462
7.88135 59.5491
7.92607 60.5524
7.97081 61.8453
8.01553 62.6754
8.06026 64.0491
8.10498 65.9528
8.14971 79.6987
8.19446 78.1052
8.23919 71.8457
8.28392 74.1501
8.32865 76.0735
8.37339 80.7157
8.41812 89.4871
8.46288 132.29
8.50761 186.949
8.55235 412.397
8.59709 961.523
8.64183 2071.88
8.68658 1271.55
8.73134 217.736
8.77609 107.198
8.82083 97.2738
8.86558 93.0894
8.91033 93.839
8.9551 97.823
8.99985 88.4963
9.04461 85.9686
9.08936 85.0077
9.13412 83.8774
9.17888 84.153
9.22365 85.123
9.26841 84.3174
9.31318 84.7826
9.35794 84.8104
9.4027 85.4447
9.44749 85.9527
9.49226 87.0144
9.53703 87.7488
9.5818 90.1028
9.62657 96.2836
9.67134 105.999
9.71614 97.1655
9.76091 96.478
9.80569 99.2566
9.85047 103.237
9.89525 138.009
9.94005 157.174
9.98484 192.899
10.0296 361.781
10.0744 687.452
10.1192 1473.74
10.164 1830.76
10.2088 570.129
10.2536 148.833
10.2984 121.897
10.3432 125.815
10.388 110.192
10.4328 124.633
10.4776 167.034
10.5224 248.702
10.5672 449.417
10.612 549.421
10.6568 252.757
10.7017 105.102
10.7465 89.9872
10.7913 86.4281
10.8361 83.5216
10.8809 81.7658
10.9257 81.7835
10.9706 84.0836
11.0154 78.2649
11.0602 75.4999
11.105 74.2898
11.1499 81.5352
11.1947 94.0667
11.2395 80.4509
11.2844 74.3609
11.3292 70.0839
11.374 68.1987
11.4189 67.9099
11.4637 66.9761
11.5086 68.2402
11.5534 73.291
11.5983 69.1482
11.6431 65.7207
11.688 65.0177
11.7328 65.0723
11.7777 65.0831
11.8225 64.7108
11.8674 64.4506
11.9122 64.842
11.9571 65.0618
12.002 65.7761
12.0468 70.5763
12.0917 82.9775
12.1366 100.765
12.1814 136.068
12.2263 198.764
12.2712 190.11
12.3161 115.519
12.3609 77.359
12.4058 67.4087
12.4507 66.578
12.4956 66.4841
12.5405 66.7453
12.5853 68.055
12.6302 79.6161
12.6751 88.7583
12.72 74.387
12.7649 70.3706
12.8098 70.2337
12.8547 71.8586
12.8996 72.9255
12.9445 74.1645
12.9894 75.9701
13.0343 77.8722
13.0792 81.235
13.1242 91.5338
13.1691 119.035
13.214 150.178
13.2589 207.727
13.3038 323.325
13.3487 449.142
13.3937 321.864
13.4386 146.443
13.4835 112.538
13.5285 126.94
13.5734 152.693
13.6183 210.952
13.6633 315.41
13.7082 374.882
13.7531 230.352
13.7981 110.247
13.843 85.4752
13.888 82.4881
13.9329 79.6683
13.9779 78.2172
14.0228 76.3836
14.0678 75.1365
14.1127 75.1599
14.1577 75.523
14.2027 74.32
14.2476 72.5557
14.2926 73.0672
14.3376 75.2183
14.3825 73.2046
14.4275 71.2211
14.4725 70.8532
14.5175 71.0107
14.5624 71.1106
14.6074 74.4139
14.6524 75.2955
14.6974 72.824
14.7424 74.4256
14.7874 81.8136
14.8324 92.186
14.8774 107.515
14.9224 135.779
14.9674 186.328
15.0124 230.141
15.0574 174.052
15.1024 103.522
15.1474 76.0363
15.1924 73.3153
15.2374 74.9666
15.2824 74.1431
15.3274 71.0065
15.3725 69.1894
15.4175 68.6221
15.4625 68.404
15.5076 68.7459
15.5526 68.3749
15.5976 67.8968
15.6426 69.1395
15.6877 75.1116
15.7327 83.026
15.7778 93.8068
15.8228 114.458
15.8679 152.965
15.9129 197.026
15.958 181.116
16.003 114.304
16.0481 74.0813
16.0931 68.8167
16.1382 66.3413
16.1833 63.0844
16.2283 61.278
16.2734 60.2684
16.3185 61.3705
16.3636 62.9654
16.4086 60.8806
16.4537 58.5201
16.4988 57.5278
16.5439 57.399
16.589 57.1764
16.6341 56.8611
16.6792 56.3865
16.7243 56.7997
16.7694 57.1146
16.8145 56.8144
16.8596 57.4528
16.9047 59.7997
16.9498 60.0462
16.9949 58.0101
17.04 57.7164
17.0851 58.9706
17.1302 60.7873
17.1754 63.2912
17.2205 66.6187
17.2656 72.3737
17.3108 81.9893
17.3559 85.607
17.401 76.8914
17.4462 65.8109
17.4913 61.2384
17.5365 61.0704
17.5815 61.4011
17.6268 61.4538
17.6718 62.6954
17.7171 63.0185
17.7622 63.2456
17.8074 63.8413
17.8525 66.1977
17.8977 70.7353
17.9428 76.3461
17.9881 82.2124
18.0331 93.5853
18.0784 111.913
18.1237 138.752
18.1688 143.953
18.214 116.927
18.2591 90.4518
18.3044 88.2634
18.3495 96.63
18.3948 108.554
18.4399 105.905
18.4852 85.1359
18.5303 69.9478
18.5756 64.5419
18.6207 63.5579
18.666 62.6803
18.7112 61.9689
18.7565 61.2411
18.8016 60.5868
18.8469 60.0299
18.892 59.8535
18.9374 59.4319
18.9825 59.0005
19.0278 59.0244
19.073 59.1573
19.1183 59.5754
19.1635 60.7783
19.2088 61.645
19.254 62.9161
19.2993 65.716
19.3447 72.0847
19.3898 78.7738
19.4352 77.9427
19.4804 68.7731
19.5257 59.8932
19.5709 56.2709
19.6163 55.6038
19.6615 55.6195
19.7068 55.164
19.752 55.1316
19.7974 55.3717
19.8426 56.605
19.888 57.2304
19.9332 58.1184
19.9786 59.568
20.0238 61.8643
20.0692 66.8648
20.1144 71.6536
20.1598 72.1596
20.205 66.7535
20.2504 63.0544
20.2957 63.764
20.3411 66.9585
20.3863 67.9527
20.4318 62.5056
20.477 56.4536
20.5224 54.1439
20.5677 53.137
20.6131 52.1884
20.6586 51.4904
20.7038 51.4355
20.7493 50.9234
20.7945 50.6987
20.84 50.5078
20.8853 50.3406
20.9307 50.2159
20.976 50.5032
21.0215 50.295
21.0668 50.6712
21.1122 51.0168
21.1575 51.3618
21.203 52.1065
21.2483 52.8716
21.2938 53.5922
21.3391 52.2853
21.3846 50.9154
21.4299 50.1975
21.4754 49.9297
21.5207 50.1424
21.5662 50.2915
21.6116 50.8179
21.6571 51.6416
21.7024 52.6851
21.7479 53.735
21.7933 55.6204
21.8388 58.5995
21.8843 62.5591
21.9297 66.4736
21.9752 66.9036
22.0206 63.1051
22.0661 58.393
22.1115 57.3959
22.157 57.9624
22.2024 57.1022
22.248 54.2995
22.2933 51.9338
22.3389 51.0132
22.3843 50.8753
22.4299 50.8163
22.4753 50.6214
22.5208 50.3124
22.5662 50.0363
22.6118 50.2475
22.6572 50.4201
22.7028 50.9778
22.7483 51.3049
22.7939 51.6914
22.8393 52.8524
22.8849 54.3124
22.9303 56.2727
22.9759 59.061
23.0214 60.1405
23.067 58.0364
23.1126 53.7953
23.1581 51.4301
23.2037 50.7969
23.2492 50.732
23.2948 50.5149
23.3403 50.7735
23.3859 51.3142
23.4314 51.9658
23.477 53.0688
23.5225 54.8147
23.5682 57.4862
23.6137 59.6565
23.6593 59.006
23.7048 55.0069
23.7505 50.7984
23.796 48.5004
23.8417 47.6506
23.8872 47.2276
23.9329 46.6511
23.9784 46.4508
24.0241 46.2122
24.0697 46.0318
24.1154 45.721
24.1609 45.5301
24.2066 45.4726
24.2522 45.3763
24.2979 45.0274
24.3434 44.874
24.3892 44.716
24.4349 44.703
24.4805 44.2532
24.5262 44.5163
24.5718 44.4025
24.6175 44.4862
24.6631 44.262
24.7089 44.1033
24.7545 43.9317
24.8002 43.676
24.8458 43.5824
24.8916 43.5341
24.9372 43.7764
24.983 43.8781
25.0286 44.2292
25.0744 44.398
25.12 44.8495
25.1658 45.651
25.2114 45.9658
25.2572 45.9467
25.3029 46.021
25.3487 46.4
25.3943 46.397
25.4402 45.6423
25.4858 44.4239
25.5316 43.1944
25.5773 42.2793
25.6231 42.3153
25.669 41.9581
25.7147 41.9984
25.7605 41.9106
25.8062 41.957
25.8521 42.0934
25.8977 41.9903
25.9436 42.1339
25.9893 42.1441
26.0352 42.6088
26.0809 42.7677
26.1268 43.142
26.1725 43.0151
26.2184 42.3427
26.2641 41.8426
26.31 41.5069
26.3557 41.4867
26.4017 41.385
26.4474 41.7695
26.4933 41.906
26.5391 42.3158
26.585 42.7513
26.6308 43.1856
26.6767 43.4649
26.7225 43.657
26.7684 43.0381
26.8142 42.3055
26.8601 41.9815
26.9059 41.5261
26.9519 40.9537
26.9979 40.718
27.0437 40.3492
27.0896 40.1771
27.1354 40.1086
27.1814 39.9159
27.2272 39.7945
27.2732 39.7291
27.3191 39.5873
27.3651 39.7121
27.4109 39.7809
27.4569 39.789
27.5027 39.7444
27.5488 39.8622
27.5946 39.7156
27.6407 39.5218
27.6865 39.5034
27.7326 39.0315
27.7784 39.2373
27.8245 38.8882
27.8703 39.1187
27.9164 39.2838
27.9623 39.4567
28.0084 39.8822
28.0543 40.2043
28.1003 40.2429
28.1462 40.2028
28.1923 39.8961
28.2384 39.3101
28.2843 39.0256
28.3304 38.5363
28.3764 38.1057
28.4225 37.8597
28.4684 37.4748
28.5145 37.2402
28.5605 37.134
28.6066 36.988
28.6526 36.7653
28.6987 36.8079
28.7447 36.6787
28.7908 36.6117
28.8368 36.6156
28.8829 36.5216
28.9289 36.5531
28.9751 36.4268
29.0211 36.2069
29.0673 35.874
29.1133 35.735
29.1595 35.6312
29.2055 35.4669
29.2517 35.3665
29.2977 35.404
29.3439 35.3807
29.3899 35.2694
29.4361 35.3252
29.4824 35.2252
29.5284 35.0824
29.5746 34.5425
29.6207 34.3955
29.6669 34.1408
29.713 34.0292
29.7593 34.1085
29.8053 33.9757
29.8516 33.9266
29.8977 33.9235
29.9439 33.7126
29.99 33.6593
30.0363 33.5543
30.0824 33.5201
30.1287 33.3988
30.1748 33.5298
30.2211 33.4972
30.2673 33.3552
30.3136 33.4982
30.3597 33.404
30.406 33.3754
30.4522 33.1642
30.4985 33.0644
30.5447 33.1435
30.591 33.1622
30.6372 33.1741
30.6835 33.2259
30.7297 33.3201
30.7761 33.2879
30.8224 33.1617
30.8686 32.9714
30.915 32.739
30.9612 32.6127
31.0076 32.504
31.0538 32.195
31.1002 32.217
31.1464 32.0297
31.1928 31.9802
31.2391 32.0646
31.2855 31.9137
31.3317 31.7802
31.3781 31.8052
31.4244 31.9094
31.4708 31.9004
31.5171 31.7827
31.5636 31.8566
31.6098 31.6158
31.6563 31.4416
31.7026 31.3582
31.7491 31.0969
31.7953 31.1096
31.8418 31.2157
31.8881 31.1102
31.9346 31.1002
31.9809 31.0003
32.0275 30.9161
32.074 30.8985
32.1203 30.6483
32.1668 30.6024
32.2132 30.4539
32.2597 30.2403
32.306 30.1102
32.3526 29.9517
32.399 29.9404
32.4455 29.7759
32.4919 29.6533
32.5385 29.6068
32.5848 29.5037
32.6314 29.5092
32.6778 29.3957
32.7244 29.2661
32.7708 29.155
32.8174 29.1821
32.8638 28.9987
32.9104 29.008
32.9569 28.9928
33.0035 28.7928
33.0499 28.7835
33.0966 28.6879
33.143 28.6266
33.1897 28.646
33.2361 28.5617
33.2828 28.5542
33.3293 28.4168
33.3759 28.3075
33.4226 28.2486
33.4691 28.0441
33.5158 28.0285
33.5623 27.8138
33.609 27.6768
33.6555 27.5974
33.7022 27.5418
33.7487 27.4029
33.7954 27.445
33.842 27.2824
33.8887 27.2811
33.9353 27.2042
33.982 27.0923
34.0286 27.0273
34.0753 26.8903
34.1219 26.7705
34.1687 26.7735
34.2152 26.6345
34.262 26.5429
34.3086 26.4197
34.3554 26.4081
34.402 26.2771
34.4488 26.1674
34.4954 26.0979
34.5422 25.9877
34.5889 25.9894
34.6357 25.873
34.6825 25.7351
34.7292 25.6256
34.776 25.6747
34.8227 25.5405
34.8695 25.4488
34.9162 25.4612
34.9631 25.3461
35.0098 25.3519
35.0566 25.1436
35.1033 25.0773
35.1502 25.1084
35.1969 25.0234
35.2438 24.9985
35.2906 24.9597
35.3375 24.8397
35.3842 24.7312
35.4311 24.7598
35.4779 24.7791
35.5248 24.7196
35.5716 24.5177
35.6185 24.5486
35.6653 24.4414
35.7123 24.3829
35.759 24.2607
35.806 24.1217
35.8528 24.0722
35.8998 24.02
35.9468 23.9156
35.9936 23.8671
36.0406 23.8386
36.0874 23.7735
36.1345 23.6767
36.1813 23.7
36.2283 23.5438
36.2752 23.4763
36.3222 23.4155
36.3691 23.3032
36.4161 23.2576
36.463 23.2673
36.5101 23.1489
36.557 23.1065
36.6041 22.9158
36.651 22.902
36.6981 22.8695
36.745 22.8563
36.7921 22.6961
36.839 22.5794
36.8861 22.5857
36.9331 22.5002
36.9802 22.403
37.0272 22.32
37.0743 22.2031
37.1213 22.236
37.1684 22.1592
37.2154 22.0683
37.2626 22.0102
37.3098 21.9452
37.3568 21.8716
37.404 21.8559
37.451 21.7058
37.4982 21.6428
37.5452 21.5528
37.5924 21.5042
37.6395 21.552
37.6867 21.4784
37.7337 21.3622
37.781 21.2734
37.8281 21.2408
37.8753 21.0876
37.9224 21.07
37.9697 20.9313
38.0168 20.8915
38.064 20.8778
38.1111 20.7345
38.1584 20.7221
38.2056 20.6163
38.2529 20.5439
38.3 20.4717
38.3473 20.5208
38.3945 20.3853
38.4418 20.3768
38.489 20.2684
38.5363 20.1724
38.5837 20.1568
38.6309 20.0441
38.6782 20.0238
38.7254 19.9957
38.7728 19.847
38.82 19.8469
38.8674 19.7316
38.9146 19.6975
38.9621 19.6295
39.0093 19.5826
39.0567 19.5542
39.104 19.4454
39.1514 19.3109
39.1987 19.3459
39.2461 19.3039
39.2934 19.2188
39.3409 19.1658
39.3882 19.0547
39.4356 18.9226
39.483 18.9988
39.5304 18.8459
39.5778 18.8784
39.6253 18.7665
39.6726 18.7455
39.7201 18.7181
39.7675 18.5615
39.815 18.5689
39.8624 18.5278
39.9099 18.4348
39.9575 18.3573
40.0049 18.3205
40.0525 18.2093
40.0999 18.305
40.1474 18.1517
40.1949 18.0691
40.2425 18.047
40.2899 17.9384
40.3375 17.9377
40.385 17.8598
40.4326 17.8137
40.48 17.7547
40.5277 17.709
40.5752 17.6153
40.6228 17.5519
40.6703 17.5696
40.718 17.485
40.7655 17.4685
40.8132 17.3457
40.8607 17.2793
40.9084 17.2702
40.9559 17.1654
41.0036 17.1616
41.0512 17.0739
41.0989 16.995
41.1465 16.9259
41.1942 16.8877
41.242 16.796
41.2896 16.7656
41.3373 16.7491
41.3849 16.696
41.4327 16.6331
41.4803 16.5242
41.5281 16.5278
41.5758 16.4462
41.6236 16.3905
41.6712 16.3462
41.7191 16.2691
41.7667 16.1711
41.8146 16.2303
41.8622 16.1304
41.9101 16.062
41.9578 15.972
42.0057 15.9943
42.0534 15.9606
42.1013 15.9012
42.149 15.8084
42.1969 15.7407
42.2446 15.7192
42.2925 15.6886
42.3403 15.5975
42.3882 15.5231
42.436 15.5283
42.4839 15.4601
42.5319 15.494
42.5797 15.3859
42.6277 15.2965
42.6755 15.1994
42.7235 15.1514
42.7713 15.1335
42.8193 15.0352
42.8671 15.0243
42.9152 15.0176
42.963 14.9334
43.0111 14.8492
43.0589 14.8125
43.107 14.7927
43.1549 14.7415
43.2029 14.6672
43.2508 14.6696
43.2989 14.5692
43.3468 14.5511
43.3949 14.4985
43.4429 14.4456
43.491 14.3769
43.5389 14.3842
43.5871 14.2855
43.635 14.2137
43.6832 14.1553
43.7312 14.1231
43.7793 14.055
43.8273 14.0598
43.8755 13.9702
43.9237 13.9383
43.9717 13.9106
44.0199 13.8246
44.068 13.805
44.1162 13.7392
44.1642 13.7276
44.2125 13.6503
44.2606 13.5989
44.3088 13.542
44.3569 13.484
44.4052 13.4804
44.4533 13.4331
44.5016 13.3453
44.5497 13.3281
44.598 13.2822
44.6461 13.205
44.6945 13.1613
44.7426 13.145
44.791 13.0802
44.8391 13.0112
44.8875 13.0508
44.9357 12.9324
44.984 12.8869
45.0322 12.832
45.0806 12.7827
45.1288 12.7993
45.1773 12.7315
45.2257 12.6787
45.2739 12.5982
45.3224 12.5812
45.3706 12.5327
45.4191 12.4936
45.4673 12.4288
45.5158 12.3909
45.5641 12.3683
45.6126 12.3473
45.6609 12.2613
45.7094 12.2183
45.7577 12.173
45.8063 12.147
45.8546 12.0978
45.9031 12.0497
45.9515 12.0464
46.0001 11.9493
46.0484 11.9491
46.097 11.8638
46.1454 11.8692
46.194 11.8087
46.2424 11.7628
46.291 11.7255
46.3395 11.6989
46.3881 11.6347
46.4365 11.591
46.4852 11.5702
46.5337 11.5042
46.5823 11.5055
46.631 11.4028
46.6795 11.3849
46.7282 11.3722
46.7767 11.3047
46.8254 11.2465
46.8739 11.183
46.9226 11.2115
46.9712 11.1546
47.0199 11.1048
47.0685 11.0189
47.1173 11.0312
47.1658 10.9745
47.2146 10.9323
47.2632 10.8605
47.312 10.8855
47.3606 10.805
47.4095 10.7358
47.4581 10.7219
47.5069 10.6969
47.5556 10.6599
47.6044 10.5866
47.6531 10.5548
47.702 10.5114
47.7507 10.5168
47.7996 10.4656
47.8483 10.4288
47.8972 10.4155
47.9461 10.3221
47.9948 10.2509
48.0438 10.2572
48.0925 10.2531
48.1415 10.2087
48.1902 10.1714
48.2392 10.1686
48.288 10.0775
48.337 10.0909
48.3858 10.0334
48.4348 9.98597
48.4837 9.9922
48.5327 9.89549
48.5815 9.85657
48.6306 9.84926
48.6795 9.79594
48.7285 9.74256
48.7774 9.71162
48.8265 9.72763
48.8754 9.62636
48.9245 9.60581
48.9734 9.59019
49.0226 9.54856
49.0715 9.50665
49.1206 9.47324
49.1696 9.45622
49.2188 9.41575
49.2679 9.36996
49.3169 9.34683
49.3661 9.25501
49.4151 9.23433
49.4643 9.22903
49.5134 9.18263
49.5626 9.14797
49.6117 9.12263
49.6609 9.09658
49.71 9.03038
49.7592 9.02499
49.8083 8.98474
49.8576 8.98827
49.9067 8.91856
49.956 8.89346
50.0052 8.80492
50.0545 8.82381
50.1036 8.75394
50.153 8.74907
50.2022 8.69213
50.2515 8.71343
50.3007 8.59675
50.3501 8.60812
50.3993 8.61188
50.4487 8.54268
50.498 8.49071
50.5474 8.45042
50.5966 8.44196
50.6461 8.401
50.6955 8.37111
50.7448 8.35495
50.7943 8.32956
50.8436 8.28162
50.8931 8.21738
50.9424 8.20707
50.9919 8.17718
51.0413 8.13855
51.0908 8.11624
51.1402 8.0818
51.1897 8.06492
51.2391 8.0166
51.2887 7.97967
51.3381 7.95489
51.3877 7.93576
51.4371 7.90743
51.4867 7.82686
51.5362 7.87297
51.5858 7.78055
51.6353 7.73923
51.6849 7.70492
51.7344 7.68772
51.7841 7.69665
51.8336 7.64874
51.8833 7.60732
51.9328 7.57727
51.9826 7.46365
52.0323 7.4781
52.0818 7.47845
52.1316 7.44729
52.1812 7.42712
52.231 7.34822
52.2806 7.35324
52.3304 7.32354
52.38 7.29525
52.4298 7.22926
52.4794 7.22612
52.5293 7.22795
52.5789 7.15923
52.6288 7.13791
52.6785 7.08908
52.7284 7.06902
52.7781 7.07335
52.828 7.02633
52.8777 6.97744
52.9276 6.91821
52.9774 6.9239
53.0273 6.91492
53.0771 6.86544
53.1271 6.83849
53.1769 6.83226
53.2269 6.74695
53.2767 6.74739
53.3267 6.72843
53.3765 6.71128
53.4266 6.69886
53.4766 6.66048
53.5265 6.5613
53.5765 6.57732
53.6264 6.58548
53.6765 6.52298
53.7264 6.47795
53.7765 6.4742
53.8265 6.42792
53.8766 6.40395
53.9266 6.38278
53.9767 6.36456
54.0267 6.35661
54.0769 6.30749
54.1269 6.22465
54.1771 6.2296
54.2271 6.19338
54.2773 6.14346
54.3274 6.13421
54.3776 6.08253
54.4277 6.08163
54.478 6.00229
54.528 5.98708
54.5783 5.98734
54.6285 5.88315
54.6788 5.84856
54.7289 5.80699
54.7792 5.80439
54.8296 5.73302
54.8798 5.66737
54.9301 5.67711
54.9803 5.62401
55.0307 5.61026
55.0809 5.55112
55.1314 5.50647
55.1816 5.4858
55.232 5.46503
55.2823 5.43514
55.3328 5.35607
55.383 5.28451
55.4335 5.26644
55.4838 5.18534
55.5344 5.09169
55.5847 5.06888
55.6352 5.07897
55.6856 5.02327
55.7361 4.92603