File: XRD/Ni3Fe_FD0951.xy
TT I
1.27165 7.48231
1.31627 6.90427
1.36089 6.74961
1.40551 5.92164
1.45013 5.98222
1.49476 6.47653
1.53938 5.70124
1.584 5.41788
1.62863 5.17669
1.67325 5.62392
1.71787 4.85435
1.7625 4.63154
1.80712 4.76468
1.85174 4.5647
1.89636 4.44736
1.94099 5.31098
1.98562 5.18997
2.03025 4.64086
2.07487 5.20152
2.11949 4.56548
2.16411 4.74392
2.20874 10.3812
2.25338 14.622
2.298 5.56004
2.34263 4.89748
2.38725 5.67521
2.43188 6.53235
2.4765 7.21562
2.52115 7.10786
2.56577 8.16781
2.6104 8.6506
2.65503 7.9192
2.69965 8.55203
2.7443 8.42996
2.78893 8.25261
2.83356 9.07092
2.87818 8.6021
2.92281 9.06123
2.96744 9.75942
3.01209 9.89808
3.05672 11.4706
3.10135 12.2365
3.14599 13.2585
3.19062 14.4131
3.23527 15.3078
3.2799 15.2493
3.32454 16.9983
3.36917 17.5029
3.4138 18.8456
3.45844 19.2267
3.50309 20.6444
3.54773 21.5903
3.59237 23.085
3.637 59.6148
3.68164 42.4755
3.7263 25.8958
3.77094 25.7527
3.81558 26.2368
3.86022 27.1771
3.90486 28.5059
3.9495 29.2349
3.99416 30.4098
4.0388 32.0726
4.08344 32.7383
4.12809 34.3342
4.17273 36.1479
4.21738 40.6073
4.26204 152.387
4.30669 132.096
4.35133 46.0844
4.39598 43.9759
4.44063 49.6269
4.4853 56.0487
4.52995 54.0319
4.5746 54.9384
4.61925 52.9906
4.6639 55.2186
4.70855 57.5166
4.75322 60.9396
4.79788 66.0104
4.84253 67.064
4.88719 73.3828
4.93184 75.2735
4.97652 79.7865
5.02118 86.0292
5.06583 94.2286
5.11049 103.628
5.15515 153.982
5.19981 311.464
5.24449 2663.7
5.28916 13481.7
5.33382 2787.81
5.37848 185.52
5.42315 127.012
5.46783 115.428
5.5125 108.566
5.55716 100.579
5.60183 96.3256
5.6465 95.0545
5.69117 93.113
5.73586 91.1883
5.78053 94.3779
5.8252 94.349
5.86988 96.5981
5.91455 92.6656
5.95924 99.0974
6.00392 195.13
6.0486 880.739
6.09328 4505.53
6.13795 3070.89
6.18263 211.212
6.22733 88.7516
6.27201 79.4857
6.3167 87.4615
6.36138 75.4548
6.40606 68.631
6.45075 68.156
6.49545 64.4165
6.54014 62.671
6.58483 62.1081
6.62952 62.3215
6.67421 78.7126
6.71892 101.849
6.76361 62.7951
6.8083 58.3955
6.853 58.3519
6.89769 56.1032
6.94239 55.6485
6.98711 54.7214
7.03181 55.1277
7.07651 54.569
7.12121 54.9209
7.16591 56.0364
7.21063 54.9368
7.25533 63.3122
7.30004 120.008
7.34475 73.1066
7.38945 54.9512
7.43416 53.161
7.47889 53.2741
7.5236 53.7795
7.56831 54.5242
7.61303 55.4773
7.65774 55.852
7.70247 55.7807
7.74719 55.6775
7.79191 55.8448
7.83663 56.0591
7.88135 56.7955
7.92607 57.6544
7.97081 59.3288
8.01553 59.867
8.06026 61.403
8.10498 63.3346
8.14971 70.3282
8.19446 69.884
8.23919 68.4658
8.28392 70.8443
8.32865 72.9753
8.37339 77.2277
8.41812 83.0226
8.46288 101.02
8.50761 153.027
8.55235 358.171
8.59709 1173.33
8.64183 2188.39
8.68658 915.164
8.73134 155.34
8.77609 96.6747
8.82083 90.9977
8.86558 90.4724
8.91033 90.246
8.9551 89.0201
8.99985 84.2373
9.04461 82.8047
9.08936 82.4371
9.13412 81.533
9.17888 80.8845
9.22365 81.376
9.26841 81.0788
9.31318 82.8217
9.35794 84.2589
9.4027 83.7407
9.44749 83.9318
9.49226 83.512
9.53703 84.359
9.5818 87.3378
9.62657 92.2195
9.67134 94.9118
9.71614 91.5695
9.76091 93.2684
9.80569 97.069
9.85047 99.1933
9.89525 113.563
9.94005 122.528
9.98484 168.725
10.0296 323.162
10.0744 810.518
10.1192 1765.4
10.164 1513.83
10.2088 368.706
10.2536 122.251
10.2984 108.608
10.3432 107.971
10.388 101.802
10.4328 114.769
10.4776 155.062
10.5224 285.084
10.5672 530.793
10.612 487.441
10.6568 186.282
10.7017 93.4871
10.7465 84.9156
10.7913 81.7988
10.8361 79.8628
10.8809 77.507
10.9257 77.2329
10.9706 77.0397
11.0154 74.0233
11.0602 72.0958
11.105 70.4414
11.1499 72.283
11.1947 75.4602
11.2395 70.2115
11.2844 67.8535
11.3292 66.1275
11.374 64.8587
11.4189 64.8746
11.4637 63.7265
11.5086 63.6274
11.5534 65.1162
11.5983 63.4753
11.6431 62.6429
11.688 61.7212
11.7328 62.0026
11.7777 61.7252
11.8225 61.5637
11.8674 61.5779
11.9122 61.7907
11.9571 61.9247
12.002 62.5806
12.0468 66.3719
12.0917 76.6065
12.1366 101.866
12.1814 157.131
12.2263 203.751
12.2712 157.128
12.3161 91.4641
12.3609 67.201
12.4058 63.192
12.4507 63.3311
12.4956 63.7256
12.5405 63.5779
12.5853 64.1462
12.6302 68.4795
12.6751 71.6996
12.72 67.6238
12.7649 66.913
12.8098 67.0482
12.8547 68.5209
12.8996 70.025
12.9445 71.8217
12.9894 73.1649
13.0343 74.7372
13.0792 77.7343
13.1242 87.055
13.1691 107.7
13.214 144.437
13.2589 242.69
13.3038 383.195
13.3487 419.153
13.3937 244.709
13.4386 119.286
13.4835 102.487
13.5285 116.194
13.5734 155.813
13.6183 256.197
13.6633 361.731
13.7082 324.066
13.7531 178.301
13.7981 95.1263
13.843 80.2508
13.888 78.2117
13.9329 75.9694
13.9779 74.6492
14.0228 73.2908
14.0678 71.7563
14.1127 70.9889
14.1577 71.0741
14.2027 70.0151
14.2476 69.3911
14.2926 69.053
14.3376 69.4951
14.3825 68.7437
14.4275 67.805
14.4725 67.691
14.5175 67.7974
14.5624 67.7025
14.6074 69.0562
14.6524 69.4115
14.6974 69.162
14.7424 70.9694
14.7874 77.0753
14.8324 86.5905
14.8774 109.594
14.9224 157.576
14.9674 212.621
15.0124 214.745
15.0574 143.532
15.1024 87.5289
15.1474 71.0908
15.1924 69.1709
15.2374 68.8579
15.2824 68.051
15.3274 66.4903
15.3725 65.6971
15.4175 65.2652
15.4625 64.9748
15.5076 64.8637
15.5526 64.8984
15.5976 64.7327
15.6426 65.8541
15.6877 70.5904
15.7327 77.9052
15.7778 93.7241
15.8228 128.299
15.8679 174.923
15.9129 193.032
15.958 149.135
16.003 92.8495
16.0481 66.1318
16.0931 62.5922
16.1382 60.3475
16.1833 59.2833
16.2283 57.9731
16.2734 57.1641
16.3185 57.2048
16.3636 57.3312
16.4086 56.1337
16.4537 55.1272
16.4988 54.4478
16.5439 54.4592
16.589 54.2117
16.6341 53.9354
16.6792 53.6797
16.7243 53.8485
16.7694 53.8913
16.8145 53.7547
16.8596 54.0345
16.9047 55.004
16.9498 55.0599
16.9949 54.4125
17.04 54.9049
17.0851 56.0835
17.1302 57.4294
17.1754 60.4903
17.2205 66.0418
17.2656 74.7404
17.3108 82.6594
17.3559 79.8355
17.401 68.97
17.4462 60.973
17.4913 58.4798
17.5365 58.1501
17.5815 58.299
17.6268 58.5935
17.6718 59.2692
17.7171 59.7449
17.7622 60.2353
17.8074 60.9369
17.8525 63.2832
17.8977 66.7849
17.9428 72.1108
17.9881 81.5307
18.0331 100.209
18.0784 123.364
18.1237 136.672
18.1688 125.538
18.214 100.212
18.2591 85.0365
18.3044 90.6318
18.3495 100.255
18.3948 103.844
18.4399 92.642
18.4852 74.9687
18.5303 64.5745
18.5756 61.0531
18.6207 60.1304
18.666 59.1868
18.7112 58.6799
18.7565 57.693
18.8016 57.6693
18.8469 57.2523
18.892 56.7099
18.9374 56.4072
18.9825 56.0846
19.0278 55.7437
19.073 55.836
19.1183 56.2694
19.1635 56.8828
19.2088 58.3623
19.254 61.1178
19.2993 66.0887
19.3447 71.4492
19.3898 73.895
19.4352 69.7264
19.4804 61.3449
19.5257 55.325
19.5709 53.2294
19.6163 53.1264
19.6615 53.0334
19.7068 52.4434
19.752 52.4634
19.7974 52.6756
19.8426 53.47
19.888 54.0759
19.9332 55.276
19.9786 57.9681
20.0238 62.1826
20.0692 66.9569
20.1144 68.947
20.1598 66.6868
20.205 62.4674
20.2504 61.5253
20.2957 63.8519
20.3411 64.5867
20.3863 62.5605
20.4318 56.8282
20.477 52.5669
20.5224 50.5505
20.5677 50.0572
20.6131 49.5122
20.6586 48.9587
20.7038 48.7036
20.7493 48.3322
20.7945 48.2749
20.84 47.9456
20.8853 47.9401
20.9307 47.6106
20.976 47.9735
21.0215 47.8747
21.0668 48.2388
21.1122 48.4502
21.1575 49.4344
21.203 50.1501
21.2483 50.6111
21.2938 50.6247
21.3391 49.1491
21.3846 48.2762
21.4299 47.6432
21.4754 47.6337
21.5207 47.7194
21.5662 48.0417
21.6116 48.3506
21.6571 49.0134
21.7024 49.8853
21.7479 51.7226
21.7933 54.7299
21.8388 58.5539
21.8843 62.2342
21.9297 63.5859
21.9752 61.6001
22.0206 58.193
22.0661 55.6422
22.1115 55.228
22.157 54.7505
22.2024 53.0863
22.248 50.4351
22.2933 48.9705
22.3389 48.1311
22.3843 48.1734
22.4299 47.9761
22.4753 47.8314
22.5208 47.7275
22.5662 47.7169
22.6118 47.7771
22.6572 47.807
22.7028 48.3868
22.7483 48.8486
22.7939 49.4826
22.8393 51.2445
22.8849 53.47
22.9303 55.597
22.9759 56.7838
23.0214 55.9398
23.067 53.0873
23.1126 50.2332
23.1581 48.356
23.2037 47.8868
23.2492 47.8401
23.2948 48.0569
23.3403 48.0407
23.3859 48.8671
23.4314 49.9697
23.477 51.9703
23.5225 54.5335
23.5682 56.342
23.6137 56.9275
23.6593 54.4553
23.7048 50.4909
23.7505 47.2477
23.796 45.8485
23.8417 45.2936
23.8872 44.7702
23.9329 44.5204
23.9784 44.0173
24.0241 43.8932
24.0697 43.6621
24.1154 43.4324
24.1609 43.2735
24.2066 43.0016
24.2522 43.0881
24.2979 42.6673
24.3434 42.5189
24.3892 42.3011
24.4349 42.2906
24.4805 42.2886
24.5262 42.4687
24.5718 42.3195
24.6175 42.1066
24.6631 42.0376
24.7089 41.8387
24.7545 41.5719
24.8002 41.5304
24.8458 41.3935
24.8916 41.3677
24.9372 41.5315
24.983 41.8258
25.0286 42.0643
25.0744 42.6958
25.12 43.1495
25.1658 43.6799
25.2114 43.9564
25.2572 44.1357
25.3029 44.2017
25.3487 44.2507
25.3943 43.8026
25.4402 42.6425
25.4858 41.6735
25.5316 40.6425
25.5773 40.3016
25.6231 40.3189
25.669 39.8632
25.7147 40.0307
25.7605 39.7787
25.8062 39.7723
25.8521 39.8105
25.8977 39.9613
25.9436 40.226
25.9893 40.3705
26.0352 40.8637
26.0809 40.9161
26.1268 41.0513
26.1725 40.6484
26.2184 40.108
26.2641 39.4899
26.31 39.4578
26.3557 39.531
26.4017 39.4752
26.4474 39.9535
26.4933 40.1225
26.5391 40.6632
26.585 41.0525
26.6308 41.5123
26.6767 41.4561
26.7225 41.2797
26.7684 40.7585
26.8142 40.1122
26.8601 39.8156
26.9059 39.3093
26.9519 38.8745
26.9979 38.6108
27.0437 38.2474
27.0896 38.0149
27.1354 38.0438
27.1814 37.9286
27.2272 37.9643
27.2732 37.9276
27.3191 37.7057
27.3651 37.9505
27.4109 37.8711
27.4569 38.0742
27.5027 37.937
27.5488 37.8379
27.5946 37.7396
27.6407 37.5781
27.6865 37.4052
27.7326 37.2622
27.7784 37.2035
27.8245 37.1952
27.8703 37.4286
27.9164 37.6466
27.9623 37.8344
28.0084 38.1795
28.0543 38.4858
28.1003 38.3726
28.1462 38.3101
28.1923 37.8148
28.2384 37.3242
28.2843 37.0479
28.3304 36.5222
28.3764 36.1381
28.4225 35.8159
28.4684 35.6269
28.5145 35.3762
28.5605 35.311
28.6066 35.0704
28.6526 35.1416
28.6987 35.0616
28.7447 34.8241
28.7908 34.8732
28.8368 34.9487
28.8829 34.9495
28.9289 34.8521
28.9751 34.4767
29.0211 34.2793
29.0673 34.0727
29.1133 33.9622
29.1595 33.838
29.2055 33.6649
29.2517 33.6434
29.2977 33.7774
29.3439 33.6719
29.3899 33.7419
29.4361 33.5686
29.4824 33.3732
29.5284 33.1372
29.5746 32.8958
29.6207 32.5344
29.6669 32.6028
29.713 32.4677
29.7593 32.3841
29.8053 32.341
29.8516 32.2358
29.8977 32.2639
29.9439 32.0689
29.99 32.0184
30.0363 31.9837
30.0824 32.1099
30.1287 31.8824
30.1748 31.9122
30.2211 31.905
30.2673 31.6967
30.3136 31.855
30.3597 31.8074
30.406 31.6852
30.4522 31.5479
30.4985 31.5903
30.5447 31.6099
30.591 31.6964
30.6372 31.7448
30.6835 31.6451
30.7297 31.6303
30.7761 31.6423
30.8224 31.4986
30.8686 31.3881
30.915 31.0941
30.9612 31.0064
31.0076 30.8209
31.0538 30.6671
31.1002 30.5744
31.1464 30.4371
31.1928 30.4806
31.2391 30.4975
31.2855 30.3744
31.3317 30.37
31.3781 30.3375
31.4244 30.4137
31.4708 30.3564
31.5171 30.3096
31.5636 30.2764
31.6098 30.0432
31.6563 29.8059
31.7026 29.7414
31.7491 29.738
31.7953 29.6465
31.8418 29.6976
31.8881 29.5695
31.9346 29.6676
31.9809 29.5146
32.0275 29.3742
32.074 29.4011
32.1203 29.1873
32.1668 28.9784
32.2132 28.8437
32.2597 28.7038
32.306 28.5939
32.3526 28.4146
32.399 28.52
32.4455 28.2928
32.4919 28.2584
32.5385 28.1872
32.5848 28.0599
32.6314 28.1499
32.6778 28.0703
32.7244 27.8545
32.7708 27.7192
32.8174 27.7594
32.8638 27.6743
32.9104 27.6119
32.9569 27.5833
33.0035 27.4807
33.0499 27.3823
33.0966 27.4138
33.143 27.365
33.1897 27.3138
33.2361 27.1753
33.2828 27.2092
33.3293 26.9513
33.3759 27.0121
33.4226 26.8294
33.4691 26.6816
33.5158 26.6434
33.5623 26.4781
33.609 26.224
33.6555 26.173
33.7022 26.1177
33.7487 26.0812
33.7954 26.0754
33.842 25.9486
33.8887 25.8547
33.9353 25.7802
33.982 25.7128
34.0286 25.6823
34.0753 25.6301
34.1219 25.4845
34.1687 25.412
34.2152 25.391
34.262 25.2574
34.3086 25.2276
34.3554 25.0994
34.402 25.0283
34.4488 24.9314
34.4954 24.8769
34.5422 24.7168
34.5889 24.6935
34.6357 24.5669
34.6825 24.5425
34.7292 24.5084
34.776 24.3959
34.8227 24.2877
34.8695 24.2868
34.9162 24.1327
34.9631 24.1061
35.0098 24.0841
35.0566 23.9447
35.1033 23.9233
35.1502 23.9111
35.1969 23.8142
35.2438 23.7835
35.2906 23.6943
35.3375 23.7698
35.3842 23.6319
35.4311 23.623
35.4779 23.5642
35.5248 23.5178
35.5716 23.4578
35.6185 23.2805
35.6653 23.2191
35.7123 23.1256
35.759 23.0797
35.806 22.9177
35.8528 22.9018
35.8998 22.8299
35.9468 22.7368
35.9936 22.7464
36.0406 22.6786
36.0874 22.5925
36.1345 22.5649
36.1813 22.4058
36.2283 22.3991
36.2752 22.2719
36.3222 22.3349
36.3691 22.2534
36.4161 22.0625
36.463 22.0286
36.5101 22.0389
36.557 21.9904
36.6041 21.8423
36.651 21.845
36.6981 21.7438
36.745 21.7193
36.7921 21.5396
36.839 21.4889
36.8861 21.5019
36.9331 21.4298
36.9802 21.3705
37.0272 21.2424
37.0743 21.2051
37.1213 21.0889
37.1684 21.0716
37.2154 20.966
37.2626 20.8829
37.3098 20.8581
37.3568 20.7723
37.404 20.8
37.451 20.6197
37.4982 20.6396
37.5452 20.4811
37.5924 20.4165
37.6395 20.5232
37.6867 20.3234
37.7337 20.3247
37.781 20.1576
37.8281 20.151
37.8753 20.0733
37.9224 20.0331
37.9697 19.9903
38.0168 19.9163
38.064 19.856
38.1111 19.7605
38.1584 19.6542
38.2056 19.649
38.2529 19.581
38.3 19.4867
38.3473 19.4943
38.3945 19.4032
38.4418 19.3387
38.489 19.299
38.5363 19.1854
38.5837 19.1224
38.6309 19.0757
38.6782 19.0635
38.7254 18.9021
38.7728 18.9075
38.82 18.8218
38.8674 18.7896
38.9146 18.724
38.9621 18.66
39.0093 18.6395
39.0567 18.5605
39.104 18.4762
39.1514 18.4106
39.1987 18.4416
39.2461 18.3617
39.2934 18.3082
39.3409 18.1743
39.3882 18.1618
39.4356 18.0591
39.483 18.0229
39.5304 17.9653
39.5778 17.9321
39.6253 17.8249
39.6726 17.7963
39.7201 17.7849
39.7675 17.6031
39.815 17.6531
39.8624 17.5819
39.9099 17.5478
39.9575 17.4684
40.0049 17.4203
40.0525 17.333
40.0999 17.3329
40.1474 17.2775
40.1949 17.1516
40.2425 17.1258
40.2899 17.1504
40.3375 17.0408
40.385 17.0086
40.4326 16.9022
40.48 16.7758
40.5277 16.8562
40.5752 16.7469
40.6228 16.6756
40.6703 16.6433
40.718 16.5831
40.7655 16.5927
40.8132 16.4883
40.8607 16.5256
40.9084 16.44
40.9559 16.3792
41.0036 16.322
41.0512 16.3103
41.0989 16.1689
41.1465 16.0923
41.1942 16.0836
41.242 16.0061
41.2896 15.9405
41.3373 15.9081
41.3849 15.9031
41.4327 15.7556
41.4803 15.7123
41.5281 15.715
41.5758 15.6426
41.6236 15.5582
41.6712 15.5399
41.7191 15.4751
41.7667 15.3756
41.8146 15.4322
41.8622 15.3545
41.9101 15.2918
41.9578 15.1823
42.0057 15.172
42.0534 15.1542
42.1013 15.0529
42.149 15.0302
42.1969 14.9298
42.2446 14.9383
42.2925 14.9234
42.3403 14.8765
42.3882 14.8068
42.436 14.7317
42.4839 14.6821
42.5319 14.7161
42.5797 14.5731
42.6277 14.5397
42.6755 14.4947
42.7235 14.4158
42.7713 14.4372
42.8193 14.3849
42.8671 14.2268
42.9152 14.2304
42.963 14.199
43.0111 14.1444
43.0589 14.1005
43.107 14.033
43.1549 14.0132
43.2029 13.9291
43.2508 13.9001
43.2989 13.8684
43.3468 13.8092
43.3949 13.7851
43.4429 13.716
43.491 13.704
43.5389 13.5956
43.5871 13.57
43.635 13.513
43.6832 13.5005
43.7312 13.4266
43.7793 13.4159
43.8273 13.3562
43.8755 13.2957
43.9237 13.2929
43.9717 13.1642
44.0199 13.1492
44.068 13.1201
44.1162 13.0809
44.1642 13.0457
44.2125 12.9765
44.2606 12.9426
44.3088 12.8687
44.3569 12.8342
44.4052 12.8014
44.4533 12.7473
44.5016 12.6904
44.5497 12.6649
44.598 12.6387
44.6461 12.5602
44.6945 12.5264
44.7426 12.4843
44.791 12.4335
44.8391 12.4265
44.8875 12.3248
44.9357 12.3206
44.984 12.2477
45.0322 12.172
45.0806 12.1605
45.1288 12.1361
45.1773 12.116
45.2257 12.0772
45.2739 11.9822
45.3224 11.9493
45.3706 11.8887
45.4191 11.8808
45.4673 11.8228
45.5158 11.8119
45.5641 11.714
45.6126 11.7512
45.6609 11.6783
45.7094 11.6456
45.7577 11.6147
45.8063 11.542
45.8546 11.5127
45.9031 11.4186
45.9515 11.4242
46.0001 11.4136
46.0484 11.3327
46.097 11.3082
46.1454 11.3363
46.194 11.2147
46.2424 11.2061
46.291 11.1387
46.3395 11.1098
46.3881 11.0317
46.4365 11.0552
46.4852 11.0265
46.5337 10.9607
46.5823 10.946
46.631 10.8286
46.6795 10.8387
46.7282 10.8195
46.7767 10.7486
46.8254 10.6968
46.8739 10.6712
46.9226 10.6166
46.9712 10.569
47.0199 10.5469
47.0685 10.499
47.1173 10.4613
47.1658 10.4273
47.2146 10.4261
47.2632 10.299
47.312 10.2923
47.3606 10.2233
47.4095 10.2112
47.4581 10.1935
47.5069 10.1645
47.5556 10.1125
47.6044 10.059
47.6531 10.023
47.702 9.98868
47.7507 9.97546
47.7996 9.90422
47.8483 9.91332
47.8972 9.86055
47.9461 9.81722
47.9948 9.7826
48.0438 9.75093
48.0925 9.76955
48.1415 9.68855
48.1902 9.64305
48.2392 9.65202
48.288 9.6168
48.337 9.55976
48.3858 9.47813
48.4348 9.45755
48.4837 9.49168
48.5327 9.42255
48.5815 9.36311
48.6306 9.33705
48.6795 9.32012
48.7285 9.28484
48.7774 9.24557
48.8265 9.21786
48.8754 9.16697
48.9245 9.15737
48.9734 9.08591
49.0226 9.10451
49.0715 9.05108
49.1206 9.03366
49.1696 8.97855
49.2188 8.9471
49.2679 8.87713
49.3169 8.88937
49.3661 8.81408
49.4151 8.80292
49.4643 8.77218
49.5134 8.7482
49.5626 8.68041
49.6117 8.67632
49.6609 8.63247
49.71 8.59251
49.7592 8.55383
49.8083 8.50953
49.8576 8.47478
49.9067 8.47031
49.956 8.46273
50.0052 8.43127
50.0545 8.36354
50.1036 8.30736
50.153 8.28579
50.2022 8.31095
50.2515 8.24453
50.3007 8.23522
50.3501 8.18767
50.3993 8.13574
50.4487 8.12008
50.498 8.07426
50.5474 8.06066
50.5966 8.01739
50.6461 7.98548
50.6955 7.9373
50.7448 7.92047
50.7943 7.89809
50.8436 7.88746
50.8931 7.84571
50.9424 7.77424
50.9919 7.78147
51.0413 7.77382
51.0908 7.68275
51.1402 7.68302
51.1897 7.64797
51.2391 7.62813
51.2887 7.55294
51.3381 7.55329
51.3877 7.54505
51.4371 7.45428
51.4867 7.47683
51.5362 7.4056
51.5858 7.41905
51.6353 7.37901
51.6849 7.29489
51.7344 7.33677
51.7841 7.33292
51.8336 7.24541
51.8833 7.22931
51.9328 7.1902
51.9826 7.1396
52.0323 7.12906
52.0818 7.05715
52.1316 7.08871
52.1812 7.07912
52.231 6.96127
52.2806 6.99294
52.3304 6.93982
52.38 6.88739
52.4298 6.94489
52.4794 6.86562
52.5293 6.82301
52.5789 6.84191
52.6288 6.77594
52.6785 6.76136
52.7284 6.74229
52.7781 6.66948
52.828 6.67435
52.8777 6.61975
52.9276 6.60948
52.9774 6.60237
53.0273 6.57122
53.0771 6.54861
53.1271 6.54101
53.1769 6.49146
53.2269 6.47715
53.2767 6.3985
53.3267 6.37493
53.3765 6.40368
53.4266 6.34684
53.4766 6.32101
53.5265 6.27675
53.5765 6.23223
53.6264 6.27926
53.6765 6.19589
53.7264 6.20439
53.7765 6.16237
53.8265 6.10928
53.8766 6.07223
53.9266 6.07597
53.9767 6.0208
54.0267 6.01095
54.0769 5.9361
54.1269 5.9801
54.1771 5.93149
54.2271 5.93215
54.2773 5.85793
54.3274 5.83143
54.3776 5.79687
54.4277 5.73599
54.478 5.76057
54.528 5.72607
54.5783 5.73829
54.6285 5.62484
54.6788 5.58137
54.7289 5.57941
54.7792 5.54442
54.8296 5.50153
54.8798 5.4227
54.9301 5.35642
54.9803 5.36557
55.0307 5.41339
55.0809 5.24894
55.1314 5.2827
55.1816 5.23067
55.232 5.19084
55.2823 5.16069
55.3328 5.05076
55.383 5.06488
55.4335 5.00604
55.4838 4.92005
55.5344 4.88483
55.5847 4.84608
55.6352 4.82683
55.6856 4.77313
55.7361 4.77983