File: XRD/Ni3Fe_FD0649.xy
TT I
1.27165 7.38139
1.31627 6.88452
1.36089 7.17432
1.40551 6.55394
1.45013 6.62064
1.49476 6.01131
1.53938 5.85723
1.584 5.40555
1.62863 5.47005
1.67325 5.21568
1.71787 5.27513
1.7625 4.84284
1.80712 4.80432
1.85174 5.25583
1.89636 4.91307
1.94099 5.07973
1.98562 4.98529
2.03025 4.32275
2.07487 4.57444
2.11949 5.26467
2.16411 4.87269
2.20874 16.8038
2.25338 28.9256
2.298 6.06465
2.34263 5.52092
2.38725 6.1015
2.43188 6.81696
2.4765 6.40241
2.52115 7.6668
2.56577 7.57761
2.6104 8.18001
2.65503 7.69717
2.69965 8.19508
2.7443 7.85954
2.78893 8.28281
2.83356 8.3729
2.87818 8.70529
2.92281 8.76624
2.96744 9.37311
3.01209 10.2706
3.05672 10.9023
3.10135 12.7118
3.14599 13.3316
3.19062 13.8138
3.23527 15.3822
3.2799 16.2766
3.32454 17.2103
3.36917 17.6857
3.4138 19.1781
3.45844 19.6292
3.50309 21.2091
3.54773 22.3704
3.59237 24.6486
3.637 114.576
3.68164 71.8644
3.7263 27.0867
3.77094 26.2806
3.81558 27.4534
3.86022 27.6808
3.90486 29.0955
3.9495 29.9224
3.99416 31.2041
4.0388 32.6188
4.08344 33.8055
4.12809 35.236
4.17273 37.1322
4.21738 44.63
4.26204 314.344
4.30669 282.208
4.35133 51.2915
4.39598 45.3933
4.44063 56.7849
4.4853 72.395
4.52995 50.895
4.5746 51.0872
4.61925 53.3433
4.6639 55.5965
4.70855 57.986
4.75322 60.6272
4.79788 63.083
4.84253 66.7433
4.88719 70.8341
4.93184 75.0848
4.97652 80.1824
5.02118 85.9147
5.06583 93.3495
5.11049 104.649
5.15515 186.131
5.19981 328.031
5.24449 2596.33
5.28916 12603.0
5.33382 3204.28
5.37848 197.61
5.42315 130.695
5.46783 113.521
5.5125 105.82
5.55716 102.137
5.60183 98.4986
5.6465 96.6344
5.69117 93.8344
5.73586 92.0235
5.78053 90.9475
5.8252 90.5182
5.86988 90.9773
5.91455 92.9989
5.95924 100.084
6.00392 186.775
6.0486 890.865
6.09328 4334.81
6.13795 3529.94
6.18263 266.096
6.22733 95.0182
6.27201 84.5253
6.3167 111.293
6.36138 84.4751
6.40606 69.6293
6.45075 67.7593
6.49545 65.4425
6.54014 64.0699
6.58483 63.2585
6.62952 63.5836
6.67421 102.919
6.71892 173.892
6.76361 72.849
6.8083 59.3872
6.853 58.3094
6.89769 57.3633
6.94239 57.1959
6.98711 56.5157
7.03181 55.9469
7.07651 55.9772
7.12121 55.847
7.16591 56.0006
7.21063 56.7925
7.25533 74.2275
7.30004 224.432
7.34475 106.453
7.38945 57.5318
7.43416 55.2343
7.47889 55.0232
7.5236 55.3139
7.56831 55.238
7.61303 57.9034
7.65774 58.6113
7.70247 56.7663
7.74719 56.1455
7.79191 57.2064
7.83663 57.2409
7.88135 58.1804
7.92607 58.8337
7.97081 60.1355
8.01553 60.9097
8.06026 62.2821
8.10498 64.0963
8.14971 75.5768
8.19446 74.0854
8.23919 69.8929
8.28392 71.665
8.32865 73.9767
8.37339 77.9085
8.41812 85.0998
8.46288 120.362
8.50761 156.208
8.55235 357.875
8.59709 1080.43
8.64183 2180.02
8.68658 1043.91
8.73134 178.965
8.77609 100.629
8.82083 92.8911
8.86558 89.512
8.91033 90.1229
8.9551 93.9733
8.99985 85.8511
9.04461 83.2561
9.08936 82.537
9.13412 81.7556
9.17888 82.0935
9.22365 82.8642
9.26841 82.1021
9.31318 82.2828
9.35794 82.6281
9.4027 82.4306
9.44749 83.6215
9.49226 84.2547
9.53703 85.3588
9.5818 86.8883
9.62657 92.8284
9.67134 101.543
9.71614 94.2304
9.76091 93.6768
9.80569 95.9006
9.85047 99.7284
9.89525 129.344
9.94005 144.214
9.98484 165.921
10.0296 316.668
10.0744 744.769
10.1192 1679.04
10.164 1678.52
10.2088 450.934
10.2536 131.929
10.2984 115.807
10.3432 119.337
10.388 105.056
10.4328 114.742
10.4776 153.166
10.5224 263.351
10.5672 495.367
10.612 522.55
10.6568 219.293
10.7017 99.3849
10.7465 87.0661
10.7913 83.4966
10.8361 81.4361
10.8809 79.0018
10.9257 78.697
10.9706 80.4122
11.0154 75.4252
11.0602 73.0258
11.105 72.2319
11.1499 77.9916
11.1947 88.833
11.2395 76.8888
11.2844 71.7595
11.3292 67.7475
11.374 66.5098
11.4189 65.8318
11.4637 64.918
11.5086 65.8311
11.5534 70.0398
11.5983 66.3651
11.6431 63.9808
11.688 63.0521
11.7328 63.0714
11.7777 63.2196
11.8225 62.6956
11.8674 62.6653
11.9122 62.9949
11.9571 62.9374
12.002 63.8048
12.0468 67.0553
12.0917 78.0826
12.1366 100.547
12.1814 146.257
12.2263 203.264
12.2712 176.573
12.3161 104.054
12.3609 73.3331
12.4058 65.0518
12.4507 64.4424
12.4956 64.5367
12.5405 64.709
12.5853 65.9055
12.6302 75.8976
12.6751 83.627
12.72 71.4672
12.7649 68.1412
12.8098 68.6091
12.8547 69.5789
12.8996 70.9075
12.9445 71.9684
12.9894 73.9473
13.0343 75.6486
13.0792 78.4557
13.1242 86.0604
13.1691 108.642
13.214 143.223
13.2589 224.138
13.3038 354.687
13.3487 436.726
13.3937 283.171
13.4386 130.062
13.4835 104.288
13.5285 117.365
13.5734 151.826
13.6183 235.051
13.6633 340.277
13.7082 351.519
13.7531 197.658
13.7981 100.778
13.843 82.2675
13.888 79.7571
13.9329 77.2347
13.9779 75.8397
14.0228 74.3154
14.0678 72.7035
14.1127 72.8609
14.1577 73.1184
14.2027 71.7893
14.2476 70.7233
14.2926 70.9928
14.3376 72.5414
14.3825 70.7261
14.4275 68.8357
14.4725 68.6887
14.5175 68.9974
14.5624 68.867
14.6074 71.6741
14.6524 72.4368
14.6974 70.6124
14.7424 71.2032
14.7874 77.335
14.8324 86.8383
14.8774 106.298
14.9224 146.763
14.9674 199.638
15.0124 218.295
15.0574 155.307
15.1024 93.8459
15.1474 73.0498
15.1924 70.723
15.2374 72.1891
15.2824 71.4493
15.3274 68.6158
15.3725 66.8707
15.4175 66.5856
15.4625 66.1973
15.5076 66.6133
15.5526 66.2709
15.5976 65.8058
15.6426 66.1424
15.6877 70.9832
15.7327 77.9621
15.7778 92.0624
15.8228 121.129
15.8679 163.483
15.9129 194.684
15.958 163.991
16.003 102.552
16.0481 69.5551
16.0931 65.7297
16.1382 63.8606
16.1833 61.064
16.2283 59.0318
16.2734 58.7932
16.3185 59.1213
16.3636 60.3983
16.4086 58.509
16.4537 56.7538
16.4988 55.8002
16.5439 55.7032
16.589 55.5029
16.6341 55.0365
16.6792 54.6824
16.7243 55.095
16.7694 55.195
16.8145 55.2555
16.8596 55.5798
16.9047 57.5427
16.9498 57.6467
16.9949 56.0682
17.04 55.8928
17.0851 56.7919
17.1302 58.4028
17.1754 61.3711
17.2205 65.9613
17.2656 73.0825
17.3108 82.0612
17.3559 83.7468
17.401 72.689
17.4462 62.8468
17.4913 59.2126
17.5365 59.221
17.5815 59.2886
17.6268 59.5886
17.6718 60.6217
17.7171 61.0615
17.7622 61.3642
17.8074 61.7893
17.8525 63.6805
17.8977 67.5457
17.9428 72.6144
17.9881 81.0017
18.0331 96.2897
18.0784 117.913
18.1237 138.209
18.1688 133.958
18.214 106.537
18.2591 86.5819
18.3044 89.4098
18.3495 99.2404
18.3948 106.59
18.4399 99.4031
18.4852 80.0704
18.5303 67.1127
18.5756 62.4681
18.6207 61.5833
18.666 60.5176
18.7112 59.947
18.7565 59.1928
18.8016 58.6963
18.8469 58.2831
18.892 57.8111
18.9374 57.288
18.9825 57.273
19.0278 57.0071
19.073 56.9274
19.1183 57.6075
19.1635 58.5367
19.2088 59.4357
19.254 61.6994
19.2993 65.7398
19.3447 71.9709
19.3898 77.2101
19.4352 73.8822
19.4804 64.6489
19.5257 57.3015
19.5709 54.5145
19.6163 54.0694
19.6615 53.8568
19.7068 53.5371
19.752 53.5816
19.7974 53.5403
19.8426 54.494
19.888 55.0584
19.9332 56.0998
19.9786 58.2935
20.0238 61.5384
20.0692 66.4879
20.1144 69.8261
20.1598 68.8381
20.205 63.8953
20.2504 62.123
20.2957 63.4857
20.3411 65.8892
20.3863 64.8998
20.4318 59.2777
20.477 54.2356
20.5224 52.2368
20.5677 51.2996
20.6131 50.5491
20.6586 49.9136
20.7038 49.5907
20.7493 49.3081
20.7945 49.2092
20.84 48.9706
20.8853 48.7547
20.9307 48.6842
20.976 48.7859
21.0215 48.5523
21.0668 48.8546
21.1122 49.686
21.1575 50.0763
21.203 50.7884
21.2483 51.5597
21.2938 51.4719
21.3391 50.3393
21.3846 49.1414
21.4299 48.5951
21.4754 48.4146
21.5207 48.4822
21.5662 48.9019
21.6116 49.1188
21.6571 49.8478
21.7024 50.7285
21.7479 52.2994
21.7933 54.9306
21.8388 58.3909
21.8843 62.1605
21.9297 64.7616
21.9752 64.2138
22.0206 60.297
22.0661 56.9041
22.1115 56.0915
22.157 56.2893
22.2024 54.8699
22.248 51.7936
22.2933 50.1384
22.3389 49.3966
22.3843 49.1408
22.4299 49.0247
22.4753 49.2099
22.5208 48.8222
22.5662 48.6523
22.6118 48.8141
22.6572 48.7986
22.7028 49.1773
22.7483 49.7595
22.7939 50.3148
22.8393 51.772
22.8849 53.6609
22.9303 55.9681
22.9759 57.9116
23.0214 57.9818
23.067 55.3564
23.1126 51.73
23.1581 49.4611
23.2037 49.0337
23.2492 48.8239
23.2948 48.8884
23.3403 49.0693
23.3859 49.647
23.4314 50.5196
23.477 52.3372
23.5225 54.4133
23.5682 56.8691
23.6137 58.3363
23.6593 56.5133
23.7048 52.3216
23.7505 48.825
23.796 46.7976
23.8417 46.366
23.8872 45.7004
23.9329 45.4883
23.9784 45.0142
24.0241 44.829
24.0697 44.5589
24.1154 44.2925
24.1609 44.1502
24.2066 44.0718
24.2522 43.7877
24.2979 43.6963
24.3434 43.5092
24.3892 43.2658
24.4349 43.2053
24.4805 43.0128
24.5262 43.2589
24.5718 43.2054
24.6175 43.151
24.6631 42.9847
24.7089 42.7032
24.7545 42.6389
24.8002 42.3306
24.8458 42.2988
24.8916 42.0783
24.9372 42.46
24.983 42.5782
25.0286 42.9405
25.0744 43.2341
25.12 43.6072
25.1658 44.3199
25.2114 44.8371
25.2572 44.9083
25.3029 44.9726
25.3487 44.9449
25.3943 44.8766
25.4402 43.9299
25.4858 42.7946
25.5316 41.7285
25.5773 41.1854
25.6231 41.1381
25.669 40.817
25.7147 40.618
25.7605 40.6635
25.8062 40.6878
25.8521 40.8814
25.8977 40.6345
25.9436 40.8578
25.9893 40.9617
26.0352 41.5175
26.0809 41.5861
26.1268 41.8886
26.1725 41.6799
26.2184 41.1376
26.2641 40.5176
26.31 40.2079
26.3557 40.3401
26.4017 40.2246
26.4474 40.4645
26.4933 40.8343
26.5391 41.2401
26.585 41.9009
26.6308 42.1409
26.6767 42.3238
26.7225 42.2358
26.7684 41.7221
26.8142 41.006
26.8601 40.6936
26.9059 40.1856
26.9519 39.6704
26.9979 39.3305
27.0437 39.0175
27.0896 38.8135
27.1354 38.8143
27.1814 38.7137
27.2272 38.77
27.2732 38.8009
27.3191 38.5413
27.3651 38.6163
27.4109 38.453
27.4569 38.645
27.5027 38.6337
27.5488 38.7868
27.5946 38.6376
27.6407 38.2718
27.6865 38.2782
27.7326 37.8775
27.7784 37.9382
27.8245 37.9084
27.8703 38.1254
27.9164 38.2481
27.9623 38.4774
28.0084 38.7953
28.0543 39.092
28.1003 39.161
28.1462 39.1321
28.1923 38.6255
28.2384 38.1427
28.2843 37.8016
28.3304 37.3896
28.3764 36.849
28.4225 36.5467
28.4684 36.4443
28.5145 36.0403
28.5605 35.9576
28.6066 35.8035
28.6526 35.6339
28.6987 35.8728
28.7447 35.7124
28.7908 35.5644
28.8368 35.5722
28.8829 35.4694
28.9289 35.4352
28.9751 35.221
29.0211 35.0712
29.0673 34.7954
29.1133 34.6676
29.1595 34.4465
29.2055 34.5464
29.2517 34.4928
29.2977 34.3974
29.3439 34.3996
29.3899 34.3849
29.4361 34.2454
29.4824 34.1913
29.5284 33.8514
29.5746 33.6966
29.6207 33.2496
29.6669 33.23
29.713 33.0603
29.7593 32.9157
29.8053 33.0341
29.8516 32.8851
29.8977 32.9118
29.9439 32.7135
29.99 32.58
30.0363 32.5925
30.0824 32.5881
30.1287 32.5641
30.1748 32.6223
30.2211 32.6149
30.2673 32.3833
30.3136 32.5793
30.3597 32.3988
30.406 32.4152
30.4522 32.0893
30.4985 32.2549
30.5447 32.2302
30.591 32.2163
30.6372 32.323
30.6835 32.2446
30.7297 32.3925
30.7761 32.3136
30.8224 32.0882
30.8686 32.089
30.915 31.7075
30.9612 31.6783
31.0076 31.4256
31.0538 31.234
31.1002 31.2449
31.1464 31.1251
31.1928 31.0639
31.2391 31.1063
31.2855 30.9643
31.3317 30.9759
31.3781 31.0588
31.4244 30.9735
31.4708 30.9662
31.5171 30.8883
31.5636 30.8777
31.6098 30.6252
31.6563 30.4663
31.7026 30.297
31.7491 30.2258
31.7953 30.2773
31.8418 30.2377
31.8881 30.2847
31.9346 30.2022
31.9809 30.1542
32.0275 29.9409
32.074 29.9591
32.1203 29.737
32.1668 29.6912
32.2132 29.5277
32.2597 29.441
32.306 29.2718
32.3526 29.1046
32.399 29.0369
32.4455 28.9427
32.4919 28.9009
32.5385 28.6913
32.5848 28.6082
32.6314 28.6636
32.6778 28.5584
32.7244 28.4754
32.7708 28.1764
32.8174 28.2508
32.8638 28.1295
32.9104 28.1927
32.9569 28.1157
33.0035 27.8262
33.0499 27.906
33.0966 27.8992
33.143 27.9073
33.1897 27.7525
33.2361 27.7418
33.2828 27.6435
33.3293 27.4434
33.3759 27.4748
33.4226 27.3573
33.4691 27.209
33.5158 27.1083
33.5623 27.0906
33.609 26.8472
33.6555 26.8069
33.7022 26.7778
33.7487 26.5564
33.7954 26.5853
33.842 26.4288
33.8887 26.4134
33.9353 26.4052
33.982 26.3128
34.0286 26.1776
34.0753 26.1244
34.1219 25.9572
34.1687 25.9533
34.2152 25.8183
34.262 25.8218
34.3086 25.6226
34.3554 25.6953
34.402 25.4443
34.4488 25.4072
34.4954 25.336
34.5422 25.2529
34.5889 25.1549
34.6357 25.0801
34.6825 25.0313
34.7292 25.015
34.776 24.8094
34.8227 24.8031
34.8695 24.7334
34.9162 24.7306
34.9631 24.5928
35.0098 24.564
35.0566 24.396
35.1033 24.39
35.1502 24.3205
35.1969 24.3039
35.2438 24.2631
35.2906 24.1823
35.3375 24.1877
35.3842 24.0988
35.4311 24.0701
35.4779 24.0856
35.5248 23.9488
35.5716 23.8985
35.6185 23.7952
35.6653 23.7037
35.7123 23.6212
35.759 23.5326
35.806 23.4924
35.8528 23.3295
35.8998 23.2653
35.9468 23.1433
35.9936 23.1032
36.0406 23.0578
36.0874 23.0571
36.1345 23.0365
36.1813 22.928
36.2283 22.8152
36.2752 22.7385
36.3222 22.674
36.3691 22.6327
36.4161 22.5569
36.463 22.5082
36.5101 22.5406
36.557 22.4579
36.6041 22.2198
36.651 22.2567
36.6981 22.1965
36.745 22.1357
36.7921 22.1033
36.839 21.9223
36.8861 21.898
36.9331 21.8717
36.9802 21.7338
37.0272 21.673
37.0743 21.6431
37.1213 21.5891
37.1684 21.5301
37.2154 21.469
37.2626 21.3471
37.3098 21.2994
37.3568 21.2031
37.404 21.1978
37.451 21.1006
37.4982 21.1383
37.5452 20.8786
37.5924 20.8731
37.6395 20.9072
37.6867 20.8172
37.7337 20.6918
37.781 20.6482
37.8281 20.5497
37.8753 20.4326
37.9224 20.4062
37.9697 20.3142
38.0168 20.2126
38.064 20.2228
38.1111 20.2219
38.1584 20.0788
38.2056 20.0315
38.2529 19.996
38.3 19.9624
38.3473 19.9094
38.3945 19.773
38.4418 19.6756
38.489 19.717
38.5363 19.5779
38.5837 19.6386
38.6309 19.4574
38.6782 19.4096
38.7254 19.2912
38.7728 19.3231
38.82 19.2878
38.8674 19.1698
38.9146 19.098
38.9621 19.047
39.0093 18.9612
39.0567 18.9599
39.104 18.8047
39.1514 18.8081
39.1987 18.7338
39.2461 18.6601
39.2934 18.6593
39.3409 18.5813
39.3882 18.5058
39.4356 18.3867
39.483 18.3561
39.5304 18.3522
39.5778 18.3332
39.6253 18.2595
39.6726 18.1579
39.7201 18.0851
39.7675 18.123
39.815 18.0255
39.8624 17.8961
39.9099 17.8944
39.9575 17.811
40.0049 17.7838
40.0525 17.7143
40.0999 17.6522
40.1474 17.6212
40.1949 17.4867
40.2425 17.4128
40.2899 17.482
40.3375 17.3693
40.385 17.2818
40.4326 17.2592
40.48 17.2198
40.5277 17.228
40.5752 17.0742
40.6228 17.0124
40.6703 16.9584
40.718 16.9535
40.7655 16.9018
40.8132 16.8201
40.8607 16.8824
40.9084 16.7344
40.9559 16.705
41.0036 16.6488
41.0512 16.6602
41.0989 16.4903
41.1465 16.4429
41.1942 16.3909
41.242 16.3525
41.2896 16.3004
41.3373 16.2539
41.3849 16.2061
41.4327 16.142
41.4803 16.0127
41.5281 15.9561
41.5758 15.927
41.6236 15.8818
41.6712 15.8304
41.7191 15.821
41.7667 15.7763
41.8146 15.7496
41.8622 15.6761
41.9101 15.6305
41.9578 15.5262
42.0057 15.5164
42.0534 15.4301
42.1013 15.4016
42.149 15.2961
42.1969 15.3114
42.2446 15.2281
42.2925 15.1943
42.3403 15.0833
42.3882 15.065
42.436 15.0409
42.4839 14.9386
42.5319 14.9632
42.5797 14.9114
42.6277 14.8693
42.6755 14.8712
42.7235 14.7019
42.7713 14.7178
42.8193 14.6384
42.8671 14.6288
42.9152 14.5616
42.963 14.4559
43.0111 14.4308
43.0589 14.4275
43.107 14.3474
43.1549 14.3665
43.2029 14.2628
43.2508 14.1755
43.2989 14.1766
43.3468 14.1349
43.3949 14.0421
43.4429 14.0084
43.491 13.9447
43.5389 13.9162
43.5871 13.8271
43.635 13.7429
43.6832 13.7708
43.7312 13.7142
43.7793 13.6864
43.8273 13.636
43.8755 13.5798
43.9237 13.5247
43.9717 13.4806
44.0199 13.4291
44.068 13.4039
44.1162 13.3506
44.1642 13.3075
44.2125 13.1923
44.2606 13.199
44.3088 13.128
44.3569 13.1327
44.4052 13.0948
44.4533 13.0069
44.5016 12.9223
44.5497 12.9209
44.598 12.9177
44.6461 12.8094
44.6945 12.7428
44.7426 12.7263
44.791 12.6826
44.8391 12.687
44.8875 12.6406
44.9357 12.561
44.984 12.5523
45.0322 12.475
45.0806 12.4634
45.1288 12.3531
45.1773 12.3597
45.2257 12.3006
45.2739 12.2253
45.3224 12.2005
45.3706 12.2116
45.4191 12.0895
45.4673 12.0703
45.5158 12.0666
45.5641 11.9919
45.6126 11.9412
45.6609 11.9506
45.7094 11.8439
45.7577 11.8226
45.8063 11.7647
45.8546 11.753
45.9031 11.7207
45.9515 11.6474
46.0001 11.6113
46.0484 11.5533
46.097 11.518
46.1454 11.5556
46.194 11.4669
46.2424 11.4479
46.291 11.3836
46.3395 11.326
46.3881 11.2733
46.4365 11.2363
46.4852 11.1917
46.5337 11.167
46.5823 11.162
46.631 11.1331
46.6795 11.0433
46.7282 11.0092
46.7767 10.9746
46.8254 10.9342
46.8739 10.9001
46.9226 10.8391
46.9712 10.8316
47.0199 10.7418
47.0685 10.7157
47.1173 10.659
47.1658 10.6224
47.2146 10.6193
47.2632 10.5776
47.312 10.5394
47.3606 10.4932
47.4095 10.4324
47.4581 10.4079
47.5069 10.385
47.5556 10.3523
47.6044 10.2883
47.6531 10.2546
47.702 10.1861
47.7507 10.1624
47.7996 10.1438
47.8483 10.1397
47.8972 10.104
47.9461 10.0386
47.9948 10.0001
48.0438 9.92551
48.0925 9.91971
48.1415 9.9368
48.1902 9.84382
48.2392 9.84637
48.288 9.80695
48.337 9.75494
48.3858 9.70232
48.4348 9.69071
48.4837 9.66111
48.5327 9.64269
48.5815 9.56506
48.6306 9.51466
48.6795 9.47722
48.7285 9.47383
48.7774 9.43549
48.8265 9.38126
48.8754 9.36016
48.9245 9.35555
48.9734 9.28199
49.0226 9.28579
49.0715 9.23674
49.1206 9.18827
49.1696 9.15121
49.2188 9.13231
49.2679 9.04261
49.3169 9.06545
49.3661 9.00289
49.4151 8.98243
49.4643 8.94582
49.5134 8.90426
49.5626 8.88651
49.6117 8.83879
49.6609 8.7833
49.71 8.77303
49.7592 8.74551
49.8083 8.70118
49.8576 8.66943
49.9067 8.60903
49.956 8.62114
50.0052 8.54674
50.0545 8.57299
50.1036 8.5066
50.153 8.47998
50.2022 8.43655
50.2515 8.40184
50.3007 8.32689
50.3501 8.34167
50.3993 8.32588
50.4487 8.28986
50.498 8.26942
50.5474 8.24514
50.5966 8.17123
50.6461 8.16335
50.6955 8.10596
50.7448 8.06405
50.7943 8.06494
50.8436 8.03693
50.8931 8.01067
50.9424 7.96288
50.9919 7.9632
51.0413 7.90262
51.0908 7.87084
51.1402 7.84892
51.1897 7.81868
51.2391 7.7894
51.2887 7.74328
51.3381 7.68527
51.3877 7.68688
51.4371 7.63337
51.4867 7.64551
51.5362 7.60745
51.5858 7.56919
51.6353 7.4983
51.6849 7.49609
51.7344 7.45208
51.7841 7.4337
51.8336 7.39268
51.8833 7.38591
51.9328 7.30872
51.9826 7.32337
52.0323 7.29632
52.0818 7.25542
52.1316 7.22538
52.1812 7.19246
52.231 7.15007
52.2806 7.14617
52.3304 7.11126
52.38 7.10121
52.4298 7.0151
52.4794 7.04676
52.5293 6.96783
52.5789 6.98529
52.6288 6.93845
52.6785 6.90043
52.7284 6.86492
52.7781 6.83042
52.828 6.79716
52.8777 6.794
52.9276 6.76584
52.9774 6.72944
53.0273 6.70838
53.0771 6.68657
53.1271 6.65121
53.1769 6.62175
53.2269 6.57201
53.2767 6.58044
53.3267 6.5581
53.3765 6.51435
53.4266 6.44511
53.4766 6.42348
53.5265 6.40397
53.5765 6.39065
53.6264 6.37163
53.6765 6.35359
53.7264 6.33101
53.7765 6.27718
53.8265 6.24421
53.8766 6.23092
53.9266 6.22747
53.9767 6.19379
54.0267 6.10477
54.0769 6.11344
54.1269 6.11272
54.1771 6.03715
54.2271 6.06924
54.2773 6.00802
54.3274 5.99709
54.3776 5.92625
54.4277 5.89967
54.478 5.87931
54.528 5.82582
54.5783 5.82693
54.6285 5.74001
54.6788 5.70453
54.7289 5.65033
54.7792 5.66155
54.8296 5.55716
54.8798 5.49858
54.9301 5.48414
54.9803 5.45474
55.0307 5.47801
55.0809 5.3989
55.1314 5.41686
55.1816 5.32651
55.232 5.27487
55.2823 5.19477
55.3328 5.18866
55.383 5.13211
55.4335 5.09881
55.4838 5.02742
55.5344 5.00401
55.5847 4.96216
55.6352 4.90714
55.6856 4.89561
55.7361 4.79306