File: XRD/Ni3Fe_FD0632.xy
TT I
1.27165 7.27827
1.31627 7.18564
1.36089 6.61603
1.40551 6.23865
1.45013 6.59378
1.49476 6.85802
1.53938 5.65084
1.584 5.41316
1.62863 4.78161
1.67325 5.40512
1.71787 4.51854
1.7625 4.7935
1.80712 4.40214
1.85174 4.54573
1.89636 5.05215
1.94099 5.28886
1.98562 4.82192
2.03025 4.39819
2.07487 4.36476
2.11949 4.93872
2.16411 4.92178
2.20874 15.2386
2.25338 25.628
2.298 5.74785
2.34263 4.80396
2.38725 6.42076
2.43188 5.43939
2.4765 6.74909
2.52115 6.48854
2.56577 7.4751
2.6104 7.99993
2.65503 7.62367
2.69965 7.81097
2.7443 8.12536
2.78893 7.34296
2.83356 8.15574
2.87818 8.57266
2.92281 8.95816
2.96744 9.33172
3.01209 9.93665
3.05672 10.8083
3.10135 11.9231
3.14599 12.8188
3.19062 14.2685
3.23527 14.6769
3.2799 15.5246
3.32454 16.811
3.36917 17.6038
3.4138 19.2827
3.45844 19.4974
3.50309 21.0117
3.54773 22.0015
3.59237 24.4863
3.637 101.872
3.68164 64.2263
3.7263 26.8652
3.77094 26.423
3.81558 26.9961
3.86022 27.7877
3.90486 28.9523
3.9495 30.0625
3.99416 30.9262
4.0388 32.4924
4.08344 33.8174
4.12809 34.9906
4.17273 37.3734
4.21738 44.2582
4.26204 274.406
4.30669 242.38
4.35133 49.339
4.39598 44.8707
4.44063 55.3796
4.4853 68.5169
4.52995 50.3074
4.5746 51.5221
4.61925 53.1368
4.6639 55.0093
4.70855 58.2865
4.75322 61.1659
4.79788 63.6763
4.84253 67.2242
4.88719 71.4333
4.93184 75.2213
4.97652 80.1797
5.02118 86.3949
5.06583 93.9118
5.11049 105.556
5.15515 179.67
5.19981 342.473
5.24449 2735.62
5.28916 12486.6
5.33382 2998.02
5.37848 194.476
5.42315 130.531
5.46783 114.302
5.5125 106.694
5.55716 102.391
5.60183 98.8999
5.6465 97.0727
5.69117 94.4368
5.73586 92.1432
5.78053 91.2907
5.8252 91.4224
5.86988 91.8744
5.91455 93.3681
5.95924 101.173
6.00392 197.05
6.0486 952.628
6.09328 4407.79
6.13795 3533.93
6.18263 261.092
6.22733 94.9762
6.27201 84.0403
6.3167 106.643
6.36138 82.0751
6.40606 69.3727
6.45075 67.7064
6.49545 66.0681
6.54014 64.2579
6.58483 63.3181
6.62952 63.2776
6.67421 98.4406
6.71892 155.796
6.76361 69.9131
6.8083 59.0837
6.853 57.953
6.89769 57.0554
6.94239 56.906
6.98711 56.1055
7.03181 55.8952
7.07651 55.9736
7.12121 55.6561
7.16591 55.4083
7.21063 55.9654
7.25533 72.4512
7.30004 197.617
7.34475 97.4409
7.38945 57.3995
7.43416 54.9384
7.47889 54.7427
7.5236 55.1738
7.56831 55.5432
7.61303 57.5636
7.65774 58.1575
7.70247 56.5864
7.74719 56.4917
7.79191 56.8933
7.83663 57.0688
7.88135 58.2437
7.92607 59.0175
7.97081 60.2234
8.01553 61.029
8.06026 62.4364
8.10498 64.1015
8.14971 74.3709
8.19446 73.2532
8.23919 69.5826
8.28392 71.8612
8.32865 74.1069
8.37339 78.3859
8.41812 85.5871
8.46288 116.514
8.50761 158.157
8.55235 370.478
8.59709 1135.34
8.64183 2188.66
8.68658 1022.6
8.73134 173.487
8.77609 100.471
8.82083 93.1088
8.86558 89.9232
8.91033 90.4913
8.9551 92.8851
8.99985 85.6588
9.04461 83.2338
9.08936 83.1408
9.13412 82.0929
9.17888 82.4294
9.22365 83.2026
9.26841 82.4121
9.31318 82.5011
9.35794 82.7355
9.4027 83.1484
9.44749 84.0488
9.49226 84.9022
9.53703 85.7226
9.5818 87.561
9.62657 92.4151
9.67134 100.092
9.71614 94.148
9.76091 94.0018
9.80569 96.1161
9.85047 100.027
9.89525 126.374
9.94005 139.232
9.98484 170.282
10.0296 328.613
10.0744 784.354
10.1192 1709.68
10.164 1642.68
10.2088 430.036
10.2536 129.975
10.2984 114.98
10.3432 117.044
10.388 105.281
10.4328 116.27
10.4776 156.238
10.5224 271.13
10.5672 501.144
10.612 515.188
10.6568 215.613
10.7017 98.9282
10.7465 87.2457
10.7913 83.7376
10.8361 81.4607
10.8809 79.3458
10.9257 79.2212
10.9706 79.6461
11.0154 75.1866
11.0602 73.119
11.105 72.1307
11.1499 77.3732
11.1947 86.0855
11.2395 75.4973
11.2844 70.9214
11.3292 67.4525
11.374 66.653
11.4189 65.7804
11.4637 65.4097
11.5086 65.8175
11.5534 69.334
11.5983 66.1892
11.6431 63.7471
11.688 63.1154
11.7328 63.0423
11.7777 63.4163
11.8225 62.781
11.8674 62.5805
11.9122 62.8591
11.9571 63.2574
12.002 63.8676
12.0468 67.3371
12.0917 78.0618
12.1366 101.581
12.1814 148.893
12.2263 204.092
12.2712 172.27
12.3161 100.82
12.3609 71.9838
12.4058 65.1641
12.4507 64.8441
12.4956 64.5109
12.5405 64.6664
12.5853 65.9966
12.6302 74.3638
12.6751 80.8034
12.72 70.5223
12.7649 68.0704
12.8098 68.7278
12.8547 69.7541
12.8996 71.0648
12.9445 72.4771
12.9894 74.1464
13.0343 75.5798
13.0792 78.9263
13.1242 87.0913
13.1691 110.297
13.214 145.516
13.2589 232.723
13.3038 361.266
13.3487 428.772
13.3937 274.901
13.4386 127.873
13.4835 104.723
13.5285 118.763
13.5734 155.468
13.6183 242.421
13.6633 345.53
13.7082 343.094
13.7531 196.663
13.7981 100.443
13.843 82.1015
13.888 79.9809
13.9329 77.364
13.9779 76.0393
14.0228 74.6114
14.0678 73.1792
14.1127 72.9914
14.1577 72.8347
14.2027 71.7836
14.2476 70.6781
14.2926 70.8054
14.3376 72.4094
14.3825 70.4576
14.4275 68.967
14.4725 68.5998
14.5175 69.2307
14.5624 69.1856
14.6074 71.3957
14.6524 72.0158
14.6974 70.5964
14.7424 71.6549
14.7874 77.8723
14.8324 87.8873
14.8774 108.63
14.9224 151.12
14.9674 202.979
15.0124 218.291
15.0574 154.408
15.1024 93.3221
15.1474 72.9406
15.1924 70.8887
15.2374 71.5565
15.2824 70.7215
15.3274 68.419
15.3725 66.9789
15.4175 66.553
15.4625 66.2637
15.5076 66.6199
15.5526 66.5063
15.5976 65.8054
15.6426 66.507
15.6877 71.4953
15.7327 78.955
15.7778 93.6746
15.8228 123.975
15.8679 165.743
15.9129 193.423
15.958 159.533
16.003 100.247
16.0481 69.2339
16.0931 65.4458
16.1382 63.4647
16.1833 60.8771
16.2283 59.2603
16.2734 58.6495
16.3185 59.0967
16.3636 60.1312
16.4086 58.2035
16.4537 56.5705
16.4988 55.8036
16.5439 55.7148
16.589 55.3054
16.6341 55.0059
16.6792 54.645
16.7243 54.9806
16.7694 55.2093
16.8145 55.0195
16.8596 55.555
16.9047 57.091
16.9498 57.5479
16.9949 56.0339
17.04 56.0436
17.0851 57.0599
17.1302 58.6474
17.1754 61.6138
17.2205 66.5337
17.2656 73.9306
17.3108 82.4513
17.3559 82.8878
17.401 72.2879
17.4462 62.8006
17.4913 59.5578
17.5365 59.3506
17.5815 59.4838
17.6268 59.8006
17.6718 60.5533
17.7171 61.2643
17.7622 61.356
17.8074 62.0716
17.8525 63.983
17.8977 67.7912
17.9428 73.301
17.9881 81.7886
18.0331 98.49
18.0784 120.126
18.1237 138.746
18.1688 132.274
18.214 105.111
18.2591 87.1405
18.3044 90.1487
18.3495 99.9132
18.3948 105.19
18.4399 97.9127
18.4852 79.2792
18.5303 66.6265
18.5756 62.534
18.6207 61.4501
18.666 60.622
18.7112 60.0885
18.7565 59.1154
18.8016 58.9822
18.8469 58.2242
18.892 57.9937
18.9374 57.4946
18.9825 57.0958
19.0278 57.2526
19.073 57.1055
19.1183 57.5347
19.1635 58.3751
19.2088 59.6951
19.254 62.2758
19.2993 66.4792
19.3447 72.7566
19.3898 76.709
19.4352 72.7416
19.4804 64.1717
19.5257 57.498
19.5709 54.4737
19.6163 54.2011
19.6615 53.9793
19.7068 53.6042
19.752 53.4832
19.7974 53.6635
19.8426 54.4757
19.888 55.2977
19.9332 56.3258
19.9786 58.5559
20.0238 62.1159
20.0692 67.0264
20.1144 69.6898
20.1598 68.4322
20.205 63.9316
20.2504 62.1788
20.2957 63.9014
20.3411 65.7852
20.3863 64.6143
20.4318 59.1676
20.477 54.1413
20.5224 52.0466
20.5677 51.3713
20.6131 50.4
20.6586 49.7672
20.7038 49.8111
20.7493 49.3832
20.7945 49.2475
20.84 48.8868
20.8853 48.8008
20.9307 48.7082
20.976 48.8656
21.0215 48.7713
21.0668 49.0921
21.1122 49.6677
21.1575 50.1254
21.203 50.9116
21.2483 51.5601
21.2938 51.4568
21.3391 50.0775
21.3846 49.2012
21.4299 48.7489
21.4754 48.3883
21.5207 48.5956
21.5662 48.9498
21.6116 49.2611
21.6571 49.8674
21.7024 50.9092
21.7479 52.5564
21.7933 55.3018
21.8388 58.7451
21.8843 62.3847
21.9297 64.5817
21.9752 63.4193
22.0206 60.0245
22.0661 56.8836
22.1115 56.0984
22.157 56.1024
22.2024 54.5706
22.248 51.7691
22.2933 50.2349
22.3389 49.3418
22.3843 49.1529
22.4299 49.0432
22.4753 49.0346
22.5208 48.6619
22.5662 48.7105
22.6118 48.7253
22.6572 48.8024
22.7028 49.3909
22.7483 50.0106
22.7939 50.329
22.8393 51.9245
22.8849 54.014
22.9303 55.958
22.9759 57.9161
23.0214 57.763
23.067 55.1226
23.1126 51.6663
23.1581 49.5086
23.2037 49.0366
23.2492 48.8958
23.2948 49.1627
23.3403 49.1435
23.3859 49.9312
23.4314 50.8554
23.477 52.5803
23.5225 54.6978
23.5682 56.8929
23.6137 58.0748
23.6593 56.1145
23.7048 52.1279
23.7505 48.6829
23.796 47.0127
23.8417 46.3801
23.8872 45.7068
23.9329 45.2695
23.9784 45.1703
24.0241 44.8388
24.0697 44.6536
24.1154 44.1862
24.1609 44.1969
24.2066 44.0495
24.2522 43.813
24.2979 43.6047
24.3434 43.5522
24.3892 43.4371
24.4349 43.2656
24.4805 43.0647
24.5262 43.3453
24.5718 43.1326
24.6175 42.9866
24.6631 42.9819
24.7089 42.7865
24.7545 42.493
24.8002 42.3263
24.8458 42.3602
24.8916 42.0677
24.9372 42.3304
24.983 42.6646
25.0286 42.8645
25.0744 43.2964
25.12 43.8548
25.1658 44.3794
25.2114 44.719
25.2572 44.9691
25.3029 44.878
25.3487 45.0411
25.3943 44.8392
25.4402 43.8733
25.4858 42.6726
25.5316 41.7977
25.5773 41.1765
25.6231 41.0794
25.669 40.5998
25.7147 40.7225
25.7605 40.562
25.8062 40.6579
25.8521 40.8428
25.8977 40.7707
25.9436 41.0523
25.9893 41.0982
26.0352 41.5532
26.0809 41.5806
26.1268 41.9307
26.1725 41.5213
26.2184 41.0465
26.2641 40.5373
26.31 40.2114
26.3557 40.314
26.4017 40.101
26.4474 40.5186
26.4933 40.7556
26.5391 41.4297
26.585 41.7136
26.6308 42.1037
26.6767 42.3042
26.7225 42.0743
26.7684 41.6546
26.8142 40.9221
26.8601 40.6224
26.9059 40.1658
26.9519 39.7513
26.9979 39.4405
27.0437 39.0315
27.0896 38.9146
27.1354 38.947
27.1814 38.7215
27.2272 38.6408
27.2732 38.7839
27.3191 38.472
27.3651 38.7308
27.4109 38.6365
27.4569 38.5712
27.5027 38.7038
27.5488 38.6396
27.5946 38.5146
27.6407 38.3829
27.6865 38.0645
27.7326 37.9808
27.7784 38.0676
27.8245 37.9934
27.8703 38.0509
27.9164 38.4744
27.9623 38.4822
28.0084 38.8833
28.0543 39.2526
28.1003 39.2195
28.1462 39.0726
28.1923 38.5968
28.2384 38.0194
28.2843 37.7915
28.3304 37.455
28.3764 36.8703
28.4225 36.6694
28.4684 36.3255
28.5145 36.2041
28.5605 35.9836
28.6066 35.8467
28.6526 35.7187
28.6987 35.8451
28.7447 35.6571
28.7908 35.6686
28.8368 35.5563
28.8829 35.6415
28.9289 35.3865
28.9751 35.1776
29.0211 35.2047
29.0673 34.8463
29.1133 34.6753
29.1595 34.6616
29.2055 34.4703
29.2517 34.5444
29.2977 34.3813
29.3439 34.3167
29.3899 34.3888
29.4361 34.307
29.4824 34.198
29.5284 34.0115
29.5746 33.5797
29.6207 33.327
29.6669 33.2741
29.713 33.1345
29.7593 33.0638
29.8053 33.0653
29.8516 32.9103
29.8977 32.8472
29.9439 32.8366
29.99 32.66
30.0363 32.6461
30.0824 32.7886
30.1287 32.6074
30.1748 32.654
30.2211 32.6124
30.2673 32.4037
30.3136 32.5408
30.3597 32.4166
30.406 32.2917
30.4522 32.2575
30.4985 32.1154
30.5447 32.3209
30.591 32.3293
30.6372 32.3993
30.6835 32.3819
30.7297 32.3657
30.7761 32.2151
30.8224 32.13
30.8686 31.929
30.915 31.7362
30.9612 31.7169
31.0076 31.4815
31.0538 31.347
31.1002 31.3276
31.1464 31.141
31.1928 31.0408
31.2391 31.1477
31.2855 30.9502
31.3317 30.9553
31.3781 31.0613
31.4244 31.0627
31.4708 30.9043
31.5171 30.9777
31.5636 30.8783
31.6098 30.5695
31.6563 30.4932
31.7026 30.2859
31.7491 30.2609
31.7953 30.2888
31.8418 30.2926
31.8881 30.2548
31.9346 30.2146
31.9809 30.1905
32.0275 30.0494
32.074 29.8581
32.1203 29.7458
32.1668 29.6148
32.2132 29.546
32.2597 29.4454
32.306 29.3456
32.3526 29.1249
32.399 29.1312
32.4455 28.9057
32.4919 28.8198
32.5385 28.7908
32.5848 28.5653
32.6314 28.6802
32.6778 28.5847
32.7244 28.4686
32.7708 28.2053
32.8174 28.3031
32.8638 28.0531
32.9104 28.2191
32.9569 28.159
33.0035 27.9339
33.0499 27.9988
33.0966 27.8587
33.143 27.9148
33.1897 27.8074
33.2361 27.6779
33.2828 27.6865
33.3293 27.5055
33.3759 27.5303
33.4226 27.3543
33.4691 27.2742
33.5158 27.2047
33.5623 27.0153
33.609 26.8893
33.6555 26.7822
33.7022 26.717
33.7487 26.5932
33.7954 26.4852
33.842 26.5365
33.8887 26.5529
33.9353 26.3179
33.982 26.2033
34.0286 26.2215
34.0753 26.1388
34.1219 26.0231
34.1687 25.9994
34.2152 25.8506
34.262 25.7241
34.3086 25.7236
34.3554 25.6575
34.402 25.5142
34.4488 25.3807
34.4954 25.3077
34.5422 25.2386
34.5889 25.1602
34.6357 25.0972
34.6825 25.0091
34.7292 25.0031
34.776 24.8173
34.8227 24.8023
34.8695 24.8394
34.9162 24.7291
34.9631 24.5325
35.0098 24.6143
35.0566 24.4603
35.1033 24.3935
35.1502 24.3607
35.1969 24.2858
35.2438 24.2685
35.2906 24.1885
35.3375 24.1446
35.3842 24.073
35.4311 24.0645
35.4779 24.0957
35.5248 24.0052
35.5716 23.9192
35.6185 23.8343
35.6653 23.6885
35.7123 23.6819
35.759 23.5027
35.806 23.4825
35.8528 23.384
35.8998 23.2854
35.9468 23.2146
35.9936 23.1935
36.0406 23.1224
36.0874 23.1774
36.1345 23.0215
36.1813 22.9728
36.2283 22.7664
36.2752 22.7607
36.3222 22.7857
36.3691 22.6558
36.4161 22.4947
36.463 22.5578
36.5101 22.4847
36.557 22.4886
36.6041 22.3316
36.651 22.2818
36.6981 22.1701
36.745 22.1584
36.7921 22.0873
36.839 21.9905
36.8861 21.9176
36.9331 21.8568
36.9802 21.7778
37.0272 21.6848
37.0743 21.6219
37.1213 21.5878
37.1684 21.4963
37.2154 21.5257
37.2626 21.4406
37.3098 21.2789
37.3568 21.2869
37.404 21.1659
37.451 21.1588
37.4982 21.0128
37.5452 20.9556
37.5924 20.9429
37.6395 20.9915
37.6867 20.7714
37.7337 20.675
37.781 20.6108
37.8281 20.577
37.8753 20.504
37.9224 20.4124
37.9697 20.3614
38.0168 20.3636
38.064 20.2776
38.1111 20.1676
38.1584 20.1355
38.2056 20.0846
38.2529 19.9681
38.3 19.9193
38.3473 19.9845
38.3945 19.8374
38.4418 19.7163
38.489 19.7706
38.5363 19.6185
38.5837 19.5506
38.6309 19.4911
38.6782 19.4857
38.7254 19.3585
38.7728 19.3066
38.82 19.2077
38.8674 19.2049
38.9146 19.1917
38.9621 19.0164
39.0093 18.9981
39.0567 18.9313
39.104 18.8741
39.1514 18.8512
39.1987 18.8132
39.2461 18.7616
39.2934 18.6888
39.3409 18.5422
39.3882 18.4947
39.4356 18.4897
39.483 18.4362
39.5304 18.3738
39.5778 18.3311
39.6253 18.2674
39.6726 18.0975
39.7201 18.2112
39.7675 18.099
39.815 18.0231
39.8624 17.9558
39.9099 17.9637
39.9575 17.8361
40.0049 17.8055
40.0525 17.6989
40.0999 17.636
40.1474 17.6326
40.1949 17.5833
40.2425 17.4832
40.2899 17.4756
40.3375 17.4048
40.385 17.2933
40.4326 17.3015
40.48 17.1682
40.5277 17.2066
40.5752 17.1557
40.6228 17.0282
40.6703 17.0207
40.718 16.9796
40.7655 16.8819
40.8132 16.8597
40.8607 16.8112
40.9084 16.8107
40.9559 16.7115
41.0036 16.691
41.0512 16.5893
41.0989 16.5306
41.1465 16.488
41.1942 16.4009
41.242 16.3944
41.2896 16.3162
41.3373 16.2883
41.3849 16.1945
41.4327 16.1301
41.4803 16.0479
41.5281 16.0502
41.5758 15.966
41.6236 15.9212
41.6712 15.8696
41.7191 15.8052
41.7667 15.8291
41.8146 15.7565
41.8622 15.7022
41.9101 15.6403
41.9578 15.5693
42.0057 15.439
42.0534 15.4889
42.1013 15.3641
42.149 15.3317
42.1969 15.266
42.2446 15.2754
42.2925 15.2106
42.3403 15.1079
42.3882 15.1283
42.436 15.0245
42.4839 15.0285
42.5319 14.9322
42.5797 14.9587
42.6277 14.8008
42.6755 14.7749
42.7235 14.7552
42.7713 14.6633
42.8193 14.6457
42.8671 14.5872
42.9152 14.5431
42.963 14.5535
43.0111 14.4263
43.0589 14.368
43.107 14.3366
43.1549 14.3046
43.2029 14.1994
43.2508 14.2142
43.2989 14.1455
43.3468 14.1079
43.3949 14.0437
43.4429 14.0274
43.491 13.9613
43.5389 13.8809
43.5871 13.8254
43.635 13.7918
43.6832 13.7524
43.7312 13.6893
43.7793 13.6874
43.8273 13.571
43.8755 13.5889
43.9237 13.5494
43.9717 13.5102
44.0199 13.4315
44.068 13.4202
44.1162 13.3235
44.1642 13.3065
44.2125 13.3032
44.2606 13.1754
44.3088 13.16
44.3569 13.1375
44.4052 13.0772
44.4533 13.0367
44.5016 12.9705
44.5497 12.9355
44.598 12.8877
44.6461 12.8529
44.6945 12.7688
44.7426 12.7613
44.791 12.6687
44.8391 12.7026
44.8875 12.6026
44.9357 12.5843
44.984 12.5431
45.0322 12.4096
45.0806 12.4078
45.1288 12.3919
45.1773 12.3588
45.2257 12.3079
45.2739 12.2691
45.3224 12.2429
45.3706 12.202
45.4191 12.1017
45.4673 12.1088
45.5158 12.0506
45.5641 12.001
45.6126 11.9839
45.6609 11.9062
45.7094 11.821
45.7577 11.8053
45.8063 11.7407
45.8546 11.7459
45.9031 11.6653
45.9515 11.6857
46.0001 11.5831
46.0484 11.5761
46.097 11.5931
46.1454 11.522
46.194 11.4933
46.2424 11.3872
46.291 11.3757
46.3395 11.3473
46.3881 11.2587
46.4365 11.2625
46.4852 11.2185
46.5337 11.1778
46.5823 11.1585
46.631 11.0808
46.6795 11.0647
46.7282 11.0062
46.7767 10.9765
46.8254 10.9379
46.8739 10.8621
46.9226 10.8327
46.9712 10.7896
47.0199 10.7759
47.0685 10.7345
47.1173 10.7092
47.1658 10.6294
47.2146 10.6072
47.2632 10.5688
47.312 10.5625
47.3606 10.4776
47.4095 10.4588
47.4581 10.4109
47.5069 10.3572
47.5556 10.3201
47.6044 10.3182
47.6531 10.2511
47.702 10.1795
47.7507 10.1837
47.7996 10.1317
47.8483 10.1004
47.8972 10.0893
47.9461 10.053
47.9948 9.98451
48.0438 9.94814
48.0925 9.94229
48.1415 9.88959
48.1902 9.8381
48.2392 9.82857
48.288 9.79215
48.337 9.74473
48.3858 9.75172
48.4348 9.69752
48.4837 9.65783
48.5327 9.61525
48.5815 9.6085
48.6306 9.54932
48.6795 9.49455
48.7285 9.45202
48.7774 9.41684
48.8265 9.412
48.8754 9.3596
48.9245 9.32834
48.9734 9.31881
49.0226 9.28242
49.0715 9.20182
49.1206 9.17698
49.1696 9.12327
49.2188 9.13806
49.2679 9.08428
49.3169 9.03758
49.3661 9.05517
49.4151 8.93598
49.4643 8.97345
49.5134 8.92006
49.5626 8.85376
49.6117 8.83923
49.6609 8.80482
49.71 8.73874
49.7592 8.73694
49.8083 8.68609
49.8576 8.69007
49.9067 8.60845
49.956 8.63022
50.0052 8.54608
50.0545 8.55111
50.1036 8.51039
50.153 8.48049
50.2022 8.44958
50.2515 8.43077
50.3007 8.34904
50.3501 8.31791
50.3993 8.34719
50.4487 8.28873
50.498 8.21322
50.5474 8.23798
50.5966 8.15048
50.6461 8.16913
50.6955 8.15229
50.7448 8.08554
50.7943 8.0434
50.8436 7.97592
50.8931 7.95529
50.9424 7.92437
50.9919 7.92883
51.0413 7.89191
51.0908 7.88684
51.1402 7.8517
51.1897 7.78062
51.2391 7.79355
51.2887 7.73838
51.3381 7.71819
51.3877 7.65747
51.4371 7.6674
51.4867 7.61806
51.5362 7.60549
51.5858 7.57772
51.6353 7.52769
51.6849 7.50425
51.7344 7.46867
51.7841 7.44592
51.8336 7.41924
51.8833 7.37124
51.9328 7.34333
51.9826 7.31863
52.0323 7.27259
52.0818 7.23084
52.1316 7.17764
52.1812 7.22038
52.231 7.16931
52.2806 7.12657
52.3304 7.10394
52.38 7.04123
52.4298 7.08842
52.4794 6.9974
52.5293 6.9771
52.5789 6.95444
52.6288 6.94569
52.6785 6.93287
52.7284 6.93294
52.7781 6.84286
52.828 6.81383
52.8777 6.78426
52.9276 6.76541
52.9774 6.72934
53.0273 6.69861
53.0771 6.65412
53.1271 6.65028
53.1769 6.60293
53.2269 6.62361
53.2767 6.54029
53.3267 6.52979
53.3765 6.49726
53.4266 6.46879
53.4766 6.45247
53.5265 6.43962
53.5765 6.43364
53.6264 6.37951
53.6765 6.32432
53.7264 6.2755
53.7765 6.31037
53.8265 6.21368
53.8766 6.23231
53.9266 6.20844
53.9767 6.18465
54.0267 6.16792
54.0769 6.09588
54.1269 6.06654
54.1771 6.051
54.2271 6.05908
54.2773 6.01065
54.3274 5.99542
54.3776 5.92627
54.4277 5.94469
54.478 5.89638
54.528 5.8573
54.5783 5.83671
54.6285 5.74049
54.6788 5.71917
54.7289 5.67086
54.7792 5.61342
54.8296 5.60495
54.8798 5.55099
54.9301 5.5229
54.9803 5.47415
55.0307 5.47272
55.0809 5.43332
55.1314 5.3907
55.1816 5.28254
55.232 5.24197
55.2823 5.27666
55.3328 5.23614
55.383 5.10257
55.4335 5.09355
55.4838 5.0294
55.5344 4.98517
55.5847 4.94066
55.6352 4.91965
55.6856 4.87276
55.7361 4.8644