File: XRD/Ni3Fe_FD0889.xy
TT I
1.27165 7.2675
1.31627 6.72036
1.36089 5.73828
1.40551 5.91475
1.45013 5.96037
1.49476 5.46222
1.53938 5.75679
1.584 5.21443
1.62863 5.59911
1.67325 5.1189
1.71787 5.74482
1.7625 4.70078
1.80712 4.70814
1.85174 4.47771
1.89636 5.08705
1.94099 4.59566
1.98562 4.63538
2.03025 4.55962
2.07487 4.38079
2.11949 5.06191
2.16411 4.92345
2.20874 16.0215
2.25338 26.243
2.298 6.70354
2.34263 5.59155
2.38725 6.54263
2.43188 6.64055
2.4765 7.4342
2.52115 7.58621
2.56577 7.5405
2.6104 8.93339
2.65503 7.62456
2.69965 7.92366
2.7443 8.72644
2.78893 8.71904
2.83356 8.30452
2.87818 8.68684
2.92281 9.32784
2.96744 9.06146
3.01209 10.8387
3.05672 11.1338
3.10135 12.7027
3.14599 13.5821
3.19062 14.4123
3.23527 14.7677
3.2799 15.8002
3.32454 16.7285
3.36917 17.5513
3.4138 19.0881
3.45844 19.3151
3.50309 20.9274
3.54773 22.0212
3.59237 24.1511
3.637 103.879
3.68164 66.2407
3.7263 26.8867
3.77094 26.1631
3.81558 26.2379
3.86022 27.4418
3.90486 28.6678
3.9495 29.7677
3.99416 30.6037
4.0388 31.7981
4.08344 33.518
4.12809 34.7271
4.17273 37.08
4.21738 42.9052
4.26204 282.43
4.30669 255.11
4.35133 49.4481
4.39598 44.2219
4.44063 54.835
4.4853 68.872
4.52995 49.732
4.5746 51.0655
4.61925 52.2096
4.6639 54.1953
4.70855 56.8432
4.75322 60.1113
4.79788 62.2988
4.84253 65.6286
4.88719 70.1084
4.93184 73.4653
4.97652 78.3278
5.02118 84.9137
5.06583 91.5058
5.11049 101.589
5.15515 172.905
5.19981 283.403
5.24449 2331.91
5.28916 13348.8
5.33382 2897.51
5.37848 176.848
5.42315 124.358
5.46783 110.342
5.5125 102.66
5.55716 99.4851
5.60183 96.1861
5.6465 94.4287
5.69117 91.8351
5.73586 89.9737
5.78053 89.2017
5.8252 88.2176
5.86988 88.8705
5.91455 90.4061
5.95924 96.2747
6.00392 165.503
6.0486 806.102
6.09328 4353.24
6.13795 3204.58
6.18263 224.261
6.22733 89.8934
6.27201 81.1464
6.3167 104.945
6.36138 80.9766
6.40606 68.038
6.45075 66.5522
6.49545 64.0692
6.54014 62.9458
6.58483 62.1535
6.62952 62.2823
6.67421 98.0045
6.71892 158.264
6.76361 70.2561
6.8083 57.6397
6.853 56.6774
6.89769 56.1558
6.94239 55.9906
6.98711 55.2457
7.03181 54.7277
7.07651 54.806
7.12121 54.3538
7.16591 54.6428
7.21063 55.1778
7.25533 72.1712
7.30004 201.281
7.34475 98.3536
7.38945 56.4765
7.43416 53.85
7.47889 53.9005
7.5236 54.3748
7.56831 54.6676
7.61303 56.7498
7.65774 57.4312
7.70247 55.8115
7.74719 55.4904
7.79191 55.7009
7.83663 56.0694
7.88135 56.8133
7.92607 57.7701
7.97081 58.6427
8.01553 59.776
8.06026 61.1708
8.10498 62.6511
8.14971 73.2405
8.19446 72.3973
8.23919 67.9554
8.28392 70.2794
8.32865 72.4586
8.37339 76.5203
8.41812 83.5222
8.46288 113.867
8.50761 141.919
8.55235 323.597
8.59709 1103.57
8.64183 2297.72
8.68658 983.578
8.73134 160.527
8.77609 96.8678
8.82083 90.3215
8.86558 87.3263
8.91033 88.5545
8.9551 91.0347
8.99985 83.9938
9.04461 81.651
9.08936 81.3926
9.13412 80.3005
9.17888 80.6277
9.22365 81.5288
9.26841 80.4805
9.31318 81.0343
9.35794 80.6654
9.4027 81.0962
9.44749 82.3343
9.49226 82.9092
9.53703 83.6607
9.5818 85.3642
9.62657 90.5726
9.67134 98.3412
9.71614 92.0744
9.76091 92.1422
9.80569 93.9869
9.85047 97.79
9.89525 124.542
9.94005 137.508
9.98484 152.953
10.0296 290.497
10.0744 734.999
10.1192 1788.85
10.164 1620.38
10.2088 395.906
10.2536 122.056
10.2984 111.76
10.3432 114.222
10.388 102.336
10.4328 110.12
10.4776 145.279
10.5224 262.211
10.5672 521.178
10.612 509.9
10.6568 194.402
10.7017 94.6339
10.7465 84.8366
10.7913 81.5417
10.8361 79.2773
10.8809 77.3847
10.9257 77.5606
10.9706 78.0586
11.0154 73.7413
11.0602 71.3485
11.105 70.6574
11.1499 75.7523
11.1947 85.011
11.2395 74.5505
11.2844 70.0251
11.3292 66.3453
11.374 65.1098
11.4189 64.5273
11.4637 64.221
11.5086 64.4995
11.5534 68.1081
11.5983 65.0964
11.6431 62.5109
11.688 61.964
11.7328 62.0043
11.7777 61.7843
11.8225 61.3745
11.8674 61.2907
11.9122 61.6505
11.9571 61.6904
12.002 62.1218
12.0468 64.9403
12.0917 74.3546
12.1366 96.6958
12.1814 153.059
12.2263 216.512
12.2712 169.805
12.3161 95.4808
12.3609 70.2279
12.4058 63.6429
12.4507 63.2236
12.4956 63.2928
12.5405 63.4782
12.5853 64.5213
12.6302 73.6078
12.6751 80.0619
12.72 69.7168
12.7649 66.6178
12.8098 66.862
12.8547 68.3979
12.8996 69.4751
12.9445 70.6663
12.9894 72.1851
13.0343 74.0897
13.0792 77.0001
13.1242 83.3647
13.1691 103.031
13.214 136.023
13.2589 222.279
13.3038 374.725
13.3487 437.441
13.3937 259.969
13.4386 121.895
13.4835 99.7507
13.5285 111.074
13.5734 146.168
13.6183 239.646
13.6633 357.765
13.7082 349.592
13.7531 180.869
13.7981 94.3637
13.843 80.0114
13.888 77.7621
13.9329 75.4492
13.9779 74.4493
14.0228 72.9969
14.0678 71.316
14.1127 71.2919
14.1577 71.2815
14.2027 70.234
14.2476 68.9669
14.2926 69.4209
14.3376 70.8594
14.3825 69.2244
14.4275 67.3528
14.4725 67.6324
14.5175 67.461
14.5624 67.8263
14.6074 70.0282
14.6524 70.8093
14.6974 68.9117
14.7424 69.7752
14.7874 74.5955
14.8324 83.3857
14.8774 103.838
14.9224 148.039
14.9674 214.643
15.0124 222.408
15.0574 146.322
15.1024 88.1758
15.1474 70.8804
15.1924 69.1652
15.2374 70.2189
15.2824 69.5199
15.3274 67.0897
15.3725 65.4382
15.4175 65.0968
15.4625 64.6642
15.5076 65.2789
15.5526 65.0151
15.5976 64.5266
15.6426 64.665
15.6877 68.8058
15.7327 75.4037
15.7778 89.5074
15.8228 120.701
15.8679 170.783
15.9129 200.425
15.958 156.455
16.003 93.1184
16.0481 66.5553
16.0931 64.0037
16.1382 62.0764
16.1833 59.6379
16.2283 57.8829
16.2734 57.3998
16.3185 57.8281
16.3636 58.7882
16.4086 57.3311
16.4537 55.2605
16.4988 54.5611
16.5439 54.4236
16.589 54.2247
16.6341 53.9704
16.6792 53.6274
16.7243 53.8476
16.7694 54.0559
16.8145 53.9613
16.8596 54.439
16.9047 56.0206
16.9498 56.3918
16.9949 54.9981
17.04 54.6631
17.0851 55.5246
17.1302 56.9975
17.1754 59.7354
17.2205 64.5779
17.2656 72.9446
17.3108 83.0579
17.3559 81.4152
17.401 68.9758
17.4462 60.4132
17.4913 57.8359
17.5365 58.1573
17.5815 58.1136
17.6268 58.4551
17.6718 59.2872
17.7171 59.6375
17.7622 60.0591
17.8074 60.3173
17.8525 62.214
17.8977 65.6852
17.9428 70.2411
17.9881 78.7144
18.0331 96.3728
18.0784 121.704
18.1237 140.443
18.1688 129.375
18.214 99.7448
18.2591 83.4691
18.3044 88.527
18.3495 100.369
18.3948 107.283
18.4399 95.4008
18.4852 75.6714
18.5303 64.7313
18.5756 61.165
18.6207 60.1488
18.666 59.4556
18.7112 58.6164
18.7565 57.9056
18.8016 57.5089
18.8469 57.1053
18.892 56.6675
18.9374 56.3177
18.9825 55.8937
19.0278 56.0144
19.073 55.8407
19.1183 56.1091
19.1635 56.9643
19.2088 58.2847
19.254 60.4905
19.2993 65.0993
19.3447 72.2037
19.3898 76.8349
19.4352 71.4033
19.4804 61.9433
19.5257 55.6305
19.5709 53.2976
19.6163 53.016
19.6615 52.7254
19.7068 52.4361
19.752 52.2927
19.7974 52.5161
19.8426 53.2639
19.888 53.932
19.9332 54.8342
19.9786 57.3298
20.0238 60.8657
20.0692 66.6144
20.1144 69.2092
20.1598 67.1744
20.205 61.9941
20.2504 60.9099
20.2957 63.509
20.3411 65.5798
20.3863 63.3871
20.4318 57.3442
20.477 52.8803
20.5224 51.0074
20.5677 50.359
20.6131 49.5586
20.6586 48.9006
20.7038 48.5546
20.7493 48.1797
20.7945 48.1611
20.84 47.9186
20.8853 47.8409
20.9307 47.6727
20.976 47.9096
21.0215 47.6015
21.0668 48.1555
21.1122 48.5124
21.1575 49.3574
21.203 50.2622
21.2483 50.9151
21.2938 50.5647
21.3391 49.2768
21.3846 48.0029
21.4299 47.4242
21.4754 47.5799
21.5207 47.525
21.5662 47.8567
21.6116 47.9861
21.6571 48.6173
21.7024 49.4575
21.7479 51.137
21.7933 54.0306
21.8388 57.891
21.8843 62.5932
21.9297 64.4119
21.9752 62.3827
22.0206 58.3655
22.0661 55.554
22.1115 55.4218
22.157 55.3539
22.2024 53.333
22.248 50.3876
22.2933 48.9911
22.3389 48.4063
22.3843 48.1778
22.4299 48.2697
22.4753 48.1441
22.5208 47.7648
22.5662 47.6737
22.6118 47.7929
22.6572 47.8843
22.7028 48.3018
22.7483 48.6531
22.7939 49.3001
22.8393 50.8862
22.8849 52.9258
22.9303 55.4916
22.9759 57.3311
23.0214 56.7514
23.067 53.6129
23.1126 50.2274
23.1581 48.4012
23.2037 47.874
23.2492 47.9278
23.2948 47.7914
23.3403 48.1175
23.3859 48.7841
23.4314 49.6864
23.477 51.6472
23.5225 54.1127
23.5682 56.7737
23.6137 57.8683
23.6593 54.9478
23.7048 50.8209
23.7505 47.6563
23.796 46.0222
23.8417 45.3014
23.8872 44.8596
23.9329 44.6668
23.9784 44.0682
24.0241 44.0273
24.0697 43.6909
24.1154 43.5914
24.1609 43.3222
24.2066 43.0778
24.2522 43.0202
24.2979 42.8527
24.3434 42.5247
24.3892 42.5352
24.4349 42.4976
24.4805 42.3659
24.5262 42.4274
24.5718 42.4656
24.6175 42.4166
24.6631 42.2347
24.7089 41.7642
24.7545 41.7363
24.8002 41.5205
24.8458 41.5146
24.8916 41.4865
24.9372 41.4481
24.983 41.8887
25.0286 42.1375
25.0744 42.5003
25.12 43.1965
25.1658 43.7924
25.2114 44.0593
25.2572 44.0123
25.3029 44.3223
25.3487 44.4345
25.3943 43.9394
25.4402 42.861
25.4858 41.698
25.5316 40.741
25.5773 40.1785
25.6231 40.2403
25.669 40.0037
25.7147 39.9457
25.7605 39.6647
25.8062 39.8811
25.8521 39.9907
25.8977 39.9178
25.9436 40.0892
25.9893 40.321
26.0352 40.8769
26.0809 41.0139
26.1268 41.1985
26.1725 40.7322
26.2184 40.1093
26.2641 39.5693
26.31 39.4404
26.3557 39.4837
26.4017 39.4537
26.4474 39.7571
26.4933 40.1033
26.5391 40.5242
26.585 41.1002
26.6308 41.6035
26.6767 41.5253
26.7225 41.3808
26.7684 40.9325
26.8142 40.3805
26.8601 39.9123
26.9059 39.4271
26.9519 38.89
26.9979 38.5164
27.0437 38.0688
27.0896 38.0347
27.1354 38.1351
27.1814 38.018
27.2272 37.9791
27.2732 37.9509
27.3191 37.6319
27.3651 37.8879
27.4109 37.79
27.4569 37.9376
27.5027 38.063
27.5488 38.0233
27.5946 37.8144
27.6407 37.5142
27.6865 37.442
27.7326 37.2462
27.7784 37.3445
27.8245 37.2207
27.8703 37.3907
27.9164 37.5791
27.9623 37.815
28.0084 38.2221
28.0543 38.5909
28.1003 38.4211
28.1462 38.0934
28.1923 37.8922
28.2384 37.3988
28.2843 37.2059
28.3304 36.5418
28.3764 36.0791
28.4225 35.8852
28.4684 35.7972
28.5145 35.3455
28.5605 35.3758
28.6066 35.1404
28.6526 35.1354
28.6987 35.1833
28.7447 34.8649
28.7908 34.9204
28.8368 35.0624
28.8829 34.9497
28.9289 34.8777
28.9751 34.6366
29.0211 34.3228
29.0673 34.1977
29.1133 34.0268
29.1595 33.946
29.2055 33.8404
29.2517 33.7987
29.2977 33.8679
29.3439 33.75
29.3899 33.8324
29.4361 33.6977
29.4824 33.3898
29.5284 33.1289
29.5746 32.9232
29.6207 32.6679
29.6669 32.5478
29.713 32.4279
29.7593 32.3506
29.8053 32.4458
29.8516 32.3302
29.8977 32.3807
29.9439 32.1078
29.99 32.0931
30.0363 31.86
30.0824 32.0293
30.1287 31.9951
30.1748 31.9485
30.2211 31.9377
30.2673 31.8134
30.3136 31.8469
30.3597 31.7555
30.406 31.6408
30.4522 31.5077
30.4985 31.5123
30.5447 31.7118
30.591 31.6219
30.6372 31.6989
30.6835 31.7362
30.7297 31.7654
30.7761 31.7366
30.8224 31.4844
30.8686 31.3913
30.915 31.1167
30.9612 30.9712
31.0076 30.8795
31.0538 30.6438
31.1002 30.728
31.1464 30.5052
31.1928 30.4355
31.2391 30.5277
31.2855 30.3299
31.3317 30.4789
31.3781 30.5044
31.4244 30.3839
31.4708 30.3842
31.5171 30.2946
31.5636 30.3046
31.6098 29.9731
31.6563 29.8911
31.7026 29.7425
31.7491 29.594
31.7953 29.7111
31.8418 29.7301
31.8881 29.7167
31.9346 29.6077
31.9809 29.5516
32.0275 29.4723
32.074 29.4415
32.1203 29.1836
32.1668 28.9625
32.2132 28.8648
32.2597 28.7882
32.306 28.7635
32.3526 28.4851
32.399 28.54
32.4455 28.3771
32.4919 28.1726
32.5385 28.1657
32.5848 28.1072
32.6314 28.032
32.6778 27.8355
32.7244 27.8359
32.7708 27.6453
32.8174 27.6538
32.8638 27.5911
32.9104 27.6591
32.9569 27.6368
33.0035 27.3463
33.0499 27.3512
33.0966 27.3863
33.143 27.4429
33.1897 27.334
33.2361 27.218
33.2828 27.1713
33.3293 26.9683
33.3759 26.9597
33.4226 26.7902
33.4691 26.8106
33.5158 26.6108
33.5623 26.4944
33.609 26.3149
33.6555 26.2409
33.7022 26.1478
33.7487 26.1625
33.7954 26.1385
33.842 25.9235
33.8887 25.9411
33.9353 25.9078
33.982 25.7245
34.0286 25.6437
34.0753 25.6727
34.1219 25.5294
34.1687 25.4379
34.2152 25.3914
34.262 25.2813
34.3086 25.1743
34.3554 25.087
34.402 24.9839
34.4488 24.8562
34.4954 24.8997
34.5422 24.8391
34.5889 24.7498
34.6357 24.5526
34.6825 24.5503
34.7292 24.4393
34.776 24.2803
34.8227 24.2976
34.8695 24.2583
34.9162 24.2829
34.9631 24.1453
35.0098 24.1233
35.0566 23.978
35.1033 23.8975
35.1502 23.8471
35.1969 23.7924
35.2438 23.7708
35.2906 23.6722
35.3375 23.6497
35.3842 23.6207
35.4311 23.6811
35.4779 23.6602
35.5248 23.5039
35.5716 23.4333
35.6185 23.373
35.6653 23.2825
35.7123 23.1939
35.759 23.1
35.806 22.9798
35.8528 22.9193
35.8998 22.8469
35.9468 22.7492
35.9936 22.7831
36.0406 22.6697
36.0874 22.6932
36.1345 22.6039
36.1813 22.5043
36.2283 22.3634
36.2752 22.3194
36.3222 22.2734
36.3691 22.2184
36.4161 22.1699
36.463 22.1677
36.5101 22.0889
36.557 21.9786
36.6041 21.9141
36.651 21.8477
36.6981 21.7583
36.745 21.7542
36.7921 21.6039
36.839 21.5566
36.8861 21.4333
36.9331 21.4082
36.9802 21.3738
37.0272 21.3156
37.0743 21.2115
37.1213 21.1229
37.1684 21.0788
37.2154 21.0676
37.2626 20.9777
37.3098 20.9449
37.3568 20.8516
37.404 20.726
37.451 20.6544
37.4982 20.6799
37.5452 20.5467
37.5924 20.5044
37.6395 20.5455
37.6867 20.3884
37.7337 20.3018
37.781 20.3141
37.8281 20.2105
37.8753 20.1217
37.9224 20.0379
37.9697 19.9791
38.0168 19.9243
38.064 19.8504
38.1111 19.8315
38.1584 19.7117
38.2056 19.6655
38.2529 19.6845
38.3 19.5399
38.3473 19.5046
38.3945 19.3459
38.4418 19.4245
38.489 19.2529
38.5363 19.272
38.5837 19.1419
38.6309 19.0985
38.6782 19.0173
38.7254 18.9378
38.7728 18.9549
38.82 18.8561
38.8674 18.8403
38.9146 18.7629
38.9621 18.72
39.0093 18.7131
39.0567 18.594
39.104 18.5162
39.1514 18.4284
39.1987 18.4081
39.2461 18.3913
39.2934 18.3381
39.3409 18.196
39.3882 18.1466
39.4356 18.1205
39.483 18.0645
39.5304 18.0026
39.5778 17.9493
39.6253 17.8542
39.6726 17.7892
39.7201 17.7872
39.7675 17.6977
39.815 17.6301
39.8624 17.6005
39.9099 17.5481
39.9575 17.4859
40.0049 17.4619
40.0525 17.4121
40.0999 17.3367
40.1474 17.2681
40.1949 17.208
40.2425 17.2045
40.2899 17.1027
40.3375 17.0459
40.385 17.0515
40.4326 16.9618
40.48 16.8655
40.5277 16.873
40.5752 16.7839
40.6228 16.6572
40.6703 16.6401
40.718 16.6657
40.7655 16.6098
40.8132 16.6051
40.8607 16.4903
40.9084 16.4383
40.9559 16.3894
41.0036 16.334
41.0512 16.2636
41.0989 16.2606
41.1465 16.2261
41.1942 16.0979
41.242 16.0692
41.2896 16.0145
41.3373 15.9587
41.3849 15.9121
41.4327 15.8418
41.4803 15.7852
41.5281 15.7944
41.5758 15.6638
41.6236 15.6863
41.6712 15.5954
41.7191 15.4962
41.7667 15.4994
41.8146 15.4594
41.8622 15.4349
41.9101 15.3258
41.9578 15.2073
42.0057 15.1877
42.0534 15.1502
42.1013 15.1304
42.149 15.097
42.1969 15.0221
42.2446 14.9437
42.2925 14.9463
42.3403 14.8737
42.3882 14.8499
42.436 14.7993
42.4839 14.7317
42.5319 14.6656
42.5797 14.565
42.6277 14.5345
42.6755 14.5263
42.7235 14.4448
42.7713 14.4154
42.8193 14.4213
42.8671 14.2869
42.9152 14.2952
42.963 14.2233
43.0111 14.1386
43.0589 14.1178
43.107 14.0578
43.1549 14.0385
43.2029 13.9399
43.2508 13.976
43.2989 13.9035
43.3468 13.8188
43.3949 13.7797
43.4429 13.7275
43.491 13.6593
43.5389 13.6485
43.5871 13.6487
43.635 13.574
43.6832 13.5315
43.7312 13.4809
43.7793 13.3906
43.8273 13.3809
43.8755 13.2864
43.9237 13.2801
43.9717 13.2409
44.0199 13.2123
44.068 13.1376
44.1162 13.0939
44.1642 13.0765
44.2125 13.0237
44.2606 12.9509
44.3088 12.9246
44.3569 12.9096
44.4052 12.8552
44.4533 12.7738
44.5016 12.6641
44.5497 12.6832
44.598 12.6591
44.6461 12.575
44.6945 12.5365
44.7426 12.5221
44.791 12.4537
44.8391 12.4374
44.8875 12.3697
44.9357 12.3541
44.984 12.3224
45.0322 12.2911
45.0806 12.221
45.1288 12.151
45.1773 12.1286
45.2257 12.0922
45.2739 12.0346
45.3224 11.9778
45.3706 11.942
45.4191 11.9107
45.4673 11.8828
45.5158 11.7806
45.5641 11.7854
45.6126 11.7052
45.6609 11.7117
45.7094 11.6228
45.7577 11.6308
45.8063 11.5609
45.8546 11.5897
45.9031 11.4738
45.9515 11.4271
46.0001 11.3861
46.0484 11.3456
46.097 11.3505
46.1454 11.2912
46.194 11.3035
46.2424 11.2329
46.291 11.1883
46.3395 11.1523
46.3881 11.0591
46.4365 11.0494
46.4852 10.9767
46.5337 10.9794
46.5823 10.9237
46.631 10.8614
46.6795 10.839
46.7282 10.8347
46.7767 10.7553
46.8254 10.7168
46.8739 10.69
46.9226 10.6734
46.9712 10.5838
47.0199 10.5567
47.0685 10.5157
47.1173 10.5096
47.1658 10.4545
47.2146 10.435
47.2632 10.3296
47.312 10.3522
47.3606 10.2776
47.4095 10.2207
47.4581 10.2283
47.5069 10.1618
47.5556 10.0982
47.6044 10.096
47.6531 10.0986
47.702 10.0241
47.7507 10.0023
47.7996 9.97235
47.8483 9.91748
47.8972 9.87266
47.9461 9.85463
47.9948 9.8314
48.0438 9.83672
48.0925 9.75476
48.1415 9.72865
48.1902 9.68722
48.2392 9.66226
48.288 9.60077
48.337 9.58391
48.3858 9.54037
48.4348 9.51117
48.4837 9.46891
48.5327 9.44016
48.5815 9.42461
48.6306 9.37251
48.6795 9.30891
48.7285 9.3063
48.7774 9.2552
48.8265 9.24864
48.8754 9.21395
48.9245 9.17301
48.9734 9.11863
49.0226 9.09899
49.0715 9.0761
49.1206 9.00021
49.1696 8.99558
49.2188 8.96853
49.2679 8.92106
49.3169 8.90401
49.3661 8.84869
49.4151 8.84872
49.4643 8.76611
49.5134 8.77668
49.5626 8.66749
49.6117 8.68003
49.6609 8.6632
49.71 8.57423
49.7592 8.57145
49.8083 8.5309
49.8576 8.53073
49.9067 8.48024
49.956 8.46386
50.0052 8.41937
50.0545 8.4099
50.1036 8.40121
50.153 8.32784
50.2022 8.27317
50.2515 8.23978
50.3007 8.2201
50.3501 8.1755
50.3993 8.13471
50.4487 8.14389
50.498 8.11242
50.5474 8.05628
50.5966 8.02735
50.6461 8.00329
50.6955 7.96827
50.7448 7.96311
50.7943 7.9385
50.8436 7.85684
50.8931 7.86082
50.9424 7.80965
50.9919 7.81813
51.0413 7.78001
51.0908 7.74354
51.1402 7.72691
51.1897 7.67427
51.2391 7.66188
51.2887 7.62934
51.3381 7.56304
51.3877 7.55712
51.4371 7.45714
51.4867 7.49242
51.5362 7.4584
51.5858 7.4201
51.6353 7.35049
51.6849 7.36742
51.7344 7.36346
51.7841 7.31259
51.8336 7.26899
51.8833 7.24823
51.9328 7.19046
51.9826 7.15801
52.0323 7.14721
52.0818 7.0648
52.1316 7.06105
52.1812 7.08852
52.231 7.06229
52.2806 7.00989
52.3304 6.99128
52.38 6.92884
52.4298 6.89566
52.4794 6.8944
52.5293 6.84403
52.5789 6.84759
52.6288 6.813
52.6785 6.76672
52.7284 6.72907
52.7781 6.71661
52.828 6.69502
52.8777 6.66377
52.9276 6.62592
52.9774 6.6356
53.0273 6.56914
53.0771 6.57898
53.1271 6.54434
53.1769 6.44526
53.2269 6.5089
53.2767 6.41969
53.3267 6.39334
53.3765 6.37143
53.4266 6.39203
53.4766 6.33204
53.5265 6.32143
53.5765 6.31985
53.6264 6.28782
53.6765 6.23761
53.7264 6.19921
53.7765 6.16494
53.8265 6.14379
53.8766 6.11726
53.9266 6.08497
53.9767 6.06014
54.0267 6.08132
54.0769 6.02573
54.1269 5.97007
54.1771 5.92332
54.2271 5.92624
54.2773 5.86077
54.3274 5.87953
54.3776 5.84824
54.4277 5.76576
54.478 5.74605
54.528 5.77032
54.5783 5.66771
54.6285 5.623
54.6788 5.62262
54.7289 5.54155
54.7792 5.55332
54.8296 5.463
54.8798 5.41198
54.9301 5.37839
54.9803 5.39302
55.0307 5.32845
55.0809 5.34387
55.1314 5.26236
55.1816 5.25373
55.232 5.1471
55.2823 5.14528
55.3328 5.07764
55.383 5.03041
55.4335 5.01348
55.4838 4.94687
55.5344 4.89351
55.5847 4.85653
55.6352 4.84886
55.6856 4.80775
55.7361 4.76281