File: XRD/Ni3Fe_FD0766.xy
TT I
1.27165 7.09308
1.31627 6.39509
1.36089 6.93222
1.40551 6.00812
1.45013 5.81306
1.49476 6.54825
1.53938 6.1112
1.584 5.62451
1.62863 5.4717
1.67325 5.08684
1.71787 5.37092
1.7625 4.84912
1.80712 5.3111
1.85174 4.95787
1.89636 4.95411
1.94099 5.31379
1.98562 4.7664
2.03025 5.14679
2.07487 5.05628
2.11949 5.37097
2.16411 4.6813
2.20874 16.7156
2.25338 28.5723
2.298 6.60675
2.34263 5.27926
2.38725 6.44546
2.43188 6.18404
2.4765 7.50008
2.52115 6.6649
2.56577 7.14014
2.6104 8.67642
2.65503 7.666
2.69965 8.11727
2.7443 8.43993
2.78893 8.32306
2.83356 7.96365
2.87818 8.92551
2.92281 8.978
2.96744 9.64797
3.01209 10.5552
3.05672 11.3797
3.10135 12.1483
3.14599 12.9474
3.19062 14.1258
3.23527 14.9729
3.2799 15.6789
3.32454 16.4088
3.36917 17.7112
3.4138 18.9986
3.45844 19.9273
3.50309 21.0443
3.54773 21.6739
3.59237 24.7224
3.637 111.12
3.68164 70.6476
3.7263 26.311
3.77094 26.3645
3.81558 26.8601
3.86022 27.5093
3.90486 29.0894
3.9495 29.7575
3.99416 30.8901
4.0388 32.8979
4.08344 33.9787
4.12809 34.8199
4.17273 37.4086
4.21738 44.2535
4.26204 298.525
4.30669 274.826
4.35133 50.2226
4.39598 44.8438
4.44063 56.2713
4.4853 71.6466
4.52995 50.4064
4.5746 50.5311
4.61925 52.6396
4.6639 54.8556
4.70855 57.4841
4.75322 60.607
4.79788 63.1243
4.84253 66.0935
4.88719 69.9077
4.93184 73.8676
4.97652 79.4331
5.02118 84.9439
5.06583 91.9718
5.11049 102.986
5.15515 180.169
5.19981 300.669
5.24449 2384.26
5.28916 12982.8
5.33382 3105.74
5.37848 189.255
5.42315 127.991
5.46783 112.184
5.5125 104.242
5.55716 100.265
5.60183 97.3879
5.6465 95.4693
5.69117 92.7594
5.73586 90.7542
5.78053 89.803
5.8252 89.2237
5.86988 90.0616
5.91455 91.7096
5.95924 97.6865
6.00392 177.056
6.0486 822.78
6.09328 4217.74
6.13795 3316.71
6.18263 252.842
6.22733 92.5186
6.27201 82.8471
6.3167 108.789
6.36138 83.4994
6.40606 68.4817
6.45075 66.9034
6.49545 64.9964
6.54014 63.5278
6.58483 63.0702
6.62952 62.6252
6.67421 100.125
6.71892 169.279
6.76361 72.1666
6.8083 58.6496
6.853 57.0814
6.89769 56.9714
6.94239 56.3237
6.98711 55.8461
7.03181 55.4002
7.07651 55.3158
7.12121 54.9782
7.16591 55.4728
7.21063 55.5526
7.25533 72.8286
7.30004 215.953
7.34475 104.003
7.38945 57.0321
7.43416 54.7122
7.47889 54.5758
7.5236 54.8665
7.56831 55.2061
7.61303 57.3741
7.65774 58.0439
7.70247 55.995
7.74719 55.8779
7.79191 56.2362
7.83663 56.3391
7.88135 57.2018
7.92607 58.335
7.97081 59.2077
8.01553 60.3127
8.06026 61.9005
8.10498 63.4604
8.14971 74.6275
8.19446 73.4943
8.23919 68.9378
8.28392 70.7728
8.32865 72.8494
8.37339 77.0499
8.41812 84.4708
8.46288 117.707
8.50761 148.978
8.55235 339.387
8.59709 1085.97
8.64183 2199.2
8.68658 1069.81
8.73134 170.905
8.77609 98.9216
8.82083 91.8581
8.86558 88.8515
8.91033 89.2774
8.9551 92.5609
8.99985 85.0389
9.04461 82.5109
9.08936 82.1698
9.13412 81.3902
9.17888 81.4731
9.22365 82.1651
9.26841 81.0604
9.31318 81.4285
9.35794 81.6914
9.4027 82.3496
9.44749 83.0007
9.49226 83.8218
9.53703 84.5425
9.5818 86.1989
9.62657 91.9788
9.67134 100.056
9.71614 93.1167
9.76091 92.7334
9.80569 95.2613
9.85047 98.4928
9.89525 126.772
9.94005 141.023
9.98484 158.316
10.0296 298.106
10.0744 738.036
10.1192 1724.2
10.164 1649.82
10.2088 409.923
10.2536 126.721
10.2984 113.401
10.3432 116.786
10.388 103.851
10.4328 112.043
10.4776 147.945
10.5224 262.014
10.5672 511.165
10.612 521.353
10.6568 211.416
10.7017 96.5468
10.7465 85.6084
10.7913 82.7933
10.8361 80.6059
10.8809 78.2517
10.9257 78.0313
10.9706 79.7961
11.0154 74.5962
11.0602 72.0686
11.105 71.2718
11.1499 77.1537
11.1947 87.5723
11.2395 76.3268
11.2844 70.8844
11.3292 66.903
11.374 65.5744
11.4189 65.1463
11.4637 64.5481
11.5086 65.1925
11.5534 69.0669
11.5983 66.0158
11.6431 63.3569
11.688 62.5185
11.7328 62.2271
11.7777 62.6616
11.8225 62.087
11.8674 61.9565
11.9122 62.3294
11.9571 62.3546
12.002 62.8869
12.0468 65.7663
12.0917 75.5747
12.1366 97.4462
12.1814 145.238
12.2263 208.178
12.2712 175.326
12.3161 101.746
12.3609 71.7215
12.4058 64.6959
12.4507 63.9598
12.4956 64.111
12.5405 63.9275
12.5853 65.2389
12.6302 74.4983
12.6751 82.1387
12.72 70.7123
12.7649 67.147
12.8098 67.5316
12.8547 69.1897
12.8996 70.2659
12.9445 71.2306
12.9894 72.9647
13.0343 74.8104
13.0792 77.9825
13.1242 84.5822
13.1691 105.715
13.214 138.741
13.2589 223.272
13.3038 361.303
13.3487 435.031
13.3937 281.84
13.4386 128.647
13.4835 102.01
13.5285 113.858
13.5734 148.342
13.6183 234.345
13.6633 344.651
13.7082 348.743
13.7531 192.611
13.7981 98.8372
13.843 81.3436
13.888 78.9943
13.9329 76.5025
13.9779 74.8822
14.0228 73.851
14.0678 72.3243
14.1127 71.9527
14.1577 71.8976
14.2027 71.1969
14.2476 69.5226
14.2926 70.163
14.3376 71.5985
14.3825 70.1273
14.4275 68.0881
14.4725 67.9282
14.5175 68.2829
14.5624 68.3264
14.6074 71.0919
14.6524 71.723
14.6974 69.5216
14.7424 70.4424
14.7874 75.728
14.8324 85.026
14.8774 104.864
14.9224 145.62
14.9674 202.499
15.0124 222.13
15.0574 153.068
15.1024 92.8291
15.1474 72.1695
15.1924 70.0051
15.2374 71.1772
15.2824 70.4084
15.3274 68.0273
15.3725 66.4
15.4175 65.7776
15.4625 65.5337
15.5076 65.9376
15.5526 65.9312
15.5976 64.9911
15.6426 65.5785
15.6877 69.7978
15.7327 76.7919
15.7778 90.3414
15.8228 120.41
15.8679 164.533
15.9129 194.323
15.958 159.633
16.003 99.6535
16.0481 68.5633
16.0931 64.9564
16.1382 62.8722
16.1833 60.5542
16.2283 58.7538
16.2734 58.1708
16.3185 58.5353
16.3636 59.8676
16.4086 57.9285
16.4537 55.9653
16.4988 55.2548
16.5439 55.046
16.589 54.6804
16.6341 54.5683
16.6792 54.0531
16.7243 54.5063
16.7694 54.5409
16.8145 54.5843
16.8596 55.0008
16.9047 56.9788
16.9498 57.1583
16.9949 55.4431
17.04 55.3973
17.0851 56.2259
17.1302 57.7306
17.1754 60.5718
17.2205 65.5037
17.2656 73.4264
17.3108 82.8394
17.3559 83.8186
17.401 71.3489
17.4462 61.912
17.4913 58.5861
17.5365 58.62
17.5815 58.6167
17.6268 59.0081
17.6718 59.9947
17.7171 60.6009
17.7622 60.6771
17.8074 61.1737
17.8525 62.9263
17.8977 66.4786
17.9428 71.4778
17.9881 79.7917
18.0331 95.8397
18.0784 119.076
18.1237 139.585
18.1688 132.393
18.214 104.35
18.2591 85.8172
18.3044 88.8715
18.3495 98.9746
18.3948 106.454
18.4399 97.2376
18.4852 78.3378
18.5303 66.2218
18.5756 61.8199
18.6207 60.8745
18.666 60.0362
18.7112 59.1707
18.7565 58.5435
18.8016 58.2928
18.8469 57.7074
18.892 57.3039
18.9374 56.7623
18.9825 56.5984
19.0278 56.5106
19.073 56.4459
19.1183 56.7892
19.1635 57.8174
19.2088 58.9649
19.254 61.0127
19.2993 65.2353
19.3447 72.0347
19.3898 76.9633
19.4352 72.8416
19.4804 63.2333
19.5257 56.5652
19.5709 53.8512
19.6163 53.5908
19.6615 53.2898
19.7068 52.9119
19.752 52.9006
19.7974 52.9969
19.8426 53.7497
19.888 54.4694
19.9332 55.4343
19.9786 57.7127
20.0238 61.2619
20.0692 66.4366
20.1144 69.3584
20.1598 68.0187
20.205 63.1187
20.2504 61.5143
20.2957 63.0012
20.3411 65.447
20.3863 64.3857
20.4318 58.8043
20.477 53.5703
20.5224 51.5847
20.5677 51.0298
20.6131 50.1273
20.6586 49.2985
20.7038 49.099
20.7493 48.8047
20.7945 48.7713
20.84 48.5196
20.8853 48.3998
20.9307 48.1664
20.976 48.254
21.0215 48.0582
21.0668 48.805
21.1122 48.9412
21.1575 49.5439
21.203 50.5806
21.2483 50.9802
21.2938 51.1232
21.3391 49.8814
21.3846 48.6877
21.4299 47.9665
21.4754 48.013
21.5207 48.1711
21.5662 48.2154
21.6116 48.4648
21.6571 49.1934
21.7024 50.0791
21.7479 51.6974
21.7933 54.4289
21.8388 58.0106
21.8843 62.0974
21.9297 64.3847
21.9752 63.5169
22.0206 59.6601
22.0661 56.3625
22.1115 55.6551
22.157 55.767
22.2024 54.2373
22.248 51.4274
22.2933 49.7762
22.3389 48.872
22.3843 48.7594
22.4299 48.6551
22.4753 48.7187
22.5208 48.2491
22.5662 48.137
22.6118 48.2005
22.6572 48.4545
22.7028 48.6842
22.7483 49.0586
22.7939 49.7499
22.8393 51.1761
22.8849 53.4145
22.9303 55.5569
22.9759 57.6913
23.0214 57.3642
23.067 54.6439
23.1126 50.9562
23.1581 49.0737
23.2037 48.4431
23.2492 48.3827
23.2948 48.4488
23.3403 48.4663
23.3859 49.125
23.4314 49.9602
23.477 51.8867
23.5225 54.1827
23.5682 56.5545
23.6137 57.9801
23.6593 55.8603
23.7048 51.7844
23.7505 48.2621
23.796 46.2971
23.8417 45.8426
23.8872 45.1154
23.9329 44.9308
23.9784 44.4884
24.0241 44.3547
24.0697 44.2544
24.1154 43.8379
24.1609 43.7109
24.2066 43.5651
24.2522 43.517
24.2979 43.192
24.3434 43.1308
24.3892 42.9524
24.4349 42.9036
24.4805 42.7685
24.5262 42.7102
24.5718 42.7022
24.6175 42.643
24.6631 42.6279
24.7089 42.2233
24.7545 42.2441
24.8002 41.9866
24.8458 41.9459
24.8916 41.6804
24.9372 41.7239
24.983 42.1861
25.0286 42.4255
25.0744 42.9323
25.12 43.244
25.1658 43.9696
25.2114 44.3107
25.2572 44.4904
25.3029 44.537
25.3487 44.7086
25.3943 44.4697
25.4402 43.4922
25.4858 42.3904
25.5316 41.2885
25.5773 40.8092
25.6231 40.6776
25.669 40.2152
25.7147 40.2734
25.7605 40.1855
25.8062 40.293
25.8521 40.4177
25.8977 40.3398
25.9436 40.5819
25.9893 40.5582
26.0352 41.0592
26.0809 41.2486
26.1268 41.5169
26.1725 41.128
26.2184 40.5021
26.2641 40.1451
26.31 39.9282
26.3557 39.8757
26.4017 39.8071
26.4474 40.1051
26.4933 40.5716
26.5391 40.8424
26.585 41.2017
26.6308 41.8293
26.6767 41.9595
26.7225 41.8681
26.7684 41.2515
26.8142 40.6166
26.8601 40.2927
26.9059 39.9512
26.9519 39.3457
26.9979 38.9876
27.0437 38.6757
27.0896 38.5041
27.1354 38.5267
27.1814 38.3761
27.2272 38.2376
27.2732 38.2427
27.3191 38.0011
27.3651 38.1515
27.4109 37.9359
27.4569 38.2702
27.5027 38.3591
27.5488 38.3294
27.5946 38.1319
27.6407 37.9045
27.6865 37.8784
27.7326 37.7262
27.7784 37.4827
27.8245 37.4642
27.8703 37.6998
27.9164 37.9493
27.9623 38.0598
28.0084 38.4871
28.0543 38.84
28.1003 38.8831
28.1462 38.6272
28.1923 38.1946
28.2384 37.8897
28.2843 37.4913
28.3304 36.9454
28.3764 36.6846
28.4225 36.268
28.4684 35.9694
28.5145 35.7878
28.5605 35.7058
28.6066 35.5403
28.6526 35.4278
28.6987 35.4526
28.7447 35.2455
28.7908 35.2717
28.8368 35.3314
28.8829 35.2222
28.9289 35.1438
28.9751 35.0185
29.0211 34.7309
29.0673 34.5547
29.1133 34.414
29.1595 34.1995
29.2055 34.0989
29.2517 34.2948
29.2977 34.1757
29.3439 34.1026
29.3899 34.0885
29.4361 34.013
29.4824 33.7895
29.5284 33.6113
29.5746 33.2174
29.6207 32.9457
29.6669 32.9498
29.713 32.7213
29.7593 32.6684
29.8053 32.7041
29.8516 32.6296
29.8977 32.5403
29.9439 32.3596
29.99 32.3819
30.0363 32.2406
30.0824 32.2874
30.1287 32.2152
30.1748 32.2906
30.2211 32.1952
30.2673 32.0423
30.3136 32.2337
30.3597 32.0966
30.406 31.966
30.4522 31.8964
30.4985 31.9203
30.5447 32.0338
30.591 31.9829
30.6372 32.0467
30.6835 31.9973
30.7297 31.9602
30.7761 32.0077
30.8224 31.7756
30.8686 31.7288
30.915 31.4677
30.9612 31.2586
31.0076 31.0773
31.0538 30.9864
31.1002 30.9795
31.1464 30.7462
31.1928 30.8143
31.2391 30.8011
31.2855 30.7489
31.3317 30.6754
31.3781 30.7262
31.4244 30.7735
31.4708 30.7454
31.5171 30.684
31.5636 30.6383
31.6098 30.3564
31.6563 30.2139
31.7026 30.1063
31.7491 29.9468
31.7953 30.0236
31.8418 29.9338
31.8881 30.0524
31.9346 29.9142
31.9809 29.8943
32.0275 29.7572
32.074 29.6452
32.1203 29.4769
32.1668 29.4835
32.2132 29.2842
32.2597 29.075
32.306 29.0327
32.3526 28.7755
32.399 28.819
32.4455 28.6804
32.4919 28.4527
32.5385 28.5415
32.5848 28.4134
32.6314 28.3339
32.6778 28.2822
32.7244 28.1504
32.7708 28.0108
32.8174 27.9843
32.8638 27.9312
32.9104 27.9062
32.9569 27.85
33.0035 27.7557
33.0499 27.5927
33.0966 27.5955
33.143 27.6521
33.1897 27.5514
33.2361 27.4759
33.2828 27.4457
33.3293 27.2734
33.3759 27.3297
33.4226 27.1347
33.4691 26.9485
33.5158 27.0122
33.5623 26.8012
33.609 26.6743
33.6555 26.562
33.7022 26.5156
33.7487 26.3783
33.7954 26.3773
33.842 26.2182
33.8887 26.0794
33.9353 26.0865
33.982 25.958
34.0286 25.9027
34.0753 25.8534
34.1219 25.8649
34.1687 25.7232
34.2152 25.6642
34.262 25.5536
34.3086 25.4492
34.3554 25.3767
34.402 25.2552
34.4488 25.1788
34.4954 25.0543
34.5422 25.0873
34.5889 24.8705
34.6357 24.835
34.6825 24.8107
34.7292 24.7682
34.776 24.6136
34.8227 24.6044
34.8695 24.4651
34.9162 24.4458
34.9631 24.3192
35.0098 24.3691
35.0566 24.2281
35.1033 24.1635
35.1502 24.1433
35.1969 24.0652
35.2438 24.004
35.2906 24.0291
35.3375 23.9793
35.3842 23.9291
35.4311 23.8178
35.4779 23.8405
35.5248 23.7035
35.5716 23.6213
35.6185 23.6815
35.6653 23.4919
35.7123 23.3824
35.759 23.2983
35.806 23.2315
35.8528 23.1853
35.8998 23.1897
35.9468 22.9957
35.9936 23.0198
36.0406 22.928
36.0874 22.8822
36.1345 22.8357
36.1813 22.7006
36.2283 22.5964
36.2752 22.4739
36.3222 22.5661
36.3691 22.4359
36.4161 22.321
36.463 22.313
36.5101 22.2636
36.557 22.2666
36.6041 22.123
36.651 22.0659
36.6981 22.0446
36.745 22.0294
36.7921 21.9463
36.839 21.7947
36.8861 21.648
36.9331 21.6631
36.9802 21.5055
37.0272 21.4739
37.0743 21.3985
37.1213 21.3653
37.1684 21.3581
37.2154 21.2536
37.2626 21.1608
37.3098 21.053
37.3568 21.0425
37.404 21.0038
37.451 20.8906
37.4982 20.8331
37.5452 20.7187
37.5924 20.6596
37.6395 20.7251
37.6867 20.6487
37.7337 20.4903
37.781 20.4082
37.8281 20.4023
37.8753 20.2485
37.9224 20.2533
37.9697 20.1991
38.0168 20.1273
38.064 20.035
38.1111 20.022
38.1584 19.9123
38.2056 19.8718
38.2529 19.8027
38.3 19.7553
38.3473 19.7015
38.3945 19.5441
38.4418 19.5184
38.489 19.5525
38.5363 19.419
38.5837 19.3553
38.6309 19.2884
38.6782 19.1816
38.7254 19.2192
38.7728 19.1269
38.82 19.0657
38.8674 19.0442
38.9146 18.9476
38.9621 18.8572
39.0093 18.8377
39.0567 18.8179
39.104 18.7088
39.1514 18.5999
39.1987 18.6112
39.2461 18.5052
39.2934 18.5429
39.3409 18.3712
39.3882 18.357
39.4356 18.1599
39.483 18.281
39.5304 18.127
39.5778 18.1205
39.6253 18.0558
39.6726 18.0765
39.7201 18.019
39.7675 17.937
39.815 17.8784
39.8624 17.7504
39.9099 17.7048
39.9575 17.6632
40.0049 17.6028
40.0525 17.5472
40.0999 17.5334
40.1474 17.4546
40.1949 17.3301
40.2425 17.3471
40.2899 17.2312
40.3375 17.2566
40.385 17.1807
40.4326 17.1021
40.48 17.0501
40.5277 16.9856
40.5752 16.9788
40.6228 16.8607
40.6703 16.8419
40.718 16.8123
40.7655 16.7343
40.8132 16.6534
40.8607 16.6818
40.9084 16.6014
40.9559 16.5267
41.0036 16.5205
41.0512 16.4629
41.0989 16.386
41.1465 16.3379
41.1942 16.2706
41.242 16.1279
41.2896 16.1323
41.3373 16.0797
41.3849 16.0497
41.4327 15.9749
41.4803 15.9123
41.5281 15.8253
41.5758 15.8184
41.6236 15.7471
41.6712 15.6952
41.7191 15.626
41.7667 15.6734
41.8146 15.547
41.8622 15.459
41.9101 15.4509
41.9578 15.3817
42.0057 15.3864
42.0534 15.3022
42.1013 15.3099
42.149 15.2192
42.1969 15.155
42.2446 15.0799
42.2925 15.0404
42.3403 14.9843
42.3882 14.9954
42.436 14.9191
42.4839 14.862
42.5319 14.8463
42.5797 14.7272
42.6277 14.7249
42.6755 14.6154
42.7235 14.5717
42.7713 14.5929
42.8193 14.5036
42.8671 14.4303
42.9152 14.459
42.963 14.345
43.0111 14.2968
43.0589 14.2494
43.107 14.2381
43.1549 14.1772
43.2029 14.1154
43.2508 14.1446
43.2989 13.9648
43.3468 13.9246
43.3949 13.9421
43.4429 13.8753
43.491 13.8103
43.5389 13.7954
43.5871 13.7324
43.635 13.6296
43.6832 13.6163
43.7312 13.6035
43.7793 13.5228
43.8273 13.5431
43.8755 13.4156
43.9237 13.4378
43.9717 13.3448
44.0199 13.3248
44.068 13.3207
44.1162 13.2359
44.1642 13.199
44.2125 13.1465
44.2606 13.0648
44.3088 13.0363
44.3569 13.0203
44.4052 13.008
44.4533 12.9087
44.5016 12.8299
44.5497 12.8441
44.598 12.7966
44.6461 12.6947
44.6945 12.6802
44.7426 12.6275
44.791 12.5661
44.8391 12.524
44.8875 12.4955
44.9357 12.4906
44.984 12.3979
45.0322 12.3676
45.0806 12.3087
45.1288 12.2881
45.1773 12.1963
45.2257 12.1778
45.2739 12.1223
45.3224 12.1368
45.3706 12.083
45.4191 12.0055
45.4673 11.9878
45.5158 11.9008
45.5641 11.8913
45.6126 11.8683
45.6609 11.8278
45.7094 11.7499
45.7577 11.7384
45.8063 11.677
45.8546 11.6434
45.9031 11.5498
45.9515 11.5576
46.0001 11.4903
46.0484 11.4945
46.097 11.4431
46.1454 11.4095
46.194 11.3936
46.2424 11.3393
46.291 11.2373
46.3395 11.2565
46.3881 11.1784
46.4365 11.1359
46.4852 11.1205
46.5337 11.0594
46.5823 11.0439
46.631 11.0296
46.6795 10.9794
46.7282 10.9419
46.7767 10.9016
46.8254 10.8082
46.8739 10.7885
46.9226 10.766
46.9712 10.7242
47.0199 10.6783
47.0685 10.6543
47.1173 10.5895
47.1658 10.5308
47.2146 10.5046
47.2632 10.4724
47.312 10.4536
47.3606 10.42
47.4095 10.3442
47.4581 10.3121
47.5069 10.2754
47.5556 10.2325
47.6044 10.2335
47.6531 10.1826
47.702 10.1273
47.7507 10.0966
47.7996 10.008
47.8483 10.0003
47.8972 9.971
47.9461 9.94717
47.9948 9.88501
48.0438 9.89218
48.0925 9.86858
48.1415 9.75769
48.1902 9.75431
48.2392 9.73019
48.288 9.76195
48.337 9.69545
48.3858 9.62437
48.4348 9.61592
48.4837 9.58699
48.5327 9.54087
48.5815 9.51406
48.6306 9.45914
48.6795 9.43049
48.7285 9.39186
48.7774 9.36605
48.8265 9.32529
48.8754 9.26787
48.9245 9.23898
48.9734 9.18881
49.0226 9.20088
49.0715 9.15335
49.1206 9.11539
49.1696 9.08059
49.2188 9.04978
49.2679 8.99789
49.3169 8.97564
49.3661 8.91852
49.4151 8.90327
49.4643 8.92795
49.5134 8.84679
49.5626 8.76074
49.6117 8.76372
49.6609 8.73431
49.71 8.65792
49.7592 8.68875
49.8083 8.63428
49.8576 8.63902
49.9067 8.56703
49.956 8.54177
50.0052 8.5166
50.0545 8.45954
50.1036 8.44582
50.153 8.41922
50.2022 8.34233
50.2515 8.30502
50.3007 8.29753
50.3501 8.27134
50.3993 8.23099
50.4487 8.26282
50.498 8.17484
50.5474 8.1544
50.5966 8.09088
50.6461 8.10516
50.6955 8.10317
50.7448 8.04585
50.7943 8.03422
50.8436 7.96501
50.8931 7.90682
50.9424 7.90945
50.9919 7.88304
51.0413 7.85059
51.0908 7.76932
51.1402 7.78304
51.1897 7.70936
51.2391 7.67783
51.2887 7.67052
51.3381 7.64623
51.3877 7.64143
51.4371 7.55106
51.4867 7.54735
51.5362 7.53448
51.5858 7.49114
51.6353 7.46849
51.6849 7.43218
51.7344 7.3932
51.7841 7.39166
51.8336 7.37734
51.8833 7.31768
51.9328 7.269
51.9826 7.22867
52.0323 7.18961
52.0818 7.21184
52.1316 7.17238
52.1812 7.14103
52.231 7.12115
52.2806 7.06562
52.3304 7.00532
52.38 6.9867
52.4298 6.96098
52.4794 6.96002
52.5293 6.93907
52.5789 6.87177
52.6288 6.86826
52.6785 6.84047
52.7284 6.80373
52.7781 6.81991
52.828 6.77904
52.8777 6.71458
52.9276 6.72378
52.9774 6.66134
53.0273 6.6308
53.0771 6.65613
53.1271 6.61201
53.1769 6.57186
53.2269 6.51379
53.2767 6.52039
53.3267 6.50319
53.3765 6.45057
53.4266 6.45271
53.4766 6.33771
53.5265 6.37264
53.5765 6.34151
53.6264 6.30969
53.6765 6.32482
53.7264 6.25678
53.7765 6.20329
53.8265 6.21138
53.8766 6.19119
53.9266 6.13817
53.9767 6.11996
54.0267 6.09905
54.0769 6.05847
54.1269 5.9839
54.1771 5.99215
54.2271 5.95671
54.2773 5.94856
54.3274 5.88277
54.3776 5.83993
54.4277 5.8303
54.478 5.83249
54.528 5.82436
54.5783 5.7498
54.6285 5.67786
54.6788 5.67515
54.7289 5.64162
54.7792 5.5708
54.8296 5.55279
54.8798 5.44175
54.9301 5.43081
54.9803 5.41897
55.0307 5.42559
55.0809 5.30572
55.1314 5.33643
55.1816 5.24476
55.232 5.25974
55.2823 5.21161
55.3328 5.12876
55.383 5.10943
55.4335 5.02303
55.4838 5.02248
55.5344 4.98945
55.5847 4.90752
55.6352 4.87416
55.6856 4.86586
55.7361 4.77456