File: XRD/Ni3Fe_FD0026.xy
TT I
1.27165 32.975
1.31627 32.3699
1.36089 31.8343
1.40551 29.9763
1.45013 29.2453
1.49476 28.7951
1.53938 27.1421
1.584 25.918
1.62863 25.7537
1.67325 24.2243
1.71787 25.3908
1.7625 23.3325
1.80712 23.2846
1.85174 23.2364
1.89636 22.5211
1.94099 23.2765
1.98562 22.9576
2.03025 23.5167
2.07487 23.5449
2.11949 24.7582
2.16411 25.0062
2.20874 25.6137
2.25338 25.7138
2.298 26.2684
2.34263 25.835
2.38725 24.8507
2.43188 25.0324
2.4765 24.3053
2.52115 24.876
2.56577 25.0286
2.6104 26.2258
2.65503 27.2661
2.69965 27.6115
2.7443 29.1311
2.78893 31.5656
2.83356 34.7004
2.87818 38.7249
2.92281 42.3804
2.96744 48.0357
3.01209 56.5732
3.05672 65.1209
3.10135 74.9581
3.14599 81.9095
3.19062 80.9089
3.23527 74.9083
3.2799 63.7291
3.32454 54.0467
3.36917 45.4829
3.4138 41.061
3.45844 37.5478
3.50309 37.1458
3.54773 37.1169
3.59237 38.8533
3.637 41.2035
3.68164 42.5848
3.7263 41.6447
3.77094 39.2413
3.81558 37.3589
3.86022 36.4228
3.90486 36.5899
3.9495 36.3634
3.99416 38.3197
4.0388 40.497
4.08344 44.3714
4.12809 49.4312
4.17273 58.441
4.21738 70.0633
4.26204 84.0178
4.30669 91.4544
4.35133 86.692
4.39598 75.2857
4.44063 66.2722
4.4853 60.9202
4.52995 55.1255
4.5746 50.3463
4.61925 47.6822
4.6639 45.9524
4.70855 45.7432
4.75322 47.386
4.79788 48.9177
4.84253 52.0017
4.88719 56.2587
4.93184 61.7214
4.97652 70.6473
5.02118 86.7416
5.06583 110.361
5.11049 136.531
5.15515 181.576
5.19981 280.147
5.24449 571.192
5.28916 1194.43
5.33382 3242.6
5.37848 3695.58
5.42315 1124.95
5.46783 361.739
5.5125 210.979
5.55716 155.181
5.60183 125.598
5.6465 112.294
5.69117 106.12
5.73586 100.383
5.78053 96.2593
5.8252 96.2859
5.86988 101.361
5.91455 111.86
5.95924 130.262
6.00392 173.461
6.0486 274.489
6.09328 467.313
6.13795 835.515
6.18263 1305.68
6.22733 747.39
6.27201 304.264
6.3167 163.344
6.36138 108.942
6.40606 83.8058
6.45075 71.925
6.49545 63.9211
6.54014 58.7459
6.58483 56.5244
6.62952 56.2085
6.67421 57.1534
6.71892 58.0586
6.76361 57.7839
6.8083 55.3213
6.853 51.6141
6.89769 49.0073
6.94239 46.5847
6.98711 44.4404
7.03181 43.9819
7.07651 44.2523
7.12121 45.2
7.16591 47.4474
7.21063 51.5714
7.25533 57.9983
7.30004 69.1744
7.34475 75.7919
7.38945 71.4778
7.43416 61.2955
7.47889 54.0906
7.5236 55.5813
7.56831 96.2187
7.61303 149.513
7.65774 74.0931
7.70247 45.4122
7.74719 40.2282
7.79191 38.6221
7.83663 37.7865
7.88135 37.5387
7.92607 37.6583
7.97081 37.9979
8.01553 38.459
8.06026 39.2647
8.10498 40.2679
8.14971 41.6921
8.19446 42.9568
8.23919 44.662
8.28392 46.7018
8.32865 48.544
8.37339 52.1916
8.41812 57.1007
8.46288 65.734
8.50761 78.8681
8.55235 106.205
8.59709 162.291
8.64183 220.094
8.68658 398.863
8.73134 763.283
8.77609 630.597
8.82083 267.192
8.86558 132.395
8.91033 93.3009
8.9551 77.456
8.99985 69.647
9.04461 64.3193
9.08936 61.269
9.13412 59.2956
9.17888 60.006
9.22365 67.9935
9.26841 126.655
9.31318 248.341
9.35794 147.033
9.4027 68.8882
9.44749 56.6109
9.49226 53.2634
9.53703 51.9252
9.5818 52.0457
9.62657 52.5932
9.67134 53.5043
9.71614 55.0355
9.76091 56.5644
9.80569 58.4301
9.85047 61.3373
9.89525 65.2485
9.94005 71.7548
9.98484 81.7545
10.0296 102.416
10.0744 142.575
10.1192 185.029
10.164 252.455
10.2088 512.374
10.2536 822.556
10.2984 541.042
10.3432 237.411
10.388 127.904
10.4328 94.9564
10.4776 83.8479
10.5224 86.4561
10.5672 91.6289
10.612 102.466
10.6568 159.665
10.7017 274.865
10.7465 260.492
10.7913 139.149
10.8361 72.8844
10.8809 55.1871
10.9257 49.3423
10.9706 46.3855
11.0154 45.0236
11.0602 44.1928
11.105 43.3757
11.1499 42.5683
11.1947 42.5017
11.2395 42.4172
11.2844 42.3243
11.3292 41.4223
11.374 40.1874
11.4189 39.5217
11.4637 38.6502
11.5086 37.9422
11.5534 37.5852
11.5983 37.9548
11.6431 38.0618
11.688 37.5069
11.7328 37.0976
11.7777 36.7791
11.8225 37.0437
11.8674 37.3122
11.9122 39.423
11.9571 46.0743
12.002 73.6989
12.0468 89.2852
12.0917 59.9495
12.1366 46.7536
12.1814 47.168
12.2263 49.5168
12.2712 56.162
12.3161 72.8572
12.3609 95.4623
12.4058 89.6565
12.4507 64.2483
12.4956 50.6495
12.5405 44.6701
12.5853 42.145
12.6302 41.0063
12.6751 41.2142
12.72 41.7625
12.7649 41.8926
12.8098 40.7428
12.8547 40.4816
12.8996 40.1553
12.9445 39.8961
12.9894 40.4691
13.0343 41.0496
13.0792 42.9133
13.1242 47.082
13.1691 57.5187
13.214 62.5613
13.2589 64.0209
13.3038 68.9809
13.3487 75.795
13.3937 98.245
13.4386 154.315
13.4835 223.039
13.5285 190.729
13.5734 121.175
13.6183 90.6785
13.6633 81.2389
13.7082 82.2429
13.7531 103.153
13.7981 163.962
13.843 211.488
13.888 152.781
13.9329 85.8611
13.9779 60.5975
14.0228 50.7111
14.0678 46.7055
14.1127 45.5808
14.1577 48.4207
14.2027 66.6185
14.2476 85.7359
14.2926 66.9888
14.3376 47.0274
14.3825 41.3543
14.4275 39.5484
14.4725 38.9283
14.5175 38.6886
14.5624 38.479
14.6074 38.1617
14.6524 38.2815
14.6974 38.7805
14.7424 39.1508
14.7874 39.326
14.8324 41.0834
14.8774 43.5251
14.9224 47.6092
14.9674 49.6442
15.0124 52.3338
15.0574 61.6374
15.1024 84.1842
15.1474 120.327
15.1924 123.442
15.2374 87.287
15.2824 60.6449
15.3274 48.6567
15.3725 43.6035
15.4175 41.2828
15.4625 39.8242
15.5076 39.2023
15.5526 38.8748
15.5976 38.5809
15.6426 38.4015
15.6877 38.5453
15.7327 39.5725
15.7778 41.6268
15.8228 44.7502
15.8679 47.3098
15.9129 48.8867
15.958 55.0529
16.003 68.7631
16.0481 99.8815
16.0931 125.621
16.1382 112.083
16.1833 81.1312
16.2283 56.1576
16.2734 44.3334
16.3185 39.7071
16.3636 37.0052
16.4086 35.6777
16.4537 34.9655
16.4988 34.0648
16.5439 33.3533
16.589 32.9836
16.6341 32.5402
16.6792 32.0663
16.7243 32.0226
16.7694 31.9716
16.8145 31.9115
16.8596 32.0179
16.9047 32.5065
16.9498 33.1806
16.9949 36.4353
17.04 39.7903
17.0851 38.1386
17.1302 34.6929
17.1754 33.3325
17.2205 33.8027
17.2656 34.2575
17.3108 34.7349
17.3559 35.0937
17.401 36.8175
17.4462 40.8096
17.4913 47.6968
17.5365 51.8347
17.5815 46.5948
17.6268 39.8112
17.6718 36.6052
17.7171 35.3905
17.7622 35.6717
17.8074 36.8869
17.8525 40.2451
17.8977 42.0843
17.9428 40.2111
17.9881 39.3696
18.0331 41.243
18.0784 42.3237
18.1237 43.2918
18.1688 45.6
18.214 52.3917
18.2591 66.7022
18.3044 91.3111
18.3495 100.949
18.3948 81.9554
18.4399 62.0721
18.4852 55.7342
18.5303 60.4854
18.5756 71.1715
18.6207 73.6053
18.666 61.9061
18.7112 49.886
18.7565 41.8084
18.8016 38.2261
18.8469 36.2757
18.892 35.3704
18.9374 34.4612
18.9825 34.0503
19.0278 33.7797
19.073 33.5566
19.1183 33.3778
19.1635 33.313
19.2088 33.836
19.254 34.6802
19.2993 35.2244
19.3447 36.6025
19.3898 40.2503
19.4352 45.518
19.4804 47.0619
19.5257 45.3737
19.5709 47.0579
19.6163 48.9843
19.6615 45.4341
19.7068 39.0893
19.752 35.4598
19.7974 33.5807
19.8426 32.6123
19.888 31.9786
19.9332 31.9476
19.9786 32.3433
20.0238 32.547
20.0692 32.7491
20.1144 32.6776
20.1598 33.5592
20.205 34.9617
20.2504 38.0996
20.2957 42.9369
20.3411 46.7775
20.3863 45.1757
20.4318 40.455
20.477 38.8165
20.5224 41.3375
20.5677 44.3738
20.6131 43.1463
20.6586 37.8219
20.7038 33.8878
20.7493 31.9609
20.7945 31.3611
20.84 32.0611
20.8853 33.3917
20.9307 33.4863
20.976 31.5281
21.0215 29.7768
21.0668 28.9792
21.1122 29.0353
21.1575 28.9468
21.203 28.9153
21.2483 28.9112
21.2938 29.0085
21.3391 29.043
21.3846 29.3406
21.4299 30.2781
21.4754 31.8866
21.5207 32.5
21.5662 31.9555
21.6116 31.0131
21.6571 30.001
21.7024 29.6838
21.7479 29.7891
21.7933 30.1842
21.8388 30.6354
21.8843 31.0049
21.9297 31.3071
21.9752 32.3171
22.0206 33.9953
22.0661 36.5533
22.1115 41.2547
22.157 46.4645
22.2024 47.8786
22.248 44.6997
22.2933 41.486
22.3389 39.843
22.3843 39.4505
22.4299 37.6376
22.4753 34.7841
22.5208 32.5106
22.5662 31.2045
22.6118 30.7373
22.6572 30.1611
22.7028 30.0819
22.7483 29.9155
22.7939 29.9534
22.8393 30.5811
22.8849 31.6389
22.9303 31.9986
22.9759 31.8121
23.0214 31.0726
23.067 31.6595
23.1126 32.798
23.1581 35.1234
23.2037 39.2938
23.2492 42.1269
23.2948 40.2986
23.3403 36.2365
23.3859 33.47
23.4314 32.3347
23.477 32.4291
23.5225 33.4307
23.5682 33.8942
23.6137 33.6068
23.6593 32.5306
23.7048 32.882
23.7505 34.4428
23.796 37.5276
23.8417 42.1801
23.8872 43.3606
23.9329 39.7568
23.9784 34.862
24.0241 31.6806
24.0697 30.0287
24.1154 29.3302
24.1609 28.9592
24.2066 28.6612
24.2522 28.0847
24.2979 27.4764
24.3434 27.1756
24.3892 26.9252
24.4349 26.8509
24.4805 26.6183
24.5262 26.5974
24.5718 26.4102
24.6175 26.4815
24.6631 26.691
24.7089 26.9412
24.7545 27.5551
24.8002 27.8957
24.8458 27.784
24.8916 27.0397
24.9372 26.6556
24.983 26.3944
25.0286 26.2507
25.0744 26.2094
25.12 26.1506
25.1658 26.3725
25.2114 26.4689
25.2572 26.8225
25.3029 27.143
25.3487 27.9679
25.3943 28.7906
25.4402 29.5969
25.4858 30.0907
25.5316 29.9803
25.5773 30.3349
25.6231 31.504
25.669 31.4727
25.7147 30.3352
25.7605 28.292
25.8062 26.9793
25.8521 26.6537
25.8977 26.5689
25.9436 26.8123
25.9893 26.5393
26.0352 26.2192
26.0809 25.7343
26.1268 25.6526
26.1725 25.5715
26.2184 25.7375
26.2641 26.2003
26.31 26.686
26.3557 27.7214
26.4017 28.4743
26.4474 28.4323
26.4933 27.511
26.5391 26.8733
26.585 26.1698
26.6308 25.9945
26.6767 25.8601
26.7225 25.9739
26.7684 26.2849
26.8142 26.6473
26.8601 27.3556
26.9059 28.7987
26.9519 30.0067
26.9979 30.4536
27.0437 29.8464
27.0896 29.1907
27.1354 28.7264
27.1814 27.6911
27.2272 26.5875
27.2732 25.8162
27.3191 25.0866
27.3651 24.9985
27.4109 24.7696
27.4569 24.7018
27.5027 24.5872
27.5488 24.5707
27.5946 24.6508
27.6407 24.6481
27.6865 24.7311
27.7326 24.8306
27.7784 25.0264
27.8245 25.2759
27.8703 25.6206
27.9164 25.5395
27.9623 25.1473
28.0084 24.8641
28.0543 25.019
28.1003 25.1452
28.1462 25.5936
28.1923 25.8221
28.2384 25.7315
28.2843 26.178
28.3304 26.9519
28.3764 27.9123
28.4225 28.0954
28.4684 27.5667
28.5145 26.834
28.5605 26.5286
28.6066 25.9982
28.6526 25.2444
28.6987 24.7617
28.7447 24.109
28.7908 23.5768
28.8368 23.2961
28.8829 23.0292
28.9289 22.9553
28.9751 22.7219
29.0211 22.8002
29.0673 22.7
29.1133 22.7459
29.1595 23.0868
29.2055 23.1598
29.2517 23.322
29.2977 23.0982
29.3439 22.7413
29.3899 22.4218
29.4361 22.1884
29.4824 22.1169
29.5284 22.0615
29.5746 22.018
29.6207 21.9688
29.6669 22.2424
29.713 22.5798
29.7593 22.711
29.8053 22.5101
29.8516 22.1258
29.8977 21.8857
29.9439 21.4367
29.99 21.3248
30.0363 21.1993
30.0824 21.2454
30.1287 21.25
30.1748 21.364
30.2211 21.4965
30.2673 21.2931
30.3136 21.2718
30.3597 21.1723
30.406 21.0771
30.4522 21.0372
30.4985 21.2462
30.5447 21.4305
30.591 21.5195
30.6372 21.2967
30.6835 21.1753
30.7297 21.0851
30.7761 20.964
30.8224 21.0857
30.8686 21.1529
30.915 21.3224
30.9612 21.6357
31.0076 22.0314
31.0538 22.4796
31.1002 22.6302
31.1464 22.349
31.1928 22.1861
31.2391 21.9284
31.2855 21.4569
31.3317 21.1079
31.3781 20.9179
31.4244 20.6672
31.4708 20.468
31.5171 20.5126
31.5636 20.4716
31.6098 20.5101
31.6563 20.6462
31.7026 20.7376
31.7491 20.7473
31.7953 21.0559
31.8418 21.3303
31.8881 21.3497
31.9346 20.9994
31.9809 20.6516
32.0275 20.4231
32.074 20.248
32.1203 20.2734
32.1668 20.2974
32.2132 20.4151
32.2597 20.55
32.306 20.7615
32.3526 20.881
32.399 20.6
32.4455 20.3766
32.4919 20.1034
32.5385 19.9205
32.5848 19.6958
32.6314 19.48
32.6778 19.3635
32.7244 19.1138
32.7708 18.9609
32.8174 18.9032
32.8638 18.7907
32.9104 18.8861
32.9569 18.8337
33.0035 18.7197
33.0499 18.8199
33.0966 18.9025
33.143 18.7585
33.1897 18.6541
33.2361 18.5066
33.2828 18.5574
33.3293 18.4418
33.3759 18.4791
33.4226 18.5899
33.4691 18.7101
33.5158 18.7854
33.5623 18.9376
33.609 18.8914
33.6555 18.9723
33.7022 18.823
33.7487 18.5886
33.7954 18.3685
33.842 18.0867
33.8887 18.0011
33.9353 17.9339
33.982 17.8146
34.0286 17.6653
34.0753 17.7468
34.1219 17.5753
34.1687 17.5839
34.2152 17.5855
34.262 17.6575
34.3086 17.5434
34.3554 17.4742
34.402 17.3623
34.4488 17.2531
34.4954 17.1322
34.5422 17.1286
34.5889 17.0265
34.6357 16.9983
34.6825 17.0592
34.7292 17.0575
34.776 16.9649
34.8227 16.931
34.8695 16.7567
34.9162 16.7674
34.9631 16.6242
35.0098 16.6062
35.0566 16.4102
35.1033 16.4122
35.1502 16.3798
35.1969 16.3507
35.2438 16.3692
35.2906 16.3665
35.3375 16.3458
35.3842 16.2304
35.4311 16.3325
35.4779 16.3484
35.5248 16.2435
35.5716 16.223
35.6185 16.2514
35.6653 16.2169
35.7123 16.3434
35.759 16.46
35.806 16.4823
35.8528 16.5737
35.8998 16.5922
35.9468 16.5155
35.9936 16.3976
36.0406 16.2329
36.0874 16.1029
36.1345 15.8791
36.1813 15.782
36.2283 15.7174
36.2752 15.6457
36.3222 15.6294
36.3691 15.5413
36.4161 15.4665
36.463 15.5808
36.5101 15.5638
36.557 15.5753
36.6041 15.4537
36.651 15.5495
36.6981 15.419
36.745 15.2738
36.7921 15.2103
36.839 15.1567
36.8861 15.1648
36.9331 15.2369
36.9802 15.2483
37.0272 15.201
37.0743 15.192
37.1213 15.0588
37.1684 14.99
37.2154 14.8768
37.2626 14.7666
37.3098 14.7069
37.3568 14.6701
37.404 14.6121
37.451 14.53
37.4982 14.4659
37.5452 14.4109
37.5924 14.3687
37.6395 14.3872
37.6867 14.354
37.7337 14.262
37.781 14.227
37.8281 14.1806
37.8753 14.116
37.9224 14.0665
37.9697 14.0562
38.0168 14.0465
38.064 14.0498
38.1111 14.0224
38.1584 13.9594
38.2056 13.9031
38.2529 13.7909
38.3 13.7558
38.3473 13.7669
38.3945 13.5985
38.4418 13.5825
38.489 13.5209
38.5363 13.4904
38.5837 13.4718
38.6309 13.472
38.6782 13.4717
38.7254 13.4088
38.7728 13.4342
38.82 13.4113
38.8674 13.2475
38.9146 13.2317
38.9621 13.2012
39.0093 13.1653
39.0567 13.2022
39.104 13.1066
39.1514 13.1092
39.1987 13.0919
39.2461 12.9654
39.2934 12.9611
39.3409 12.8242
39.3882 12.8026
39.4356 12.7839
39.483 12.719
39.5304 12.6519
39.5778 12.6387
39.6253 12.622
39.6726 12.5375
39.7201 12.5104
39.7675 12.5152
39.815 12.4744
39.8624 12.4435
39.9099 12.4099
39.9575 12.3832
40.0049 12.3213
40.0525 12.3296
40.0999 12.3086
40.1474 12.3239
40.1949 12.2401
40.2425 12.1658
40.2899 12.2393
40.3375 12.1725
40.385 12.1215
40.4326 12.1289
40.48 11.9586
40.5277 11.9841
40.5752 11.9263
40.6228 11.9055
40.6703 11.9107
40.718 11.8669
40.7655 11.8414
40.8132 11.7734
40.8607 11.7751
40.9084 11.794
40.9559 11.6964
41.0036 11.6728
41.0512 11.6289
41.0989 11.6376
41.1465 11.6338
41.1942 11.591
41.242 11.4848
41.2896 11.4943
41.3373 11.4293
41.3849 11.4104
41.4327 11.3323
41.4803 11.2434
41.5281 11.2509
41.5758 11.1851
41.6236 11.1531
41.6712 11.1513
41.7191 11.114
41.7667 11.092
41.8146 11.0193
41.8622 10.9982
41.9101 10.9619
41.9578 10.9336
42.0057 10.9059
42.0534 10.8887
42.1013 10.9249
42.149 10.8511
42.1969 10.8153
42.2446 10.8031
42.2925 10.7886
42.3403 10.6964
42.3882 10.6785
42.436 10.6344
42.4839 10.5447
42.5319 10.4726
42.5797 10.4835
42.6277 10.4041
42.6755 10.3892
42.7235 10.382
42.7713 10.3518
42.8193 10.3341
42.8671 10.268
42.9152 10.2432
42.963 10.1875
43.0111 10.1063
43.0589 10.1256
43.107 10.0788
43.1549 10.0738
43.2029 10.0272
43.2508 9.99829
43.2989 9.95385
43.3468 9.89839
43.3949 9.91454
43.4429 9.8881
43.491 9.79366
43.5389 9.80456
43.5871 9.77129
43.635 9.72236
43.6832 9.65284
43.7312 9.67247
43.7793 9.62089
43.8273 9.59059
43.8755 9.55932
43.9237 9.54333
43.9717 9.50167
44.0199 9.51672
44.068 9.45927
44.1162 9.43941
44.1642 9.43255
44.2125 9.37619
44.2606 9.34742
44.3088 9.33452
44.3569 9.26228
44.4052 9.2709
44.4533 9.21694
44.5016 9.14574
44.5497 9.13555
44.598 9.12162
44.6461 9.03436
44.6945 9.10358
44.7426 9.02628
44.791 9.02083
44.8391 9.00731
44.8875 8.93156
44.9357 8.91749
44.984 8.89921
45.0322 8.85475
45.0806 8.82131
45.1288 8.8249
45.1773 8.76645
45.2257 8.75709
45.2739 8.72788
45.3224 8.66932
45.3706 8.67886
45.4191 8.59863
45.4673 8.55986
45.5158 8.55587
45.5641 8.52091
45.6126 8.49827
45.6609 8.50386
45.7094 8.44388
45.7577 8.41362
45.8063 8.36294
45.8546 8.37635
45.9031 8.33995
45.9515 8.32617
46.0001 8.28614
46.0484 8.27127
46.097 8.26257
46.1454 8.20823
46.194 8.17512
46.2424 8.14193
46.291 8.12487
46.3395 8.11753
46.3881 8.03377
46.4365 8.04498
46.4852 7.97542
46.5337 7.95799
46.5823 7.96378
46.631 7.90516
46.6795 7.89116
46.7282 7.88871
46.7767 7.85335
46.8254 7.82132
46.8739 7.76365
46.9226 7.76858
46.9712 7.71567
47.0199 7.67548
47.0685 7.65007
47.1173 7.63234
47.1658 7.62273
47.2146 7.55926
47.2632 7.52963
47.312 7.51986
47.3606 7.46152
47.4095 7.45422
47.4581 7.4425
47.5069 7.42207
47.5556 7.39788
47.6044 7.36197
47.6531 7.33794
47.702 7.30898
47.7507 7.26531
47.7996 7.24979
47.8483 7.25209
47.8972 7.22849
47.9461 7.18697
47.9948 7.18167
48.0438 7.1131
48.0925 7.12772
48.1415 7.09447
48.1902 7.07439
48.2392 7.0781
48.288 7.00683
48.337 6.97324
48.3858 6.98772
48.4348 6.93446
48.4837 6.92966
48.5327 6.89362
48.5815 6.85861
48.6306 6.8352
48.6795 6.83811
48.7285 6.80168
48.7774 6.76297
48.8265 6.71644
48.8754 6.72725
48.9245 6.7163
48.9734 6.65967
49.0226 6.69396
49.0715 6.64327
49.1206 6.58226
49.1696 6.56163
49.2188 6.52683
49.2679 6.52056
49.3169 6.47996
49.3661 6.47421
49.4151 6.46434
49.4643 6.44779
49.5134 6.41792
49.5626 6.38575
49.6117 6.35058
49.6609 6.33517
49.71 6.32691
49.7592 6.26608
49.8083 6.25129
49.8576 6.2689
49.9067 6.2332
49.956 6.2036
50.0052 6.20279
50.0545 6.18184
50.1036 6.14032
50.153 6.12465
50.2022 6.09461
50.2515 6.09244
50.3007 6.02996
50.3501 6.02693
50.3993 6.01678
50.4487 5.98255
50.498 6.00062
50.5474 5.97777
50.5966 5.88689
50.6461 5.89345
50.6955 5.91546
50.7448 5.87575
50.7943 5.85818
50.8436 5.78276
50.8931 5.77583
50.9424 5.78944
50.9919 5.76967
51.0413 5.75635
51.0908 5.71455
51.1402 5.68692
51.1897 5.69063
51.2391 5.64861
51.2887 5.60943
51.3381 5.59556
51.3877 5.61029
51.4371 5.59901
51.4867 5.52829
51.5362 5.53622
51.5858 5.47884
51.6353 5.46694
51.6849 5.45093
51.7344 5.43445
51.7841 5.42865
51.8336 5.38994
51.8833 5.3968
51.9328 5.36747
51.9826 5.32619
52.0323 5.29672
52.0818 5.2731
52.1316 5.26995
52.1812 5.2482
52.231 5.18496
52.2806 5.19539
52.3304 5.18761
52.38 5.16853
52.4298 5.1555
52.4794 5.10529
52.5293 5.10927
52.5789 5.10045
52.6288 5.11131
52.6785 5.02104
52.7284 4.99206
52.7781 5.00638
52.828 4.96178
52.8777 4.97273
52.9276 4.94252
52.9774 4.94342
53.0273 4.91956
53.0771 4.8924
53.1271 4.90393
53.1769 4.84365
53.2269 4.82791
53.2767 4.82294
53.3267 4.75867
53.3765 4.77987
53.4266 4.73219
53.4766 4.74432
53.5265 4.66491
53.5765 4.70342
53.6264 4.69512
53.6765 4.67123
53.7264 4.64903
53.7765 4.59195
53.8265 4.60135
53.8766 4.55296
53.9266 4.53585
53.9767 4.49584
54.0267 4.4885
54.0769 4.46693
54.1269 4.43436
54.1771 4.42426
54.2271 4.44855
54.2773 4.33897
54.3274 4.36178
54.3776 4.30312
54.4277 4.29138
54.478 4.25833
54.528 4.24419
54.5783 4.18543
54.6285 4.12176
54.6788 4.12938
54.7289 4.09028
54.7792 4.08416
54.8296 4.00407
54.8798 3.98584
54.9301 3.97959
54.9803 3.95537
55.0307 3.91949
55.0809 3.94107
55.1314 3.86345
55.1816 3.81016
55.232 3.8249
55.2823 3.71609
55.3328 3.70743
55.383 3.64409
55.4335 3.62663
55.4838 3.57625
55.5344 3.55019
55.5847 3.54416
55.6352 3.53598
55.6856 3.50413
55.7361 3.4378