File: XRD/Ni3Fe_FD0336.xy
TT I
1.27165 8.06938
1.31627 6.99738
1.36089 6.95695
1.40551 6.3561
1.45013 6.32837
1.49476 6.88032
1.53938 6.3099
1.584 5.48158
1.62863 5.73202
1.67325 5.14373
1.71787 5.77419
1.7625 4.91921
1.80712 5.19949
1.85174 4.68198
1.89636 5.10239
1.94099 5.00832
1.98562 5.09094
2.03025 4.61881
2.07487 4.86463
2.11949 4.55795
2.16411 4.86285
2.20874 11.044
2.25338 16.0371
2.298 5.2166
2.34263 5.57549
2.38725 5.90972
2.43188 5.52179
2.4765 5.87416
2.52115 6.16913
2.56577 6.49636
2.6104 6.8967
2.65503 6.7562
2.69965 6.68832
2.7443 7.11474
2.78893 7.96848
2.83356 8.33622
2.87818 8.86305
2.92281 8.37156
2.96744 9.45616
3.01209 10.6733
3.05672 11.2515
3.10135 12.0059
3.14599 12.814
3.19062 14.3595
3.23527 15.4152
3.2799 15.8036
3.32454 17.359
3.36917 17.8079
3.4138 19.016
3.45844 19.6561
3.50309 21.1514
3.54773 22.128
3.59237 23.9165
3.637 70.6712
3.68164 47.8979
3.7263 26.0567
3.77094 26.457
3.81558 27.0338
3.86022 27.9555
3.90486 29.079
3.9495 30.0962
3.99416 31.3993
4.0388 32.9497
4.08344 34.3026
4.12809 34.7833
4.17273 37.2124
4.21738 42.0672
4.26204 184.996
4.30669 157.402
4.35133 47.7848
4.39598 44.8518
4.44063 52.1691
4.4853 60.3961
4.52995 52.1963
4.5746 53.2831
4.61925 54.9663
4.6639 56.9492
4.70855 60.1021
4.75322 62.3333
4.79788 66.8003
4.84253 69.609
4.88719 74.5183
4.93184 78.3448
4.97652 84.6947
5.02118 91.7602
5.06583 100.54
5.11049 115.419
5.15515 180.564
5.19981 571.378
5.24449 3601.12
5.28916 11434.1
5.33382 3502.28
5.37848 224.682
5.42315 139.773
5.46783 121.416
5.5125 111.822
5.55716 106.121
5.60183 102.803
5.6465 99.9387
5.69117 98.6322
5.73586 96.3382
5.78053 96.7716
5.8252 96.6019
5.86988 97.9239
5.91455 101.575
5.95924 115.286
6.00392 307.097
6.0486 1254.29
6.09328 4088.14
6.13795 3459.01
6.18263 296.18
6.22733 100.954
6.27201 85.9088
6.3167 96.0004
6.36138 80.2054
6.40606 71.289
6.45075 69.4519
6.49545 67.3358
6.54014 65.5397
6.58483 64.6038
6.62952 64.1582
6.67421 84.4981
6.71892 117.355
6.76361 66.8001
6.8083 59.7847
6.853 58.823
6.89769 58.1748
6.94239 57.8218
6.98711 56.9219
7.03181 56.6513
7.07651 56.7399
7.12121 56.3256
7.16591 56.4842
7.21063 56.3608
7.25533 66.9648
7.30004 140.432
7.34475 80.7821
7.38945 57.2131
7.43416 55.3832
7.47889 55.7126
7.5236 56.2048
7.56831 56.8624
7.61303 57.7784
7.65774 58.2835
7.70247 57.5019
7.74719 57.6464
7.79191 58.0684
7.83663 58.3277
7.88135 59.5852
7.92607 60.3535
7.97081 61.6477
8.01553 62.2256
8.06026 63.862
8.10498 65.575
8.14971 72.8578
8.19446 72.8163
8.23919 71.4154
8.28392 74.207
8.32865 76.7701
8.37339 81.524
8.41812 88.7013
8.46288 115.007
8.50761 215.901
8.55235 489.134
8.59709 1165.51
8.64183 2115.21
8.68658 1048.55
8.73134 183.91
8.77609 104.863
8.82083 96.1474
8.86558 92.916
8.91033 92.4421
8.9551 92.7411
8.99985 87.7277
9.04461 86.0383
9.08936 85.7738
9.13412 84.5868
9.17888 84.4678
9.22365 84.9571
9.26841 84.6776
9.31318 85.5439
9.35794 85.8927
9.4027 85.6741
9.44749 86.4716
9.49226 87.5073
9.53703 88.4192
9.5818 90.2762
9.62657 94.6196
9.67134 98.9881
9.71614 96.4038
9.76091 97.3504
9.80569 99.848
9.85047 103.4
9.89525 122.252
9.94005 139.381
9.98484 225.539
10.0296 429.853
10.0744 859.638
10.1192 1594.72
10.164 1668.7
10.2088 490.92
10.2536 137.785
10.2984 116.309
10.3432 115.816
10.388 109.639
10.4328 134.671
10.4776 185.169
10.5224 294.285
10.5672 484.427
10.612 528.041
10.6568 216.053
10.7017 100.325
10.7465 89.4776
10.7913 85.9053
10.8361 83.6116
10.8809 81.1839
10.9257 80.0275
10.9706 80.2253
11.0154 76.4834
11.0602 74.872
11.105 73.6395
11.1499 76.257
11.1947 80.6148
11.2395 74.3613
11.2844 71.4975
11.3292 69.0991
11.374 68.1808
11.4189 67.2132
11.4637 66.6105
11.5086 66.9367
11.5534 68.4303
11.5983 66.752
11.6431 65.5143
11.688 64.5606
11.7328 64.5894
11.7777 64.4687
11.8225 64.3349
11.8674 63.9208
11.9122 64.6731
11.9571 65.0661
12.002 66.121
12.0468 73.1923
12.0917 86.2193
12.1366 108.925
12.1814 148.896
12.2263 198.32
12.2712 174.392
12.3161 99.7858
12.3609 71.6276
12.4058 66.3304
12.4507 66.1985
12.4956 66.3183
12.5405 66.6294
12.5853 67.2017
12.6302 72.8038
12.6751 76.6963
12.72 70.8941
12.7649 69.9313
12.8098 70.3939
12.8547 71.6699
12.8996 73.073
12.9445 74.4281
12.9894 76.6182
13.0343 78.4758
13.0792 82.4312
13.1242 97.7572
13.1691 126.603
13.214 166.753
13.2589 244.602
13.3038 349.67
13.3487 422.615
13.3937 282.74
13.4386 133.057
13.4835 116.71
13.5285 135.222
13.5734 171.879
13.6183 241.929
13.6633 330.444
13.7082 342.597
13.7531 200.408
13.7981 102.415
13.843 84.5753
13.888 82.1677
13.9329 79.6384
13.9779 78.1597
14.0228 76.7356
14.0678 75.289
14.1127 74.7427
14.1577 74.323
14.2027 73.3636
14.2476 72.4928
14.2926 72.0498
14.3376 72.9708
14.3825 71.9724
14.4275 70.9563
14.4725 70.7913
14.5175 71.0157
14.5624 71.1471
14.6074 72.7531
14.6524 73.1392
14.6974 72.7335
14.7424 76.291
14.7874 85.7216
14.8324 97.421
14.8774 119.03
14.9224 153.694
14.9674 199.469
15.0124 220.231
15.0574 155.73
15.1024 94.6563
15.1474 74.5781
15.1924 72.5375
15.2374 72.4896
15.2824 71.6195
15.3274 69.9103
15.3725 68.9968
15.4175 68.3511
15.4625 67.9933
15.5076 67.96
15.5526 68.2186
15.5976 68.1825
15.6426 70.4972
15.6877 77.9011
15.7327 86.954
15.7778 102.0
15.8228 128.148
15.8679 162.81
15.9129 191.658
15.958 164.892
16.003 103.427
16.0481 70.2506
16.0931 65.9123
16.1382 63.8846
16.1833 62.2463
16.2283 60.5493
16.2734 59.9046
16.3185 60.0116
16.3636 60.3164
16.4086 59.0323
16.4537 57.8629
16.4988 57.019
16.5439 57.0812
16.589 56.6647
16.6341 56.5187
16.6792 56.0335
16.7243 56.5973
16.7694 56.5664
16.8145 56.439
16.8596 56.6948
16.9047 57.6109
16.9498 57.9418
16.9949 57.2438
17.04 57.7669
17.0851 59.5636
17.1302 61.4723
17.1754 64.5184
17.2205 68.9511
17.2656 75.0313
17.3108 82.9765
17.3559 84.7122
17.401 74.3336
17.4462 64.7219
17.4913 61.1966
17.5365 60.8394
17.5815 61.051
17.6268 61.3707
17.6718 62.0077
17.7171 62.6442
17.7622 63.2525
17.8074 64.2711
17.8525 67.9907
17.8977 72.733
17.9428 78.6799
17.9881 87.417
18.0331 102.008
18.0784 119.345
18.1237 139.892
18.1688 138.348
18.214 111.596
18.2591 91.2759
18.3044 91.6151
18.3495 99.3323
18.3948 106.518
18.4399 99.5278
18.4852 80.2623
18.5303 67.9745
18.5756 64.265
18.6207 63.011
18.666 62.3822
18.7112 61.5416
18.7565 60.6455
18.8016 60.303
18.8469 59.7814
18.892 59.5197
18.9374 59.0232
18.9825 58.6392
19.0278 58.6021
19.073 58.799
19.1183 59.8336
19.1635 60.4943
19.2088 62.0176
19.254 64.4453
19.2993 67.8713
19.3447 72.4195
19.3898 77.4464
19.4352 74.8926
19.4804 65.937
19.5257 58.5962
19.5709 56.0433
19.6163 55.593
19.6615 55.4639
19.7068 55.0356
19.752 54.949
19.7974 55.5034
19.8426 56.4735
19.888 57.1641
19.9332 58.4543
19.9786 60.7852
20.0238 63.7888
20.0692 68.1805
20.1144 71.4137
20.1598 71.1952
20.205 66.3463
20.2504 63.6571
20.2957 64.3991
20.3411 66.725
20.3863 66.0286
20.4318 60.6797
20.477 55.3731
20.5224 53.0387
20.5677 52.3499
20.6131 51.7579
20.6586 51.1203
20.7038 50.9801
20.7493 50.6236
20.7945 50.5088
20.84 50.3242
20.8853 50.2647
20.9307 50.0287
20.976 50.3542
21.0215 50.1191
21.0668 50.561
21.1122 51.0772
21.1575 51.6967
21.203 52.2016
21.2483 52.7597
21.2938 53.1957
21.3391 52.0111
21.3846 50.4605
21.4299 50.065
21.4754 49.8211
21.5207 50.0881
21.5662 50.4418
21.6116 51.2606
21.6571 51.874
21.7024 52.9521
21.7479 54.64
21.7933 57.0761
21.8388 59.929
21.8843 63.3586
21.9297 66.4923
21.9752 65.744
22.0206 61.7496
22.0661 58.0686
22.1115 57.2805
22.157 57.4716
22.2024 56.0682
22.248 53.2229
22.2933 51.4676
22.3389 50.7541
22.3843 50.4174
22.4299 50.3884
22.4753 50.2478
22.5208 50.0874
22.5662 50.0373
22.6118 50.3417
22.6572 50.6949
22.7028 51.0309
22.7483 51.6439
22.7939 52.2899
22.8393 53.6833
22.8849 55.4609
22.9303 56.9715
22.9759 58.9771
23.0214 58.9561
23.067 56.4584
23.1126 52.918
23.1581 50.7736
23.2037 50.4192
23.2492 50.6294
23.2948 50.7299
23.3403 51.0121
23.3859 51.4867
23.4314 52.437
23.477 54.048
23.5225 55.7156
23.5682 57.7064
23.6137 59.3337
23.6593 57.6029
23.7048 53.6886
23.7505 49.9586
23.796 48.1392
23.8417 47.412
23.8872 47.047
23.9329 46.6492
23.9784 46.2058
24.0241 45.9962
24.0697 45.8136
24.1154 45.3714
24.1609 45.3722
24.2066 45.1672
24.2522 45.0704
24.2979 44.8146
24.3434 44.6104
24.3892 44.5584
24.4349 44.4399
24.4805 44.2548
24.5262 44.3189
24.5718 44.2516
24.6175 44.1902
24.6631 44.2493
24.7089 43.8776
24.7545 43.683
24.8002 43.4887
24.8458 43.5518
24.8916 43.416
24.9372 43.5938
24.983 43.9914
25.0286 44.215
25.0744 44.5719
25.12 45.0684
25.1658 45.6513
25.2114 46.0381
25.2572 46.0579
25.3029 45.9473
25.3487 45.924
25.3943 45.961
25.4402 44.9822
25.4858 43.9269
25.5316 42.8354
25.5773 42.1976
25.6231 42.0404
25.669 41.8231
25.7147 41.7136
25.7605 41.7941
25.8062 41.8013
25.8521 41.842
25.8977 41.8795
25.9436 42.1319
25.9893 42.0029
26.0352 42.4763
26.0809 42.687
26.1268 42.9053
26.1725 42.7538
26.2184 42.1469
26.2641 41.6635
26.31 41.4917
26.3557 41.5791
26.4017 41.4795
26.4474 41.8049
26.4933 42.0477
26.5391 42.4213
26.585 42.6754
26.6308 43.0736
26.6767 43.3795
26.7225 43.3602
26.7684 42.6291
26.8142 41.96
26.8601 41.5713
26.9059 41.2992
26.9519 40.7595
26.9979 40.4399
27.0437 39.9273
27.0896 39.8886
27.1354 39.9038
27.1814 40.0194
27.2272 39.6143
27.2732 39.7122
27.3191 39.5714
27.3651 39.6443
27.4109 39.5863
27.4569 39.5251
27.5027 39.5841
27.5488 39.6189
27.5946 39.5645
27.6407 39.4672
27.6865 39.3138
27.7326 39.045
27.7784 38.9572
27.8245 39.0573
27.8703 39.2527
27.9164 39.3901
27.9623 39.4973
28.0084 39.7868
28.0543 40.0944
28.1003 40.1239
28.1462 39.9691
28.1923 39.6148
28.2384 39.0535
28.2843 38.8076
28.3304 38.3984
28.3764 37.9145
28.4225 37.505
28.4684 37.2688
28.5145 37.0244
28.5605 36.8506
28.6066 36.7311
28.6526 36.7589
28.6987 36.7558
28.7447 36.5405
28.7908 36.5579
28.8368 36.4865
28.8829 36.4028
28.9289 36.3749
28.9751 36.2328
29.0211 35.9611
29.0673 35.7495
29.1133 35.5999
29.1595 35.4341
29.2055 35.4279
29.2517 35.3581
29.2977 35.2296
29.3439 35.1813
29.3899 35.1202
29.4361 35.0673
29.4824 34.9133
29.5284 34.7963
29.5746 34.3939
29.6207 34.0176
29.6669 34.0058
29.713 33.9768
29.7593 33.8136
29.8053 33.7467
29.8516 33.909
29.8977 33.7721
29.9439 33.6545
29.99 33.6427
30.0363 33.3386
30.0824 33.4752
30.1287 33.3296
30.1748 33.4238
30.2211 33.4838
30.2673 33.2234
30.3136 33.2975
30.3597 33.3553
30.406 33.1049
30.4522 33.1091
30.4985 33.0139
30.5447 33.1836
30.591 33.0404
30.6372 33.1118
30.6835 33.1725
30.7297 33.1015
30.7761 33.1096
30.8224 33.0198
30.8686 32.7651
30.915 32.5377
30.9612 32.4363
31.0076 32.2631
31.0538 32.0863
31.1002 32.065
31.1464 31.8714
31.1928 31.8568
31.2391 31.9577
31.2855 31.7414
31.3317 31.7634
31.3781 31.8542
31.4244 31.798
31.4708 31.7051
31.5171 31.6825
31.5636 31.6966
31.6098 31.3789
31.6563 31.2806
31.7026 31.2103
31.7491 31.0149
31.7953 31.1354
31.8418 31.0356
31.8881 31.0339
31.9346 30.9492
31.9809 30.9433
32.0275 30.8683
32.074 30.6991
32.1203 30.4262
32.1668 30.3428
32.2132 30.2441
32.2597 30.1303
32.306 30.0667
32.3526 29.7878
32.399 29.7425
32.4455 29.6259
32.4919 29.5528
32.5385 29.5382
32.5848 29.287
32.6314 29.2944
32.6778 29.3153
32.7244 29.14
32.7708 28.9964
32.8174 29.0275
32.8638 28.8279
32.9104 28.8815
32.9569 28.914
33.0035 28.6385
33.0499 28.7522
33.0966 28.6584
33.143 28.4558
33.1897 28.5662
33.2361 28.3843
33.2828 28.32
33.3293 28.2527
33.3759 28.1839
33.4226 28.0751
33.4691 27.9319
33.5158 27.8587
33.5623 27.7048
33.609 27.5061
33.6555 27.4215
33.7022 27.3205
33.7487 27.2959
33.7954 27.2704
33.842 27.1293
33.8887 27.0792
33.9353 27.0087
33.982 26.9177
34.0286 26.8063
34.0753 26.7121
34.1219 26.7156
34.1687 26.5731
34.2152 26.4786
34.262 26.4354
34.3086 26.352
34.3554 26.2249
34.402 26.1003
34.4488 26.0371
34.4954 26.0086
34.5422 25.9091
34.5889 25.7844
34.6357 25.672
34.6825 25.6686
34.7292 25.5471
34.776 25.4614
34.8227 25.4333
34.8695 25.3833
34.9162 25.287
34.9631 25.2804
35.0098 25.2115
35.0566 25.0522
35.1033 25.0354
35.1502 24.9749
35.1969 24.8073
35.2438 24.8801
35.2906 24.7472
35.3375 24.7084
35.3842 24.6778
35.4311 24.6455
35.4779 24.7008
35.5248 24.5577
35.5716 24.5665
35.6185 24.3739
35.6653 24.2803
35.7123 24.1581
35.759 24.1485
35.806 24.0119
35.8528 23.9316
35.8998 23.8578
35.9468 23.7457
35.9936 23.7689
36.0406 23.619
36.0874 23.6631
36.1345 23.5787
36.1813 23.435
36.2283 23.3655
36.2752 23.3132
36.3222 23.3518
36.3691 23.2366
36.4161 23.1127
36.463 23.1046
36.5101 23.0716
36.557 22.9744
36.6041 22.7988
36.651 22.8382
36.6981 22.7059
36.745 22.6797
36.7921 22.6472
36.839 22.5
36.8861 22.48
36.9331 22.3807
36.9802 22.3834
37.0272 22.2214
37.0743 22.1005
37.1213 21.9838
37.1684 22.0253
37.2154 21.9657
37.2626 21.8816
37.3098 21.8164
37.3568 21.7291
37.404 21.7682
37.451 21.5776
37.4982 21.5291
37.5452 21.4993
37.5924 21.3632
37.6395 21.4417
37.6867 21.3018
37.7337 21.1608
37.781 21.1138
37.8281 21.0234
37.8753 20.9432
37.9224 20.9798
37.9697 20.8831
38.0168 20.7774
38.064 20.74
38.1111 20.6511
38.1584 20.5553
38.2056 20.5254
38.2529 20.4537
38.3 20.4667
38.3473 20.4158
38.3945 20.2163
38.4418 20.2321
38.489 20.1907
38.5363 20.0809
38.5837 20.0234
38.6309 19.9646
38.6782 19.9055
38.7254 19.8182
38.7728 19.7626
38.82 19.7269
38.8674 19.6287
38.9146 19.5733
38.9621 19.5641
39.0093 19.4352
39.0567 19.4194
39.104 19.3375
39.1514 19.1961
39.1987 19.2221
39.2461 19.1456
39.2934 19.1024
39.3409 19.0309
39.3882 18.9128
39.4356 18.8853
39.483 18.8392
39.5304 18.7529
39.5778 18.7492
39.6253 18.6869
39.6726 18.6103
39.7201 18.586
39.7675 18.4902
39.815 18.4743
39.8624 18.3771
39.9099 18.4111
39.9575 18.2364
40.0049 18.1989
40.0525 18.131
40.0999 18.0714
40.1474 18.0425
40.1949 18.0174
40.2425 17.8835
40.2899 17.8517
40.3375 17.8028
40.385 17.7381
40.4326 17.6872
40.48 17.6142
40.5277 17.5702
40.5752 17.5224
40.6228 17.4496
40.6703 17.3846
40.718 17.3771
40.7655 17.353
40.8132 17.2568
40.8607 17.221
40.9084 17.1503
40.9559 17.1274
41.0036 17.0424
41.0512 17.0172
41.0989 16.9287
41.1465 16.8714
41.1942 16.8273
41.242 16.754
41.2896 16.662
41.3373 16.6386
41.3849 16.5698
41.4327 16.5381
41.4803 16.4203
41.5281 16.4481
41.5758 16.3195
41.6236 16.3033
41.6712 16.2304
41.7191 16.1924
41.7667 16.116
41.8146 16.1165
41.8622 16.0644
41.9101 16.0313
41.9578 15.9201
42.0057 15.8696
42.0534 15.8142
42.1013 15.7823
42.149 15.6805
42.1969 15.6337
42.2446 15.6342
42.2925 15.5823
42.3403 15.4955
42.3882 15.4729
42.436 15.4659
42.4839 15.3752
42.5319 15.2694
42.5797 15.219
42.6277 15.1985
42.6755 15.1515
42.7235 15.0783
42.7713 15.033
42.8193 14.9811
42.8671 14.943
42.9152 14.8681
42.963 14.811
43.0111 14.792
43.0589 14.739
43.107 14.6819
43.1549 14.6537
43.2029 14.5584
43.2508 14.4886
43.2989 14.4713
43.3468 14.405
43.3949 14.3518
43.4429 14.4032
43.491 14.2826
43.5389 14.2175
43.5871 14.2017
43.635 14.0914
43.6832 14.0728
43.7312 14.0138
43.7793 13.9933
43.8273 13.9278
43.8755 13.7973
43.9237 13.7904
43.9717 13.8051
44.0199 13.7419
44.068 13.7375
44.1162 13.6232
44.1642 13.5851
44.2125 13.5507
44.2606 13.5289
44.3088 13.4495
44.3569 13.4568
44.4052 13.328
44.4533 13.3227
44.5016 13.2609
44.5497 13.1845
44.598 13.2026
44.6461 13.1103
44.6945 13.0958
44.7426 13.0818
44.791 13.0029
44.8391 12.9466
44.8875 12.8921
44.9357 12.8512
44.984 12.7919
45.0322 12.7576
45.0806 12.7508
45.1288 12.6832
45.1773 12.6641
45.2257 12.5925
45.2739 12.5022
45.3224 12.4726
45.3706 12.4686
45.4191 12.3525
45.4673 12.3535
45.5158 12.294
45.5641 12.3072
45.6126 12.2609
45.6609 12.1701
45.7094 12.161
45.7577 12.1006
45.8063 12.0737
45.8546 12.0539
45.9031 11.9755
45.9515 11.9029
46.0001 11.8816
46.0484 11.9069
46.097 11.8233
46.1454 11.7921
46.194 11.7266
46.2424 11.6547
46.291 11.6172
46.3395 11.5832
46.3881 11.5805
46.4365 11.487
46.4852 11.4713
46.5337 11.4005
46.5823 11.3928
46.631 11.3445
46.6795 11.2981
46.7282 11.2643
46.7767 11.2168
46.8254 11.1699
46.8739 11.1564
46.9226 11.0816
46.9712 11.0253
47.0199 11.0016
47.0685 10.9547
47.1173 10.9111
47.1658 10.8657
47.2146 10.8509
47.2632 10.8048
47.312 10.783
47.3606 10.7223
47.4095 10.697
47.4581 10.6731
47.5069 10.6113
47.5556 10.5761
47.6044 10.525
47.6531 10.5003
47.702 10.4315
47.7507 10.4071
47.7996 10.388
47.8483 10.3429
47.8972 10.2897
47.9461 10.2613
47.9948 10.2343
48.0438 10.2064
48.0925 10.1439
48.1415 10.1213
48.1902 10.0845
48.2392 10.0583
48.288 10.0128
48.337 9.99811
48.3858 9.93135
48.4348 9.88756
48.4837 9.85547
48.5327 9.86788
48.5815 9.8116
48.6306 9.77023
48.6795 9.75434
48.7285 9.73479
48.7774 9.62062
48.8265 9.63529
48.8754 9.61044
48.9245 9.57906
48.9734 9.48637
49.0226 9.48662
49.0715 9.44302
49.1206 9.38023
49.1696 9.35005
49.2188 9.35944
49.2679 9.30408
49.3169 9.27028
49.3661 9.23757
49.4151 9.19005
49.4643 9.13702
49.5134 9.08888
49.5626 9.04071
49.6117 9.03819
49.6609 9.00563
49.71 8.97784
49.7592 8.93276
49.8083 8.91189
49.8576 8.87194
49.9067 8.87185
49.956 8.83039
50.0052 8.77376
50.0545 8.7501
50.1036 8.66635
50.153 8.67601
50.2022 8.64741
50.2515 8.60801
50.3007 8.55904
50.3501 8.55218
50.3993 8.49971
50.4487 8.45464
50.498 8.43488
50.5474 8.40293
50.5966 8.36237
50.6461 8.34652
50.6955 8.31341
50.7448 8.29551
50.7943 8.27089
50.8436 8.20049
50.8931 8.17634
50.9424 8.13689
50.9919 8.11129
51.0413 8.10344
51.0908 8.0344
51.1402 8.02056
51.1897 7.97977
51.2391 7.96591
51.2887 7.9297
51.3381 7.8904
51.3877 7.88497
51.4371 7.82696
51.4867 7.78626
51.5362 7.74801
51.5858 7.72753
51.6353 7.67158
51.6849 7.68237
51.7344 7.65054
51.7841 7.59265
51.8336 7.56879
51.8833 7.56248
51.9328 7.49103
51.9826 7.4588
52.0323 7.4505
52.0818 7.38672
52.1316 7.3548
52.1812 7.34934
52.231 7.3439
52.2806 7.28067
52.3304 7.28184
52.38 7.23479
52.4298 7.18817
52.4794 7.14148
52.5293 7.09105
52.5789 7.09079
52.6288 7.06784
52.6785 7.01046
52.7284 7.01365
52.7781 6.99957
52.828 7.00086
52.8777 6.94926
52.9276 6.87727
52.9774 6.89213
53.0273 6.86024
53.0771 6.81547
53.1271 6.81941
53.1769 6.74931
53.2269 6.75232
53.2767 6.6855
53.3267 6.67341
53.3765 6.66747
53.4266 6.61434
53.4766 6.57856
53.5265 6.52881
53.5765 6.52718
53.6264 6.49208
53.6765 6.51913
53.7264 6.47088
53.7765 6.42357
53.8265 6.38044
53.8766 6.31935
53.9266 6.28076
53.9767 6.27661
54.0267 6.25527
54.0769 6.25677
54.1269 6.22352
54.1771 6.18213
54.2271 6.18354
54.2773 6.15987
54.3274 6.12606
54.3776 6.06998
54.4277 6.02225
54.478 6.01744
54.528 5.96403
54.5783 5.89473
54.6285 5.89606
54.6788 5.88284
54.7289 5.80968
54.7792 5.72454
54.8296 5.71685
54.8798 5.61383
54.9301 5.6237
54.9803 5.59758
55.0307 5.5602
55.0809 5.52799
55.1314 5.47174
55.1816 5.43715
55.232 5.42357
55.2823 5.29361
55.3328 5.2835
55.383 5.20885
55.4335 5.14672
55.4838 5.12316
55.5344 5.08772
55.5847 5.02092
55.6352 5.04329
55.6856 5.04057
55.7361 4.96233