File: XRD/Ni3Fe_FD0887.xy
TT I
1.27165 7.48387
1.31627 5.93436
1.36089 6.02451
1.40551 6.58434
1.45013 6.03972
1.49476 5.57843
1.53938 5.39554
1.584 4.84904
1.62863 5.39471
1.67325 5.20308
1.71787 5.40602
1.7625 4.97911
1.80712 4.03037
1.85174 4.45559
1.89636 4.91207
1.94099 5.15589
1.98562 5.13721
2.03025 4.63728
2.07487 5.00278
2.11949 5.37329
2.16411 5.07346
2.20874 16.8428
2.25338 28.2995
2.298 6.1341
2.34263 5.69005
2.38725 6.00308
2.43188 6.24643
2.4765 7.25087
2.52115 7.58475
2.56577 8.44969
2.6104 8.61955
2.65503 7.89023
2.69965 8.51867
2.7443 7.91092
2.78893 8.32666
2.83356 8.74057
2.87818 9.23346
2.92281 10.0605
2.96744 9.84528
3.01209 10.565
3.05672 10.855
3.10135 12.4975
3.14599 13.627
3.19062 14.5054
3.23527 15.3266
3.2799 15.8282
3.32454 16.7194
3.36917 17.9432
3.4138 19.1891
3.45844 20.3966
3.50309 21.0233
3.54773 21.7829
3.59237 24.2723
3.637 113.988
3.68164 70.1048
3.7263 26.6893
3.77094 26.1757
3.81558 26.8272
3.86022 27.8607
3.90486 29.3639
3.9495 29.8396
3.99416 30.8997
4.0388 32.0402
4.08344 33.7366
4.12809 35.2467
4.17273 36.9665
4.21738 44.268
4.26204 308.649
4.30669 275.923
4.35133 50.4904
4.39598 44.5453
4.44063 55.8597
4.4853 71.0002
4.52995 50.4789
4.5746 50.6827
4.61925 52.3786
4.6639 54.8924
4.70855 57.1463
4.75322 60.2411
4.79788 62.966
4.84253 66.5399
4.88719 70.1603
4.93184 73.3503
4.97652 78.5017
5.02118 84.6185
5.06583 91.3481
5.11049 101.074
5.15515 177.696
5.19981 285.916
5.24449 2306.75
5.28916 12922.7
5.33382 2917.21
5.37848 180.823
5.42315 125.227
5.46783 110.523
5.5125 103.897
5.55716 100.181
5.60183 96.9751
5.6465 95.079
5.69117 92.56
5.73586 90.1537
5.78053 89.3978
5.8252 88.2459
5.86988 88.8819
5.91455 90.3733
5.95924 96.3295
6.00392 167.076
6.0486 788.093
6.09328 4273.91
6.13795 3297.65
6.18263 243.271
6.22733 91.0895
6.27201 82.3782
6.3167 108.863
6.36138 82.6477
6.40606 68.597
6.45075 67.0874
6.49545 64.8639
6.54014 63.223
6.58483 62.3501
6.62952 62.5704
6.67421 101.52
6.71892 167.917
6.76361 71.5824
6.8083 58.3116
6.853 57.3879
6.89769 56.3911
6.94239 56.5834
6.98711 55.4767
7.03181 55.4153
7.07651 55.6172
7.12121 54.755
7.16591 55.1188
7.21063 55.3505
7.25533 74.067
7.30004 215.812
7.34475 102.586
7.38945 56.8574
7.43416 54.5427
7.47889 53.9749
7.5236 54.5658
7.56831 55.2197
7.61303 57.0395
7.65774 57.4484
7.70247 55.8546
7.74719 55.9627
7.79191 55.7183
7.83663 56.6829
7.88135 57.5284
7.92607 57.8624
7.97081 59.3345
8.01553 60.2301
8.06026 61.2058
8.10498 63.6797
8.14971 74.5982
8.19446 73.225
8.23919 68.8152
8.28392 70.7789
8.32865 72.7002
8.37339 76.5801
8.41812 83.8947
8.46288 117.063
8.50761 142.887
8.55235 321.34
8.59709 1077.38
8.64183 2234.54
8.68658 993.856
8.73134 168.335
8.77609 97.2506
8.82083 90.6191
8.86558 87.8674
8.91033 89.0665
8.9551 92.2459
8.99985 84.7734
9.04461 82.5761
9.08936 81.4841
9.13412 80.6516
9.17888 80.9648
9.22365 82.0229
9.26841 80.984
9.31318 80.9559
9.35794 81.5246
9.4027 81.772
9.44749 82.4773
9.49226 82.9007
9.53703 83.901
9.5818 86.0492
9.62657 91.6787
9.67134 99.6998
9.71614 92.7117
9.76091 92.3475
9.80569 94.6029
9.85047 97.7153
9.89525 127.443
9.94005 139.953
9.98484 154.198
10.0296 289.474
10.0744 722.469
10.1192 1718.94
10.164 1647.72
10.2088 411.626
10.2536 125.008
10.2984 112.877
10.3432 116.164
10.388 103.137
10.4328 110.996
10.4776 145.559
10.5224 260.536
10.5672 507.55
10.612 513.96
10.6568 201.753
10.7017 95.6093
10.7465 85.307
10.7913 82.1325
10.8361 80.1714
10.8809 77.8758
10.9257 77.9336
10.9706 79.0666
11.0154 74.2762
11.0602 71.9661
11.105 71.3424
11.1499 77.0671
11.1947 86.9441
11.2395 75.6174
11.2844 70.6896
11.3292 66.3353
11.374 65.4269
11.4189 64.9599
11.4637 64.2652
11.5086 65.1196
11.5534 69.0439
11.5983 65.4734
11.6431 63.2267
11.688 62.2497
11.7328 62.2167
11.7777 62.1316
11.8225 61.811
11.8674 61.7911
11.9122 62.0355
11.9571 62.1187
12.002 62.563
12.0468 65.5673
12.0917 75.2221
12.1366 96.1868
12.1814 148.979
12.2263 208.394
12.2712 170.545
12.3161 98.3046
12.3609 71.6607
12.4058 63.8616
12.4507 63.7145
12.4956 63.6607
12.5405 63.6709
12.5853 64.8557
12.6302 74.7949
12.6751 81.7147
12.72 70.25
12.7649 67.2081
12.8098 67.2068
12.8547 68.4027
12.8996 69.5102
12.9445 71.0416
12.9894 72.4515
13.0343 74.2835
13.0792 77.1969
13.1242 83.7687
13.1691 103.913
13.214 135.817
13.2589 219.269
13.3038 368.974
13.3487 434.777
13.3937 266.049
13.4386 123.974
13.4835 100.191
13.5285 111.6
13.5734 146.415
13.6183 237.537
13.6633 349.233
13.7082 349.687
13.7531 185.683
13.7981 96.0207
13.843 80.6595
13.888 78.3934
13.9329 75.899
13.9779 74.7733
14.0228 73.0865
14.0678 71.9378
14.1127 71.6488
14.1577 71.631
14.2027 70.4826
14.2476 69.1782
14.2926 69.8277
14.3376 71.1855
14.3825 69.6108
14.4275 67.8763
14.4725 67.605
14.5175 67.5515
14.5624 67.7954
14.6074 70.7586
14.6524 71.3969
14.6974 69.2901
14.7424 70.1132
14.7874 74.8964
14.8324 83.7501
14.8774 103.789
14.9224 146.936
14.9674 208.8
15.0124 220.013
15.0574 150.485
15.1024 89.7724
15.1474 71.3995
15.1924 69.6907
15.2374 70.9297
15.2824 69.9836
15.3274 67.6111
15.3725 65.9188
15.4175 65.4371
15.4625 64.9988
15.5076 65.3563
15.5526 65.3255
15.5976 64.5418
15.6426 65.1618
15.6877 68.9747
15.7327 75.3893
15.7778 88.9175
15.8228 119.539
15.8679 166.227
15.9129 195.438
15.958 156.798
16.003 95.5673
16.0481 67.3635
16.0931 64.6804
16.1382 62.3693
16.1833 59.8627
16.2283 58.2702
16.2734 57.6063
16.3185 58.2388
16.3636 59.2263
16.4086 57.4902
16.4537 55.5981
16.4988 54.7518
16.5439 54.8448
16.589 54.5386
16.6341 54.1583
16.6792 53.9109
16.7243 54.0773
16.7694 54.209
16.8145 54.1358
16.8596 54.5736
16.9047 56.527
16.9498 56.807
16.9949 55.1567
17.04 54.8088
17.0851 55.7015
17.1302 57.3193
17.1754 60.0443
17.2205 64.7644
17.2656 72.7062
17.3108 82.7718
17.3559 81.5861
17.401 69.7308
17.4462 60.9444
17.4913 58.2475
17.5365 58.0033
17.5815 58.418
17.6268 58.4378
17.6718 59.531
17.7171 60.0356
17.7622 60.3137
17.8074 60.6026
17.8525 62.2495
17.8977 65.7425
17.9428 70.6829
17.9881 78.2288
18.0331 95.3496
18.0784 118.777
18.1237 137.509
18.1688 129.632
18.214 101.9
18.2591 84.0409
18.3044 87.8464
18.3495 98.6909
18.3948 105.168
18.4399 95.8788
18.4852 76.6032
18.5303 65.143
18.5756 61.6404
18.6207 60.3345
18.666 59.5053
18.7112 58.8384
18.7565 58.192
18.8016 57.7489
18.8469 57.2001
18.892 56.801
18.9374 56.3953
18.9825 56.1069
19.0278 56.0858
19.073 55.8698
19.1183 56.4746
19.1635 57.2115
19.2088 58.3233
19.254 60.3676
19.2993 64.986
19.3447 71.7852
19.3898 76.4576
19.4352 71.9706
19.4804 62.4762
19.5257 56.0933
19.5709 53.4213
19.6163 53.2105
19.6615 52.8173
19.7068 52.5148
19.752 52.4337
19.7974 52.7088
19.8426 53.3517
19.888 53.9981
19.9332 55.151
19.9786 57.2808
20.0238 60.8257
20.0692 65.7544
20.1144 68.9817
20.1598 67.1555
20.205 62.2712
20.2504 61.0011
20.2957 63.3227
20.3411 65.2324
20.3863 63.7201
20.4318 57.7798
20.477 53.171
20.5224 51.3636
20.5677 50.4426
20.6131 49.6508
20.6586 48.9433
20.7038 48.924
20.7493 48.4107
20.7945 48.2221
20.84 48.045
20.8853 48.2374
20.9307 47.8476
20.976 48.0373
21.0215 47.7326
21.0668 48.1816
21.1122 48.4768
21.1575 49.4713
21.203 50.049
21.2483 50.7985
21.2938 50.545
21.3391 49.2535
21.3846 48.1648
21.4299 47.5681
21.4754 47.6843
21.5207 47.8818
21.5662 47.932
21.6116 48.129
21.6571 48.8729
21.7024 49.61
21.7479 51.3104
21.7933 54.0975
21.8388 57.7139
21.8843 61.7669
21.9297 64.0763
21.9752 62.5074
22.0206 58.6658
22.0661 55.9271
22.1115 55.393
22.157 55.3892
22.2024 53.4464
22.248 50.8613
22.2933 49.0895
22.3389 48.3868
22.3843 48.4967
22.4299 48.3941
22.4753 48.2939
22.5208 48.0048
22.5662 47.7403
22.6118 47.8762
22.6572 48.0529
22.7028 48.4261
22.7483 48.8043
22.7939 49.2066
22.8393 50.7339
22.8849 52.8068
22.9303 55.067
22.9759 57.0863
23.0214 56.8418
23.067 53.879
23.1126 50.5333
23.1581 48.6034
23.2037 48.0498
23.2492 48.0869
23.2948 47.8338
23.3403 48.2222
23.3859 48.8069
23.4314 49.7173
23.477 51.4338
23.5225 53.8074
23.5682 56.123
23.6137 57.5488
23.6593 55.2477
23.7048 51.0047
23.7505 47.7119
23.796 46.1954
23.8417 45.5459
23.8872 45.0161
23.9329 44.6275
23.9784 44.3338
24.0241 44.0251
24.0697 43.9321
24.1154 43.5874
24.1609 43.5747
24.2066 43.2973
24.2522 43.0788
24.2979 42.7992
24.3434 42.6733
24.3892 42.5596
24.4349 42.4785
24.4805 42.4757
24.5262 42.5549
24.5718 42.334
24.6175 42.2366
24.6631 42.2612
24.7089 42.0443
24.7545 41.749
24.8002 41.6965
24.8458 41.5818
24.8916 41.4493
24.9372 41.5008
24.983 41.8163
25.0286 42.1473
25.0744 42.4586
25.12 43.0495
25.1658 43.8231
25.2114 43.9632
25.2572 44.1761
25.3029 44.2855
25.3487 44.4858
25.3943 44.1356
25.4402 43.0801
25.4858 41.9034
25.5316 40.9147
25.5773 40.3215
25.6231 40.3085
25.669 39.9132
25.7147 39.9065
25.7605 39.8479
25.8062 39.9628
25.8521 40.0423
25.8977 39.9584
25.9436 40.1619
25.9893 40.3577
26.0352 40.9041
26.0809 40.9714
26.1268 41.266
26.1725 40.7809
26.2184 40.2573
26.2641 39.7399
26.31 39.5559
26.3557 39.5158
26.4017 39.5713
26.4474 39.843
26.4933 40.0169
26.5391 40.563
26.585 41.0113
26.6308 41.5504
26.6767 41.5933
26.7225 41.3392
26.7684 40.8446
26.8142 40.2614
26.8601 40.0396
26.9059 39.5137
26.9519 38.9685
26.9979 38.6599
27.0437 38.4444
27.0896 38.164
27.1354 38.0842
27.1814 38.1426
27.2272 37.8995
27.2732 37.9883
27.3191 37.7265
27.3651 37.896
27.4109 37.7558
27.4569 37.9658
27.5027 37.9751
27.5488 37.9066
27.5946 37.8967
27.6407 37.5
27.6865 37.5915
27.7326 37.2613
27.7784 37.3531
27.8245 37.3137
27.8703 37.3896
27.9164 37.6217
27.9623 37.7834
28.0084 38.0939
28.0543 38.5159
28.1003 38.4866
28.1462 38.2581
28.1923 37.9992
28.2384 37.4889
28.2843 37.0745
28.3304 36.6924
28.3764 36.292
28.4225 35.8205
28.4684 35.7504
28.5145 35.5251
28.5605 35.278
28.6066 35.2453
28.6526 35.1608
28.6987 35.3249
28.7447 34.9795
28.7908 34.9188
28.8368 35.1015
28.8829 34.9763
28.9289 34.8714
28.9751 34.655
29.0211 34.4783
29.0673 34.1262
29.1133 34.1671
29.1595 33.8691
29.2055 33.9441
29.2517 33.838
29.2977 33.762
29.3439 33.8603
29.3899 33.8313
29.4361 33.6903
29.4824 33.4916
29.5284 33.2371
29.5746 32.962
29.6207 32.6686
29.6669 32.6294
29.713 32.5522
29.7593 32.3993
29.8053 32.4629
29.8516 32.357
29.8977 32.3112
29.9439 32.174
29.99 32.2287
30.0363 31.8953
30.0824 31.9873
30.1287 31.9507
30.1748 32.0467
30.2211 31.9838
30.2673 31.8083
30.3136 32.007
30.3597 31.8442
30.406 31.744
30.4522 31.581
30.4985 31.5519
30.5447 31.7303
30.591 31.6787
30.6372 31.729
30.6835 31.7736
30.7297 31.7624
30.7761 31.7283
30.8224 31.5927
30.8686 31.506
30.915 31.2324
30.9612 31.0587
31.0076 30.8116
31.0538 30.6727
31.1002 30.6775
31.1464 30.5331
31.1928 30.5292
31.2391 30.4196
31.2855 30.3974
31.3317 30.4552
31.3781 30.502
31.4244 30.5074
31.4708 30.3664
31.5171 30.3838
31.5636 30.4448
31.6098 30.084
31.6563 29.9204
31.7026 29.859
31.7491 29.7139
31.7953 29.6314
31.8418 29.631
31.8881 29.6571
31.9346 29.7492
31.9809 29.6373
32.0275 29.4705
32.074 29.474
32.1203 29.148
32.1668 29.1466
32.2132 29.0593
32.2597 28.8476
32.306 28.8298
32.3526 28.5904
32.399 28.5789
32.4455 28.3548
32.4919 28.4314
32.5385 28.2775
32.5848 28.0285
32.6314 28.1204
32.6778 28.0514
32.7244 27.9181
32.7708 27.8684
32.8174 27.8365
32.8638 27.6785
32.9104 27.6448
32.9569 27.6677
33.0035 27.4193
33.0499 27.4251
33.0966 27.3996
33.143 27.4244
33.1897 27.3004
33.2361 27.2477
33.2828 27.3066
33.3293 26.984
33.3759 27.0636
33.4226 26.8398
33.4691 26.7897
33.5158 26.7429
33.5623 26.5232
33.609 26.2923
33.6555 26.2749
33.7022 26.2786
33.7487 26.2228
33.7954 26.1577
33.842 25.9902
33.8887 26.0425
33.9353 25.9162
33.982 25.8257
34.0286 25.7576
34.0753 25.6903
34.1219 25.6689
34.1687 25.4703
34.2152 25.458
34.262 25.3552
34.3086 25.1517
34.3554 25.2711
34.402 25.1282
34.4488 24.897
34.4954 24.9809
34.5422 24.8583
34.5889 24.7313
34.6357 24.64
34.6825 24.5603
34.7292 24.512
34.776 24.4349
34.8227 24.3979
34.8695 24.3478
34.9162 24.2562
34.9631 24.1541
35.0098 24.1914
35.0566 24.028
35.1033 23.962
35.1502 23.9517
35.1969 23.934
35.2438 23.8062
35.2906 23.7944
35.3375 23.8028
35.3842 23.6805
35.4311 23.6582
35.4779 23.6845
35.5248 23.6155
35.5716 23.4302
35.6185 23.3881
35.6653 23.3722
35.7123 23.2386
35.759 23.2116
35.806 23.0404
35.8528 22.966
35.8998 22.8966
35.9468 22.8364
35.9936 22.7975
36.0406 22.727
36.0874 22.689
36.1345 22.6761
36.1813 22.5433
36.2283 22.4492
36.2752 22.3433
36.3222 22.4177
36.3691 22.3028
36.4161 22.1817
36.463 22.2315
36.5101 22.0559
36.557 22.1077
36.6041 21.8558
36.651 21.8575
36.6981 21.8376
36.745 21.7468
36.7921 21.6382
36.839 21.513
36.8861 21.4889
36.9331 21.4553
36.9802 21.4201
37.0272 21.2792
37.0743 21.2121
37.1213 21.2106
37.1684 21.1186
37.2154 21.0508
37.2626 20.9855
37.3098 21.0389
37.3568 20.8316
37.404 20.7934
37.451 20.7634
37.4982 20.6729
37.5452 20.5526
37.5924 20.5427
37.6395 20.6349
37.6867 20.5081
37.7337 20.3591
37.781 20.2789
37.8281 20.2515
37.8753 20.1649
37.9224 20.0339
37.9697 20.0208
38.0168 19.946
38.064 19.8895
38.1111 19.9024
38.1584 19.8169
38.2056 19.6788
38.2529 19.6917
38.3 19.6136
38.3473 19.558
38.3945 19.4611
38.4418 19.4516
38.489 19.3902
38.5363 19.3042
38.5837 19.2066
38.6309 19.1443
38.6782 19.1104
38.7254 19.0029
38.7728 19.0181
38.82 18.9001
38.8674 18.8282
38.9146 18.8515
38.9621 18.7207
39.0093 18.7352
39.0567 18.6406
39.104 18.5727
39.1514 18.4711
39.1987 18.3718
39.2461 18.4519
39.2934 18.3983
39.3409 18.2618
39.3882 18.1545
39.4356 18.1787
39.483 18.0789
39.5304 18.0125
39.5778 18.0012
39.6253 17.9367
39.6726 17.9128
39.7201 17.8229
39.7675 17.7491
39.815 17.679
39.8624 17.6426
39.9099 17.5651
39.9575 17.4748
40.0049 17.513
40.0525 17.4382
40.0999 17.3824
40.1474 17.3217
40.1949 17.2647
40.2425 17.2148
40.2899 17.127
40.3375 17.0835
40.385 17.063
40.4326 16.9935
40.48 16.9234
40.5277 16.9033
40.5752 16.8215
40.6228 16.7716
40.6703 16.6839
40.718 16.6573
40.7655 16.6274
40.8132 16.5504
40.8607 16.4755
40.9084 16.4487
40.9559 16.3961
41.0036 16.3727
41.0512 16.3254
41.0989 16.2906
41.1465 16.1761
41.1942 16.1281
41.242 16.082
41.2896 16.0114
41.3373 16.007
41.3849 15.9202
41.4327 15.9027
41.4803 15.8123
41.5281 15.7982
41.5758 15.6794
41.6236 15.6374
41.6712 15.6403
41.7191 15.5009
41.7667 15.5615
41.8146 15.4939
41.8622 15.3849
41.9101 15.35
41.9578 15.2443
42.0057 15.2294
42.0534 15.1374
42.1013 15.1677
42.149 15.0889
42.1969 15.0469
42.2446 14.9932
42.2925 14.9547
42.3403 14.8814
42.3882 14.9351
42.436 14.8153
42.4839 14.7135
42.5319 14.7074
42.5797 14.6615
42.6277 14.5968
42.6755 14.5342
42.7235 14.4674
42.7713 14.4288
42.8193 14.3658
42.8671 14.4214
42.9152 14.2911
42.963 14.2795
43.0111 14.1653
43.0589 14.1382
43.107 14.1258
43.1549 14.0394
43.2029 13.9878
43.2508 13.9989
43.2989 13.9547
43.3468 13.8374
43.3949 13.838
43.4429 13.7747
43.491 13.7019
43.5389 13.7149
43.5871 13.6438
43.635 13.5676
43.6832 13.5172
43.7312 13.4548
43.7793 13.4557
43.8273 13.4157
43.8755 13.3359
43.9237 13.3214
43.9717 13.2991
44.0199 13.2105
44.068 13.1855
44.1162 13.1541
44.1642 13.1404
44.2125 13.0983
44.2606 12.9815
44.3088 12.8866
44.3569 12.8825
44.4052 12.8566
44.4533 12.7879
44.5016 12.7227
44.5497 12.7137
44.598 12.6885
44.6461 12.6341
44.6945 12.5927
44.7426 12.5449
44.791 12.4768
44.8391 12.4756
44.8875 12.3913
44.9357 12.3981
44.984 12.3062
45.0322 12.2726
45.0806 12.2216
45.1288 12.1999
45.1773 12.1347
45.2257 12.0682
45.2739 12.0352
45.3224 12.0117
45.3706 11.9788
45.4191 11.9139
45.4673 11.9386
45.5158 11.8804
45.5641 11.7989
45.6126 11.7387
45.6609 11.6846
45.7094 11.6796
45.7577 11.6035
45.8063 11.5753
45.8546 11.5422
45.9031 11.5156
45.9515 11.4816
46.0001 11.421
46.0484 11.4114
46.097 11.3574
46.1454 11.2883
46.194 11.2622
46.2424 11.2218
46.291 11.2057
46.3395 11.1837
46.3881 11.0933
46.4365 11.0481
46.4852 11.0288
46.5337 11.0079
46.5823 10.9802
46.631 10.9036
46.6795 10.9038
46.7282 10.8642
46.7767 10.8023
46.8254 10.7431
46.8739 10.7472
46.9226 10.6893
46.9712 10.6364
47.0199 10.601
47.0685 10.5514
47.1173 10.4936
47.1658 10.5068
47.2146 10.4179
47.2632 10.3886
47.312 10.3566
47.3606 10.341
47.4095 10.2776
47.4581 10.2306
47.5069 10.1851
47.5556 10.1424
47.6044 10.0904
47.6531 10.0959
47.702 10.0644
47.7507 10.0094
47.7996 9.9383
47.8483 9.9427
47.8972 9.92933
47.9461 9.89276
47.9948 9.85288
48.0438 9.75645
48.0925 9.76198
48.1415 9.76573
48.1902 9.66993
48.2392 9.68202
48.288 9.63858
48.337 9.60593
48.3858 9.55287
48.4348 9.53253
48.4837 9.51518
48.5327 9.40943
48.5815 9.4247
48.6306 9.40414
48.6795 9.38204
48.7285 9.29451
48.7774 9.2814
48.8265 9.27559
48.8754 9.19498
48.9245 9.16659
48.9734 9.13432
49.0226 9.10148
49.0715 9.09127
49.1206 9.04382
49.1696 9.0016
49.2188 8.94671
49.2679 8.95676
49.3169 8.90921
49.3661 8.86333
49.4151 8.84428
49.4643 8.81737
49.5134 8.78619
49.5626 8.70004
49.6117 8.69321
49.6609 8.67398
49.71 8.61591
49.7592 8.56786
49.8083 8.58864
49.8576 8.55048
49.9067 8.50801
49.956 8.52857
50.0052 8.44721
50.0545 8.42094
50.1036 8.3871
50.153 8.36528
50.2022 8.33768
50.2515 8.28141
50.3007 8.23575
50.3501 8.19554
50.3993 8.17076
50.4487 8.13158
50.498 8.10367
50.5474 8.0766
50.5966 8.04831
50.6461 8.01826
50.6955 8.00844
50.7448 7.95288
50.7943 7.95859
50.8436 7.89604
50.8931 7.89599
50.9424 7.87435
50.9919 7.79037
51.0413 7.80242
51.0908 7.73483
51.1402 7.69173
51.1897 7.69897
51.2391 7.657
51.2887 7.58279
51.3381 7.56778
51.3877 7.54227
51.4371 7.52301
51.4867 7.49474
51.5362 7.46832
51.5858 7.45466
51.6353 7.39808
51.6849 7.36926
51.7344 7.3547
51.7841 7.34475
51.8336 7.30424
51.8833 7.28605
51.9328 7.18414
51.9826 7.2045
52.0323 7.17069
52.0818 7.09059
52.1316 7.14027
52.1812 7.09549
52.231 7.04521
52.2806 7.03058
52.3304 6.97848
52.38 6.96192
52.4298 6.95498
52.4794 6.90936
52.5293 6.89572
52.5789 6.86386
52.6288 6.86184
52.6785 6.78551
52.7284 6.75803
52.7781 6.72849
52.828 6.68573
52.8777 6.67677
52.9276 6.63105
52.9774 6.62606
53.0273 6.62252
53.0771 6.55234
53.1271 6.53422
53.1769 6.52914
53.2269 6.48397
53.2767 6.44996
53.3267 6.41949
53.3765 6.43187
53.4266 6.33907
53.4766 6.35533
53.5265 6.32186
53.5765 6.30228
53.6264 6.28195
53.6765 6.27614
53.7264 6.25789
53.7765 6.23119
53.8265 6.15813
53.8766 6.11883
53.9266 6.11474
53.9767 6.08697
54.0267 6.06471
54.0769 6.03649
54.1269 6.01376
54.1771 5.94804
54.2271 5.94174
54.2773 5.88523
54.3274 5.87327
54.3776 5.81697
54.4277 5.79172
54.478 5.79592
54.528 5.70844
54.5783 5.68692
54.6285 5.68298
54.6788 5.60414
54.7289 5.54194
54.7792 5.53224
54.8296 5.47162
54.8798 5.39672
54.9301 5.39275
54.9803 5.39566
55.0307 5.39889
55.0809 5.34528
55.1314 5.29275
55.1816 5.2533
55.232 5.1685
55.2823 5.15168
55.3328 5.11431
55.383 5.12306
55.4335 5.02968
55.4838 4.99363
55.5344 4.88896
55.5847 4.84137
55.6352 4.87669
55.6856 4.83821
55.7361 4.73875