File: XRD/Ni3Fe_FD0804.xy
TT I
1.27165 6.97695
1.31627 6.47698
1.36089 6.86079
1.40551 6.07082
1.45013 6.13859
1.49476 6.28838
1.53938 5.93329
1.584 5.00902
1.62863 4.90691
1.67325 5.08039
1.71787 4.87219
1.7625 4.41012
1.80712 4.63384
1.85174 4.5012
1.89636 5.08813
1.94099 4.73077
1.98562 4.81557
2.03025 4.22646
2.07487 4.74904
2.11949 4.54583
2.16411 4.63977
2.20874 9.13568
2.25338 13.4316
2.298 5.32327
2.34263 5.76961
2.38725 6.50311
2.43188 6.41772
2.4765 6.77691
2.52115 6.61297
2.56577 7.43996
2.6104 8.44404
2.65503 8.34138
2.69965 8.25932
2.7443 8.24498
2.78893 8.28615
2.83356 8.30623
2.87818 8.4734
2.92281 8.63488
2.96744 10.1446
3.01209 10.3055
3.05672 10.7567
3.10135 12.2156
3.14599 12.8766
3.19062 14.3378
3.23527 15.1144
3.2799 15.5499
3.32454 16.5604
3.36917 17.7922
3.4138 18.9239
3.45844 19.9825
3.50309 20.6223
3.54773 20.9944
3.59237 23.4364
3.637 55.9761
3.68164 40.242
3.7263 25.4239
3.77094 25.8493
3.81558 26.377
3.86022 26.9097
3.90486 29.0033
3.9495 29.4572
3.99416 30.2167
4.0388 31.7981
4.08344 32.9937
4.12809 34.2259
4.17273 35.4258
4.21738 39.841
4.26204 139.47
4.30669 120.746
4.35133 44.1971
4.39598 43.4871
4.44063 48.697
4.4853 55.6344
4.52995 55.1129
4.5746 55.1489
4.61925 53.2356
4.6639 55.1409
4.70855 57.6988
4.75322 61.2004
4.79788 66.2826
4.84253 67.9137
4.88719 73.6684
4.93184 75.8168
4.97652 80.0762
5.02118 86.2145
5.06583 94.4407
5.11049 105.447
5.15515 156.773
5.19981 388.63
5.24449 2831.13
5.28916 12318.6
5.33382 2506.0
5.37848 185.316
5.42315 128.007
5.46783 115.806
5.5125 109.303
5.55716 100.993
5.60183 97.0748
5.6465 95.9721
5.69117 93.6311
5.73586 92.4191
5.78053 95.337
5.8252 95.3679
5.86988 98.188
5.91455 94.1249
5.95924 103.607
6.00392 235.99
6.0486 962.235
6.09328 4533.84
6.13795 3024.43
6.18263 205.132
6.22733 89.0197
6.27201 79.6574
6.3167 86.3915
6.36138 74.6862
6.40606 69.1655
6.45075 68.3889
6.49545 64.9724
6.54014 62.9538
6.58483 62.2794
6.62952 62.1288
6.67421 76.2264
6.71892 98.0425
6.76361 62.916
6.8083 58.7091
6.853 58.375
6.89769 56.3383
6.94239 55.6815
6.98711 54.9446
7.03181 55.1846
7.07651 54.6906
7.12121 54.3468
7.16591 55.1672
7.21063 54.5746
7.25533 61.9552
7.30004 111.23
7.34475 71.3829
7.38945 54.8434
7.43416 53.3523
7.47889 53.3827
7.5236 54.0101
7.56831 54.549
7.61303 55.1351
7.65774 55.8454
7.70247 56.1995
7.74719 55.7394
7.79191 55.8744
7.83663 56.4341
7.88135 57.0149
7.92607 57.9097
7.97081 59.2665
8.01553 60.1682
8.06026 61.9591
8.10498 63.3872
8.14971 70.4235
8.19446 70.0849
8.23919 68.9064
8.28392 71.3711
8.32865 73.5772
8.37339 77.849
8.41812 83.659
8.46288 103.678
8.50761 176.52
8.55235 383.856
8.59709 1217.64
8.64183 2178.73
8.68658 840.041
8.73134 146.963
8.77609 96.8488
8.82083 91.2603
8.86558 90.9097
8.91033 90.6118
8.9551 88.8708
8.99985 84.5864
9.04461 83.0713
9.08936 83.2131
9.13412 82.1031
9.17888 81.5111
9.22365 81.7049
9.26841 81.0621
9.31318 83.6542
9.35794 84.9598
9.4027 84.6487
9.44749 84.4729
9.49226 83.8579
9.53703 84.883
9.5818 87.8543
9.62657 92.894
9.67134 95.1889
9.71614 92.1275
9.76091 93.7372
9.80569 97.7863
9.85047 100.279
9.89525 113.034
9.94005 127.28
9.98484 188.751
10.0296 343.129
10.0744 830.119
10.1192 1795.68
10.164 1500.61
10.2088 343.232
10.2536 119.785
10.2984 108.903
10.3432 108.401
10.388 104.345
10.4328 121.332
10.4776 161.681
10.5224 292.213
10.5672 533.499
10.612 485.127
10.6568 184.825
10.7017 94.1101
10.7465 85.7264
10.7913 82.2899
10.8361 79.9197
10.8809 77.8531
10.9257 77.4327
10.9706 77.2997
11.0154 74.264
11.0602 71.9576
11.105 70.6899
11.1499 72.2707
11.1947 74.9315
11.2395 70.2859
11.2844 68.0346
11.3292 66.4645
11.374 65.3716
11.4189 64.8453
11.4637 63.8863
11.5086 64.0724
11.5534 65.304
11.5983 63.6796
11.6431 62.6076
11.688 62.3515
11.7328 62.4399
11.7777 62.0839
11.8225 61.8711
11.8674 61.9747
11.9122 61.9599
11.9571 62.4052
12.002 63.4975
12.0468 68.1242
12.0917 77.8284
12.1366 102.361
12.1814 158.099
12.2263 214.148
12.2712 167.112
12.3161 88.0673
12.3609 66.5359
12.4058 63.6489
12.4507 63.5405
12.4956 63.9093
12.5405 63.9107
12.5853 64.6149
12.6302 67.9368
12.6751 71.0134
12.72 67.7082
12.7649 67.1635
12.8098 67.8345
12.8547 69.0947
12.8996 70.6538
12.9445 71.8686
12.9894 73.7531
13.0343 75.2825
13.0792 79.8468
13.1242 91.2316
13.1691 111.446
13.214 148.683
13.2589 248.961
13.3038 389.536
13.3487 415.825
13.3937 238.969
13.4386 116.98
13.4835 105.788
13.5285 119.715
13.5734 159.52
13.6183 257.06
13.6633 364.889
13.7082 327.391
13.7531 167.019
13.7981 92.4359
13.843 80.5776
13.888 78.7707
13.9329 76.4581
13.9779 74.9973
14.0228 73.4415
14.0678 72.266
14.1127 71.7437
14.1577 71.3239
14.2027 70.6105
14.2476 69.8021
14.2926 69.3491
14.3376 69.7682
14.3825 68.9616
14.4275 68.2719
14.4725 68.0324
14.5175 68.2655
14.5624 68.3868
14.6074 69.4043
14.6524 70.0729
14.6974 70.0936
14.7424 73.0996
14.7874 79.2105
14.8324 88.5113
14.8774 111.496
14.9224 159.044
14.9674 217.401
15.0124 218.936
15.0574 140.415
15.1024 85.8418
15.1474 71.1194
15.1924 69.3439
15.2374 69.0619
15.2824 68.1938
15.3274 66.8358
15.3725 66.2021
15.4175 65.9226
15.4625 65.2049
15.5076 65.2509
15.5526 65.3693
15.5976 65.2053
15.6426 67.282
15.6877 72.2461
15.7327 79.4435
15.7778 95.0848
15.8228 129.769
15.8679 178.567
15.9129 197.0
15.958 145.263
16.003 88.0792
16.0481 65.4763
16.0931 62.493
16.1382 60.8417
16.1833 59.5535
16.2283 58.1131
16.2734 57.5221
16.3185 57.4719
16.3636 57.2228
16.4086 56.2485
16.4537 55.3508
16.4988 54.7102
16.5439 54.7125
16.589 54.5847
16.6341 54.1802
16.6792 53.8873
16.7243 54.178
16.7694 53.954
16.8145 53.9886
16.8596 54.2234
16.9047 55.0818
16.9498 55.329
16.9949 54.7176
17.04 55.4718
17.0851 56.7949
17.1302 58.1767
17.1754 61.1431
17.2205 66.7413
17.2656 75.278
17.3108 83.391
17.3559 81.0812
17.401 68.582
17.4462 60.6996
17.4913 58.4537
17.5365 58.5458
17.5815 58.6877
17.6268 58.9271
17.6718 59.5552
17.7171 60.0923
17.7622 60.8288
17.8074 61.9136
17.8525 64.6695
17.8977 67.6941
17.9428 73.2407
17.9881 82.7637
18.0331 101.435
18.0784 125.413
18.1237 141.245
18.1688 126.606
18.214 98.6948
18.2591 84.7738
18.3044 91.2121
18.3495 102.08
18.3948 105.342
18.4399 91.8635
18.4852 73.8843
18.5303 64.3926
18.5756 61.467
18.6207 60.508
18.666 59.5801
18.7112 58.9534
18.7565 58.3835
18.8016 57.9609
18.8469 57.4105
18.892 57.1476
18.9374 56.5373
18.9825 56.3006
19.0278 56.1794
19.073 56.3549
19.1183 56.537
19.1635 57.3323
19.2088 58.6881
19.254 61.6628
19.2993 66.6035
19.3447 72.4722
19.3898 75.6061
19.4352 70.0416
19.4804 61.104
19.5257 55.5732
19.5709 53.6097
19.6163 53.1429
19.6615 53.085
19.7068 52.8355
19.752 52.8252
19.7974 53.0727
19.8426 53.8816
19.888 54.1826
19.9332 55.7429
19.9786 58.5078
20.0238 62.601
20.0692 67.5038
20.1144 69.8275
20.1598 67.1689
20.205 62.3526
20.2504 61.6519
20.2957 63.9912
20.3411 65.1365
20.3863 62.9096
20.4318 56.8135
20.477 52.4149
20.5224 50.7309
20.5677 50.1823
20.6131 49.6477
20.6586 49.2101
20.7038 48.8973
20.7493 48.4823
20.7945 48.5309
20.84 48.225
20.8853 48.295
20.9307 48.1464
20.976 48.1599
21.0215 48.0649
21.0668 48.4438
21.1122 49.122
21.1575 49.6548
21.203 50.5451
21.2483 50.9819
21.2938 50.7236
21.3391 49.4306
21.3846 48.2701
21.4299 47.865
21.4754 47.9386
21.5207 48.1728
21.5662 48.5521
21.6116 48.9221
21.6571 49.5137
21.7024 50.4899
21.7479 52.2626
21.7933 55.2811
21.8388 59.1755
21.8843 63.0038
21.9297 64.3953
21.9752 61.7201
22.0206 58.0916
22.0661 55.743
22.1115 55.8531
22.157 55.1789
22.2024 53.247
22.248 50.4196
22.2933 49.1771
22.3389 48.5303
22.3843 48.4598
22.4299 48.1607
22.4753 48.1972
22.5208 48.1237
22.5662 48.0254
22.6118 48.1636
22.6572 48.4406
22.7028 48.7668
22.7483 49.2979
22.7939 49.8374
22.8393 51.6611
22.8849 54.0105
22.9303 56.0714
22.9759 57.4934
23.0214 56.5114
23.067 53.541
23.1126 50.341
23.1581 48.5108
23.2037 48.3138
23.2492 48.3953
23.2948 48.4365
23.3403 48.624
23.3859 49.2481
23.4314 50.555
23.477 52.4162
23.5225 54.8856
23.5682 57.1649
23.6137 57.3934
23.6593 54.4668
23.7048 50.374
23.7505 47.3688
23.796 46.0073
23.8417 45.391
23.8872 45.0642
23.9329 44.6838
23.9784 44.3523
24.0241 44.1161
24.0697 43.8474
24.1154 43.6016
24.1609 43.3701
24.2066 43.2924
24.2522 43.4127
24.2979 42.9103
24.3434 42.7834
24.3892 42.7953
24.4349 42.6744
24.4805 42.4421
24.5262 42.6026
24.5718 42.5784
24.6175 42.3985
24.6631 42.357
24.7089 41.979
24.7545 41.9905
24.8002 41.7988
24.8458 41.8032
24.8916 41.6087
24.9372 41.8359
24.983 42.2262
25.0286 42.498
25.0744 42.971
25.12 43.5097
25.1658 44.0663
25.2114 44.2218
25.2572 44.4401
25.3029 44.3321
25.3487 44.5328
25.3943 44.065
25.4402 42.834
25.4858 41.7959
25.5316 40.9014
25.5773 40.4623
25.6231 40.4606
25.669 40.1068
25.7147 40.1919
25.7605 40.0809
25.8062 40.0614
25.8521 40.1356
25.8977 40.1596
25.9436 40.4144
25.9893 40.681
26.0352 41.082
26.0809 41.2682
26.1268 41.3134
26.1725 40.8356
26.2184 40.3168
26.2641 39.7015
26.31 39.6148
26.3557 39.6347
26.4017 39.7136
26.4474 40.0046
26.4933 40.2734
26.5391 40.9545
26.585 41.4052
26.6308 41.6523
26.6767 41.8086
26.7225 41.549
26.7684 40.8969
26.8142 40.4364
26.8601 40.029
26.9059 39.5095
26.9519 39.0441
26.9979 38.7425
27.0437 38.509
27.0896 38.3929
27.1354 38.3884
27.1814 38.1865
27.2272 38.1145
27.2732 38.1797
27.3191 37.9809
27.3651 38.0961
27.4109 38.0557
27.4569 38.2399
27.5027 38.1328
27.5488 38.2965
27.5946 37.9999
27.6407 37.8359
27.6865 37.6511
27.7326 37.3827
27.7784 37.5715
27.8245 37.4801
27.8703 37.5581
27.9164 37.9643
27.9623 38.1716
28.0084 38.3705
28.0543 38.7337
28.1003 38.6849
28.1462 38.3648
28.1923 38.0243
28.2384 37.6457
28.2843 37.1687
28.3304 36.669
28.3764 36.2744
28.4225 35.9953
28.4684 35.9043
28.5145 35.5165
28.5605 35.4373
28.6066 35.3438
28.6526 35.2449
28.6987 35.2682
28.7447 35.0416
28.7908 35.0129
28.8368 35.1153
28.8829 35.0598
28.9289 34.908
28.9751 34.7262
29.0211 34.42
29.0673 34.219
29.1133 34.2311
29.1595 33.9222
29.2055 33.8778
29.2517 33.9311
29.2977 34.0232
29.3439 33.9321
29.3899 33.7415
29.4361 33.8662
29.4824 33.5069
29.5284 33.4521
29.5746 32.9892
29.6207 32.7135
29.6669 32.7374
29.713 32.6462
29.7593 32.4168
29.8053 32.5662
29.8516 32.5625
29.8977 32.3907
29.9439 32.2421
29.99 32.1634
30.0363 32.1246
30.0824 32.1111
30.1287 32.0823
30.1748 32.0793
30.2211 32.1772
30.2673 31.8093
30.3136 32.019
30.3597 31.874
30.406 31.7318
30.4522 31.8027
30.4985 31.7444
30.5447 31.7877
30.591 31.8056
30.6372 31.8385
30.6835 31.9445
30.7297 31.9496
30.7761 31.8069
30.8224 31.6679
30.8686 31.5048
30.915 31.2248
30.9612 31.1814
31.0076 30.9691
31.0538 30.7545
31.1002 30.6869
31.1464 30.5537
31.1928 30.5942
31.2391 30.6628
31.2855 30.5615
31.3317 30.5638
31.3781 30.7129
31.4244 30.6058
31.4708 30.5224
31.5171 30.482
31.5636 30.3974
31.6098 30.1512
31.6563 30.003
31.7026 29.9382
31.7491 29.8497
31.7953 29.8301
31.8418 29.8328
31.8881 29.8895
31.9346 29.7908
31.9809 29.6743
32.0275 29.5837
32.074 29.5168
32.1203 29.2076
32.1668 29.1655
32.2132 29.0358
32.2597 28.9519
32.306 28.8257
32.3526 28.6428
32.399 28.6453
32.4455 28.4884
32.4919 28.5302
32.5385 28.3411
32.5848 28.1977
32.6314 28.1966
32.6778 28.0509
32.7244 27.9211
32.7708 27.7615
32.8174 27.9027
32.8638 27.6808
32.9104 27.7207
32.9569 27.7265
33.0035 27.6011
33.0499 27.5751
33.0966 27.5228
33.143 27.5011
33.1897 27.479
33.2361 27.2431
33.2828 27.2594
33.3293 27.0916
33.3759 27.0349
33.4226 26.9199
33.4691 26.7887
33.5158 26.7057
33.5623 26.6027
33.609 26.4619
33.6555 26.376
33.7022 26.3233
33.7487 26.2263
33.7954 26.167
33.842 26.1282
33.8887 26.0416
33.9353 25.9363
33.982 25.8878
34.0286 25.7931
34.0753 25.7457
34.1219 25.6633
34.1687 25.5696
34.2152 25.5147
34.262 25.4652
34.3086 25.3063
34.3554 25.1942
34.402 25.1665
34.4488 25.0446
34.4954 25.0406
34.5422 24.9179
34.5889 24.824
34.6357 24.6644
34.6825 24.6533
34.7292 24.6308
34.776 24.4724
34.8227 24.4283
34.8695 24.4364
34.9162 24.2656
34.9631 24.263
35.0098 24.1723
35.0566 24.0563
35.1033 24.056
35.1502 23.9695
35.1969 23.9531
35.2438 23.8785
35.2906 23.8204
35.3375 23.7868
35.3842 23.6868
35.4311 23.684
35.4779 23.6731
35.5248 23.6663
35.5716 23.5536
35.6185 23.4592
35.6653 23.3776
35.7123 23.3283
35.759 23.19
35.806 23.0769
35.8528 22.9956
35.8998 22.9742
35.9468 22.8721
35.9936 22.8856
36.0406 22.7526
36.0874 22.7719
36.1345 22.6251
36.1813 22.5224
36.2283 22.512
36.2752 22.406
36.3222 22.3883
36.3691 22.2865
36.4161 22.1565
36.463 22.2408
36.5101 22.1908
36.557 22.1118
36.6041 21.9621
36.651 21.9017
36.6981 21.9613
36.745 21.8348
36.7921 21.7856
36.839 21.6191
36.8861 21.5509
36.9331 21.5185
36.9802 21.446
37.0272 21.3454
37.0743 21.333
37.1213 21.2028
37.1684 21.1841
37.2154 21.1546
37.2626 21.0356
37.3098 20.9217
37.3568 20.8999
37.404 20.888
37.451 20.7957
37.4982 20.7214
37.5452 20.6024
37.5924 20.5767
37.6395 20.5785
37.6867 20.5265
37.7337 20.3804
37.781 20.3016
37.8281 20.2976
37.8753 20.1528
37.9224 20.1284
37.9697 20.0595
38.0168 19.9082
38.064 19.9494
38.1111 19.9375
38.1584 19.7599
38.2056 19.7567
38.2529 19.7716
38.3 19.5976
38.3473 19.5731
38.3945 19.4525
38.4418 19.4732
38.489 19.421
38.5363 19.2593
38.5837 19.2168
38.6309 19.216
38.6782 19.1735
38.7254 19.0467
38.7728 18.9938
38.82 18.9537
38.8674 18.8865
38.9146 18.8332
38.9621 18.7712
39.0093 18.7161
39.0567 18.6389
39.104 18.6155
39.1514 18.52
39.1987 18.4648
39.2461 18.3697
39.2934 18.4223
39.3409 18.2986
39.3882 18.1362
39.4356 18.1303
39.483 18.1638
39.5304 18.0127
39.5778 17.9841
39.6253 17.936
39.6726 17.8718
39.7201 17.8308
39.7675 17.8119
39.815 17.6989
39.8624 17.6609
39.9099 17.6651
39.9575 17.561
40.0049 17.528
40.0525 17.4295
40.0999 17.4246
40.1474 17.4094
40.1949 17.2975
40.2425 17.1493
40.2899 17.1929
40.3375 17.1358
40.385 17.0831
40.4326 16.9935
40.48 16.901
40.5277 16.9088
40.5752 16.8339
40.6228 16.8168
40.6703 16.7526
40.718 16.7058
40.7655 16.5911
40.8132 16.5795
40.8607 16.5581
40.9084 16.5305
40.9559 16.3812
41.0036 16.4179
41.0512 16.2953
41.0989 16.2863
41.1465 16.186
41.1942 16.1697
41.242 16.082
41.2896 16.045
41.3373 16.0046
41.3849 15.9598
41.4327 15.8702
41.4803 15.8585
41.5281 15.7935
41.5758 15.709
41.6236 15.6241
41.6712 15.6282
41.7191 15.5472
41.7667 15.5281
41.8146 15.5158
41.8622 15.4646
41.9101 15.3618
41.9578 15.2655
42.0057 15.2919
42.0534 15.2092
42.1013 15.2063
42.149 15.1008
42.1969 15.0874
42.2446 14.9754
42.2925 14.9247
42.3403 14.928
42.3882 14.8844
42.436 14.8596
42.4839 14.7189
42.5319 14.6832
42.5797 14.6574
42.6277 14.6
42.6755 14.5844
42.7235 14.5256
42.7713 14.4921
42.8193 14.3922
42.8671 14.3766
42.9152 14.2791
42.963 14.2443
43.0111 14.1773
43.0589 14.1645
43.107 14.062
43.1549 14.1266
43.2029 14.0094
43.2508 14.0007
43.2989 13.8902
43.3468 13.9009
43.3949 13.8318
43.4429 13.7669
43.491 13.735
43.5389 13.7259
43.5871 13.6825
43.635 13.6218
43.6832 13.5378
43.7312 13.5239
43.7793 13.5061
43.8273 13.4181
43.8755 13.3923
43.9237 13.3024
43.9717 13.2787
44.0199 13.2224
44.068 13.1916
44.1162 13.1082
44.1642 13.1257
44.2125 13.0309
44.2606 13.0373
44.3088 12.9583
44.3569 12.8813
44.4052 12.8682
44.4533 12.8226
44.5016 12.7487
44.5497 12.714
44.598 12.6956
44.6461 12.5992
44.6945 12.5829
44.7426 12.5846
44.791 12.509
44.8391 12.4985
44.8875 12.4002
44.9357 12.3753
44.984 12.3359
45.0322 12.3037
45.0806 12.2836
45.1288 12.1988
45.1773 12.1435
45.2257 12.1232
45.2739 12.0623
45.3224 12.0332
45.3706 11.9776
45.4191 11.9124
45.4673 11.8805
45.5158 11.8433
45.5641 11.7941
45.6126 11.7377
45.6609 11.7109
45.7094 11.7053
45.7577 11.627
45.8063 11.5975
45.8546 11.6045
45.9031 11.5072
45.9515 11.5122
46.0001 11.4194
46.0484 11.4386
46.097 11.3832
46.1454 11.2996
46.194 11.265
46.2424 11.2312
46.291 11.1723
46.3395 11.1474
46.3881 11.1217
46.4365 11.0995
46.4852 11.0275
46.5337 10.991
46.5823 10.9333
46.631 10.9022
46.6795 10.8861
46.7282 10.8298
46.7767 10.8026
46.8254 10.7065
46.8739 10.6868
46.9226 10.6889
46.9712 10.6587
47.0199 10.5652
47.0685 10.5513
47.1173 10.5249
47.1658 10.4682
47.2146 10.4657
47.2632 10.4109
47.312 10.3609
47.3606 10.3276
47.4095 10.2679
47.4581 10.2458
47.5069 10.1962
47.5556 10.1444
47.6044 10.1196
47.6531 10.078
47.702 10.0404
47.7507 10.0294
47.7996 9.95562
47.8483 9.97492
47.8972 9.92443
47.9461 9.88448
47.9948 9.80637
48.0438 9.81911
48.0925 9.78886
48.1415 9.73436
48.1902 9.70372
48.2392 9.68488
48.288 9.668
48.337 9.53189
48.3858 9.53507
48.4348 9.54862
48.4837 9.52057
48.5327 9.45972
48.5815 9.42481
48.6306 9.40994
48.6795 9.3545
48.7285 9.32972
48.7774 9.31332
48.8265 9.25758
48.8754 9.21323
48.9245 9.20494
48.9734 9.16772
49.0226 9.16488
49.0715 9.07747
49.1206 9.05496
49.1696 9.0262
49.2188 8.9579
49.2679 8.94908
49.3169 8.9012
49.3661 8.87003
49.4151 8.84402
49.4643 8.8092
49.5134 8.75975
49.5626 8.70201
49.6117 8.70523
49.6609 8.65837
49.71 8.60518
49.7592 8.5882
49.8083 8.55965
49.8576 8.5373
49.9067 8.50955
49.956 8.47294
50.0052 8.42363
50.0545 8.3946
50.1036 8.34777
50.153 8.32394
50.2022 8.34125
50.2515 8.2603
50.3007 8.24421
50.3501 8.20841
50.3993 8.17424
50.4487 8.12981
50.498 8.08805
50.5474 8.06152
50.5966 8.08571
50.6461 8.03652
50.6955 8.03699
50.7448 7.97809
50.7943 7.9581
50.8436 7.90284
50.8931 7.91904
50.9424 7.8396
50.9919 7.80904
51.0413 7.7704
51.0908 7.76121
51.1402 7.74502
51.1897 7.69994
51.2391 7.68013
51.2887 7.60763
51.3381 7.58927
51.3877 7.56249
51.4371 7.53407
51.4867 7.48455
51.5362 7.48709
51.5858 7.45141
51.6353 7.39454
51.6849 7.40867
51.7344 7.39489
51.7841 7.38004
51.8336 7.27521
51.8833 7.25394
51.9328 7.24362
51.9826 7.15709
52.0323 7.18468
52.0818 7.1516
52.1316 7.08388
52.1812 7.09426
52.231 7.039
52.2806 7.02279
52.3304 6.97174
52.38 6.97709
52.4298 6.93949
52.4794 6.91552
52.5293 6.93091
52.5789 6.87795
52.6288 6.80516
52.6785 6.79819
52.7284 6.72143
52.7781 6.7406
52.828 6.70479
52.8777 6.64146
52.9276 6.64603
52.9774 6.63399
53.0273 6.63689
53.0771 6.56977
53.1271 6.53559
53.1769 6.5185
53.2269 6.53014
53.2767 6.48009
53.3267 6.45181
53.3765 6.4255
53.4266 6.38559
53.4766 6.34571
53.5265 6.29564
53.5765 6.31298
53.6264 6.28076
53.6765 6.22929
53.7264 6.19072
53.7765 6.20032
53.8265 6.21503
53.8766 6.12153
53.9266 6.06164
53.9767 6.07672
54.0267 6.04575
54.0769 6.01973
54.1269 5.96492
54.1771 5.93514
54.2271 5.92295
54.2773 5.88414
54.3274 5.8582
54.3776 5.90787
54.4277 5.80016
54.478 5.78162
54.528 5.74732
54.5783 5.69085
54.6285 5.70216
54.6788 5.63008
54.7289 5.58138
54.7792 5.53103
54.8296 5.48944
54.8798 5.45811
54.9301 5.41667
54.9803 5.37777
55.0307 5.35139
55.0809 5.29832
55.1314 5.30061
55.1816 5.21554
55.232 5.17335
55.2823 5.10033
55.3328 5.07007
55.383 4.99959
55.4335 5.03952
55.4838 4.945
55.5344 4.9071
55.5847 4.88871
55.6352 4.85448
55.6856 4.80124
55.7361 4.79917