File: XRD/Ni3Fe_FD0400.xy
TT I
1.27165 7.44498
1.31627 6.35603
1.36089 6.63676
1.40551 5.8639
1.45013 5.54775
1.49476 5.94549
1.53938 5.90061
1.584 4.94861
1.62863 5.7868
1.67325 5.30797
1.71787 5.41021
1.7625 4.88227
1.80712 5.04661
1.85174 4.77299
1.89636 5.11575
1.94099 5.09294
1.98562 4.77301
2.03025 4.52194
2.07487 5.23007
2.11949 4.9416
2.16411 4.6832
2.20874 15.5542
2.25338 26.0567
2.298 6.08931
2.34263 4.98046
2.38725 5.38059
2.43188 4.95696
2.4765 6.67655
2.52115 6.06777
2.56577 7.56265
2.6104 7.25112
2.65503 7.0658
2.69965 7.02846
2.7443 7.63528
2.78893 7.55534
2.83356 7.88352
2.87818 8.44822
2.92281 9.0234
2.96744 9.45584
3.01209 10.4792
3.05672 10.8307
3.10135 12.2307
3.14599 12.7037
3.19062 14.3081
3.23527 14.7846
3.2799 15.9845
3.32454 16.9682
3.36917 17.9445
3.4138 19.1328
3.45844 19.8853
3.50309 21.572
3.54773 22.4344
3.59237 24.758
3.637 105.78
3.68164 66.2121
3.7263 27.0971
3.77094 26.801
3.81558 27.0924
3.86022 27.9869
3.90486 29.5229
3.9495 30.1391
3.99416 31.4819
4.0388 33.2097
4.08344 34.5083
4.12809 35.4121
4.17273 38.3298
4.21738 45.1044
4.26204 281.039
4.30669 249.672
4.35133 51.1316
4.39598 45.6673
4.44063 55.8693
4.4853 69.6124
4.52995 52.3136
4.5746 52.4136
4.61925 54.483
4.6639 56.4808
4.70855 59.2664
4.75322 62.369
4.79788 65.1113
4.84253 68.4494
4.88719 73.2687
4.93184 76.163
4.97652 81.9103
5.02118 88.8083
5.06583 97.22
5.11049 110.53
5.15515 194.301
5.19981 435.455
5.24449 3023.8
5.28916 11645.5
5.33382 3613.33
5.37848 224.415
5.42315 138.665
5.46783 119.972
5.5125 109.963
5.55716 105.097
5.60183 101.517
5.6465 99.6011
5.69117 96.9291
5.73586 94.5269
5.78053 94.6954
5.8252 94.3381
5.86988 95.3612
5.91455 98.201
5.95924 107.328
6.00392 234.277
6.0486 1041.17
6.09328 3937.31
6.13795 3497.85
6.18263 309.291
6.22733 100.665
6.27201 86.707
6.3167 109.352
6.36138 84.2055
6.40606 71.1946
6.45075 69.1588
6.49545 67.4098
6.54014 65.4614
6.58483 64.5349
6.62952 64.4556
6.67421 100.271
6.71892 161.079
6.76361 72.0108
6.8083 60.6243
6.853 58.8762
6.89769 58.4323
6.94239 57.9818
6.98711 57.4083
7.03181 56.9306
7.07651 56.8052
7.12121 56.199
7.16591 57.3111
7.21063 56.9982
7.25533 73.9893
7.30004 204.944
7.34475 100.467
7.38945 58.1057
7.43416 56.0408
7.47889 55.6779
7.5236 56.028
7.56831 56.5234
7.61303 58.6677
7.65774 58.8861
7.70247 57.3763
7.74719 57.8009
7.79191 57.8877
7.83663 58.0555
7.88135 58.6895
7.92607 59.8625
7.97081 61.3752
8.01553 62.1945
8.06026 63.6595
8.10498 65.2379
8.14971 76.3384
8.19446 74.9641
8.23919 71.1715
8.28392 73.3046
8.32865 75.7442
8.37339 79.9126
8.41812 88.0922
8.46288 121.294
8.50761 178.495
8.55235 418.555
8.59709 1102.88
8.64183 2101.74
8.68658 1128.26
8.73134 203.141
8.77609 104.845
8.82083 95.783
8.86558 92.1769
8.91033 92.7358
8.9551 94.4579
8.99985 87.7852
9.04461 85.3026
9.08936 84.8086
9.13412 83.6862
9.17888 83.6963
9.22365 84.7712
9.26841 83.7804
9.31318 84.8853
9.35794 84.66
9.4027 84.8824
9.44749 85.8817
9.49226 86.267
9.53703 86.948
9.5818 89.4229
9.62657 94.475
9.67134 102.086
9.71614 96.2645
9.76091 95.8435
9.80569 98.6374
9.85047 102.122
9.89525 130.058
9.94005 145.036
9.98484 188.425
10.0296 367.808
10.0744 775.187
10.1192 1592.96
10.164 1742.09
10.2088 506.822
10.2536 142.263
10.2984 118.598
10.3432 120.377
10.388 108.259
10.4328 123.189
10.4776 167.809
10.5224 271.997
10.5672 479.326
10.612 535.114
10.6568 231.375
10.7017 102.584
10.7465 89.1838
10.7913 85.6378
10.8361 82.8983
10.8809 80.9723
10.9257 80.7175
10.9706 81.5927
11.0154 76.6564
11.0602 74.476
11.105 73.571
11.1499 78.8171
11.1947 87.944
11.2395 77.3464
11.2844 72.6865
11.3292 68.7587
11.374 67.5598
11.4189 66.9941
11.4637 66.466
11.5086 67.1259
11.5534 70.5721
11.5983 67.4614
11.6431 65.2572
11.688 64.4092
11.7328 64.6814
11.7777 64.2877
11.8225 63.7902
11.8674 63.7695
11.9122 64.3275
11.9571 64.5125
12.002 65.1088
12.0468 69.6224
12.0917 82.2419
12.1366 103.941
12.1814 146.728
12.2263 197.781
12.2712 182.389
12.3161 107.675
12.3609 74.1288
12.4058 66.6876
12.4507 65.9525
12.4956 65.7988
12.5405 65.9311
12.5853 67.2553
12.6302 76.2962
12.6751 82.7593
12.72 72.3039
12.7649 69.4978
12.8098 70.0819
12.8547 71.2321
12.8996 72.4801
12.9445 73.8621
12.9894 75.5889
13.0343 77.3735
13.0792 80.7712
13.1242 90.8936
13.1691 117.641
13.214 153.39
13.2589 229.096
13.3038 343.206
13.3487 426.814
13.3937 297.645
13.4386 138.469
13.4835 110.103
13.5285 126.029
13.5734 159.615
13.6183 232.478
13.6633 327.269
13.7082 352.82
13.7531 215.093
13.7981 106.714
13.843 84.5318
13.888 81.5626
13.9329 78.8043
13.9779 77.7307
14.0228 76.1307
14.0678 74.5697
14.1127 74.3658
14.1577 74.3648
14.2027 73.5246
14.2476 71.9644
14.2926 72.4712
14.3376 73.5938
14.3825 72.2391
14.4275 70.3349
14.4725 70.3305
14.5175 70.2565
14.5624 70.9541
14.6074 73.3835
14.6524 73.9414
14.6974 71.919
14.7424 73.5713
14.7874 81.2049
14.8324 92.2821
14.8774 111.675
14.9224 147.28
14.9674 196.373
15.0124 220.058
15.0574 165.552
15.1024 101.191
15.1474 75.1454
15.1924 72.435
15.2374 73.4452
15.2824 72.4811
15.3274 69.9884
15.3725 68.2273
15.4175 67.89
15.4625 67.761
15.5076 68.0091
15.5526 67.789
15.5976 67.415
15.6426 68.2944
15.6877 74.1631
15.7327 82.8699
15.7778 96.3646
15.8228 122.41
15.8679 161.911
15.9129 193.478
15.958 172.187
16.003 108.823
16.0481 72.3286
16.0931 66.9048
16.1382 64.6897
16.1833 62.1528
16.2283 60.5606
16.2734 59.8843
16.3185 60.3813
16.3636 61.1158
16.4086 59.7347
16.4537 57.6499
16.4988 56.6755
16.5439 56.8198
16.589 56.4131
16.6341 56.0611
16.6792 55.822
16.7243 56.3093
16.7694 56.3822
16.8145 56.1122
16.8596 56.5966
16.9047 58.3802
16.9498 58.7404
16.9949 57.1121
17.04 57.0852
17.0851 58.5767
17.1302 60.3699
17.1754 63.3485
17.2205 67.4079
17.2656 73.7635
17.3108 82.2281
17.3559 83.8767
17.401 74.6985
17.4462 64.6368
17.4913 60.6235
17.5365 60.6511
17.5815 60.6804
17.6268 60.8423
17.6718 61.8591
17.7171 62.4393
17.7622 62.7285
17.8074 63.1527
17.8525 65.7803
17.8977 70.3768
17.9428 75.7076
17.9881 83.6444
18.0331 98.0876
18.0784 117.163
18.1237 137.457
18.1688 138.355
18.214 112.579
18.2591 90.2793
18.3044 90.1268
18.3495 98.4958
18.3948 106.79
18.4399 101.196
18.4852 82.6343
18.5303 68.8201
18.5756 63.9657
18.6207 62.9696
18.666 62.1005
18.7112 61.0195
18.7565 60.3502
18.8016 60.0202
18.8469 59.3409
18.892 59.1723
18.9374 58.5885
18.9825 58.4392
19.0278 58.311
19.073 58.4544
19.1183 58.987
19.1635 60.0537
19.2088 61.2502
19.254 63.354
19.2993 66.6592
19.3447 72.4007
19.3898 77.5598
19.4352 75.0691
19.4804 66.6897
19.5257 59.1321
19.5709 55.7775
19.6163 55.3261
19.6615 54.9603
19.7068 54.6084
19.752 54.6355
19.7974 54.9543
19.8426 56.0591
19.888 56.6011
19.9332 57.8563
19.9786 59.5271
20.0238 62.8828
20.0692 67.0054
20.1144 70.5843
20.1598 70.2788
20.205 65.8629
20.2504 63.1519
20.2957 63.9527
20.3411 66.1279
20.3863 66.0601
20.4318 61.2591
20.477 55.9949
20.5224 53.2931
20.5677 52.4415
20.6131 51.5495
20.6586 51.0568
20.7038 50.7187
20.7493 50.2634
20.7945 50.2767
20.84 50.0338
20.8853 49.9272
20.9307 49.714
20.976 49.8329
21.0215 49.9235
21.0668 50.3096
21.1122 50.6896
21.1575 51.2034
21.203 51.8143
21.2483 52.4541
21.2938 53.0165
21.3391 51.5376
21.3846 50.2794
21.4299 49.6934
21.4754 49.5367
21.5207 49.7504
21.5662 50.1246
21.6116 50.3768
21.6571 51.2359
21.7024 52.0194
21.7479 53.6414
21.7933 56.2167
21.8388 59.2716
21.8843 62.7464
21.9297 65.6872
21.9752 65.7107
22.0206 62.2521
22.0661 58.137
22.1115 57.0981
22.157 57.2017
22.2024 56.1484
22.248 53.2376
22.2933 51.3998
22.3389 50.5543
22.3843 50.3098
22.4299 50.1597
22.4753 50.0619
22.5208 49.8107
22.5662 49.706
22.6118 49.8098
22.6572 50.045
22.7028 50.5706
22.7483 51.0537
22.7939 51.7834
22.8393 52.8476
22.8849 54.6882
22.9303 56.4319
22.9759 58.4964
23.0214 58.8055
23.067 56.6768
23.1126 53.0419
23.1581 50.6478
23.2037 50.0334
23.2492 50.0207
23.2948 50.1083
23.3403 50.5318
23.3859 50.9534
23.4314 51.8668
23.477 53.3455
23.5225 55.1505
23.5682 57.2935
23.6137 59.0604
23.6593 57.6224
23.7048 53.9591
23.7505 49.9586
23.796 47.9553
23.8417 47.3207
23.8872 46.7318
23.9329 46.5034
23.9784 46.1121
24.0241 46.0113
24.0697 45.6297
24.1154 45.189
24.1609 45.2497
24.2066 44.9519
24.2522 44.8542
24.2979 44.6765
24.3434 44.5143
24.3892 44.2118
24.4349 44.2775
24.4805 43.8755
24.5262 44.1457
24.5718 43.9328
24.6175 44.0259
24.6631 43.7836
24.7089 43.6663
24.7545 43.449
24.8002 43.2932
24.8458 43.4506
24.8916 43.2278
24.9372 43.2366
24.983 43.5506
25.0286 43.7068
25.0744 44.1832
25.12 44.628
25.1658 45.3224
25.2114 45.6599
25.2572 45.7444
25.3029 45.906
25.3487 45.9234
25.3943 45.7495
25.4402 44.8097
25.4858 43.8744
25.5316 42.6609
25.5773 42.0349
25.6231 41.9762
25.669 41.467
25.7147 41.4207
25.7605 41.4419
25.8062 41.457
25.8521 41.5933
25.8977 41.5451
25.9436 41.8186
25.9893 41.9242
26.0352 42.4289
26.0809 42.3336
26.1268 42.6676
26.1725 42.4637
26.2184 41.9167
26.2641 41.4445
26.31 41.231
26.3557 41.1709
26.4017 41.0834
26.4474 41.3999
26.4933 41.7597
26.5391 41.9923
26.585 42.61
26.6308 42.862
26.6767 43.1499
26.7225 43.0667
26.7684 42.662
26.8142 41.8921
26.8601 41.4555
26.9059 41.1415
26.9519 40.6058
26.9979 40.2881
27.0437 39.9587
27.0896 39.6402
27.1354 39.6949
27.1814 39.7141
27.2272 39.5088
27.2732 39.4314
27.3191 39.2609
27.3651 39.3523
27.4109 39.292
27.4569 39.3203
27.5027 39.4141
27.5488 39.5152
27.5946 39.291
27.6407 39.0467
27.6865 39.0489
27.7326 38.8867
27.7784 38.7965
27.8245 38.6982
27.8703 39.0185
27.9164 39.2237
27.9623 39.1132
28.0084 39.522
28.0543 40.0701
28.1003 40.0247
28.1462 39.884
28.1923 39.4097
28.2384 38.831
28.2843 38.6019
28.3304 38.2686
28.3764 37.7155
28.4225 37.3586
28.4684 37.1745
28.5145 36.8416
28.5605 36.9068
28.6066 36.6
28.6526 36.4982
28.6987 36.5844
28.7447 36.3557
28.7908 36.316
28.8368 36.2402
28.8829 36.2765
28.9289 36.2706
28.9751 36.0688
29.0211 35.8027
29.0673 35.5966
29.1133 35.4848
29.1595 35.2654
29.2055 35.1698
29.2517 35.3099
29.2977 35.0202
29.3439 35.1464
29.3899 35.1208
29.4361 35.0048
29.4824 34.7702
29.5284 34.6761
29.5746 34.4192
29.6207 34.0345
29.6669 34.0469
29.713 33.8658
29.7593 33.6294
29.8053 33.8095
29.8516 33.6174
29.8977 33.7143
29.9439 33.424
29.99 33.3893
30.0363 33.1778
30.0824 33.3109
30.1287 33.2032
30.1748 33.3075
30.2211 33.2678
30.2673 33.0861
30.3136 33.2449
30.3597 32.9704
30.406 33.0537
30.4522 32.8384
30.4985 32.9246
30.5447 32.8264
30.591 32.8506
30.6372 32.9543
30.6835 32.9769
30.7297 32.9211
30.7761 32.9806
30.8224 32.8407
30.8686 32.606
30.915 32.4493
30.9612 32.2814
31.0076 31.9802
31.0538 31.9679
31.1002 31.9842
31.1464 31.7856
31.1928 31.7578
31.2391 31.7004
31.2855 31.5847
31.3317 31.5227
31.3781 31.5836
31.4244 31.6554
31.4708 31.5094
31.5171 31.6107
31.5636 31.5995
31.6098 31.3503
31.6563 31.1255
31.7026 31.046
31.7491 30.7644
31.7953 30.8452
31.8418 30.8945
31.8881 30.8553
31.9346 30.7995
31.9809 30.8651
32.0275 30.6488
32.074 30.6096
32.1203 30.3948
32.1668 30.2659
32.2132 30.1713
32.2597 29.9542
32.306 29.8768
32.3526 29.7158
32.399 29.6011
32.4455 29.4841
32.4919 29.3602
32.5385 29.4201
32.5848 29.1395
32.6314 29.1918
32.6778 29.1557
32.7244 28.9355
32.7708 28.8324
32.8174 28.8638
32.8638 28.7357
32.9104 28.7057
32.9569 28.6386
33.0035 28.5499
33.0499 28.6168
33.0966 28.4602
33.143 28.4313
33.1897 28.4042
33.2361 28.2827
33.2828 28.2832
33.3293 28.0353
33.3759 28.0787
33.4226 27.9471
33.4691 27.7847
33.5158 27.667
33.5623 27.5417
33.609 27.4233
33.6555 27.2986
33.7022 27.2678
33.7487 27.1431
33.7954 27.1098
33.842 27.0446
33.8887 26.9257
33.9353 26.9628
33.982 26.7873
34.0286 26.7329
34.0753 26.6606
34.1219 26.5975
34.1687 26.4366
34.2152 26.377
34.262 26.3205
34.3086 26.1665
34.3554 26.1996
34.402 26.0591
34.4488 25.9015
34.4954 25.9179
34.5422 25.7988
34.5889 25.673
34.6357 25.5502
34.6825 25.4465
34.7292 25.4856
34.776 25.2645
34.8227 25.3281
34.8695 25.2249
34.9162 25.2054
34.9631 25.068
35.0098 25.1537
35.0566 24.8942
35.1033 24.8557
35.1502 24.8182
35.1969 24.8137
35.2438 24.6836
35.2906 24.6386
35.3375 24.6762
35.3842 24.6286
35.4311 24.6512
35.4779 24.4344
35.5248 24.4789
35.5716 24.4144
35.6185 24.2727
35.6653 24.185
35.7123 24.1342
35.759 24.0143
35.806 23.9572
35.8528 23.7738
35.8998 23.7637
35.9468 23.6883
35.9936 23.6271
36.0406 23.5209
36.0874 23.5472
36.1345 23.4751
36.1813 23.3249
36.2283 23.2568
36.2752 23.1524
36.3222 23.1981
36.3691 23.0989
36.4161 23.0295
36.463 23.0275
36.5101 22.9758
36.557 22.8585
36.6041 22.7794
36.651 22.7459
36.6981 22.7114
36.745 22.5832
36.7921 22.5337
36.839 22.4267
36.8861 22.3661
36.9331 22.2753
36.9802 22.2463
37.0272 22.1568
37.0743 22.0692
37.1213 21.9987
37.1684 21.9099
37.2154 21.8766
37.2626 21.8205
37.3098 21.7342
37.3568 21.6945
37.404 21.6189
37.451 21.5541
37.4982 21.5348
37.5452 21.3336
37.5924 21.3373
37.6395 21.3666
37.6867 21.202
37.7337 21.1607
37.781 20.9911
37.8281 20.9568
37.8753 20.8979
37.9224 20.8094
37.9697 20.6924
38.0168 20.7237
38.064 20.6542
38.1111 20.5974
38.1584 20.4875
38.2056 20.4517
38.2529 20.4247
38.3 20.3397
38.3473 20.257
38.3945 20.158
38.4418 20.1603
38.489 20.1676
38.5363 19.9893
38.5837 19.8877
38.6309 19.8942
38.6782 19.792
38.7254 19.7792
38.7728 19.6894
38.82 19.6201
38.8674 19.5343
38.9146 19.5404
38.9621 19.4098
39.0093 19.4366
39.0567 19.3752
39.104 19.2542
39.1514 19.1281
39.1987 19.1399
39.2461 19.0834
39.2934 19.066
39.3409 18.8797
39.3882 18.7892
39.4356 18.725
39.483 18.7802
39.5304 18.6507
39.5778 18.6347
39.6253 18.593
39.6726 18.4789
39.7201 18.5349
39.7675 18.4628
39.815 18.4397
39.8624 18.3096
39.9099 18.2831
39.9575 18.1982
40.0049 18.0646
40.0525 18.0366
40.0999 18.047
40.1474 17.9985
40.1949 17.9061
40.2425 17.8861
40.2899 17.7432
40.3375 17.724
40.385 17.6836
40.4326 17.6206
40.48 17.6021
40.5277 17.5462
40.5752 17.4487
40.6228 17.4094
40.6703 17.3642
40.718 17.2399
40.7655 17.2237
40.8132 17.1624
40.8607 17.1611
40.9084 17.0566
40.9559 17.0319
41.0036 16.9839
41.0512 16.9667
41.0989 16.8307
41.1465 16.7902
41.1942 16.7147
41.242 16.6297
41.2896 16.6554
41.3373 16.5413
41.3849 16.5442
41.4327 16.473
41.4803 16.3833
41.5281 16.3736
41.5758 16.3005
41.6236 16.241
41.6712 16.1886
41.7191 16.1166
41.7667 16.0414
41.8146 16.0282
41.8622 15.9585
41.9101 15.9474
41.9578 15.7848
42.0057 15.8009
42.0534 15.7921
42.1013 15.7417
42.149 15.6117
42.1969 15.5644
42.2446 15.5178
42.2925 15.4796
42.3403 15.4511
42.3882 15.429
42.436 15.2998
42.4839 15.2807
42.5319 15.221
42.5797 15.2068
42.6277 15.0797
42.6755 15.0204
42.7235 15.0519
42.7713 15.0132
42.8193 14.9621
42.8671 14.8902
42.9152 14.8407
42.963 14.7599
43.0111 14.7275
43.0589 14.6846
43.107 14.571
43.1549 14.5359
43.2029 14.5006
43.2508 14.4712
43.2989 14.4302
43.3468 14.3669
43.3949 14.2964
43.4429 14.2472
43.491 14.2036
43.5389 14.1679
43.5871 14.112
43.635 14.0838
43.6832 14.0435
43.7312 13.9647
43.7793 13.8807
43.8273 13.8897
43.8755 13.8242
43.9237 13.7625
43.9717 13.7549
44.0199 13.7023
44.068 13.6331
44.1162 13.6047
44.1642 13.6274
44.2125 13.4991
44.2606 13.4588
44.3088 13.3618
44.3569 13.3625
44.4052 13.3448
44.4533 13.1988
44.5016 13.22
44.5497 13.1653
44.598 13.1615
44.6461 13.085
44.6945 13.027
44.7426 12.9933
44.791 12.9306
44.8391 12.8747
44.8875 12.8487
44.9357 12.8243
44.984 12.7832
45.0322 12.6768
45.0806 12.6631
45.1288 12.616
45.1773 12.5999
45.2257 12.5958
45.2739 12.4847
45.3224 12.456
45.3706 12.4438
45.4191 12.3728
45.4673 12.3038
45.5158 12.2937
45.5641 12.2419
45.6126 12.1789
45.6609 12.1154
45.7094 12.0587
45.7577 12.0505
45.8063 11.982
45.8546 11.9777
45.9031 11.9273
45.9515 11.9301
46.0001 11.8762
46.0484 11.8117
46.097 11.7692
46.1454 11.7693
46.194 11.6942
46.2424 11.6352
46.291 11.6032
46.3395 11.5441
46.3881 11.5071
46.4365 11.488
46.4852 11.4336
46.5337 11.4102
46.5823 11.3718
46.631 11.2978
46.6795 11.2765
46.7282 11.2571
46.7767 11.2008
46.8254 11.1007
46.8739 11.0835
46.9226 11.0703
46.9712 11.0199
47.0199 10.9288
47.0685 10.9064
47.1173 10.8902
47.1658 10.8514
47.2146 10.8256
47.2632 10.7229
47.312 10.7645
47.3606 10.6812
47.4095 10.6493
47.4581 10.6314
47.5069 10.5365
47.5556 10.5376
47.6044 10.4957
47.6531 10.4387
47.702 10.4061
47.7507 10.3773
47.7996 10.2946
47.8483 10.292
47.8972 10.267
47.9461 10.1916
47.9948 10.179
48.0438 10.1726
48.0925 10.1325
48.1415 10.1061
48.1902 10.0715
48.2392 10.0158
48.288 9.94505
48.337 9.93824
48.3858 9.93646
48.4348 9.89464
48.4837 9.85448
48.5327 9.78607
48.5815 9.77066
48.6306 9.74755
48.6795 9.7076
48.7285 9.63837
48.7774 9.62012
48.8265 9.59892
48.8754 9.52162
48.9245 9.49329
48.9734 9.47599
49.0226 9.46621
49.0715 9.42308
49.1206 9.37439
49.1696 9.33586
49.2188 9.30176
49.2679 9.3028
49.3169 9.23683
49.3661 9.18278
49.4151 9.18609
49.4643 9.10167
49.5134 9.11011
49.5626 9.03804
49.6117 9.03736
49.6609 8.96583
49.71 8.9383
49.7592 8.91376
49.8083 8.85305
49.8576 8.87162
49.9067 8.81876
49.956 8.80357
50.0052 8.75123
50.0545 8.67308
50.1036 8.66907
50.153 8.65134
50.2022 8.62275
50.2515 8.55609
50.3007 8.52095
50.3501 8.54662
50.3993 8.47813
50.4487 8.46108
50.498 8.4023
50.5474 8.36765
50.5966 8.32643
50.6461 8.30992
50.6955 8.27104
50.7448 8.25527
50.7943 8.21762
50.8436 8.19388
50.8931 8.17551
50.9424 8.12509
50.9919 8.11031
51.0413 8.06054
51.0908 8.01083
51.1402 7.99532
51.1897 7.94688
51.2391 7.9456
51.2887 7.90198
51.3381 7.87437
51.3877 7.86848
51.4371 7.78301
51.4867 7.7484
51.5362 7.72764
51.5858 7.6947
51.6353 7.67292
51.6849 7.64229
51.7344 7.56911
51.7841 7.55727
51.8336 7.52188
51.8833 7.49274
51.9328 7.48947
51.9826 7.42948
52.0323 7.39481
52.0818 7.39636
52.1316 7.3169
52.1812 7.36
52.231 7.31183
52.2806 7.28538
52.3304 7.22348
52.38 7.23165
52.4298 7.21167
52.4794 7.1233
52.5293 7.09163
52.5789 7.07242
52.6288 7.07091
52.6785 6.99545
52.7284 7.02494
52.7781 7.00063
52.828 6.97499
52.8777 6.90859
52.9276 6.8803
52.9774 6.85874
53.0273 6.83424
53.0771 6.79477
53.1271 6.79753
53.1769 6.72474
53.2269 6.71558
53.2767 6.66971
53.3267 6.67532
53.3765 6.6343
53.4266 6.60343
53.4766 6.56576
53.5265 6.5529
53.5765 6.5486
53.6264 6.49871
53.6765 6.49387
53.7264 6.43329
53.7765 6.39427
53.8265 6.40424
53.8766 6.35405
53.9266 6.31011
53.9767 6.29821
54.0267 6.29668
54.0769 6.24251
54.1269 6.2158
54.1771 6.1504
54.2271 6.14134
54.2773 6.10103
54.3274 6.09519
54.3776 6.016
54.4277 6.01548
54.478 5.95561
54.528 5.96923
54.5783 5.89311
54.6285 5.8436
54.6788 5.82209
54.7289 5.7869
54.7792 5.72364
54.8296 5.66325
54.8798 5.63188
54.9301 5.58772
54.9803 5.57453
55.0307 5.56498
55.0809 5.53428
55.1314 5.45548
55.1816 5.42602
55.232 5.3865
55.2823 5.37327
55.3328 5.25384
55.383 5.19161
55.4335 5.19623
55.4838 5.11987
55.5344 5.11102
55.5847 5.003
55.6352 5.01744
55.6856 4.93386
55.7361 4.92822