File: XRD/Ni3Fe_FD0344.xy
TT I
1.27165 7.64448
1.31627 7.32526
1.36089 6.32316
1.40551 6.89996
1.45013 6.4221
1.49476 6.54422
1.53938 6.14771
1.584 6.03174
1.62863 5.6655
1.67325 5.61466
1.71787 5.69759
1.7625 5.03294
1.80712 5.42986
1.85174 5.32337
1.89636 5.37632
1.94099 5.17358
1.98562 5.21052
2.03025 5.19135
2.07487 4.91854
2.11949 4.5525
2.16411 4.81793
2.20874 10.1378
2.25338 14.4369
2.298 5.78158
2.34263 4.95086
2.38725 5.53739
2.43188 5.97256
2.4765 6.3135
2.52115 6.01455
2.56577 5.92561
2.6104 7.33953
2.65503 6.58979
2.69965 7.42421
2.7443 7.24197
2.78893 7.81504
2.83356 8.22133
2.87818 8.44025
2.92281 8.81352
2.96744 9.28506
3.01209 10.2113
3.05672 11.3144
3.10135 12.7614
3.14599 12.8712
3.19062 14.1722
3.23527 15.0626
3.2799 15.975
3.32454 16.8498
3.36917 17.7999
3.4138 19.5996
3.45844 19.6934
3.50309 21.4469
3.54773 21.7318
3.59237 23.7803
3.637 64.8224
3.68164 44.012
3.7263 26.3327
3.77094 26.4107
3.81558 26.9003
3.86022 27.6154
3.90486 29.1182
3.9495 30.476
3.99416 31.3502
4.0388 32.6774
4.08344 33.6616
4.12809 34.9593
4.17273 37.4784
4.21738 41.6441
4.26204 161.796
4.30669 140.35
4.35133 47.2855
4.39598 44.9599
4.44063 51.6257
4.4853 59.2799
4.52995 52.2079
4.5746 52.8309
4.61925 54.7484
4.6639 57.2596
4.70855 59.9844
4.75322 63.1856
4.79788 66.4479
4.84253 69.4196
4.88719 74.9355
4.93184 78.9869
4.97652 84.5877
5.02118 92.1872
5.06583 101.082
5.11049 115.472
5.15515 176.827
5.19981 597.187
5.24449 3670.19
5.28916 11411.5
5.33382 3451.2
5.37848 226.328
5.42315 139.208
5.46783 122.086
5.5125 111.95
5.55716 106.674
5.60183 102.841
5.6465 100.508
5.69117 98.5515
5.73586 97.2212
5.78053 97.1681
5.8252 97.213
5.86988 98.2745
5.91455 102.088
5.95924 116.95
6.00392 318.479
6.0486 1281.94
6.09328 4043.01
6.13795 3411.08
6.18263 281.17
6.22733 100.152
6.27201 86.1779
6.3167 93.6763
6.36138 78.9609
6.40606 71.2413
6.45075 69.5272
6.49545 67.4282
6.54014 65.6254
6.58483 64.7975
6.62952 64.0531
6.67421 81.6701
6.71892 109.279
6.76361 65.4596
6.8083 59.7957
6.853 58.9878
6.89769 58.1154
6.94239 58.0095
6.98711 56.9307
7.03181 56.7732
7.07651 56.5209
7.12121 56.4285
7.16591 56.7726
7.21063 56.3407
7.25533 65.5871
7.30004 127.232
7.34475 76.7674
7.38945 56.5265
7.43416 55.5954
7.47889 55.4046
7.5236 55.6374
7.56831 56.8109
7.61303 57.692
7.65774 58.0043
7.70247 57.7263
7.74719 57.8503
7.79191 58.2791
7.83663 58.3823
7.88135 59.3102
7.92607 60.3044
7.97081 61.54
8.01553 62.5323
8.06026 64.4118
8.10498 65.6347
8.14971 72.6954
8.19446 72.2161
8.23919 71.5079
8.28392 74.6284
8.32865 76.7086
8.37339 81.5875
8.41812 88.7389
8.46288 114.224
8.50761 223.314
8.55235 500.342
8.59709 1176.75
8.64183 2109.91
8.68658 1064.23
8.73134 182.58
8.77609 104.8
8.82083 96.3306
8.86558 93.1381
8.91033 92.3828
8.9551 92.0295
8.99985 87.7547
9.04461 86.4039
9.08936 85.9785
9.13412 84.5045
9.17888 84.8533
9.22365 84.9027
9.26841 84.3938
9.31318 86.0241
9.35794 86.0757
9.4027 85.9315
9.44749 86.8033
9.49226 87.3483
9.53703 88.5069
9.5818 90.6439
9.62657 93.9655
9.67134 98.285
9.71614 96.4603
9.76091 97.8929
9.80569 100.329
9.85047 104.011
9.89525 120.193
9.94005 138.533
9.98484 233.057
10.0296 439.11
10.0744 871.605
10.1192 1601.33
10.164 1648.57
10.2088 471.697
10.2536 135.664
10.2984 116.018
10.3432 114.958
10.388 109.866
10.4328 136.482
10.4776 187.905
10.5224 298.251
10.5672 486.646
10.612 523.199
10.6568 213.968
10.7017 100.457
10.7465 90.0734
10.7913 85.9795
10.8361 83.5731
10.8809 81.6053
10.9257 80.2485
10.9706 79.8579
11.0154 77.0875
11.0602 74.9226
11.105 73.9408
11.1499 75.3349
11.1947 79.4242
11.2395 73.8063
11.2844 71.3486
11.3292 68.8928
11.374 67.8713
11.4189 67.5367
11.4637 66.787
11.5086 66.9362
11.5534 68.2132
11.5983 66.6903
11.6431 65.6386
11.688 64.7055
11.7328 64.8036
11.7777 64.7501
11.8225 64.3518
11.8674 64.2119
11.9122 64.5176
11.9571 64.8604
12.002 66.3685
12.0468 73.545
12.0917 87.1299
12.1366 110.455
12.1814 149.93
12.2263 200.089
12.2712 173.352
12.3161 96.8021
12.3609 70.7391
12.4058 66.2508
12.4507 66.24
12.4956 66.3322
12.5405 66.7132
12.5853 67.2952
12.6302 71.8352
12.6751 75.4006
12.72 70.6331
12.7649 69.6779
12.8098 70.4749
12.8547 72.0276
12.8996 73.6162
12.9445 74.8192
12.9894 76.6847
13.0343 78.9929
13.0792 82.859
13.1242 99.0617
13.1691 127.738
13.214 168.625
13.2589 247.311
13.3038 352.808
13.3487 420.871
13.3937 278.463
13.4386 132.785
13.4835 117.851
13.5285 136.515
13.5734 174.578
13.6183 244.901
13.6633 332.667
13.7082 342.675
13.7531 201.588
13.7981 102.247
13.843 84.6839
13.888 82.2804
13.9329 79.4599
13.9779 78.4293
14.0228 76.7481
14.0678 75.2515
14.1127 74.7668
14.1577 74.3543
14.2027 73.6035
14.2476 72.6731
14.2926 72.5073
14.3376 72.8415
14.3825 72.0042
14.4275 71.1538
14.4725 70.9627
14.5175 71.0615
14.5624 71.1417
14.6074 72.631
14.6524 73.2182
14.6974 73.1516
14.7424 76.8277
14.7874 86.1619
14.8324 98.4662
14.8774 119.912
14.9224 154.32
14.9674 198.848
15.0124 217.149
15.0574 154.549
15.1024 94.6962
15.1474 74.4868
15.1924 72.5363
15.2374 72.4627
15.2824 71.4511
15.3274 69.8575
15.3725 69.0208
15.4175 68.5652
15.4625 67.9865
15.5076 68.0763
15.5526 68.1197
15.5976 68.3335
15.6426 71.155
15.6877 78.7255
15.7327 87.4905
15.7778 103.184
15.8228 129.086
15.8679 162.603
15.9129 190.123
15.958 163.13
16.003 102.241
16.0481 70.1387
16.0931 65.4675
16.1382 63.8628
16.1833 61.9121
16.2283 60.7785
16.2734 60.1965
16.3185 59.9894
16.3636 60.2458
16.4086 59.0403
16.4537 57.9535
16.4988 57.0696
16.5439 57.0951
16.589 56.9404
16.6341 56.6953
16.6792 56.2957
16.7243 56.3758
16.7694 56.5809
16.8145 56.4676
16.8596 56.9
16.9047 57.8077
16.9498 57.789
16.9949 57.4125
17.04 58.0166
17.0851 59.6041
17.1302 61.4522
17.1754 64.4952
17.2205 69.2057
17.2656 75.1048
17.3108 83.1262
17.3559 84.5828
17.401 73.7898
17.4462 64.3864
17.4913 61.0735
17.5365 61.0677
17.5815 61.118
17.6268 61.5182
17.6718 62.1755
17.7171 62.7576
17.7622 63.3172
17.8074 64.459
17.8525 68.43
17.8977 72.98
17.9428 79.0268
17.9881 88.3162
18.0331 102.532
18.0784 119.601
18.1237 139.79
18.1688 137.033
18.214 109.972
18.2591 91.1219
18.3044 91.4882
18.3495 99.2003
18.3948 106.141
18.4399 99.0399
18.4852 80.0052
18.5303 67.8569
18.5756 64.1605
18.6207 63.162
18.666 62.2668
18.7112 61.5045
18.7565 60.6947
18.8016 60.4518
18.8469 59.9528
18.892 59.4642
18.9374 59.1252
18.9825 58.6818
19.0278 58.7083
19.073 59.0597
19.1183 59.7676
19.1635 60.5377
19.2088 62.0513
19.254 64.5776
19.2993 68.019
19.3447 72.4007
19.3898 76.8729
19.4352 74.3443
19.4804 65.7447
19.5257 58.8494
19.5709 55.9945
19.6163 55.6022
19.6615 55.4728
19.7068 54.9067
19.752 55.1197
19.7974 55.5987
19.8426 56.5079
19.888 57.182
19.9332 58.7289
19.9786 61.1224
20.0238 63.85
20.0692 68.0549
20.1144 71.1984
20.1598 71.0068
20.205 66.1241
20.2504 63.4929
20.2957 64.3843
20.3411 66.3864
20.3863 65.6188
20.4318 60.2012
20.477 55.2267
20.5224 52.8846
20.5677 52.3788
20.6131 51.8148
20.6586 51.1366
20.7038 51.0275
20.7493 50.5752
20.7945 50.574
20.84 50.1547
20.8853 50.4
20.9307 50.0903
20.976 50.3026
21.0215 50.1357
21.0668 50.6673
21.1122 50.9825
21.1575 51.725
21.203 51.9943
21.2483 52.6405
21.2938 53.1798
21.3391 51.6516
21.3846 50.7225
21.4299 49.9131
21.4754 49.8907
21.5207 50.3128
21.5662 50.5131
21.6116 51.3043
21.6571 51.9828
21.7024 53.1294
21.7479 54.7974
21.7933 57.1231
21.8388 60.2176
21.8843 63.4571
21.9297 66.2153
21.9752 65.615
22.0206 61.6536
22.0661 57.9122
22.1115 57.12
22.157 57.3739
22.2024 55.9916
22.248 53.2323
22.2933 51.422
22.3389 50.5696
22.3843 50.3096
22.4299 50.215
22.4753 50.2665
22.5208 49.9982
22.5662 50.1415
22.6118 50.3984
22.6572 50.6067
22.7028 51.2215
22.7483 51.6611
22.7939 52.2932
22.8393 53.838
22.8849 55.2657
22.9303 57.1558
22.9759 58.9457
23.0214 58.9266
23.067 56.2372
23.1126 52.6033
23.1581 50.7379
23.2037 50.2753
23.2492 50.6895
23.2948 50.6785
23.3403 50.9825
23.3859 51.6291
23.4314 52.7615
23.477 54.0343
23.5225 55.5888
23.5682 57.644
23.6137 59.0953
23.6593 57.235
23.7048 53.4246
23.7505 49.8625
23.796 47.9742
23.8417 47.4053
23.8872 46.8882
23.9329 46.6149
23.9784 46.2257
24.0241 46.0165
24.0697 45.8886
24.1154 45.5446
24.1609 45.4247
24.2066 45.0833
24.2522 45.1353
24.2979 44.8055
24.3434 44.6112
24.3892 44.4667
24.4349 44.3869
24.4805 44.2424
24.5262 44.3915
24.5718 44.1822
24.6175 44.1864
24.6631 44.1952
24.7089 43.6928
24.7545 43.6838
24.8002 43.6337
24.8458 43.5338
24.8916 43.367
24.9372 43.6178
24.983 43.9915
25.0286 44.2169
25.0744 44.553
25.12 44.9956
25.1658 45.6878
25.2114 45.8058
25.2572 45.9894
25.3029 45.6631
25.3487 46.0247
25.3943 45.9445
25.4402 44.9727
25.4858 43.8964
25.5316 42.7618
25.5773 42.1748
25.6231 42.0966
25.669 41.7655
25.7147 41.7707
25.7605 41.7343
25.8062 41.7706
25.8521 41.8207
25.8977 41.7259
25.9436 42.0633
25.9893 42.0312
26.0352 42.6301
26.0809 42.5675
26.1268 42.9802
26.1725 42.6497
26.2184 42.0709
26.2641 41.6749
26.31 41.4528
26.3557 41.3994
26.4017 41.4764
26.4474 41.7092
26.4933 41.9069
26.5391 42.3958
26.585 42.7425
26.6308 43.218
26.6767 43.3616
26.7225 43.2136
26.7684 42.6612
26.8142 41.9834
26.8601 41.5668
26.9059 41.1951
26.9519 40.8112
26.9979 40.2794
27.0437 40.0541
27.0896 39.9578
27.1354 39.8639
27.1814 39.7014
27.2272 39.6942
27.2732 39.5714
27.3191 39.4735
27.3651 39.7004
27.4109 39.4973
27.4569 39.5864
27.5027 39.5412
27.5488 39.6581
27.5946 39.4702
27.6407 39.3143
27.6865 39.2947
27.7326 38.9707
27.7784 38.9889
27.8245 39.0126
27.8703 39.1779
27.9164 39.3814
27.9623 39.4948
28.0084 39.8133
28.0543 40.1754
28.1003 40.031
28.1462 39.9377
28.1923 39.5495
28.2384 38.9976
28.2843 38.7246
28.3304 38.1487
28.3764 37.8591
28.4225 37.5672
28.4684 37.3039
28.5145 36.9245
28.5605 36.8345
28.6066 36.7484
28.6526 36.6521
28.6987 36.5373
28.7447 36.4053
28.7908 36.379
28.8368 36.2823
28.8829 36.328
28.9289 36.3773
28.9751 36.255
29.0211 36.0257
29.0673 35.6457
29.1133 35.5686
29.1595 35.4033
29.2055 35.2419
29.2517 35.2725
29.2977 35.2326
29.3439 35.1703
29.3899 35.2131
29.4361 35.1201
29.4824 34.8896
29.5284 34.6833
29.5746 34.3431
29.6207 34.1228
29.6669 34.0892
29.713 33.9112
29.7593 33.7879
29.8053 33.9904
29.8516 33.7201
29.8977 33.6529
29.9439 33.6565
29.99 33.5141
30.0363 33.3378
30.0824 33.4093
30.1287 33.3568
30.1748 33.4838
30.2211 33.3711
30.2673 33.1434
30.3136 33.3373
30.3597 33.1126
30.406 33.0875
30.4522 33.1179
30.4985 33.0304
30.5447 33.0141
30.591 33.0577
30.6372 33.0676
30.6835 33.062
30.7297 33.1587
30.7761 33.0692
30.8224 32.9156
30.8686 32.9059
30.915 32.4996
30.9612 32.4406
31.0076 32.2468
31.0538 32.1485
31.1002 31.999
31.1464 31.8528
31.1928 31.8163
31.2391 31.8827
31.2855 31.7756
31.3317 31.6698
31.3781 31.8429
31.4244 31.7836
31.4708 31.7315
31.5171 31.7246
31.5636 31.7125
31.6098 31.357
31.6563 31.1825
31.7026 30.9868
31.7491 30.9857
31.7953 31.0269
31.8418 31.0076
31.8881 30.9799
31.9346 30.9486
31.9809 30.9621
32.0275 30.6884
32.074 30.7078
32.1203 30.5471
32.1668 30.3726
32.2132 30.2105
32.2597 30.0748
32.306 30.0016
32.3526 29.9051
32.399 29.836
32.4455 29.5821
32.4919 29.5844
32.5385 29.4248
32.5848 29.2754
32.6314 29.2889
32.6778 29.3246
32.7244 29.1193
32.7708 28.9437
32.8174 28.9795
32.8638 28.8626
32.9104 28.825
32.9569 28.788
33.0035 28.6631
33.0499 28.6696
33.0966 28.542
33.143 28.6105
33.1897 28.5239
33.2361 28.3976
33.2828 28.3726
33.3293 28.1883
33.3759 28.2448
33.4226 28.0178
33.4691 27.8564
33.5158 27.7755
33.5623 27.6908
33.609 27.5672
33.6555 27.5054
33.7022 27.3824
33.7487 27.2585
33.7954 27.2578
33.842 27.2635
33.8887 27.105
33.9353 27.0055
33.982 26.8569
34.0286 26.8183
34.0753 26.7062
34.1219 26.7049
34.1687 26.623
34.2152 26.5312
34.262 26.3325
34.3086 26.2864
34.3554 26.228
34.402 26.0176
34.4488 26.0819
34.4954 25.9421
34.5422 26.0124
34.5889 25.8625
34.6357 25.6467
34.6825 25.6198
34.7292 25.5665
34.776 25.4797
34.8227 25.4455
34.8695 25.3475
34.9162 25.3501
34.9631 25.1724
35.0098 25.1922
35.0566 25.0928
35.1033 24.9701
35.1502 24.9207
35.1969 24.9208
35.2438 24.8309
35.2906 24.6774
35.3375 24.8094
35.3842 24.6452
35.4311 24.6511
35.4779 24.5704
35.5248 24.5711
35.5716 24.4941
35.6185 24.317
35.6653 24.269
35.7123 24.2723
35.759 24.1293
35.806 24.0198
35.8528 23.9335
35.8998 23.8748
35.9468 23.7406
35.9936 23.7173
36.0406 23.6138
36.0874 23.603
36.1345 23.5543
36.1813 23.464
36.2283 23.32
36.2752 23.2616
36.3222 23.2657
36.3691 23.1501
36.4161 23.0879
36.463 23.0303
36.5101 23.0675
36.557 22.9776
36.6041 22.8355
36.651 22.7897
36.6981 22.7557
36.745 22.6319
36.7921 22.6182
36.839 22.4524
36.8861 22.4672
36.9331 22.3522
36.9802 22.2699
37.0272 22.2232
37.0743 22.0938
37.1213 22.068
37.1684 22.0133
37.2154 21.8909
37.2626 21.865
37.3098 21.8626
37.3568 21.6996
37.404 21.698
37.451 21.4966
37.4982 21.4868
37.5452 21.4036
37.5924 21.3449
37.6395 21.4533
37.6867 21.3478
37.7337 21.2203
37.781 21.0945
37.8281 21.0604
37.8753 20.9276
37.9224 20.9802
37.9697 20.8566
38.0168 20.7907
38.064 20.6755
38.1111 20.6862
38.1584 20.5583
38.2056 20.4771
38.2529 20.4454
38.3 20.4148
38.3473 20.3645
38.3945 20.1801
38.4418 20.3056
38.489 20.152
38.5363 20.0487
38.5837 20.0133
38.6309 19.9181
38.6782 19.8264
38.7254 19.8836
38.7728 19.7077
38.82 19.6877
38.8674 19.5812
38.9146 19.558
38.9621 19.4104
39.0093 19.4355
39.0567 19.4069
39.104 19.3487
39.1514 19.2374
39.1987 19.2831
39.2461 19.1463
39.2934 19.0592
39.3409 19.0156
39.3882 18.9411
39.4356 18.874
39.483 18.8278
39.5304 18.7836
39.5778 18.7476
39.6253 18.6947
39.6726 18.612
39.7201 18.5723
39.7675 18.5213
39.815 18.4583
39.8624 18.3062
39.9099 18.3767
39.9575 18.1942
40.0049 18.1867
40.0525 18.1674
40.0999 18.1264
40.1474 17.9901
40.1949 17.9355
40.2425 17.8325
40.2899 17.8477
40.3375 17.7634
40.385 17.6487
40.4326 17.7083
40.48 17.5742
40.5277 17.6158
40.5752 17.4994
40.6228 17.4346
40.6703 17.4023
40.718 17.344
40.7655 17.2745
40.8132 17.2532
40.8607 17.1845
40.9084 17.1671
40.9559 17.0623
41.0036 17.0192
41.0512 16.976
41.0989 16.9256
41.1465 16.8758
41.1942 16.7856
41.242 16.7096
41.2896 16.6821
41.3373 16.5958
41.3849 16.5625
41.4327 16.5172
41.4803 16.478
41.5281 16.4106
41.5758 16.3228
41.6236 16.2359
41.6712 16.2168
41.7191 16.1311
41.7667 16.0677
41.8146 16.0482
41.8622 16.0
41.9101 15.9923
41.9578 15.8652
42.0057 15.8577
42.0534 15.7823
42.1013 15.7871
42.149 15.6882
42.1969 15.6515
42.2446 15.6158
42.2925 15.5365
42.3403 15.4752
42.3882 15.433
42.436 15.404
42.4839 15.3072
42.5319 15.3048
42.5797 15.2415
42.6277 15.2121
42.6755 15.1476
42.7235 15.0741
42.7713 15.0289
42.8193 14.9578
42.8671 14.9455
42.9152 14.8551
42.963 14.7989
43.0111 14.7853
43.0589 14.6866
43.107 14.6652
43.1549 14.6044
43.2029 14.5355
43.2508 14.5087
43.2989 14.4816
43.3468 14.3986
43.3949 14.3659
43.4429 14.3355
43.491 14.2457
43.5389 14.2556
43.5871 14.1603
43.635 14.0747
43.6832 14.1027
43.7312 14.0418
43.7793 13.9651
43.8273 13.9418
43.8755 13.8793
43.9237 13.8349
43.9717 13.7521
44.0199 13.7338
44.068 13.7016
44.1162 13.654
44.1642 13.6277
44.2125 13.5484
44.2606 13.4731
44.3088 13.4823
44.3569 13.3657
44.4052 13.365
44.4533 13.2978
44.5016 13.2917
44.5497 13.2246
44.598 13.1973
44.6461 13.0788
44.6945 13.0589
44.7426 13.0375
44.791 13.0027
44.8391 12.9746
44.8875 12.8634
44.9357 12.82
44.984 12.8142
45.0322 12.7315
45.0806 12.7059
45.1288 12.6712
45.1773 12.6342
45.2257 12.6093
45.2739 12.5197
45.3224 12.5695
45.3706 12.4836
45.4191 12.3742
45.4673 12.3706
45.5158 12.3438
45.5641 12.2492
45.6126 12.226
45.6609 12.1193
45.7094 12.1058
45.7577 12.0979
45.8063 12.0354
45.8546 12.0047
45.9031 11.9732
45.9515 11.912
46.0001 11.9322
46.0484 11.8317
46.097 11.787
46.1454 11.7528
46.194 11.6927
46.2424 11.6491
46.291 11.6062
46.3395 11.5586
46.3881 11.5136
46.4365 11.5267
46.4852 11.4752
46.5337 11.4143
46.5823 11.3856
46.631 11.3097
46.6795 11.2821
46.7282 11.2793
46.7767 11.2047
46.8254 11.1537
46.8739 11.0971
46.9226 11.0639
46.9712 11.0286
47.0199 11.013
47.0685 10.9558
47.1173 10.9058
47.1658 10.8799
47.2146 10.8057
47.2632 10.787
47.312 10.7696
47.3606 10.6886
47.4095 10.654
47.4581 10.6638
47.5069 10.5831
47.5556 10.5313
47.6044 10.4976
47.6531 10.4836
47.702 10.3984
47.7507 10.4027
47.7996 10.3769
47.8483 10.3062
47.8972 10.3098
47.9461 10.2626
47.9948 10.2081
48.0438 10.1891
48.0925 10.1434
48.1415 10.103
48.1902 10.0373
48.2392 10.0457
48.288 10.0207
48.337 9.99463
48.3858 9.91731
48.4348 9.89472
48.4837 9.91961
48.5327 9.83025
48.5815 9.761
48.6306 9.764
48.6795 9.74278
48.7285 9.66323
48.7774 9.66071
48.8265 9.63094
48.8754 9.53239
48.9245 9.54899
48.9734 9.49207
49.0226 9.47234
49.0715 9.43211
49.1206 9.35106
49.1696 9.34573
49.2188 9.366
49.2679 9.29051
49.3169 9.24735
49.3661 9.19369
49.4151 9.16898
49.4643 9.14895
49.5134 9.10735
49.5626 9.03672
49.6117 9.00646
49.6609 8.98332
49.71 8.98994
49.7592 8.95588
49.8083 8.92603
49.8576 8.89401
49.9067 8.83559
49.956 8.81594
50.0052 8.7699
50.0545 8.76421
50.1036 8.74018
50.153 8.68848
50.2022 8.63549
50.2515 8.59246
50.3007 8.55857
50.3501 8.54281
50.3993 8.48666
50.4487 8.47733
50.498 8.43241
50.5474 8.42448
50.5966 8.37226
50.6461 8.35486
50.6955 8.32524
50.7448 8.29394
50.7943 8.30239
50.8436 8.19779
50.8931 8.17788
50.9424 8.15752
50.9919 8.10896
51.0413 8.07215
51.0908 8.06009
51.1402 7.99288
51.1897 7.99655
51.2391 7.9091
51.2887 7.94171
51.3381 7.85017
51.3877 7.85704
51.4371 7.82315
51.4867 7.79933
51.5362 7.75152
51.5858 7.72112
51.6353 7.64885
51.6849 7.64531
51.7344 7.62312
51.7841 7.6092
51.8336 7.53788
51.8833 7.54934
51.9328 7.50173
51.9826 7.43458
52.0323 7.41878
52.0818 7.41267
52.1316 7.36743
52.1812 7.34617
52.231 7.29717
52.2806 7.29432
52.3304 7.25641
52.38 7.23107
52.4298 7.20416
52.4794 7.18473
52.5293 7.14216
52.5789 7.10167
52.6288 7.08306
52.6785 7.03976
52.7284 7.00816
52.7781 7.00466
52.828 6.95815
52.8777 6.90813
52.9276 6.93872
52.9774 6.90137
53.0273 6.83207
53.0771 6.82893
53.1271 6.79576
53.1769 6.77774
53.2269 6.7635
53.2767 6.72662
53.3267 6.69867
53.3765 6.65669
53.4266 6.6211
53.4766 6.56898
53.5265 6.58025
53.5765 6.53936
53.6264 6.4952
53.6765 6.45504
53.7264 6.42816
53.7765 6.39544
53.8265 6.36873
53.8766 6.36136
53.9266 6.321
53.9767 6.34708
54.0267 6.32077
54.0769 6.24319
54.1269 6.18739
54.1771 6.18051
54.2271 6.17136
54.2773 6.07452
54.3274 6.08566
54.3776 6.03268
54.4277 6.02949
54.478 5.98825
54.528 5.93125
54.5783 5.90307
54.6285 5.84617
54.6788 5.87942
54.7289 5.79013
54.7792 5.72317
54.8296 5.71162
54.8798 5.67445
54.9301 5.64417
54.9803 5.60118
55.0307 5.53519
55.0809 5.49166
55.1314 5.50558
55.1816 5.41042
55.232 5.39537
55.2823 5.36036
55.3328 5.3263
55.383 5.23924
55.4335 5.20531
55.4838 5.10023
55.5344 5.08167
55.5847 5.10449
55.6352 5.00136
55.6856 4.97663
55.7361 4.96323