File: XRD/Ni3Fe_FD0241.xy
TT I
1.27165 7.64287
1.31627 7.20791
1.36089 7.60857
1.40551 6.6215
1.45013 6.7891
1.49476 6.81383
1.53938 6.2807
1.584 5.83636
1.62863 5.68087
1.67325 5.41247
1.71787 5.38404
1.7625 5.36948
1.80712 5.44526
1.85174 4.80274
1.89636 5.20295
1.94099 5.18357
1.98562 4.68546
2.03025 5.21352
2.07487 4.30888
2.11949 4.94275
2.16411 4.11399
2.20874 4.55684
2.25338 4.7003
2.298 5.08212
2.34263 4.59135
2.38725 4.80562
2.43188 5.15074
2.4765 4.9932
2.52115 4.94716
2.56577 5.82873
2.6104 5.96947
2.65503 6.32961
2.69965 6.54027
2.7443 6.62916
2.78893 7.54859
2.83356 7.30232
2.87818 8.34434
2.92281 8.94345
2.96744 9.8802
3.01209 10.1923
3.05672 11.0686
3.10135 12.456
3.14599 12.9269
3.19062 13.8337
3.23527 14.8732
3.2799 15.8393
3.32454 17.0876
3.36917 18.0556
3.4138 18.7842
3.45844 19.4159
3.50309 21.2102
3.54773 21.2302
3.59237 22.4675
3.637 23.5022
3.68164 23.865
3.7263 25.4235
3.77094 26.1603
3.81558 26.8938
3.86022 27.7801
3.90486 29.3223
3.9495 29.967
3.99416 30.955
4.0388 32.8135
4.08344 34.1185
4.12809 34.7292
4.17273 36.5134
4.21738 37.7512
4.26204 39.5342
4.30669 40.847
4.35133 42.5075
4.39598 44.3329
4.44063 46.875
4.4853 48.1879
4.52995 52.8298
4.5746 53.7709
4.61925 55.8942
4.6639 57.638
4.70855 61.2563
4.75322 64.6503
4.79788 68.4358
4.84253 71.8195
4.88719 76.7947
4.93184 81.0396
4.97652 88.0675
5.02118 96.3668
5.06583 106.582
5.11049 123.508
5.15515 168.632
5.19981 891.202
5.24449 3957.56
5.28916 10516.7
5.33382 4090.91
5.37848 271.21
5.42315 152.065
5.46783 129.591
5.5125 118.089
5.55716 111.666
5.60183 106.394
5.6465 103.86
5.69117 102.219
5.73586 100.288
5.78053 101.942
5.8252 102.502
5.86988 104.171
5.91455 110.224
5.95924 132.859
6.00392 446.489
6.0486 1430.54
6.09328 3685.54
6.13795 3641.52
6.18263 350.284
6.22733 108.422
6.27201 88.4579
6.3167 80.5056
6.36138 75.5338
6.40606 73.2128
6.45075 71.3083
6.49545 68.2885
6.54014 66.8392
6.58483 65.155
6.62952 64.198
6.67421 62.5673
6.71892 61.3522
6.76361 60.694
6.8083 60.0147
6.853 59.1865
6.89769 58.5526
6.94239 58.3823
6.98711 57.2804
7.03181 57.0752
7.07651 56.5281
7.12121 56.0378
7.16591 56.7283
7.21063 55.7168
7.25533 55.4354
7.30004 55.2885
7.34475 55.7386
7.38945 55.725
7.43416 55.3543
7.47889 55.3133
7.5236 55.8858
7.56831 57.1775
7.61303 56.9332
7.65774 57.2058
7.70247 58.1855
7.74719 57.9641
7.79191 58.7619
7.83663 59.5097
7.88135 60.1519
7.92607 61.2308
7.97081 62.7276
8.01553 63.8246
8.06026 65.2883
8.10498 66.7857
8.14971 69.0551
8.19446 70.7735
8.23919 73.0052
8.28392 76.0664
8.32865 78.8156
8.37339 84.1715
8.41812 90.3874
8.46288 111.293
8.50761 292.005
8.55235 580.331
8.59709 1076.64
8.64183 1992.41
8.68658 1181.21
8.73134 214.354
8.77609 110.197
8.82083 99.8961
8.86558 96.2152
8.91033 93.1474
8.9551 90.6852
8.99985 89.2529
9.04461 88.3379
9.08936 87.825
9.13412 86.6659
9.17888 86.4266
9.22365 86.6099
9.26841 86.4046
9.31318 88.2691
9.35794 88.3487
9.4027 88.1609
9.44749 88.8448
9.49226 89.3549
9.53703 90.1158
9.5818 92.7083
9.62657 94.653
9.67134 95.3877
9.71614 97.3711
9.76091 99.9153
9.80569 103.28
9.85047 106.433
9.89525 112.692
9.94005 137.441
9.98484 303.428
10.0296 512.018
10.0744 806.752
10.1192 1467.37
10.164 1698.6
10.2088 537.666
10.2536 147.092
10.2984 117.209
10.3432 112.41
10.388 115.06
10.4328 158.751
10.4776 210.362
10.5224 283.539
10.5672 447.467
10.612 539.657
10.6568 252.557
10.7017 106.737
10.7465 92.1549
10.7913 87.778
10.8361 85.0824
10.8809 82.4933
10.9257 80.7437
10.9706 79.4747
11.0154 77.4315
11.0602 75.7944
11.105 74.7126
11.1499 73.2484
11.1947 72.3084
11.2395 70.9956
11.2844 70.3708
11.3292 69.6674
11.374 69.1238
11.4189 68.6287
11.4637 67.7119
11.5086 66.965
11.5534 66.5625
11.5983 66.1943
11.6431 66.4172
11.688 65.7072
11.7328 65.9096
11.7777 65.2819
11.8225 65.2061
11.8674 65.3996
11.9122 65.6896
11.9571 65.8763
12.002 68.7067
12.0468 80.0097
12.0917 93.7503
12.1366 109.103
12.1814 141.217
12.2263 192.821
12.2712 181.749
12.3161 102.305
12.3609 69.7893
12.4058 66.9955
12.4507 66.8525
12.4956 67.0645
12.5405 67.1861
12.5853 67.8417
12.6302 67.8166
12.6751 68.6644
12.72 69.5742
12.7649 70.7994
12.8098 71.5131
12.8547 73.1826
12.8996 74.7144
12.9445 76.2343
12.9894 78.2619
13.0343 80.4203
13.0792 86.3746
13.1242 111.657
13.1691 146.166
13.214 174.355
13.2589 231.125
13.3038 325.098
13.3487 420.828
13.3937 304.715
13.4386 148.945
13.4835 133.276
13.5285 152.365
13.5734 175.362
13.6183 228.221
13.6633 315.346
13.7082 357.03
13.7531 224.379
13.7981 110.25
13.843 86.6095
13.888 83.5336
13.9329 81.0983
13.9779 79.5771
14.0228 78.2854
14.0678 76.7998
14.1127 76.2327
14.1577 75.0074
14.2027 74.5086
14.2476 73.8131
14.2926 73.3546
14.3376 72.6793
14.3825 72.5577
14.4275 71.9676
14.4725 72.2712
14.5175 72.0689
14.5624 72.6173
14.6074 72.784
14.6524 73.3903
14.6974 74.5826
14.7424 81.3863
14.7874 95.0679
14.8324 106.171
14.8774 120.215
14.9224 146.405
14.9674 189.454
15.0124 222.834
15.0574 169.448
15.1024 101.358
15.1474 76.7182
15.1924 73.5726
15.2374 72.193
15.2824 71.2396
15.3274 70.4378
15.3725 69.9922
15.4175 69.7794
15.4625 69.0276
15.5076 68.9197
15.5526 69.2651
15.5976 69.7642
15.6426 75.3388
15.6877 85.823
15.7327 94.198
15.7778 103.168
15.8228 122.575
15.8679 153.033
15.9129 189.8
15.958 174.123
16.003 110.679
16.0481 72.4382
16.0931 65.6342
16.1382 63.8024
16.1833 63.0311
16.2283 61.5152
16.2734 60.7141
16.3185 59.943
16.3636 59.3278
16.4086 58.7919
16.4537 58.5222
16.4988 57.7795
16.5439 57.836
16.589 57.3865
16.6341 57.3431
16.6792 56.8854
16.7243 57.1826
16.7694 56.9756
16.8145 56.91
16.8596 57.3211
16.9047 57.5294
16.9498 57.5123
16.9949 57.8798
17.04 59.2276
17.0851 61.7674
17.1302 63.485
17.1754 65.5548
17.2205 68.7184
17.2656 74.18
17.3108 82.1511
17.3559 85.6146
17.401 77.0591
17.4462 66.4253
17.4913 62.4712
17.5365 61.8865
17.5815 62.2692
17.6268 62.5619
17.6718 62.9962
17.7171 63.4762
17.7622 64.4349
17.8074 66.5562
17.8525 72.2452
17.8977 77.8729
17.9428 82.5824
17.9881 88.2977
18.0331 99.3896
18.0784 115.811
18.1237 139.312
18.1688 144.009
18.214 117.451
18.2591 93.1703
18.3044 90.2132
18.3495 97.4034
18.3948 106.846
18.4399 101.249
18.4852 83.1509
18.5303 69.8958
18.5756 65.4
18.6207 64.214
18.666 63.2292
18.7112 62.5476
18.7565 61.7435
18.8016 61.35
18.8469 60.6794
18.892 60.3708
18.9374 59.877
18.9825 59.5566
19.0278 59.6025
19.073 60.2783
19.1183 61.0714
19.1635 61.6893
19.2088 62.9559
19.254 64.746
19.2993 67.2669
19.3447 71.5036
19.3898 76.5113
19.4352 76.0043
19.4804 68.222
19.5257 60.0728
19.5709 56.8791
19.6163 56.5035
19.6615 56.4138
19.7068 55.8913
19.752 55.9971
19.7974 56.9508
19.8426 57.8605
19.888 58.7044
19.9332 59.478
19.9786 61.5012
20.0238 64.3044
20.0692 68.5581
20.1144 72.6008
20.1598 73.0139
20.205 67.5699
20.2504 64.12
20.2957 64.5418
20.3411 66.8785
20.3863 67.112
20.4318 62.0887
20.477 56.5958
20.5224 53.5665
20.5677 52.8627
20.6131 52.4363
20.6586 52.0141
20.7038 51.6528
20.7493 51.3461
20.7945 51.3067
20.84 50.9808
20.8853 51.0168
20.9307 50.9518
20.976 51.1524
21.0215 51.251
21.0668 51.3528
21.1122 51.7084
21.1575 51.9924
21.203 52.5168
21.2483 53.381
21.2938 53.8376
21.3391 52.735
21.3846 51.4757
21.4299 50.871
21.4754 50.9097
21.5207 51.0005
21.5662 51.8249
21.6116 52.5448
21.6571 53.3375
21.7024 54.2954
21.7479 55.446
21.7933 57.6259
21.8388 60.2595
21.8843 63.546
21.9297 67.0285
21.9752 66.9643
22.0206 63.0888
22.0661 58.6702
22.1115 57.7375
22.157 58.2489
22.2024 57.3616
22.248 54.5129
22.2933 52.4599
22.3389 51.3554
22.3843 51.0782
22.4299 50.7149
22.4753 50.8627
22.5208 50.8142
22.5662 50.8706
22.6118 51.3963
22.6572 51.79
22.7028 52.3118
22.7483 52.79
22.7939 53.0889
22.8393 54.1955
22.8849 55.6711
22.9303 57.2995
22.9759 59.1891
23.0214 59.8405
23.067 57.8026
23.1126 54.2879
23.1581 51.907
23.2037 51.4888
23.2492 51.7458
23.2948 51.9449
23.3403 52.1311
23.3859 52.5774
23.4314 53.2578
23.477 54.2968
23.5225 55.7326
23.5682 57.8766
23.6137 59.718
23.6593 58.7079
23.7048 54.9476
23.7505 51.1049
23.796 48.9213
23.8417 48.0987
23.8872 47.4903
23.9329 47.274
23.9784 46.904
24.0241 46.6355
24.0697 46.4617
24.1154 46.1157
24.1609 45.9081
24.2066 45.7292
24.2522 45.7051
24.2979 45.4601
24.3434 45.2045
24.3892 45.0537
24.4349 45.1425
24.4805 44.8679
24.5262 45.1008
24.5718 44.9483
24.6175 44.8572
24.6631 44.756
24.7089 44.3111
24.7545 44.3185
24.8002 44.2158
24.8458 44.2561
24.8916 43.9963
24.9372 44.3097
24.983 44.5449
25.0286 44.9346
25.0744 45.2062
25.12 45.6294
25.1658 46.1757
25.2114 46.4984
25.2572 46.4817
25.3029 46.3873
25.3487 46.5456
25.3943 46.4936
25.4402 45.7613
25.4858 44.4672
25.5316 43.5029
25.5773 42.8925
25.6231 42.7516
25.669 42.3653
25.7147 42.4488
25.7605 42.3245
25.8062 42.3388
25.8521 42.4725
25.8977 42.3927
25.9436 42.5648
25.9893 42.6064
26.0352 42.9799
26.0809 43.0578
26.1268 43.5657
26.1725 43.3878
26.2184 42.7874
26.2641 42.3071
26.31 42.0715
26.3557 42.0101
26.4017 42.145
26.4474 42.3012
26.4933 42.4783
26.5391 42.8394
26.585 43.1568
26.6308 43.632
26.6767 43.8896
26.7225 43.8469
26.7684 43.3609
26.8142 42.7032
26.8601 42.2903
26.9059 41.9905
26.9519 41.3529
26.9979 41.0819
27.0437 40.6965
27.0896 40.5878
27.1354 40.5913
27.1814 40.4032
27.2272 40.2945
27.2732 40.3821
27.3191 40.2379
27.3651 40.1405
27.4109 40.083
27.4569 40.0098
27.5027 40.2186
27.5488 40.2983
27.5946 40.2228
27.6407 40.2128
27.6865 39.9576
27.7326 39.6798
27.7784 39.7626
27.8245 39.6503
27.8703 39.6432
27.9164 39.8655
27.9623 39.9885
28.0084 40.088
28.0543 40.6256
28.1003 40.5747
28.1462 40.5555
28.1923 40.1229
28.2384 39.6565
28.2843 39.3646
28.3304 38.8476
28.3764 38.3921
28.4225 38.1081
28.4684 37.8997
28.5145 37.6237
28.5605 37.5366
28.6066 37.2835
28.6526 37.2422
28.6987 37.1743
28.7447 37.0443
28.7908 36.9356
28.8368 36.914
28.8829 36.865
28.9289 36.9331
28.9751 36.8401
29.0211 36.4883
29.0673 36.3505
29.1133 36.2785
29.1595 35.9916
29.2055 35.9141
29.2517 35.8115
29.2977 35.7797
29.3439 35.7069
29.3899 35.6545
29.4361 35.6105
29.4824 35.455
29.5284 35.2785
29.5746 35.0254
29.6207 34.6298
29.6669 34.4833
29.713 34.5343
29.7593 34.3559
29.8053 34.3357
29.8516 34.2457
29.8977 34.3009
29.9439 34.1251
29.99 34.0392
30.0363 33.9357
30.0824 33.9568
30.1287 33.8547
30.1748 33.8626
30.2211 33.8784
30.2673 33.7525
30.3136 33.8559
30.3597 33.7889
30.406 33.5819
30.4522 33.4715
30.4985 33.4862
30.5447 33.6493
30.591 33.5548
30.6372 33.5171
30.6835 33.5011
30.7297 33.6536
30.7761 33.6493
30.8224 33.4046
30.8686 33.2772
30.915 32.9881
30.9612 32.9634
31.0076 32.6949
31.0538 32.6164
31.1002 32.5312
31.1464 32.2967
31.1928 32.3957
31.2391 32.3348
31.2855 32.2576
31.3317 32.2438
31.3781 32.2919
31.4244 32.2907
31.4708 32.1008
31.5171 32.2673
31.5636 32.1496
31.6098 31.9673
31.6563 31.748
31.7026 31.5917
31.7491 31.4564
31.7953 31.5057
31.8418 31.506
31.8881 31.3867
31.9346 31.3673
31.9809 31.3181
32.0275 31.2605
32.074 31.1813
32.1203 30.8985
32.1668 30.7873
32.2132 30.6326
32.2597 30.4476
32.306 30.4035
32.3526 30.3826
32.399 30.263
32.4455 30.0414
32.4919 29.9284
32.5385 29.9736
32.5848 29.7442
32.6314 29.6983
32.6778 29.7377
32.7244 29.5227
32.7708 29.426
32.8174 29.4184
32.8638 29.1668
32.9104 29.3143
32.9569 29.3401
33.0035 29.1669
33.0499 29.0785
33.0966 28.9745
33.143 29.0412
33.1897 28.9488
33.2361 28.788
33.2828 28.827
33.3293 28.6808
33.3759 28.5968
33.4226 28.4254
33.4691 28.2777
33.5158 28.3193
33.5623 28.1098
33.609 27.9136
33.6555 27.8283
33.7022 27.7177
33.7487 27.6829
33.7954 27.5689
33.842 27.4699
33.8887 27.478
33.9353 27.3307
33.982 27.2875
34.0286 27.2199
34.0753 27.1749
34.1219 27.1221
34.1687 26.9202
34.2152 26.9674
34.262 26.7646
34.3086 26.6403
34.3554 26.5615
34.402 26.5277
34.4488 26.4117
34.4954 26.4296
34.5422 26.3265
34.5889 26.2208
34.6357 26.1306
34.6825 26.0068
34.7292 25.9319
34.776 25.8646
34.8227 25.7891
34.8695 25.6922
34.9162 25.6938
34.9631 25.6489
35.0098 25.5185
35.0566 25.4869
35.1033 25.3719
35.1502 25.3505
35.1969 25.2628
35.2438 25.2279
35.2906 25.184
35.3375 25.0391
35.3842 24.9821
35.4311 25.0206
35.4779 24.9613
35.5248 24.9243
35.5716 24.7845
35.6185 24.7308
35.6653 24.7658
35.7123 24.5596
35.759 24.4664
35.806 24.464
35.8528 24.2231
35.8998 24.2399
35.9468 24.1037
35.9936 24.0673
36.0406 24.0676
36.0874 23.9546
36.1345 23.8919
36.1813 23.7512
36.2283 23.7364
36.2752 23.6387
36.3222 23.6516
36.3691 23.5278
36.4161 23.4265
36.463 23.4185
36.5101 23.3966
36.557 23.2289
36.6041 23.097
36.651 23.1446
36.6981 23.0662
36.745 23.0014
36.7921 22.9823
36.839 22.8266
36.8861 22.8105
36.9331 22.6923
36.9802 22.6204
37.0272 22.5464
37.0743 22.4354
37.1213 22.4258
37.1684 22.3259
37.2154 22.2738
37.2626 22.175
37.3098 22.115
37.3568 22.0705
37.404 22.0177
37.451 21.9061
37.4982 21.829
37.5452 21.764
37.5924 21.7056
37.6395 21.7294
37.6867 21.5963
37.7337 21.4438
37.781 21.4652
37.8281 21.3587
37.8753 21.2893
37.9224 21.1933
37.9697 21.16
38.0168 21.1144
38.064 20.9671
38.1111 21.0649
38.1584 20.9303
38.2056 20.8417
38.2529 20.7453
38.3 20.657
38.3473 20.7397
38.3945 20.5129
38.4418 20.4862
38.489 20.4422
38.5363 20.3472
38.5837 20.303
38.6309 20.2424
38.6782 20.111
38.7254 19.9866
38.7728 20.0321
38.82 19.9642
38.8674 19.8449
38.9146 19.8489
38.9621 19.8297
39.0093 19.7647
39.0567 19.6671
39.104 19.5827
39.1514 19.5823
39.1987 19.4754
39.2461 19.3923
39.2934 19.3868
39.3409 19.2995
39.3882 19.2082
39.4356 19.1973
39.483 19.1442
39.5304 19.052
39.5778 19.0599
39.6253 18.8523
39.6726 18.8586
39.7201 18.8278
39.7675 18.8125
39.815 18.6587
39.8624 18.6686
39.9099 18.6176
39.9575 18.4558
40.0049 18.4833
40.0525 18.4476
40.0999 18.3343
40.1474 18.2787
40.1949 18.2028
40.2425 18.1501
40.2899 18.0841
40.3375 18.0318
40.385 17.9519
40.4326 17.8964
40.48 17.818
40.5277 17.8299
40.5752 17.7614
40.6228 17.709
40.6703 17.6448
40.718 17.603
40.7655 17.5433
40.8132 17.4607
40.8607 17.4282
40.9084 17.3677
40.9559 17.3438
41.0036 17.2834
41.0512 17.2129
41.0989 17.1461
41.1465 17.135
41.1942 17.063
41.242 16.9192
41.2896 16.9349
41.3373 16.8545
41.3849 16.774
41.4327 16.7807
41.4803 16.6417
41.5281 16.6477
41.5758 16.5785
41.6236 16.5236
41.6712 16.4419
41.7191 16.4494
41.7667 16.432
41.8146 16.2757
41.8622 16.2962
41.9101 16.2192
41.9578 16.063
42.0057 16.0507
42.0534 15.9985
42.1013 15.98
42.149 15.9404
42.1969 15.8611
42.2446 15.8712
42.2925 15.7984
42.3403 15.7064
42.3882 15.7106
42.436 15.702
42.4839 15.535
42.5319 15.4623
42.5797 15.4861
42.6277 15.3991
42.6755 15.3535
42.7235 15.291
42.7713 15.2787
42.8193 15.2298
42.8671 15.161
42.9152 15.1109
42.963 15.0686
43.0111 14.9662
43.0589 14.9307
43.107 14.8598
43.1549 14.7833
43.2029 14.7895
43.2508 14.7858
43.2989 14.6564
43.3468 14.5964
43.3949 14.5176
43.4429 14.5627
43.491 14.4812
43.5389 14.4548
43.5871 14.375
43.635 14.2934
43.6832 14.285
43.7312 14.1798
43.7793 14.185
43.8273 14.1058
43.8755 14.0669
43.9237 14.0279
43.9717 13.9734
44.0199 13.9132
44.068 13.9091
44.1162 13.8171
44.1642 13.8105
44.2125 13.735
44.2606 13.733
44.3088 13.6176
44.3569 13.5917
44.4052 13.5871
44.4533 13.5001
44.5016 13.3866
44.5497 13.4182
44.598 13.3775
44.6461 13.3297
44.6945 13.2623
44.7426 13.2344
44.791 13.1394
44.8391 13.126
44.8875 13.0524
44.9357 13.0267
44.984 12.989
45.0322 12.9536
45.0806 12.8739
45.1288 12.8274
45.1773 12.796
45.2257 12.7757
45.2739 12.7143
45.3224 12.666
45.3706 12.6131
45.4191 12.5535
45.4673 12.5193
45.5158 12.4861
45.5641 12.4604
45.6126 12.4397
45.6609 12.3361
45.7094 12.2929
45.7577 12.2807
45.8063 12.1856
45.8546 12.1988
45.9031 12.1285
45.9515 12.1023
46.0001 12.0494
46.0484 11.9537
46.097 11.9505
46.1454 11.936
46.194 11.8133
46.2424 11.8595
46.291 11.7454
46.3395 11.7091
46.3881 11.6878
46.4365 11.6425
46.4852 11.6136
46.5337 11.5707
46.5823 11.5848
46.631 11.4787
46.6795 11.4639
46.7282 11.4409
46.7767 11.3899
46.8254 11.318
46.8739 11.2377
46.9226 11.2159
46.9712 11.2223
47.0199 11.1829
47.0685 11.1057
47.1173 11.0891
47.1658 11.0309
47.2146 10.963
47.2632 10.9717
47.312 10.9185
47.3606 10.8704
47.4095 10.826
47.4581 10.8303
47.5069 10.7174
47.5556 10.7135
47.6044 10.6495
47.6531 10.6275
47.702 10.5658
47.7507 10.5515
47.7996 10.5166
47.8483 10.4866
47.8972 10.4416
47.9461 10.3678
47.9948 10.334
48.0438 10.3578
48.0925 10.313
48.1415 10.2289
48.1902 10.204
48.2392 10.1614
48.288 10.1402
48.337 10.113
48.3858 10.0493
48.4348 10.0282
48.4837 10.0134
48.5327 9.96264
48.5815 9.93335
48.6306 9.92441
48.6795 9.86451
48.7285 9.78515
48.7774 9.74345
48.8265 9.74928
48.8754 9.70431
48.9245 9.65089
48.9734 9.62466
49.0226 9.59098
49.0715 9.56762
49.1206 9.5042
49.1696 9.48528
49.2188 9.43517
49.2679 9.41665
49.3169 9.37882
49.3661 9.33416
49.4151 9.22695
49.4643 9.25686
49.5134 9.23343
49.5626 9.13436
49.6117 9.18037
49.6609 9.14285
49.71 9.05724
49.7592 9.03852
49.8083 8.99536
49.8576 8.99178
49.9067 8.95407
49.956 8.91785
50.0052 8.88783
50.0545 8.83945
50.1036 8.85143
50.153 8.76516
50.2022 8.73645
50.2515 8.72191
50.3007 8.70336
50.3501 8.65892
50.3993 8.60511
50.4487 8.57354
50.498 8.55446
50.5474 8.50071
50.5966 8.44736
50.6461 8.45997
50.6955 8.41461
50.7448 8.368
50.7943 8.37648
50.8436 8.28089
50.8931 8.30056
50.9424 8.24814
50.9919 8.24924
51.0413 8.19704
51.0908 8.14219
51.1402 8.11585
51.1897 8.08329
51.2391 8.08042
51.2887 8.03148
51.3381 8.00305
51.3877 7.96379
51.4371 7.92972
51.4867 7.87777
51.5362 7.85671
51.5858 7.85598
51.6353 7.80286
51.6849 7.77856
51.7344 7.7359
51.7841 7.71922
51.8336 7.7012
51.8833 7.62584
51.9328 7.60724
51.9826 7.56299
52.0323 7.52629
52.0818 7.50999
52.1316 7.43741
52.1812 7.45272
52.231 7.39027
52.2806 7.40124
52.3304 7.3458
52.38 7.34233
52.4298 7.32364
52.4794 7.26372
52.5293 7.23731
52.5789 7.19636
52.6288 7.16831
52.6785 7.14396
52.7284 7.08861
52.7781 7.08298
52.828 7.05184
52.8777 6.99818
52.9276 6.98849
52.9774 6.92879
53.0273 6.95468
53.0771 6.89168
53.1271 6.9122
53.1769 6.8526
53.2269 6.80374
53.2767 6.78369
53.3267 6.76483
53.3765 6.72367
53.4266 6.73108
53.4766 6.67857
53.5265 6.65139
53.5765 6.57162
53.6264 6.62968
53.6765 6.58547
53.7264 6.55962
53.7765 6.50848
53.8265 6.47642
53.8766 6.41595
53.9266 6.42535
53.9767 6.35768
54.0267 6.35223
54.0769 6.33804
54.1269 6.31607
54.1771 6.25417
54.2271 6.26955
54.2773 6.16549
54.3274 6.20572
54.3776 6.08574
54.4277 6.09408
54.478 6.04776
54.528 5.96557
54.5783 5.9662
54.6285 5.93491
54.6788 5.87306
54.7289 5.81799
54.7792 5.77011
54.8296 5.7521
54.8798 5.67839
54.9301 5.71613
54.9803 5.65256
55.0307 5.63794
55.0809 5.56762
55.1314 5.58392
55.1816 5.44963
55.232 5.3897
55.2823 5.41006
55.3328 5.31863
55.383 5.20682
55.4335 5.24719
55.4838 5.1301
55.5344 5.10402
55.5847 5.09612
55.6352 5.03012
55.6856 5.00692
55.7361 4.97893