File: XRD/Ni3Fe_FD0800.xy
TT I
1.27165 7.09272
1.31627 6.88212
1.36089 6.5889
1.40551 6.41783
1.45013 6.06408
1.49476 5.93828
1.53938 5.55004
1.584 5.42246
1.62863 5.1727
1.67325 4.928
1.71787 4.6652
1.7625 4.86125
1.80712 4.25334
1.85174 4.54948
1.89636 4.47635
1.94099 5.2046
1.98562 4.46888
2.03025 4.27484
2.07487 4.11413
2.11949 4.80337
2.16411 5.05264
2.20874 9.92373
2.25338 13.6272
2.298 5.70709
2.34263 5.71062
2.38725 5.80427
2.43188 6.8477
2.4765 7.51544
2.52115 7.24802
2.56577 7.77613
2.6104 8.30952
2.65503 7.70149
2.69965 8.33593
2.7443 8.47092
2.78893 8.5019
2.83356 8.0868
2.87818 8.47295
2.92281 9.01667
2.96744 9.00805
3.01209 10.6191
3.05672 10.9345
3.10135 12.5219
3.14599 13.2249
3.19062 14.4133
3.23527 14.7503
3.2799 15.685
3.32454 16.5005
3.36917 17.3575
3.4138 18.4107
3.45844 19.4369
3.50309 20.8932
3.54773 21.3599
3.59237 23.1807
3.637 58.1202
3.68164 41.5089
3.7263 25.609
3.77094 25.8008
3.81558 26.2744
3.86022 27.1901
3.90486 28.2567
3.9495 29.6944
3.99416 30.2058
4.0388 31.7101
4.08344 33.3504
4.12809 34.3826
4.17273 36.0181
4.21738 39.848
4.26204 148.145
4.30669 128.397
4.35133 44.9943
4.39598 43.5925
4.44063 49.5532
4.4853 56.7003
4.52995 53.6301
4.5746 54.4482
4.61925 53.1555
4.6639 55.2192
4.70855 58.2882
4.75322 60.7987
4.79788 65.9742
4.84253 67.5
4.88719 73.149
4.93184 75.6849
4.97652 80.2846
5.02118 86.7235
5.06583 94.3087
5.11049 105.108
5.15515 157.403
5.19981 381.134
5.24449 2816.79
5.28916 12295.1
5.33382 2503.42
5.37848 182.766
5.42315 127.865
5.46783 115.484
5.5125 108.652
5.55716 100.935
5.60183 97.0207
5.6465 95.2545
5.69117 93.9415
5.73586 92.0639
5.78053 94.2655
5.8252 94.271
5.86988 96.0892
5.91455 94.3182
5.95924 103.525
6.00392 232.711
6.0486 967.454
6.09328 4590.26
6.13795 3071.0
6.18263 204.255
6.22733 89.1084
6.27201 80.2591
6.3167 87.7849
6.36138 75.2705
6.40606 68.5974
6.45075 68.0014
6.49545 64.9622
6.54014 63.1111
6.58483 62.3041
6.62952 62.1445
6.67421 77.7705
6.71892 100.765
6.76361 63.2277
6.8083 58.0121
6.853 58.1811
6.89769 56.2037
6.94239 55.8605
6.98711 55.1683
7.03181 55.2345
7.07651 54.7066
7.12121 53.847
7.16591 55.0797
7.21063 54.2852
7.25533 62.4419
7.30004 117.234
7.34475 73.0385
7.38945 55.011
7.43416 53.431
7.47889 53.4711
7.5236 53.8254
7.56831 54.9911
7.61303 55.3281
7.65774 55.7909
7.70247 55.9875
7.74719 55.7967
7.79191 55.7609
7.83663 56.2544
7.88135 57.4102
7.92607 57.8936
7.97081 59.2149
8.01553 60.5295
8.06026 62.0379
8.10498 63.5715
8.14971 70.3529
8.19446 70.3077
8.23919 69.2284
8.28392 71.2183
8.32865 73.421
8.37339 77.7338
8.41812 83.4567
8.46288 104.076
8.50761 174.989
8.55235 383.565
8.59709 1211.59
8.64183 2199.98
8.68658 842.681
8.73134 146.82
8.77609 97.2249
8.82083 91.4965
8.86558 90.4416
8.91033 90.2306
8.9551 88.4589
8.99985 84.6934
9.04461 83.329
9.08936 82.6231
9.13412 82.0604
9.17888 81.2321
9.22365 81.8546
9.26841 81.3815
9.31318 83.1498
9.35794 84.2377
9.4027 84.0474
9.44749 84.1588
9.49226 84.6804
9.53703 84.947
9.5818 87.9541
9.62657 92.5629
9.67134 94.9483
9.71614 92.3942
9.76091 93.6683
9.80569 97.2013
9.85047 100.174
9.89525 113.416
9.94005 127.949
9.98484 187.384
10.0296 344.801
10.0744 833.038
10.1192 1798.0
10.164 1501.99
10.2088 339.918
10.2536 119.3
10.2984 109.264
10.3432 109.021
10.388 103.88
10.4328 120.743
10.4776 161.552
10.5224 291.436
10.5672 540.669
10.612 485.838
10.6568 184.733
10.7017 94.0549
10.7465 85.4273
10.7913 82.5069
10.8361 80.1899
10.8809 78.046
10.9257 76.9516
10.9706 77.4393
11.0154 74.3027
11.0602 71.893
11.105 70.7017
11.1499 72.6522
11.1947 75.4362
11.2395 70.5722
11.2844 68.3312
11.3292 66.4089
11.374 65.6176
11.4189 64.9046
11.4637 63.9946
11.5086 64.3099
11.5534 65.6037
11.5983 63.9166
11.6431 63.0714
11.688 62.4342
11.7328 62.3237
11.7777 61.9962
11.8225 61.8917
11.8674 62.1102
11.9122 62.0027
11.9571 62.343
12.002 63.4218
12.0468 68.1991
12.0917 78.0717
12.1366 102.547
12.1814 157.837
12.2263 214.552
12.2712 165.97
12.3161 87.8441
12.3609 66.7243
12.4058 63.4471
12.4507 63.4447
12.4956 63.8742
12.5405 64.2443
12.5853 64.7472
12.6302 68.3692
12.6751 71.8024
12.72 67.7955
12.7649 66.9697
12.8098 67.8635
12.8547 69.2784
12.8996 70.7164
12.9445 72.1705
12.9894 73.8893
13.0343 75.5027
13.0792 79.2219
13.1242 90.798
13.1691 111.212
13.214 148.67
13.2589 247.867
13.3038 389.956
13.3487 417.991
13.3937 238.801
13.4386 117.034
13.4835 105.562
13.5285 119.994
13.5734 159.922
13.6183 257.596
13.6633 366.504
13.7082 326.562
13.7531 166.321
13.7981 92.262
13.843 80.6
13.888 78.6489
13.9329 76.22
13.9779 75.2017
14.0228 73.5441
14.0678 72.4348
14.1127 71.6556
14.1577 71.3657
14.2027 70.4946
14.2476 69.8535
14.2926 69.6512
14.3376 69.9169
14.3825 69.1206
14.4275 68.1634
14.4725 67.9711
14.5175 68.0974
14.5624 68.2459
14.6074 69.728
14.6524 70.108
14.6974 69.8982
14.7424 72.6645
14.7874 79.0067
14.8324 88.5235
14.8774 111.389
14.9224 158.932
14.9674 217.165
15.0124 219.467
15.0574 140.603
15.1024 85.9857
15.1474 71.3835
15.1924 69.5968
15.2374 69.1378
15.2824 68.3512
15.3274 66.7935
15.3725 65.8709
15.4175 65.765
15.4625 65.4339
15.5076 65.355
15.5526 65.3509
15.5976 65.2224
15.6426 67.1141
15.6877 72.1667
15.7327 79.0086
15.7778 95.1087
15.8228 129.401
15.8679 177.959
15.9129 196.419
15.958 145.404
16.003 88.3331
16.0481 65.6121
16.0931 62.7813
16.1382 60.8849
16.1833 59.504
16.2283 58.2213
16.2734 57.6983
16.3185 57.4477
16.3636 57.5262
16.4086 56.3027
16.4537 55.387
16.4988 54.8283
16.5439 54.7722
16.589 54.4631
16.6341 54.1963
16.6792 53.738
16.7243 54.2974
16.7694 54.055
16.8145 54.2802
16.8596 54.395
16.9047 55.2343
16.9498 55.4134
16.9949 54.8289
17.04 55.4537
17.0851 56.664
17.1302 58.1748
17.1754 61.3145
17.2205 66.7891
17.2656 75.3208
17.3108 83.4889
17.3559 81.1329
17.401 68.6606
17.4462 60.5581
17.4913 58.4718
17.5365 58.4334
17.5815 58.4694
17.6268 59.1682
17.6718 59.5959
17.7171 60.1927
17.7622 60.6912
17.8074 61.7935
17.8525 64.5374
17.8977 67.9385
17.9428 73.0311
17.9881 82.7428
18.0331 101.704
18.0784 124.808
18.1237 141.504
18.1688 126.311
18.214 98.783
18.2591 84.6027
18.3044 91.3778
18.3495 101.925
18.3948 105.125
18.4399 92.3449
18.4852 73.7928
18.5303 64.3841
18.5756 61.4951
18.6207 60.6169
18.666 59.5698
18.7112 58.8108
18.7565 58.4125
18.8016 57.964
18.8469 57.4796
18.892 57.3645
18.9374 56.6124
18.9825 56.393
19.0278 56.1517
19.073 56.3665
19.1183 56.776
19.1635 57.1987
19.2088 58.6584
19.254 61.6105
19.2993 66.5805
19.3447 72.4358
19.3898 75.9125
19.4352 69.8048
19.4804 61.1479
19.5257 55.4344
19.5709 53.5753
19.6163 53.4123
19.6615 53.0459
19.7068 52.7415
19.752 52.6577
19.7974 53.1587
19.8426 53.8304
19.888 54.4686
19.9332 55.6463
19.9786 58.3828
20.0238 62.7145
20.0692 67.7407
20.1144 69.7979
20.1598 67.0416
20.205 62.4415
20.2504 61.6743
20.2957 64.0452
20.3411 65.3154
20.3863 62.9263
20.4318 56.7564
20.477 52.4603
20.5224 50.6802
20.5677 50.1447
20.6131 49.587
20.6586 49.09
20.7038 49.0239
20.7493 48.5535
20.7945 48.5699
20.84 48.1891
20.8853 48.1733
20.9307 48.011
20.976 48.2492
21.0215 48.0655
21.0668 48.5674
21.1122 49.0029
21.1575 49.6452
21.203 50.4208
21.2483 51.1775
21.2938 50.8512
21.3391 49.2173
21.3846 48.3249
21.4299 47.9333
21.4754 47.9166
21.5207 48.2792
21.5662 48.5607
21.6116 48.966
21.6571 49.5126
21.7024 50.4
21.7479 52.261
21.7933 55.3963
21.8388 58.9828
21.8843 62.9696
21.9297 64.3118
21.9752 61.7956
22.0206 58.077
22.0661 55.6259
22.1115 55.9244
22.157 55.3368
22.2024 53.3524
22.248 50.7471
22.2933 49.1592
22.3389 48.4343
22.3843 48.4205
22.4299 48.0752
22.4753 48.3134
22.5208 47.891
22.5662 47.9191
22.6118 48.2486
22.6572 48.436
22.7028 48.8149
22.7483 49.3931
22.7939 49.9608
22.8393 51.6856
22.8849 53.9094
22.9303 56.0016
22.9759 57.6022
23.0214 56.6136
23.067 53.4836
23.1126 50.1071
23.1581 48.5575
23.2037 48.286
23.2492 48.664
23.2948 48.3377
23.3403 48.7004
23.3859 49.4789
23.4314 50.423
23.477 52.3964
23.5225 54.7525
23.5682 57.0393
23.6137 57.4159
23.6593 54.3877
23.7048 50.4012
23.7505 47.4246
23.796 45.9572
23.8417 45.5842
23.8872 45.0185
23.9329 44.7087
23.9784 44.329
24.0241 44.2471
24.0697 44.1062
24.1154 43.6082
24.1609 43.5658
24.2066 43.4366
24.2522 43.2946
24.2979 42.9743
24.3434 42.8435
24.3892 42.628
24.4349 42.8012
24.4805 42.624
24.5262 42.5814
24.5718 42.6094
24.6175 42.5191
24.6631 42.3978
24.7089 41.9269
24.7545 41.9916
24.8002 41.704
24.8458 41.7966
24.8916 41.6905
24.9372 41.7835
24.983 42.1762
25.0286 42.5051
25.0744 42.905
25.12 43.3486
25.1658 43.9274
25.2114 44.2831
25.2572 44.4174
25.3029 44.5165
25.3487 44.446
25.3943 44.1902
25.4402 42.8766
25.4858 41.8861
25.5316 40.9037
25.5773 40.4399
25.6231 40.5119
25.669 40.1679
25.7147 40.103
25.7605 39.9005
25.8062 40.1002
25.8521 40.1885
25.8977 40.0577
25.9436 40.4236
25.9893 40.5147
26.0352 41.0597
26.0809 41.2301
26.1268 41.2652
26.1725 40.8686
26.2184 40.2381
26.2641 39.7256
26.31 39.6957
26.3557 39.6932
26.4017 39.7158
26.4474 39.9593
26.4933 40.3754
26.5391 40.9691
26.585 41.3907
26.6308 41.6964
26.6767 41.9384
26.7225 41.5356
26.7684 40.7722
26.8142 40.4506
26.8601 40.0669
26.9059 39.6457
26.9519 39.0118
26.9979 38.748
27.0437 38.5546
27.0896 38.3805
27.1354 38.3474
27.1814 38.255
27.2272 38.1448
27.2732 38.19
27.3191 37.9792
27.3651 38.043
27.4109 38.0524
27.4569 38.2603
27.5027 38.1192
27.5488 38.19
27.5946 37.9583
27.6407 37.762
27.6865 37.7608
27.7326 37.488
27.7784 37.6229
27.8245 37.5089
27.8703 37.6927
27.9164 37.9824
27.9623 38.1461
28.0084 38.4253
28.0543 38.9086
28.1003 38.7544
28.1462 38.3415
28.1923 38.1044
28.2384 37.4558
28.2843 37.3188
28.3304 36.6909
28.3764 36.2
28.4225 36.0543
28.4684 35.9031
28.5145 35.6325
28.5605 35.5657
28.6066 35.3426
28.6526 35.2661
28.6987 35.3201
28.7447 35.0788
28.7908 34.9756
28.8368 35.1237
28.8829 35.0715
28.9289 35.0348
28.9751 34.7528
29.0211 34.5486
29.0673 34.3947
29.1133 34.2462
29.1595 34.0622
29.2055 33.8794
29.2517 34.0221
29.2977 33.9455
29.3439 33.9765
29.3899 33.9198
29.4361 33.7157
29.4824 33.5854
29.5284 33.3803
29.5746 33.0765
29.6207 32.7354
29.6669 32.6034
29.713 32.6438
29.7593 32.4856
29.8053 32.5409
29.8516 32.4976
29.8977 32.4476
29.9439 32.3399
29.99 32.1767
30.0363 32.2629
30.0824 32.1704
30.1287 32.0461
30.1748 32.0646
30.2211 32.1064
30.2673 31.9744
30.3136 32.1416
30.3597 31.9208
30.406 31.8859
30.4522 31.7469
30.4985 31.7205
30.5447 31.7131
30.591 31.8274
30.6372 31.8496
30.6835 31.8743
30.7297 31.9327
30.7761 31.8002
30.8224 31.6561
30.8686 31.5071
30.915 31.2256
30.9612 31.1105
31.0076 31.0224
31.0538 30.9491
31.1002 30.8891
31.1464 30.6993
31.1928 30.6622
31.2391 30.6474
31.2855 30.6041
31.3317 30.5323
31.3781 30.6196
31.4244 30.5845
31.4708 30.5675
31.5171 30.4977
31.5636 30.4828
31.6098 30.1685
31.6563 30.0343
31.7026 29.903
31.7491 29.8555
31.7953 29.9218
31.8418 29.793
31.8881 29.8903
31.9346 29.7945
31.9809 29.7285
32.0275 29.5836
32.074 29.4457
32.1203 29.3358
32.1668 29.2083
32.2132 29.0998
32.2597 28.9739
32.306 28.8703
32.3526 28.6706
32.399 28.5982
32.4455 28.5059
32.4919 28.4704
32.5385 28.3553
32.5848 28.1882
32.6314 28.1892
32.6778 28.1638
32.7244 27.9609
32.7708 27.871
32.8174 27.8868
32.8638 27.811
32.9104 27.8305
32.9569 27.6692
33.0035 27.6168
33.0499 27.5204
33.0966 27.5267
33.143 27.5649
33.1897 27.3912
33.2361 27.3855
33.2828 27.2992
33.3293 27.1754
33.3759 27.0664
33.4226 26.935
33.4691 26.81
33.5158 26.7683
33.5623 26.6365
33.609 26.5205
33.6555 26.4315
33.7022 26.2596
33.7487 26.1992
33.7954 26.247
33.842 26.1747
33.8887 25.9929
33.9353 25.9806
33.982 25.8574
34.0286 25.7794
34.0753 25.7374
34.1219 25.634
34.1687 25.6649
34.2152 25.5085
34.262 25.4158
34.3086 25.2252
34.3554 25.2461
34.402 25.1336
34.4488 25.0932
34.4954 24.9971
34.5422 24.8585
34.5889 24.7772
34.6357 24.8119
34.6825 24.6368
34.7292 24.522
34.776 24.5249
34.8227 24.4306
34.8695 24.3898
34.9162 24.3256
34.9631 24.1883
35.0098 24.3031
35.0566 24.0081
35.1033 24.1375
35.1502 23.98
35.1969 23.9406
35.2438 23.9507
35.2906 23.84
35.3375 23.7999
35.3842 23.7862
35.4311 23.7507
35.4779 23.657
35.5248 23.6624
35.5716 23.5695
35.6185 23.4256
35.6653 23.3885
35.7123 23.2072
35.759 23.2494
35.806 23.1343
35.8528 23.0166
35.8998 22.9667
35.9468 22.7982
35.9936 22.7735
36.0406 22.7846
36.0874 22.71
36.1345 22.7187
36.1813 22.5356
36.2283 22.4062
36.2752 22.4537
36.3222 22.4353
36.3691 22.3315
36.4161 22.2213
36.463 22.2719
36.5101 22.1853
36.557 22.1905
36.6041 21.9845
36.651 21.9397
36.6981 21.8734
36.745 21.7212
36.7921 21.7571
36.839 21.6434
36.8861 21.5887
36.9331 21.5631
36.9802 21.4014
37.0272 21.2926
37.0743 21.2809
37.1213 21.2352
37.1684 21.2418
37.2154 21.0364
37.2626 20.9837
37.3098 20.9826
37.3568 20.886
37.404 20.9208
37.451 20.7596
37.4982 20.744
37.5452 20.6484
37.5924 20.5902
37.6395 20.5554
37.6867 20.561
37.7337 20.3625
37.781 20.2978
37.8281 20.2971
37.8753 20.2031
37.9224 20.1009
37.9697 19.9958
38.0168 19.9636
38.064 19.859
38.1111 19.8929
38.1584 19.8245
38.2056 19.7345
38.2529 19.7211
38.3 19.5938
38.3473 19.5529
38.3945 19.5217
38.4418 19.5037
38.489 19.3753
38.5363 19.3054
38.5837 19.2169
38.6309 19.1735
38.6782 19.0724
38.7254 19.1231
38.7728 18.9727
38.82 18.9266
38.8674 18.919
38.9146 18.8625
38.9621 18.7573
39.0093 18.7386
39.0567 18.6903
39.104 18.5958
39.1514 18.5242
39.1987 18.4894
39.2461 18.4725
39.2934 18.3698
39.3409 18.2231
39.3882 18.1941
39.4356 18.165
39.483 18.135
39.5304 18.066
39.5778 18.0609
39.6253 17.9281
39.6726 17.9142
39.7201 17.9214
39.7675 17.7861
39.815 17.7907
39.8624 17.6755
39.9099 17.7019
39.9575 17.5167
40.0049 17.526
40.0525 17.3866
40.0999 17.3998
40.1474 17.3687
40.1949 17.3275
40.2425 17.2275
40.2899 17.1938
40.3375 17.1088
40.385 17.0876
40.4326 17.0124
40.48 16.9549
40.5277 16.8978
40.5752 16.8946
40.6228 16.7423
40.6703 16.7288
40.718 16.6586
40.7655 16.6789
40.8132 16.5622
40.8607 16.5704
40.9084 16.5293
40.9559 16.4448
41.0036 16.357
41.0512 16.3159
41.0989 16.2914
41.1465 16.2087
41.1942 16.1402
41.242 16.1042
41.2896 16.0572
41.3373 15.9678
41.3849 15.9908
41.4327 15.8838
41.4803 15.8194
41.5281 15.8149
41.5758 15.7308
41.6236 15.7266
41.6712 15.5895
41.7191 15.5883
41.7667 15.5469
41.8146 15.5089
41.8622 15.3969
41.9101 15.4176
41.9578 15.2752
42.0057 15.2359
42.0534 15.2396
42.1013 15.2394
42.149 15.0984
42.1969 15.0821
42.2446 14.9855
42.2925 14.9942
42.3403 14.883
42.3882 14.8647
42.436 14.8335
42.4839 14.7599
42.5319 14.7465
42.5797 14.6713
42.6277 14.6161
42.6755 14.5323
42.7235 14.4926
42.7713 14.4962
42.8193 14.4194
42.8671 14.3402
42.9152 14.3326
42.963 14.301
43.0111 14.1872
43.0589 14.1871
43.107 14.1317
43.1549 14.0555
43.2029 14.0297
43.2508 13.9962
43.2989 13.8929
43.3468 13.8581
43.3949 13.8458
43.4429 13.7745
43.491 13.692
43.5389 13.6876
43.5871 13.6025
43.635 13.5838
43.6832 13.5583
43.7312 13.4876
43.7793 13.4748
43.8273 13.4397
43.8755 13.34
43.9237 13.3029
43.9717 13.2856
44.0199 13.2427
44.068 13.2086
44.1162 13.1512
44.1642 13.139
44.2125 13.033
44.2606 13.0286
44.3088 12.959
44.3569 12.9224
44.4052 12.8986
44.4533 12.8327
44.5016 12.7109
44.5497 12.7572
44.598 12.6693
44.6461 12.6699
44.6945 12.6044
44.7426 12.5698
44.791 12.5117
44.8391 12.4697
44.8875 12.4679
44.9357 12.3951
44.984 12.3321
45.0322 12.3295
45.0806 12.1983
45.1288 12.2265
45.1773 12.1608
45.2257 12.1041
45.2739 12.0485
45.3224 12.0402
45.3706 12.0146
45.4191 11.9525
45.4673 11.8907
45.5158 11.8558
45.5641 11.8405
45.6126 11.7672
45.6609 11.7736
45.7094 11.7068
45.7577 11.7062
45.8063 11.5784
45.8546 11.5743
45.9031 11.548
45.9515 11.4911
46.0001 11.4616
46.0484 11.3962
46.097 11.3538
46.1454 11.3632
46.194 11.3047
46.2424 11.2233
46.291 11.2372
46.3395 11.1158
46.3881 11.0958
46.4365 11.0812
46.4852 11.0594
46.5337 10.9986
46.5823 10.9321
46.631 10.8945
46.6795 10.8956
46.7282 10.8598
46.7767 10.7726
46.8254 10.7378
46.8739 10.695
46.9226 10.6655
46.9712 10.6487
47.0199 10.5886
47.0685 10.5419
47.1173 10.5503
47.1658 10.5012
47.2146 10.4795
47.2632 10.3917
47.312 10.3802
47.3606 10.3357
47.4095 10.2911
47.4581 10.2795
47.5069 10.164
47.5556 10.1655
47.6044 10.1598
47.6531 10.1003
47.702 10.0183
47.7507 10.056
47.7996 9.98535
47.8483 9.9677
47.8972 9.92502
47.9461 9.88296
47.9948 9.872
48.0438 9.78889
48.0925 9.77982
48.1415 9.72182
48.1902 9.73089
48.2392 9.68112
48.288 9.619
48.337 9.59182
48.3858 9.56614
48.4348 9.50767
48.4837 9.54288
48.5327 9.47909
48.5815 9.44432
48.6306 9.38853
48.6795 9.37002
48.7285 9.30807
48.7774 9.32613
48.8265 9.24909
48.8754 9.23084
48.9245 9.21097
48.9734 9.19853
49.0226 9.13859
49.0715 9.07981
49.1206 9.0525
49.1696 9.0237
49.2188 8.96339
49.2679 8.94646
49.3169 8.91493
49.3661 8.85394
49.4151 8.8305
49.4643 8.82446
49.5134 8.75971
49.5626 8.72079
49.6117 8.71699
49.6609 8.6869
49.71 8.65782
49.7592 8.60713
49.8083 8.56976
49.8576 8.55519
49.9067 8.4809
49.956 8.46729
50.0052 8.47007
50.0545 8.41361
50.1036 8.38859
50.153 8.33151
50.2022 8.3265
50.2515 8.28754
50.3007 8.22734
50.3501 8.20741
50.3993 8.18649
50.4487 8.15087
50.498 8.14385
50.5474 8.08591
50.5966 8.06133
50.6461 8.00866
50.6955 8.00978
50.7448 8.0231
50.7943 7.94867
50.8436 7.89238
50.8931 7.86773
50.9424 7.85043
50.9919 7.78533
51.0413 7.80068
51.0908 7.77895
51.1402 7.68451
51.1897 7.6694
51.2391 7.68406
51.2887 7.64911
51.3381 7.55405
51.3877 7.55088
51.4371 7.53976
51.4867 7.50215
51.5362 7.48468
51.5858 7.45115
51.6353 7.39303
51.6849 7.41024
51.7344 7.35358
51.7841 7.34578
51.8336 7.26508
51.8833 7.2924
51.9328 7.22383
51.9826 7.19281
52.0323 7.16674
52.0818 7.16399
52.1316 7.09869
52.1812 7.08982
52.231 7.07942
52.2806 7.01129
52.3304 6.99379
52.38 6.99037
52.4298 6.98623
52.4794 6.92345
52.5293 6.90264
52.5789 6.85577
52.6288 6.82726
52.6785 6.75815
52.7284 6.79652
52.7781 6.73952
52.828 6.70372
52.8777 6.65461
52.9276 6.68125
52.9774 6.61182
53.0273 6.62169
53.0771 6.58481
53.1271 6.54297
53.1769 6.5041
53.2269 6.51541
53.2767 6.4647
53.3267 6.46315
53.3765 6.4176
53.4266 6.39352
53.4766 6.33159
53.5265 6.35053
53.5765 6.25849
53.6264 6.28067
53.6765 6.21368
53.7264 6.20842
53.7765 6.16752
53.8265 6.14527
53.8766 6.12697
53.9266 6.09424
53.9767 6.0623
54.0267 6.07374
54.0769 6.04134
54.1269 6.03622
54.1771 5.95763
54.2271 5.97992
54.2773 5.9138
54.3274 5.86445
54.3776 5.8167
54.4277 5.80601
54.478 5.76532
54.528 5.76359
54.5783 5.70336
54.6285 5.63116
54.6788 5.65518
54.7289 5.57444
54.7792 5.59727
54.8296 5.49985
54.8798 5.45287
54.9301 5.3836
54.9803 5.40053
55.0307 5.36877
55.0809 5.34845
55.1314 5.28525
55.1816 5.24941
55.232 5.23568
55.2823 5.16238
55.3328 5.09791
55.383 5.03834
55.4335 5.01454
55.4838 4.9164
55.5344 4.91118
55.5847 4.85581
55.6352 4.83346
55.6856 4.80514
55.7361 4.76427