File: XRD/Ni3Fe_FD0998.xy
TT I
1.27165 7.19323
1.31627 6.76546
1.36089 6.80112
1.40551 6.60567
1.45013 5.6682
1.49476 5.9513
1.53938 5.74983
1.584 5.7125
1.62863 5.22354
1.67325 5.18161
1.71787 4.92365
1.7625 4.87251
1.80712 4.9075
1.85174 4.4579
1.89636 4.5131
1.94099 4.91857
1.98562 4.19652
2.03025 4.48747
2.07487 4.11167
2.11949 5.24724
2.16411 4.84775
2.20874 15.9148
2.25338 27.3698
2.298 6.30227
2.34263 5.60751
2.38725 6.57533
2.43188 6.04501
2.4765 6.5893
2.52115 7.60174
2.56577 7.85734
2.6104 8.71634
2.65503 8.77528
2.69965 8.40896
2.7443 9.03559
2.78893 8.70077
2.83356 8.27397
2.87818 8.98522
2.92281 9.16217
2.96744 9.3888
3.01209 10.7079
3.05672 11.2976
3.10135 12.3227
3.14599 13.1974
3.19062 14.6766
3.23527 15.116
3.2799 15.7058
3.32454 16.7863
3.36917 17.9383
3.4138 19.1418
3.45844 19.4563
3.50309 20.9973
3.54773 21.9433
3.59237 24.6581
3.637 106.374
3.68164 67.1658
3.7263 26.2126
3.77094 26.3372
3.81558 26.4288
3.86022 27.227
3.90486 28.9504
3.9495 29.7342
3.99416 30.97
4.0388 32.3921
4.08344 33.4248
4.12809 34.6822
4.17273 36.5494
4.21738 43.6928
4.26204 290.076
4.30669 259.615
4.35133 49.8496
4.39598 44.0363
4.44063 55.4731
4.4853 69.7444
4.52995 49.6142
4.5746 50.0064
4.61925 52.2738
4.6639 54.2839
4.70855 57.0961
4.75322 59.6419
4.79788 62.1301
4.84253 65.6978
4.88719 69.6386
4.93184 72.7187
4.97652 78.0487
5.02118 83.7091
5.06583 90.249
5.11049 99.8444
5.15515 170.822
5.19981 266.855
5.24449 2186.08
5.28916 13492.7
5.33382 2783.68
5.37848 173.534
5.42315 123.644
5.46783 109.644
5.5125 102.724
5.55716 99.3741
5.60183 96.3168
5.6465 94.4799
5.69117 91.2735
5.73586 89.4737
5.78053 88.9403
5.8252 88.0635
5.86988 88.5453
5.91455 89.6494
5.95924 94.7626
6.00392 161.56
6.0486 747.604
6.09328 4531.23
6.13795 3279.77
6.18263 213.175
6.22733 89.1126
6.27201 81.2948
6.3167 105.722
6.36138 81.092
6.40606 68.0712
6.45075 66.1233
6.49545 64.3274
6.54014 62.7336
6.58483 62.0746
6.62952 62.2722
6.67421 99.1418
6.71892 161.514
6.76361 70.7208
6.8083 58.2149
6.853 56.8811
6.89769 56.1907
6.94239 55.7668
6.98711 55.2168
7.03181 54.6986
7.07651 54.6574
7.12121 54.7252
7.16591 54.3965
7.21063 55.1911
7.25533 72.2469
7.30004 203.438
7.34475 100.862
7.38945 56.5118
7.43416 54.0606
7.47889 53.9728
7.5236 53.957
7.56831 54.8134
7.61303 56.7561
7.65774 57.227
7.70247 55.3682
7.74719 55.6251
7.79191 55.8468
7.83663 56.0986
7.88135 56.9816
7.92607 57.7691
7.97081 58.6534
8.01553 59.4757
8.06026 61.2992
8.10498 62.903
8.14971 73.7606
8.19446 72.4604
8.23919 68.0697
8.28392 70.1806
8.32865 72.135
8.37339 75.962
8.41812 83.0793
8.46288 114.465
8.50761 138.854
8.55235 310.564
8.59709 1096.77
8.64183 2407.35
8.68658 952.479
8.73134 161.837
8.77609 96.8638
8.82083 90.3287
8.86558 87.638
8.91033 88.249
8.9551 91.3942
8.99985 84.0929
9.04461 81.2137
9.08936 80.7747
9.13412 80.213
9.17888 80.3454
9.22365 81.1572
9.26841 80.1419
9.31318 80.6746
9.35794 80.6001
9.4027 81.1343
9.44749 81.9692
9.49226 82.7042
9.53703 83.6541
9.5818 85.0261
9.62657 90.083
9.67134 98.4485
9.71614 92.158
9.76091 91.4317
9.80569 93.8316
9.85047 97.4937
9.89525 124.543
9.94005 137.196
9.98484 150.131
10.0296 280.716
10.0744 722.83
10.1192 1768.67
10.164 1592.88
10.2088 373.033
10.2536 123.128
10.2984 111.619
10.3432 114.11
10.388 102.25
10.4328 108.654
10.4776 142.058
10.5224 261.217
10.5672 528.884
10.612 512.131
10.6568 198.266
10.7017 94.7022
10.7465 84.803
10.7913 81.3388
10.8361 79.5257
10.8809 77.2754
10.9257 77.5642
10.9706 78.4775
11.0154 73.614
11.0602 71.1903
11.105 70.2828
11.1499 76.0896
11.1947 85.4005
11.2395 74.503
11.2844 69.8233
11.3292 65.9445
11.374 64.9081
11.4189 64.6364
11.4637 63.9405
11.5086 64.5821
11.5534 68.0954
11.5983 64.9248
11.6431 62.7211
11.688 61.7913
11.7328 61.7209
11.7777 62.0076
11.8225 61.3785
11.8674 61.0485
11.9122 61.3996
11.9571 61.4503
12.002 61.9886
12.0468 64.5543
12.0917 73.8966
12.1366 96.9169
12.1814 147.604
12.2263 205.234
12.2712 162.422
12.3161 95.6855
12.3609 70.4954
12.4058 63.5138
12.4507 62.9339
12.4956 63.0248
12.5405 63.3584
12.5853 64.3147
12.6302 73.5586
12.6751 80.166
12.72 69.7238
12.7649 66.5598
12.8098 66.5844
12.8547 68.1143
12.8996 69.2709
12.9445 70.5213
12.9894 72.1244
13.0343 73.6785
13.0792 76.4137
13.1242 82.6431
13.1691 102.032
13.214 134.126
13.2589 221.563
13.3038 373.311
13.3487 438.235
13.3937 256.302
13.4386 121.432
13.4835 98.9097
13.5285 110.08
13.5734 144.34
13.6183 235.029
13.6633 354.774
13.7082 338.735
13.7531 179.918
13.7981 94.7417
13.843 80.0584
13.888 77.7494
13.9329 75.3451
13.9779 74.2233
14.0228 72.9013
14.0678 71.5678
14.1127 71.2134
14.1577 71.2762
14.2027 70.1469
14.2476 68.6874
14.2926 69.197
14.3376 70.597
14.3825 68.8739
14.4275 67.2853
14.4725 67.121
14.5175 67.2521
14.5624 67.564
14.6074 69.9468
14.6524 70.6407
14.6974 68.7067
14.7424 69.4908
14.7874 74.1886
14.8324 82.7668
14.8774 102.231
14.9224 145.753
14.9674 208.726
15.0124 218.393
15.0574 150.166
15.1024 89.0219
15.1474 70.7106
15.1924 69.1569
15.2374 70.165
15.2824 69.3703
15.3274 66.8122
15.3725 65.3933
15.4175 64.9055
15.4625 64.4674
15.5076 64.9177
15.5526 64.8883
15.5976 64.2627
15.6426 64.5372
15.6877 68.0806
15.7327 74.4775
15.7778 88.2668
15.8228 118.955
15.8679 170.303
15.9129 196.851
15.958 153.533
16.003 94.2175
16.0481 66.9831
16.0931 63.5676
16.1382 61.9859
16.1833 59.424
16.2283 57.8767
16.2734 57.185
16.3185 57.8187
16.3636 58.8329
16.4086 57.0495
16.4537 54.9904
16.4988 54.3423
16.5439 54.569
16.589 54.2669
16.6341 53.8709
16.6792 53.4259
16.7243 53.6354
16.7694 53.9379
16.8145 53.5831
16.8596 54.2871
16.9047 56.1443
16.9498 56.3202
16.9949 54.6213
17.04 54.5079
17.0851 55.3222
17.1302 56.7744
17.1754 59.525
17.2205 64.5319
17.2656 72.679
17.3108 81.8744
17.3559 80.8143
17.401 69.0052
17.4462 60.4764
17.4913 57.8251
17.5365 57.6904
17.5815 57.9363
17.6268 58.1548
17.6718 58.9285
17.7171 59.6868
17.7622 59.7929
17.8074 60.0152
17.8525 61.7104
17.8977 65.0579
17.9428 69.7676
17.9881 78.0354
18.0331 95.5279
18.0784 120.029
18.1237 138.828
18.1688 127.699
18.214 100.124
18.2591 83.1511
18.3044 87.7732
18.3495 99.4832
18.3948 106.345
18.4399 94.4137
18.4852 75.7695
18.5303 64.4662
18.5756 60.8684
18.6207 59.9493
18.666 59.0841
18.7112 58.4841
18.7565 57.648
18.8016 57.2545
18.8469 56.8846
18.892 56.5534
18.9374 56.0837
18.9825 55.8427
19.0278 55.7315
19.073 55.5657
19.1183 55.9519
19.1635 56.7753
19.2088 57.8083
19.254 60.113
19.2993 64.8472
19.3447 71.6227
19.3898 75.721
19.4352 70.9651
19.4804 61.6155
19.5257 55.4712
19.5709 53.1862
19.6163 52.6508
19.6615 52.566
19.7068 52.166
19.752 52.0235
19.7974 52.3382
19.8426 52.8639
19.888 53.5672
19.9332 54.4903
19.9786 56.9105
20.0238 60.745
20.0692 66.2351
20.1144 69.0968
20.1598 66.5237
20.205 61.5715
20.2504 60.6611
20.2957 62.8711
20.3411 65.0795
20.3863 62.9739
20.4318 57.3086
20.477 52.5778
20.5224 50.6315
20.5677 50.1276
20.6131 49.2525
20.6586 48.6906
20.7038 48.5338
20.7493 48.0274
20.7945 47.9626
20.84 47.848
20.8853 47.6857
20.9307 47.5559
20.976 47.6917
21.0215 47.491
21.0668 47.9083
21.1122 48.4485
21.1575 48.8798
21.203 49.8953
21.2483 50.3419
21.2938 50.3241
21.3391 48.8777
21.3846 47.8759
21.4299 47.4981
21.4754 47.2123
21.5207 47.6321
21.5662 47.5433
21.6116 47.9018
21.6571 48.4747
21.7024 49.2595
21.7479 51.0575
21.7933 53.6867
21.8388 57.6151
21.8843 61.844
21.9297 63.6249
21.9752 61.6874
22.0206 58.0923
22.0661 55.4381
22.1115 55.2594
22.157 55.1088
22.2024 53.1725
22.248 50.3674
22.2933 48.7708
22.3389 48.2575
22.3843 48.1161
22.4299 47.9804
22.4753 47.8298
22.5208 47.666
22.5662 47.5277
22.6118 47.5968
22.6572 47.7004
22.7028 48.094
22.7483 48.4276
22.7939 49.1104
22.8393 50.4895
22.8849 52.6106
22.9303 55.3462
22.9759 57.1503
23.0214 56.259
23.067 53.3826
23.1126 50.0632
23.1581 48.1722
23.2037 47.8703
23.2492 47.6939
23.2948 47.4855
23.3403 47.8259
23.3859 48.4497
23.4314 49.353
23.477 51.3747
23.5225 54.0277
23.5682 56.3183
23.6137 57.1757
23.6593 54.6664
23.7048 50.5401
23.7505 47.4106
23.796 45.6429
23.8417 45.098
23.8872 44.654
23.9329 44.3011
23.9784 43.9459
24.0241 43.6676
24.0697 43.6034
24.1154 43.2112
24.1609 43.0575
24.2066 42.9179
24.2522 42.8071
24.2979 42.4596
24.3434 42.4666
24.3892 42.4172
24.4349 42.1616
24.4805 42.1422
24.5262 42.2687
24.5718 42.1571
24.6175 42.1214
24.6631 41.946
24.7089 41.6514
24.7545 41.4786
24.8002 41.3843
24.8458 41.2448
24.8916 41.0572
24.9372 41.313
24.983 41.4996
25.0286 41.8897
25.0744 42.3961
25.12 42.8371
25.1658 43.4524
25.2114 43.6469
25.2572 43.8358
25.3029 44.0211
25.3487 44.1286
25.3943 43.8057
25.4402 42.6073
25.4858 41.7071
25.5316 40.6345
25.5773 40.1118
25.6231 40.0958
25.669 39.5746
25.7147 39.5879
25.7605 39.5617
25.8062 39.7652
25.8521 39.9081
25.8977 39.7085
25.9436 39.8941
25.9893 39.9368
26.0352 40.5145
26.0809 40.8926
26.1268 40.9601
26.1725 40.5441
26.2184 39.9602
26.2641 39.4405
26.31 39.3235
26.3557 39.1892
26.4017 39.2462
26.4474 39.5069
26.4933 39.8568
26.5391 40.302
26.585 40.8764
26.6308 41.3446
26.6767 41.3502
26.7225 41.146
26.7684 40.5935
26.8142 40.1187
26.8601 39.7795
26.9059 39.2186
26.9519 38.6329
26.9979 38.3663
27.0437 38.0465
27.0896 38.0899
27.1354 37.9771
27.1814 37.822
27.2272 37.8018
27.2732 37.7559
27.3191 37.4907
27.3651 37.7047
27.4109 37.6481
27.4569 37.6668
27.5027 37.7227
27.5488 37.8301
27.5946 37.7086
27.6407 37.3735
27.6865 37.2839
27.7326 37.1144
27.7784 37.0353
27.8245 36.911
27.8703 37.2055
27.9164 37.5812
27.9623 37.5367
28.0084 37.9548
28.0543 38.3106
28.1003 38.2474
28.1462 38.2257
28.1923 37.7454
28.2384 37.3144
28.2843 36.8688
28.3304 36.4498
28.3764 36.0041
28.4225 35.7282
28.4684 35.5396
28.5145 35.1657
28.5605 35.0731
28.6066 35.0326
28.6526 34.9589
28.6987 34.8832
28.7447 34.7954
28.7908 34.7234
28.8368 34.8205
28.8829 34.7158
28.9289 34.6283
28.9751 34.5128
29.0211 34.2272
29.0673 33.9279
29.1133 33.9562
29.1595 33.6786
29.2055 33.671
29.2517 33.6826
29.2977 33.5739
29.3439 33.5883
29.3899 33.575
29.4361 33.4665
29.4824 33.277
29.5284 33.0514
29.5746 32.7814
29.6207 32.5013
29.6669 32.4351
29.713 32.3414
29.7593 32.2502
29.8053 32.2794
29.8516 32.1155
29.8977 32.1504
29.9439 32.004
29.99 31.8934
30.0363 31.7519
30.0824 31.8382
30.1287 31.7967
30.1748 31.803
30.2211 31.7384
30.2673 31.5905
30.3136 31.6589
30.3597 31.5642
30.406 31.4648
30.4522 31.534
30.4985 31.3505
30.5447 31.4816
30.591 31.4724
30.6372 31.5496
30.6835 31.4559
30.7297 31.541
30.7761 31.5148
30.8224 31.3035
30.8686 31.1483
30.915 30.9855
30.9612 30.8749
31.0076 30.6393
31.0538 30.6097
31.1002 30.512
31.1464 30.3805
31.1928 30.2822
31.2391 30.452
31.2855 30.265
31.3317 30.2574
31.3781 30.2361
31.4244 30.3344
31.4708 30.2022
31.5171 30.1257
31.5636 30.2374
31.6098 29.9121
31.6563 29.7806
31.7026 29.6923
31.7491 29.5476
31.7953 29.6125
31.8418 29.5177
31.8881 29.5539
31.9346 29.5292
31.9809 29.5771
32.0275 29.3329
32.074 29.2664
32.1203 29.0832
32.1668 28.9258
32.2132 28.8476
32.2597 28.6216
32.306 28.5766
32.3526 28.3718
32.399 28.3294
32.4455 28.2662
32.4919 28.1061
32.5385 28.0653
32.5848 27.9103
32.6314 27.8453
32.6778 27.7983
32.7244 27.7579
32.7708 27.5879
32.8174 27.5985
32.8638 27.4861
32.9104 27.4753
32.9569 27.4172
33.0035 27.2156
33.0499 27.3317
33.0966 27.261
33.143 27.2265
33.1897 27.0712
33.2361 27.0104
33.2828 27.041
33.3293 26.8561
33.3759 26.8586
33.4226 26.7194
33.4691 26.5885
33.5158 26.3917
33.5623 26.3802
33.609 26.2685
33.6555 26.04
33.7022 26.0948
33.7487 26.0596
33.7954 26.0541
33.842 25.9189
33.8887 25.8212
33.9353 25.7604
33.982 25.6263
34.0286 25.5973
34.0753 25.5012
34.1219 25.402
34.1687 25.2857
34.2152 25.2066
34.262 25.1935
34.3086 25.0929
34.3554 25.0802
34.402 24.906
34.4488 24.8929
34.4954 24.7657
34.5422 24.6907
34.5889 24.5859
34.6357 24.5639
34.6825 24.4071
34.7292 24.4021
34.776 24.3232
34.8227 24.2797
34.8695 24.1616
34.9162 24.1076
34.9631 24.0015
35.0098 24.0584
35.0566 23.8624
35.1033 23.8579
35.1502 23.8504
35.1969 23.7452
35.2438 23.6626
35.2906 23.655
35.3375 23.535
35.3842 23.5074
35.4311 23.5972
35.4779 23.4455
35.5248 23.4926
35.5716 23.3509
35.6185 23.2792
35.6653 23.1568
35.7123 23.0549
35.759 22.9811
35.806 22.9068
35.8528 22.8311
35.8998 22.7964
35.9468 22.6097
35.9936 22.6057
36.0406 22.5678
36.0874 22.4899
36.1345 22.4599
36.1813 22.3287
36.2283 22.2293
36.2752 22.2525
36.3222 22.202
36.3691 22.083
36.4161 22.0277
36.463 21.9896
36.5101 21.9795
36.557 21.9384
36.6041 21.6872
36.651 21.6845
36.6981 21.6771
36.745 21.6636
36.7921 21.5126
36.839 21.4693
36.8861 21.3661
36.9331 21.321
36.9802 21.2619
37.0272 21.1402
37.0743 21.1232
37.1213 20.9824
37.1684 21.0018
37.2154 20.9957
37.2626 20.8127
37.3098 20.8191
37.3568 20.6929
37.404 20.7355
37.451 20.6111
37.4982 20.5328
37.5452 20.4795
37.5924 20.4061
37.6395 20.3899
37.6867 20.3345
37.7337 20.231
37.781 20.1617
37.8281 20.0857
37.8753 20.0088
37.9224 19.9888
37.9697 19.8843
38.0168 19.8532
38.064 19.7246
38.1111 19.6721
38.1584 19.5975
38.2056 19.5377
38.2529 19.5532
38.3 19.4362
38.3473 19.4754
38.3945 19.2998
38.4418 19.3396
38.489 19.2137
38.5363 19.1764
38.5837 19.0418
38.6309 19.0147
38.6782 18.9652
38.7254 18.9448
38.7728 18.9034
38.82 18.819
38.8674 18.7184
38.9146 18.6247
38.9621 18.5607
39.0093 18.5814
39.0567 18.5256
39.104 18.4002
39.1514 18.3619
39.1987 18.3419
39.2461 18.3468
39.2934 18.2474
39.3409 18.1483
39.3882 18.0571
39.4356 18.0662
39.483 17.9766
39.5304 17.9692
39.5778 17.8637
39.6253 17.809
39.6726 17.7521
39.7201 17.7285
39.7675 17.6923
39.815 17.587
39.8624 17.5161
39.9099 17.5423
39.9575 17.4403
40.0049 17.3717
40.0525 17.2819
40.0999 17.2625
40.1474 17.1798
40.1949 17.1443
40.2425 17.0582
40.2899 17.007
40.3375 17.0144
40.385 16.9071
40.4326 16.8765
40.48 16.8373
40.5277 16.7742
40.5752 16.7384
40.6228 16.6147
40.6703 16.607
40.718 16.5276
40.7655 16.4934
40.8132 16.4172
40.8607 16.422
40.9084 16.389
40.9559 16.2494
41.0036 16.2451
41.0512 16.1841
41.0989 16.1742
41.1465 16.0531
41.1942 16.05
41.242 15.947
41.2896 15.9142
41.3373 15.8471
41.3849 15.8103
41.4327 15.773
41.4803 15.6941
41.5281 15.6941
41.5758 15.5789
41.6236 15.5687
41.6712 15.5254
41.7191 15.4229
41.7667 15.4228
41.8146 15.3363
41.8622 15.3184
41.9101 15.2752
41.9578 15.1074
42.0057 15.1229
42.0534 15.0725
42.1013 15.0831
42.149 14.9921
42.1969 14.9204
42.2446 14.8689
42.2925 14.8513
42.3403 14.7938
42.3882 14.7952
42.436 14.7292
42.4839 14.6529
42.5319 14.6176
42.5797 14.5789
42.6277 14.4926
42.6755 14.5111
42.7235 14.4377
42.7713 14.3585
42.8193 14.3058
42.8671 14.2491
42.9152 14.2406
42.963 14.1419
43.0111 14.1578
43.0589 14.0764
43.107 13.9961
43.1549 14.009
43.2029 13.8432
43.2508 13.8834
43.2989 13.81
43.3468 13.7649
43.3949 13.7057
43.4429 13.7142
43.491 13.5902
43.5389 13.5903
43.5871 13.5405
43.635 13.4633
43.6832 13.4273
43.7312 13.4095
43.7793 13.3595
43.8273 13.3224
43.8755 13.2354
43.9237 13.2077
43.9717 13.154
44.0199 13.1059
44.068 13.0861
44.1162 12.9791
44.1642 13.0116
44.2125 12.967
44.2606 12.9251
44.3088 12.8447
44.3569 12.8068
44.4052 12.7678
44.4533 12.7195
44.5016 12.6286
44.5497 12.6492
44.598 12.6071
44.6461 12.5577
44.6945 12.4766
44.7426 12.4711
44.791 12.3566
44.8391 12.3551
44.8875 12.3229
44.9357 12.2937
44.984 12.2344
45.0322 12.1643
45.0806 12.1473
45.1288 12.0748
45.1773 12.0744
45.2257 12.0511
45.2739 11.9678
45.3224 11.9421
45.3706 11.904
45.4191 11.8465
45.4673 11.8222
45.5158 11.7769
45.5641 11.6947
45.6126 11.6898
45.6609 11.6485
45.7094 11.6003
45.7577 11.5301
45.8063 11.4946
45.8546 11.4482
45.9031 11.4286
45.9515 11.4459
46.0001 11.3412
46.0484 11.3088
46.097 11.3026
46.1454 11.2378
46.194 11.2027
46.2424 11.1072
46.291 11.1001
46.3395 11.0866
46.3881 11.0165
46.4365 10.9787
46.4852 10.9874
46.5337 10.8919
46.5823 10.9064
46.631 10.8814
46.6795 10.7682
46.7282 10.7691
46.7767 10.7424
46.8254 10.6521
46.8739 10.5709
46.9226 10.5538
46.9712 10.5239
47.0199 10.5037
47.0685 10.4787
47.1173 10.4312
47.1658 10.4235
47.2146 10.3641
47.2632 10.3264
47.312 10.3274
47.3606 10.2656
47.4095 10.1689
47.4581 10.1735
47.5069 10.1399
47.5556 10.1009
47.6044 10.0694
47.6531 10.0653
47.702 9.96605
47.7507 9.90769
47.7996 9.90808
47.8483 9.90373
47.8972 9.85715
47.9461 9.79004
47.9948 9.76437
48.0438 9.74565
48.0925 9.73218
48.1415 9.62806
48.1902 9.60273
48.2392 9.64666
48.288 9.56187
48.337 9.51509
48.3858 9.47706
48.4348 9.45296
48.4837 9.44007
48.5327 9.3922
48.5815 9.37049
48.6306 9.34303
48.6795 9.27487
48.7285 9.25453
48.7774 9.19086
48.8265 9.196
48.8754 9.14674
48.9245 9.16156
48.9734 9.07968
49.0226 9.08737
49.0715 9.0293
49.1206 8.98284
49.1696 8.93224
49.2188 8.8997
49.2679 8.87075
49.3169 8.8807
49.3661 8.78333
49.4151 8.74506
49.4643 8.7504
49.5134 8.69443
49.5626 8.64118
49.6117 8.66168
49.6609 8.58753
49.71 8.57272
49.7592 8.56573
49.8083 8.48818
49.8576 8.49586
49.9067 8.41274
49.956 8.43716
50.0052 8.38458
50.0545 8.32326
50.1036 8.30875
50.153 8.27979
50.2022 8.27251
50.2515 8.20553
50.3007 8.1957
50.3501 8.14789
50.3993 8.10947
50.4487 8.10798
50.498 8.07918
50.5474 8.0216
50.5966 7.97968
50.6461 8.00349
50.6955 7.95163
50.7448 7.94172
50.7943 7.87537
50.8436 7.87584
50.8931 7.85809
50.9424 7.78187
50.9919 7.77782
51.0413 7.73243
51.0908 7.71107
51.1402 7.64012
51.1897 7.64091
51.2391 7.62991
51.2887 7.586
51.3381 7.5244
51.3877 7.52851
51.4371 7.4566
51.4867 7.46335
51.5362 7.44967
51.5858 7.40762
51.6353 7.36011
51.6849 7.32588
51.7344 7.31055
51.7841 7.25825
51.8336 7.26176
51.8833 7.1973
51.9328 7.17219
51.9826 7.13416
52.0323 7.11065
52.0818 7.07106
52.1316 7.05
52.1812 7.01681
52.231 6.98997
52.2806 6.97795
52.3304 6.94725
52.38 6.94019
52.4298 6.88406
52.4794 6.86894
52.5293 6.84124
52.5789 6.82742
52.6288 6.75515
52.6785 6.74175
52.7284 6.70279
52.7781 6.71912
52.828 6.70706
52.8777 6.62577
52.9276 6.60817
52.9774 6.55284
53.0273 6.5715
53.0771 6.52887
53.1271 6.52893
53.1769 6.48255
53.2269 6.46426
53.2767 6.41114
53.3267 6.41441
53.3765 6.38179
53.4266 6.32796
53.4766 6.31874
53.5265 6.23832
53.5765 6.30187
53.6264 6.22564
53.6765 6.22245
53.7264 6.19527
53.7765 6.15513
53.8265 6.14229
53.8766 6.15315
53.9266 6.08564
53.9767 6.02011
54.0267 6.02349
54.0769 6.00129
54.1269 5.93526
54.1771 5.89519
54.2271 5.93102
54.2773 5.86945
54.3274 5.82536
54.3776 5.84194
54.4277 5.75644
54.478 5.7583
54.528 5.68361
54.5783 5.67905
54.6285 5.62878
54.6788 5.57118
54.7289 5.54196
54.7792 5.52937
54.8296 5.44549
54.8798 5.40516
54.9301 5.36574
54.9803 5.34493
55.0307 5.34322
55.0809 5.29972
55.1314 5.27714
55.1816 5.19364
55.232 5.15318
55.2823 5.14204
55.3328 5.03604
55.383 4.98131
55.4335 5.0628
55.4838 4.88783
55.5344 4.87277
55.5847 4.81064
55.6352 4.81414
55.6856 4.72154
55.7361 4.69705