File: XRD/Ni3Fe_FD0602.xy
TT I
1.27165 7.78117
1.31627 6.71629
1.36089 6.79338
1.40551 6.517
1.45013 6.36057
1.49476 6.12264
1.53938 6.07819
1.584 4.74767
1.62863 5.41727
1.67325 5.30819
1.71787 5.08694
1.7625 5.0716
1.80712 4.45077
1.85174 4.94692
1.89636 5.17116
1.94099 4.71325
1.98562 4.88348
2.03025 4.603
2.07487 4.50527
2.11949 4.77542
2.16411 5.07798
2.20874 10.0496
2.25338 13.8906
2.298 5.93272
2.34263 5.58095
2.38725 5.39054
2.43188 5.7283
2.4765 7.02693
2.52115 6.77729
2.56577 7.20117
2.6104 7.37238
2.65503 8.82253
2.69965 8.27537
2.7443 7.85263
2.78893 7.66309
2.83356 7.91446
2.87818 8.76776
2.92281 9.4196
2.96744 10.0283
3.01209 10.3568
3.05672 10.9216
3.10135 12.0614
3.14599 13.3001
3.19062 14.3906
3.23527 15.0666
3.2799 15.7596
3.32454 16.5228
3.36917 17.827
3.4138 18.6614
3.45844 19.3783
3.50309 21.1377
3.54773 21.5626
3.59237 23.1664
3.637 59.8526
3.68164 41.9272
3.7263 25.7805
3.77094 25.9327
3.81558 26.9893
3.86022 27.4152
3.90486 28.7903
3.9495 29.4806
3.99416 30.6668
4.0388 32.3015
4.08344 33.4692
4.12809 34.7631
4.17273 36.5598
4.21738 40.9723
4.26204 152.459
4.30669 129.3
4.35133 46.0503
4.39598 44.6365
4.44063 50.9049
4.4853 56.7488
4.52995 52.5364
4.5746 54.0819
4.61925 53.9392
4.6639 56.0095
4.70855 58.9553
4.75322 61.7981
4.79788 66.2811
4.84253 68.4525
4.88719 73.5694
4.93184 76.6391
4.97652 82.1526
5.02118 88.7608
5.06583 96.873
5.11049 109.256
5.15515 160.489
5.19981 418.926
5.24449 3169.29
5.28916 12327.2
5.33382 2990.8
5.37848 203.713
5.42315 132.523
5.46783 118.137
5.5125 110.088
5.55716 103.673
5.60183 99.6177
5.6465 97.8747
5.69117 95.5581
5.73586 93.6516
5.78053 95.3902
5.8252 94.9342
5.86988 97.0101
5.91455 97.05
5.95924 106.698
6.00392 245.484
6.0486 1075.03
6.09328 4253.43
6.13795 3414.2
6.18263 257.772
6.22733 94.171
6.27201 82.9194
6.3167 89.9334
6.36138 76.4662
6.40606 69.8542
6.45075 68.6828
6.49545 65.7529
6.54014 64.0391
6.58483 63.2424
6.62952 63.0885
6.67421 79.4333
6.71892 103.855
6.76361 63.989
6.8083 59.1879
6.853 58.6541
6.89769 57.0742
6.94239 56.743
6.98711 55.8825
7.03181 55.9075
7.07651 55.0329
7.12121 55.4484
7.16591 56.1847
7.21063 55.532
7.25533 64.0412
7.30004 118.346
7.34475 73.0953
7.38945 55.807
7.43416 54.7947
7.47889 54.267
7.5236 54.9293
7.56831 55.7088
7.61303 56.4013
7.65774 56.7534
7.70247 56.4885
7.74719 56.5334
7.79191 57.0096
7.83663 57.3463
7.88135 58.1582
7.92607 59.2384
7.97081 60.3551
8.01553 61.4446
8.06026 63.0191
8.10498 64.2565
8.14971 70.9775
8.19446 70.9208
8.23919 69.9126
8.28392 72.8966
8.32865 75.1812
8.37339 79.2593
8.41812 85.8853
8.46288 106.244
8.50761 182.088
8.55235 427.936
8.59709 1235.38
8.64183 2163.43
8.68658 1003.42
8.73134 171.642
8.77609 101.035
8.82083 93.9754
8.86558 91.613
8.91033 90.8417
8.9551 89.9061
8.99985 86.0568
9.04461 84.9588
9.08936 84.3595
9.13412 83.447
9.17888 82.9539
9.22365 83.2375
9.26841 83.0572
9.31318 84.4084
9.35794 85.1322
9.4027 85.0765
9.44749 85.6112
9.49226 85.6815
9.53703 86.6816
9.5818 89.0176
9.62657 92.5975
9.67134 96.226
9.71614 94.3486
9.76091 95.5234
9.80569 98.618
9.85047 101.875
9.89525 116.443
9.94005 129.521
9.98484 196.267
10.0296 375.578
10.0744 865.303
10.1192 1675.11
10.164 1584.38
10.2088 422.99
10.2536 129.354
10.2984 112.016
10.3432 111.201
10.388 105.996
10.4328 124.132
10.4776 169.692
10.5224 297.1
10.5672 502.589
10.612 482.013
10.6568 205.381
10.7017 97.6302
10.7465 87.8098
10.7913 83.8724
10.8361 81.9349
10.8809 79.7696
10.9257 78.5437
10.9706 78.2652
11.0154 75.8263
11.0602 73.4607
11.105 72.3028
11.1499 74.0455
11.1947 77.0306
11.2395 71.8983
11.2844 69.7432
11.3292 67.2674
11.374 66.8688
11.4189 66.3632
11.4637 65.1279
11.5086 65.7076
11.5534 66.5321
11.5983 65.0093
11.6431 63.9311
11.688 63.2466
11.7328 63.1925
11.7777 63.1128
11.8225 63.3344
11.8674 62.8106
11.9122 63.1639
11.9571 63.4418
12.002 64.606
12.0468 69.6801
12.0917 81.1621
12.1366 106.524
12.1814 155.015
12.2263 198.055
12.2712 166.625
12.3161 96.2808
12.3609 68.9795
12.4058 64.7354
12.4507 64.636
12.4956 64.9227
12.5405 65.1987
12.5853 65.8923
12.6302 70.1493
12.6751 73.1551
12.72 68.7877
12.7649 68.3514
12.8098 68.6666
12.8547 70.3671
12.8996 71.8723
12.9445 73.479
12.9894 75.0173
13.0343 76.6765
13.0792 80.5359
13.1242 92.5265
13.1691 115.707
13.214 157.251
13.2589 252.13
13.3038 366.643
13.3487 414.999
13.3937 268.243
13.4386 128.883
13.4835 109.553
13.5285 125.42
13.5734 167.948
13.6183 253.413
13.6633 338.261
13.7082 329.726
13.7531 193.19
13.7981 101.32
13.843 82.8436
13.888 80.6027
13.9329 77.8698
13.9779 76.5185
14.0228 75.1195
14.0678 73.4739
14.1127 72.988
14.1577 72.7798
14.2027 72.1083
14.2476 71.0604
14.2926 71.0759
14.3376 71.2883
14.3825 70.4342
14.4275 69.664
14.4725 69.3528
14.5175 69.5894
14.5624 69.705
14.6074 70.924
14.6524 71.564
14.6974 71.1533
14.7424 74.0053
14.7874 81.1205
14.8324 91.9539
14.8774 116.169
14.9224 158.064
14.9674 205.174
15.0124 213.179
15.0574 151.464
15.1024 93.6266
15.1474 73.2196
15.1924 70.9038
15.2374 70.7359
15.2824 69.8738
15.3274 68.27
15.3725 67.5182
15.4175 66.98
15.4625 66.6367
15.5076 66.4202
15.5526 66.6218
15.5976 66.4649
15.6426 68.0917
15.6877 74.0205
15.7327 82.1005
15.7778 98.9468
15.8228 130.657
15.8679 168.8
15.9129 187.015
15.958 154.223
16.003 97.9307
16.0481 68.731
16.0931 64.1711
16.1382 62.2364
16.1833 61.0129
16.2283 59.3158
16.2734 58.6327
16.3185 58.6694
16.3636 58.7981
16.4086 57.5333
16.4537 56.4735
16.4988 55.9117
16.5439 55.9151
16.589 55.6107
16.6341 55.2346
16.6792 54.9997
16.7243 55.1833
16.7694 55.3334
16.8145 55.1336
16.8596 55.5341
16.9047 56.2505
16.9498 56.5385
16.9949 55.7512
17.04 56.4354
17.0851 57.8267
17.1302 59.3412
17.1754 62.7754
17.2205 67.8316
17.2656 75.1669
17.3108 81.5108
17.3559 81.7466
17.401 72.5721
17.4462 63.3515
17.4913 59.7094
17.5365 59.5739
17.5815 59.7139
17.6268 60.0406
17.6718 60.7485
17.7171 61.2604
17.7622 61.7326
17.8074 62.8401
17.8525 65.7286
17.8977 69.5892
17.9428 75.5119
17.9881 85.2216
18.0331 102.617
18.0784 121.213
18.1237 138.115
18.1688 132.865
18.214 106.647
18.2591 89.4971
18.3044 92.1795
18.3495 99.7772
18.3948 104.9
18.4399 96.163
18.4852 79.0968
18.5303 66.7169
18.5756 62.6974
18.6207 61.72
18.666 60.9523
18.7112 60.1794
18.7565 59.513
18.8016 59.2669
18.8469 58.6377
18.892 58.3546
18.9374 57.7156
18.9825 57.4814
19.0278 57.2468
19.073 57.5976
19.1183 57.8122
19.1635 58.7145
19.2088 60.3583
19.254 63.4985
19.2993 67.3643
19.3447 72.4018
19.3898 75.2805
19.4352 72.2407
19.4804 64.2319
19.5257 57.633
19.5709 54.6768
19.6163 54.4273
19.6615 54.2529
19.7068 53.7495
19.752 53.8987
19.7974 54.0877
19.8426 55.0822
19.888 55.6182
19.9332 57.0117
19.9786 59.6815
20.0238 63.3741
20.0692 67.3405
20.1144 69.7038
20.1598 68.6726
20.205 64.5697
20.2504 63.0241
20.2957 63.8865
20.3411 65.1143
20.3863 64.2133
20.4318 59.1674
20.477 54.164
20.5224 51.7455
20.5677 51.1544
20.6131 50.6271
20.6586 50.1921
20.7038 49.9023
20.7493 49.4598
20.7945 49.3463
20.84 49.2668
20.8853 49.1303
20.9307 48.9888
20.976 49.0999
21.0215 49.008
21.0668 49.6005
21.1122 49.9799
21.1575 50.411
21.203 51.1213
21.2483 51.6333
21.2938 51.6058
21.3391 50.4443
21.3846 49.1051
21.4299 48.7381
21.4754 48.7515
21.5207 49.1284
21.5662 49.4482
21.6116 49.7531
21.6571 50.5108
21.7024 51.5583
21.7479 53.3149
21.7933 56.1649
21.8388 59.4625
21.8843 62.6846
21.9297 64.646
21.9752 63.6056
22.0206 60.4475
22.0661 57.1962
22.1115 56.1239
22.157 56.0313
22.2024 54.7221
22.248 52.0361
22.2933 50.3641
22.3389 49.4911
22.3843 49.3531
22.4299 49.1366
22.4753 49.1217
22.5208 48.8429
22.5662 48.923
22.6118 49.233
22.6572 49.2184
22.7028 49.8436
22.7483 50.2807
22.7939 50.7654
22.8393 52.712
22.8849 54.5859
22.9303 56.1779
22.9759 57.6162
23.0214 57.5807
23.067 55.0922
23.1126 51.5743
23.1581 49.6505
23.2037 49.2775
23.2492 49.2753
23.2948 49.4279
23.3403 49.6196
23.3859 50.4559
23.4314 51.4587
23.477 53.1993
23.5225 55.2455
23.5682 56.8389
23.6137 57.6529
23.6593 55.8665
23.7048 52.1257
23.7505 48.9387
23.796 46.9951
23.8417 46.3624
23.8872 45.7482
23.9329 45.4475
23.9784 45.3565
24.0241 45.0466
24.0697 44.7736
24.1154 44.5762
24.1609 44.2119
24.2066 44.0689
24.2522 43.9682
24.2979 43.7117
24.3434 43.6905
24.3892 43.4512
24.4349 43.565
24.4805 43.3006
24.5262 43.52
24.5718 43.1676
24.6175 43.2645
24.6631 43.1154
24.7089 42.8122
24.7545 42.6645
24.8002 42.6707
24.8458 42.5654
24.8916 42.3973
24.9372 42.5335
24.983 43.005
25.0286 43.3753
25.0744 43.6789
25.12 44.2034
25.1658 44.4664
25.2114 44.962
25.2572 45.1584
25.3029 45.1496
25.3487 45.2088
25.3943 44.6865
25.4402 43.7667
25.4858 42.8782
25.5316 41.8171
25.5773 41.2422
25.6231 41.2065
25.669 40.8498
25.7147 40.8786
25.7605 40.8112
25.8062 40.8084
25.8521 40.9338
25.8977 41.0371
25.9436 41.1919
25.9893 41.2565
26.0352 41.8326
26.0809 41.8011
26.1268 42.0038
26.1725 41.638
26.2184 41.1672
26.2641 40.619
26.31 40.4619
26.3557 40.4742
26.4017 40.4702
26.4474 40.8253
26.4933 41.2251
26.5391 41.5263
26.585 41.9905
26.6308 42.3494
26.6767 42.4473
26.7225 42.3753
26.7684 41.8128
26.8142 41.1801
26.8601 40.7674
26.9059 40.3478
26.9519 39.9539
26.9979 39.7246
27.0437 39.1427
27.0896 39.0272
27.1354 38.9972
27.1814 38.8457
27.2272 38.823
27.2732 38.7976
27.3191 38.5784
27.3651 38.8677
27.4109 38.73
27.4569 38.8485
27.5027 38.7712
27.5488 38.8671
27.5946 38.5678
27.6407 38.504
27.6865 38.4864
27.7326 38.144
27.7784 38.2297
27.8245 38.1943
27.8703 38.3432
27.9164 38.6301
27.9623 38.8189
28.0084 38.9386
28.0543 39.46
28.1003 39.2832
28.1462 39.0989
28.1923 38.688
28.2384 38.1809
28.2843 37.8573
28.3304 37.5163
28.3764 36.9753
28.4225 36.7065
28.4684 36.5099
28.5145 36.1547
28.5605 36.1209
28.6066 36.0622
28.6526 35.9823
28.6987 35.923
28.7447 35.7236
28.7908 35.7546
28.8368 35.6519
28.8829 35.777
28.9289 35.5864
28.9751 35.3718
29.0211 35.2093
29.0673 34.9127
29.1133 34.8442
29.1595 34.7377
29.2055 34.5844
29.2517 34.6462
29.2977 34.5764
29.3439 34.5531
29.3899 34.6286
29.4361 34.3182
29.4824 34.3285
29.5284 34.0067
29.5746 33.7247
29.6207 33.4145
29.6669 33.3293
29.713 33.3435
29.7593 33.1492
29.8053 33.1335
29.8516 33.0267
29.8977 33.0455
29.9439 32.8532
29.99 32.8282
30.0363 32.7298
30.0824 32.8111
30.1287 32.6534
30.1748 32.8163
30.2211 32.729
30.2673 32.5353
30.3136 32.5658
30.3597 32.4906
30.406 32.5053
30.4522 32.3333
30.4985 32.4403
30.5447 32.4168
30.591 32.3536
30.6372 32.5251
30.6835 32.3761
30.7297 32.4115
30.7761 32.3674
30.8224 32.2457
30.8686 32.0762
30.915 31.8034
30.9612 31.7036
31.0076 31.5214
31.0538 31.4077
31.1002 31.3695
31.1464 31.2365
31.1928 31.2891
31.2391 31.2617
31.2855 31.1298
31.3317 30.9925
31.3781 31.1746
31.4244 31.2146
31.4708 31.0701
31.5171 30.9629
31.5636 30.9639
31.6098 30.8408
31.6563 30.5983
31.7026 30.4853
31.7491 30.3429
31.7953 30.4516
31.8418 30.4137
31.8881 30.3741
31.9346 30.3324
31.9809 30.3075
32.0275 30.0677
32.074 30.0278
32.1203 29.8708
32.1668 29.7971
32.2132 29.607
32.2597 29.5061
32.306 29.3853
32.3526 29.1343
32.399 29.1848
32.4455 29.0066
32.4919 28.9548
32.5385 28.911
32.5848 28.7112
32.6314 28.7072
32.6778 28.7018
32.7244 28.4517
32.7708 28.408
32.8174 28.4243
32.8638 28.2571
32.9104 28.3459
32.9569 28.2325
33.0035 28.0209
33.0499 28.0344
33.0966 27.9849
33.143 28.0229
33.1897 27.9399
33.2361 27.8285
33.2828 27.7847
33.3293 27.5673
33.3759 27.5794
33.4226 27.4367
33.4691 27.3082
33.5158 27.2956
33.5623 27.114
33.609 26.9397
33.6555 26.8434
33.7022 26.836
33.7487 26.6827
33.7954 26.6574
33.842 26.5626
33.8887 26.4881
33.9353 26.4409
33.982 26.3231
34.0286 26.2536
34.0753 26.2171
34.1219 26.0767
34.1687 26.0601
34.2152 25.9435
34.262 25.8288
34.3086 25.6735
34.3554 25.6334
34.402 25.5177
34.4488 25.4999
34.4954 25.4728
34.5422 25.3953
34.5889 25.3292
34.6357 25.1619
34.6825 25.0911
34.7292 24.996
34.776 24.9813
34.8227 24.8825
34.8695 24.7787
34.9162 24.7742
34.9631 24.6352
35.0098 24.6762
35.0566 24.4673
35.1033 24.4924
35.1502 24.4563
35.1969 24.3568
35.2438 24.3474
35.2906 24.2874
35.3375 24.1897
35.3842 24.1531
35.4311 24.1492
35.4779 24.0908
35.5248 23.9602
35.5716 23.957
35.6185 23.8231
35.6653 23.8046
35.7123 23.7285
35.759 23.7223
35.806 23.4326
35.8528 23.3749
35.8998 23.3525
35.9468 23.2604
35.9936 23.2457
36.0406 23.1938
36.0874 23.1514
36.1345 22.9707
36.1813 22.9563
36.2283 22.865
36.2752 22.8429
36.3222 22.7891
36.3691 22.7583
36.4161 22.7563
36.463 22.5917
36.5101 22.6067
36.557 22.5017
36.6041 22.3464
36.651 22.3852
36.6981 22.2576
36.745 22.2058
36.7921 22.1263
36.839 22.0542
36.8861 21.9059
36.9331 21.8948
36.9802 21.8375
37.0272 21.7307
37.0743 21.6291
37.1213 21.5724
37.1684 21.693
37.2154 21.4745
37.2626 21.4344
37.3098 21.3648
37.3568 21.3024
37.404 21.2447
37.451 21.0794
37.4982 21.0994
37.5452 20.9047
37.5924 20.9739
37.6395 20.9755
37.6867 20.9037
37.7337 20.766
37.781 20.6615
37.8281 20.6439
37.8753 20.5409
37.9224 20.4941
37.9697 20.4164
38.0168 20.3276
38.064 20.2984
38.1111 20.2553
38.1584 20.1803
38.2056 20.1049
38.2529 20.0607
38.3 19.9612
38.3473 19.9245
38.3945 19.8249
38.4418 19.7681
38.489 19.7661
38.5363 19.6778
38.5837 19.5873
38.6309 19.5015
38.6782 19.4561
38.7254 19.405
38.7728 19.303
38.82 19.2844
38.8674 19.2185
38.9146 19.1847
38.9621 19.0319
39.0093 19.0678
39.0567 19.0007
39.104 18.9149
39.1514 18.8231
39.1987 18.811
39.2461 18.7219
39.2934 18.6205
39.3409 18.5615
39.3882 18.4871
39.4356 18.5327
39.483 18.3959
39.5304 18.3928
39.5778 18.3444
39.6253 18.3119
39.6726 18.1789
39.7201 18.1684
39.7675 18.1421
39.815 18.0655
39.8624 17.9613
39.9099 17.9775
39.9575 17.8149
40.0049 17.8194
40.0525 17.7455
40.0999 17.7053
40.1474 17.6504
40.1949 17.5666
40.2425 17.4668
40.2899 17.4993
40.3375 17.4552
40.385 17.3669
40.4326 17.2997
40.48 17.2537
40.5277 17.2043
40.5752 17.0856
40.6228 17.0318
40.6703 17.006
40.718 16.9516
40.7655 16.9967
40.8132 16.8341
40.8607 16.8459
40.9084 16.8408
40.9559 16.718
41.0036 16.6785
41.0512 16.6222
41.0989 16.5936
41.1465 16.4881
41.1942 16.4229
41.242 16.3302
41.2896 16.3055
41.3373 16.31
41.3849 16.2518
41.4327 16.1793
41.4803 16.1506
41.5281 16.0767
41.5758 15.9805
41.6236 15.8981
41.6712 15.8641
41.7191 15.8055
41.7667 15.8057
41.8146 15.7372
41.8622 15.651
41.9101 15.6726
41.9578 15.5121
42.0057 15.5589
42.0534 15.4675
42.1013 15.4281
42.149 15.4338
42.1969 15.3032
42.2446 15.2652
42.2925 15.2204
42.3403 15.1662
42.3882 15.1469
42.436 15.042
42.4839 15.0001
42.5319 15.0009
42.5797 14.9439
42.6277 14.8435
42.6755 14.7808
42.7235 14.6988
42.7713 14.7304
42.8193 14.6394
42.8671 14.6179
42.9152 14.6212
42.963 14.5391
43.0111 14.465
43.0589 14.4497
43.107 14.3579
43.1549 14.3008
43.2029 14.2936
43.2508 14.1792
43.2989 14.197
43.3468 14.1212
43.3949 14.0359
43.4429 14.0207
43.491 13.954
43.5389 13.9115
43.5871 13.9395
43.635 13.7631
43.6832 13.803
43.7312 13.7386
43.7793 13.683
43.8273 13.6346
43.8755 13.5412
43.9237 13.5404
43.9717 13.5054
44.0199 13.4537
44.068 13.4192
44.1162 13.3193
44.1642 13.3307
44.2125 13.2774
44.2606 13.233
44.3088 13.1853
44.3569 13.1068
44.4052 13.1331
44.4533 12.9763
44.5016 12.9845
44.5497 12.951
44.598 12.9317
44.6461 12.8384
44.6945 12.7803
44.7426 12.7845
44.791 12.6839
44.8391 12.6827
44.8875 12.6603
44.9357 12.5476
44.984 12.5997
45.0322 12.5254
45.0806 12.4286
45.1288 12.4204
45.1773 12.3316
45.2257 12.3141
45.2739 12.2693
45.3224 12.2007
45.3706 12.2158
45.4191 12.1553
45.4673 12.1379
45.5158 12.0329
45.5641 12.0298
45.6126 11.9576
45.6609 11.9241
45.7094 11.8482
45.7577 11.8089
45.8063 11.744
45.8546 11.7963
45.9031 11.7056
45.9515 11.6965
46.0001 11.6495
46.0484 11.6227
46.097 11.5416
46.1454 11.5033
46.194 11.4885
46.2424 11.4455
46.291 11.3705
46.3395 11.3217
46.3881 11.2836
46.4365 11.2749
46.4852 11.2213
46.5337 11.1787
46.5823 11.1061
46.631 11.0904
46.6795 11.0722
46.7282 11.0236
46.7767 11.0057
46.8254 10.9272
46.8739 10.9076
46.9226 10.8524
46.9712 10.834
47.0199 10.7466
47.0685 10.7648
47.1173 10.7132
47.1658 10.6715
47.2146 10.5993
47.2632 10.5628
47.312 10.5656
47.3606 10.523
47.4095 10.4445
47.4581 10.4202
47.5069 10.3937
47.5556 10.3143
47.6044 10.2588
47.6531 10.2868
47.702 10.1861
47.7507 10.1952
47.7996 10.1599
47.8483 10.1355
47.8972 10.0812
47.9461 10.0716
47.9948 9.98703
48.0438 9.93477
48.0925 9.98625
48.1415 9.93974
48.1902 9.85545
48.2392 9.85856
48.288 9.80248
48.337 9.78154
48.3858 9.74857
48.4348 9.71371
48.4837 9.68029
48.5327 9.59813
48.5815 9.61103
48.6306 9.56839
48.6795 9.53159
48.7285 9.46036
48.7774 9.4664
48.8265 9.43296
48.8754 9.38318
48.9245 9.35349
48.9734 9.31373
49.0226 9.27073
49.0715 9.23588
49.1206 9.16763
49.1696 9.13431
49.2188 9.10242
49.2679 9.11533
49.3169 9.03032
49.3661 9.02145
49.4151 9.01317
49.4643 8.94093
49.5134 8.90792
49.5626 8.87263
49.6117 8.84831
49.6609 8.84174
49.71 8.76438
49.7592 8.77962
49.8083 8.73828
49.8576 8.69982
49.9067 8.6391
49.956 8.60009
50.0052 8.579
50.0545 8.53723
50.1036 8.52553
50.153 8.49728
50.2022 8.43996
50.2515 8.4323
50.3007 8.37379
50.3501 8.33494
50.3993 8.31192
50.4487 8.29243
50.498 8.24658
50.5474 8.26262
50.5966 8.20491
50.6461 8.19226
50.6955 8.13481
50.7448 8.10669
50.7943 8.0463
50.8436 8.06863
50.8931 7.9837
50.9424 7.97226
50.9919 7.91025
51.0413 7.9421
51.0908 7.89529
51.1402 7.85442
51.1897 7.78484
51.2391 7.82596
51.2887 7.74911
51.3381 7.71997
51.3877 7.73138
51.4371 7.64178
51.4867 7.59934
51.5362 7.58855
51.5858 7.54329
51.6353 7.52938
51.6849 7.47916
51.7344 7.45568
51.7841 7.4417
51.8336 7.39251
51.8833 7.40056
51.9328 7.36646
51.9826 7.25817
52.0323 7.2841
52.0818 7.26532
52.1316 7.21316
52.1812 7.22182
52.231 7.15183
52.2806 7.13672
52.3304 7.13981
52.38 7.02963
52.4298 7.05454
52.4794 7.00217
52.5293 6.96087
52.5789 6.96318
52.6288 6.94052
52.6785 6.90836
52.7284 6.90775
52.7781 6.8307
52.828 6.85622
52.8777 6.7583
52.9276 6.78413
52.9774 6.76277
53.0273 6.67243
53.0771 6.65977
53.1271 6.66868
53.1769 6.61977
53.2269 6.59837
53.2767 6.56188
53.3267 6.52855
53.3765 6.52079
53.4266 6.49648
53.4766 6.48303
53.5265 6.43613
53.5765 6.43194
53.6264 6.35464
53.6765 6.33494
53.7264 6.31867
53.7765 6.27217
53.8265 6.23968
53.8766 6.25665
53.9266 6.24416
53.9767 6.17523
54.0267 6.1536
54.0769 6.11977
54.1269 6.06513
54.1771 6.05081
54.2271 6.03953
54.2773 6.00684
54.3274 5.94662
54.3776 5.93792
54.4277 5.91822
54.478 5.88935
54.528 5.80675
54.5783 5.74942
54.6285 5.77585
54.6788 5.72992
54.7289 5.71608
54.7792 5.6033
54.8296 5.60003
54.8798 5.58377
54.9301 5.48841
54.9803 5.49329
55.0307 5.49014
55.0809 5.46428
55.1314 5.38377
55.1816 5.29922
55.232 5.26355
55.2823 5.31991
55.3328 5.23305
55.383 5.14636
55.4335 5.11865
55.4838 5.03327
55.5344 5.0118
55.5847 4.95358
55.6352 4.95155
55.6856 4.88327
55.7361 4.85741