File: XRD/Ni3Fe_FD1077.xy
TT I
1.27165 7.08855
1.31627 6.19444
1.36089 6.12467
1.40551 5.95835
1.45013 5.88923
1.49476 5.5147
1.53938 5.11399
1.584 5.22462
1.62863 5.02105
1.67325 4.99114
1.71787 4.82351
1.7625 3.84331
1.80712 4.25833
1.85174 4.07751
1.89636 4.14851
1.94099 3.94103
1.98562 3.97489
2.03025 4.22238
2.07487 4.30748
2.11949 4.40355
2.16411 3.70809
2.20874 4.49984
2.25338 6.48723
2.298 4.84095
2.34263 5.26299
2.38725 5.58991
2.43188 5.91283
2.4765 6.9637
2.52115 7.1597
2.56577 7.64749
2.6104 7.95944
2.65503 8.1117
2.69965 7.96726
2.7443 8.64999
2.78893 8.6717
2.83356 8.49271
2.87818 8.78857
2.92281 8.93238
2.96744 9.45346
3.01209 10.1371
3.05672 10.6995
3.10135 12.2923
3.14599 12.2045
3.19062 13.833
3.23527 14.1199
3.2799 15.226
3.32454 16.2346
3.36917 16.8512
3.4138 18.158
3.45844 18.7282
3.50309 19.6074
3.54773 20.2811
3.59237 21.2904
3.637 27.11
3.68164 26.4509
3.7263 24.0199
3.77094 24.4371
3.81558 25.6598
3.86022 25.8214
3.90486 27.8542
3.9495 28.0513
3.99416 29.1594
4.0388 30.4836
4.08344 31.5179
4.12809 32.65
4.17273 33.5938
4.21738 35.3731
4.26204 51.8264
4.30669 56.3448
4.35133 40.4589
4.39598 40.9767
4.44063 43.2468
4.4853 46.535
4.52995 46.9783
4.5746 48.6537
4.61925 51.2636
4.6639 52.5551
4.70855 55.8637
4.75322 58.1681
4.79788 60.7266
4.84253 64.2779
4.88719 68.2525
4.93184 71.8425
4.97652 77.0426
5.02118 83.3101
5.06583 89.5647
5.11049 97.6636
5.15515 118.613
5.19981 232.76
5.24449 2533.2
5.28916 13679.7
5.33382 3294.57
5.37848 203.785
5.42315 123.559
5.46783 108.093
5.5125 101.035
5.55716 97.6838
5.60183 93.4395
5.6465 91.4217
5.69117 89.9046
5.73586 87.9953
5.78053 87.1686
5.8252 86.9619
5.86988 87.259
5.91455 89.3538
5.95924 95.097
6.00392 165.582
6.0486 894.865
6.09328 4469.94
6.13795 3683.87
6.18263 237.8
6.22733 87.6066
6.27201 75.7869
6.3167 73.3947
6.36138 68.8368
6.40606 65.4341
6.45075 63.232
6.49545 61.7945
6.54014 60.0211
6.58483 58.939
6.62952 57.9708
6.67421 58.8005
6.71892 64.1502
6.76361 56.5867
6.8083 54.7087
6.853 54.0664
6.89769 53.4458
6.94239 53.4876
6.98711 52.6246
7.03181 52.5082
7.07651 52.2962
7.12121 51.5861
7.16591 51.3612
7.21063 51.1378
7.25533 51.6231
7.30004 61.8617
7.34475 55.9345
7.38945 51.6893
7.43416 51.1009
7.47889 51.5182
7.5236 58.3682
7.56831 71.1289
7.61303 56.0161
7.65774 53.1867
7.70247 53.1778
7.74719 53.4614
7.79191 54.1594
7.83663 54.3014
7.88135 55.0957
7.92607 55.5467
7.97081 56.6828
8.01553 57.7597
8.06026 59.4136
8.10498 60.2663
8.14971 62.3803
8.19446 64.0378
8.23919 66.0803
8.28392 68.3378
8.32865 70.4703
8.37339 74.3694
8.41812 78.2241
8.46288 86.5523
8.50761 129.802
8.55235 381.485
8.59709 1117.93
8.64183 2279.29
8.68658 1091.81
8.73134 172.115
8.77609 94.8475
8.82083 88.3801
8.86558 85.7457
8.91033 83.8877
8.9551 82.5311
8.99985 81.0121
9.04461 80.6199
9.08936 79.8068
9.13412 79.2038
9.17888 79.5628
9.22365 90.4838
9.26841 111.032
9.31318 88.2268
9.35794 80.2748
9.4027 79.85
9.44749 80.586
9.49226 81.4322
9.53703 81.7284
9.5818 83.5088
9.62657 84.4672
9.67134 86.8028
9.71614 88.3124
9.76091 89.8761
9.80569 91.305
9.85047 94.2283
9.89525 99.2651
9.94005 106.341
9.98484 148.331
10.0296 354.016
10.0744 782.313
10.1192 1773.62
10.164 1700.95
10.2088 439.574
10.2536 124.842
10.2984 103.281
10.3432 100.981
10.388 98.0186
10.4328 107.871
10.4776 163.139
10.5224 274.818
10.5672 514.888
10.612 569.971
10.6568 227.812
10.7017 102.714
10.7465 86.1256
10.7913 79.997
10.8361 77.7858
10.8809 75.6189
10.9257 73.6624
10.9706 72.6681
11.0154 70.8459
11.0602 69.6039
11.105 68.0274
11.1499 67.1713
11.1947 67.4579
11.2395 66.0321
11.2844 65.0152
11.3292 63.8175
11.374 62.9
11.4189 62.8855
11.4637 61.8398
11.5086 61.2062
11.5534 61.2836
11.5983 60.9328
11.6431 60.8072
11.688 60.1353
11.7328 60.2164
11.7777 59.6679
11.8225 59.8577
11.8674 60.0076
11.9122 62.1681
11.9571 67.7256
12.002 65.9321
12.0468 64.445
12.0917 77.1427
12.1366 99.9147
12.1814 147.349
12.2263 203.897
12.2712 175.12
12.3161 96.864
12.3609 64.8462
12.4058 61.3163
12.4507 61.3603
12.4956 61.2852
12.5405 61.6148
12.5853 62.1217
12.6302 62.9151
12.6751 64.1002
12.72 64.08
12.7649 64.8187
12.8098 65.2789
12.8547 66.7348
12.8996 68.0397
12.9445 69.4686
12.9894 71.1355
13.0343 72.9887
13.0792 76.6319
13.1242 82.2521
13.1691 108.403
13.214 149.343
13.2589 231.652
13.3038 371.206
13.3487 450.892
13.3937 276.627
13.4386 125.416
13.4835 99.0658
13.5285 120.863
13.5734 158.405
13.6183 238.139
13.6633 357.05
13.7082 360.442
13.7531 203.419
13.7981 99.7862
13.843 79.6305
13.888 76.9227
13.9329 74.7498
13.9779 73.3682
14.0228 71.9461
14.0678 71.0144
14.1127 71.6347
14.1577 74.9251
14.2027 72.9333
14.2476 68.8422
14.2926 67.4476
14.3376 67.423
14.3825 66.7816
14.4275 66.6444
14.4725 66.3625
14.5175 66.4639
14.5624 66.3612
14.6074 66.8269
14.6524 67.3752
14.6974 67.402
14.7424 68.6514
14.7874 74.6487
14.8324 89.2546
14.8774 110.756
14.9224 149.663
14.9674 208.855
15.0124 226.91
15.0574 158.252
15.1024 93.6185
15.1474 70.957
15.1924 68.0008
15.2374 66.7098
15.2824 65.9238
15.3274 65.0608
15.3725 64.5381
15.4175 64.3337
15.4625 63.502
15.5076 63.6267
15.5526 63.6622
15.5976 63.6721
15.6426 64.0585
15.6877 68.8486
15.7327 80.2257
15.7778 95.6986
15.8228 123.488
15.8679 170.036
15.9129 202.931
15.958 168.864
16.003 104.097
16.0481 69.1683
16.0931 62.5874
16.1382 59.802
16.1833 58.4427
16.2283 57.0698
16.2734 56.1891
16.3185 55.8116
16.3636 55.0927
16.4086 54.7328
16.4537 53.92
16.4988 53.6479
16.5439 53.5238
16.589 53.3861
16.6341 53.0087
16.6792 52.3986
16.7243 52.7161
16.7694 52.7873
16.8145 52.719
16.8596 53.2147
16.9047 53.5221
16.9498 54.3008
16.9949 54.0234
17.04 53.943
17.0851 55.0044
17.1302 57.2843
17.1754 60.2441
17.2205 64.9098
17.2656 72.4036
17.3108 81.8447
17.3559 82.4322
17.401 71.7907
17.4462 61.4759
17.4913 57.6064
17.5365 57.2932
17.5815 57.4293
17.6268 57.7546
17.6718 58.2921
17.7171 58.8165
17.7622 59.858
17.8074 60.8638
17.8525 61.7798
17.8977 66.5824
17.9428 73.771
17.9881 82.4047
18.0331 98.0975
18.0784 121.24
18.1237 142.405
18.1688 137.585
18.214 108.513
18.2591 88.0563
18.3044 89.0219
18.3495 99.4483
18.3948 107.399
18.4399 98.4292
18.4852 78.5745
18.5303 65.6582
18.5756 61.3404
18.6207 60.0579
18.666 58.8924
18.7112 58.2068
18.7565 57.6647
18.8016 57.0498
18.8469 56.5196
18.892 56.148
18.9374 55.7025
18.9825 55.4425
19.0278 55.255
19.073 55.1763
19.1183 55.4151
19.1635 56.4703
19.2088 58.306
19.254 60.6743
19.2993 65.7978
19.3447 72.017
19.3898 75.8235
19.4352 72.133
19.4804 63.2786
19.5257 56.0987
19.5709 53.0128
19.6163 52.4633
19.6615 52.1973
19.7068 51.916
19.752 51.7161
19.7974 51.915
19.8426 52.7755
19.888 53.8424
19.9332 55.1846
19.9786 57.6678
20.0238 61.0789
20.0692 66.6087
20.1144 70.5738
20.1598 68.9933
20.205 64.1015
20.2504 61.6868
20.2957 63.6753
20.3411 65.4852
20.3863 63.7366
20.4318 58.1689
20.477 52.8364
20.5224 49.9727
20.5677 49.2607
20.6131 48.7708
20.6586 48.2888
20.7038 48.34
20.7493 48.0241
20.7945 48.116
20.84 47.9744
20.8853 47.6344
20.9307 47.3873
20.976 47.6845
21.0215 47.6906
21.0668 47.9244
21.1122 48.3177
21.1575 48.8131
21.203 49.8202
21.2483 50.6151
21.2938 50.5364
21.3391 49.1104
21.3846 48.0328
21.4299 47.3675
21.4754 47.2872
21.5207 47.314
21.5662 47.5875
21.6116 47.9977
21.6571 48.9748
21.7024 50.2969
21.7479 51.9489
21.7933 54.2915
21.8388 58.3045
21.8843 62.7003
21.9297 65.18
21.9752 63.8775
22.0206 59.803
22.0661 56.2247
22.1115 55.804
22.157 56.047
22.2024 54.3819
22.248 51.1625
22.2933 49.0866
22.3389 48.0381
22.3843 47.6952
22.4299 47.5223
22.4753 47.5578
22.5208 47.3903
22.5662 47.4584
22.6118 47.6663
22.6572 47.7434
22.7028 48.3754
22.7483 48.895
22.7939 49.7813
22.8393 51.3619
22.8849 53.3575
22.9303 55.8452
22.9759 57.7032
23.0214 57.3481
23.067 54.705
23.1126 51.0808
23.1581 48.6194
23.2037 47.9177
23.2492 47.7309
23.2948 47.8341
23.3403 48.621
23.3859 49.3443
23.4314 50.4355
23.477 52.2143
23.5225 54.5538
23.5682 57.2131
23.6137 58.5863
23.6593 56.4243
23.7048 52.1006
23.7505 48.2696
23.796 46.0131
23.8417 45.1567
23.8872 44.6548
23.9329 44.3184
23.9784 44.0541
24.0241 43.7445
24.0697 43.7511
24.1154 43.2857
24.1609 42.9667
24.2066 42.827
24.2522 42.7848
24.2979 42.6156
24.3434 42.2815
24.3892 42.205
24.4349 42.0635
24.4805 42.1367
24.5262 42.2975
24.5718 42.024
24.6175 42.2329
24.6631 42.1304
24.7089 41.6868
24.7545 41.542
24.8002 41.2307
24.8458 41.3902
24.8916 41.3075
24.9372 41.4844
24.983 41.6878
25.0286 42.1582
25.0744 42.6385
25.12 43.3809
25.1658 43.8581
25.2114 44.2734
25.2572 44.3337
25.3029 44.4807
25.3487 44.7426
25.3943 44.3286
25.4402 43.3692
25.4858 42.0569
25.5316 40.9145
25.5773 40.2989
25.6231 40.1206
25.669 39.8203
25.7147 39.7088
25.7605 39.6616
25.8062 39.8098
25.8521 39.852
25.8977 40.0162
25.9436 40.0969
25.9893 40.2303
26.0352 40.8232
26.0809 41.071
26.1268 41.3835
26.1725 41.1207
26.2184 40.3099
26.2641 39.7143
26.31 39.4709
26.3557 39.5477
26.4017 39.4257
26.4474 39.9127
26.4933 40.082
26.5391 40.6509
26.585 41.1599
26.6308 41.8311
26.6767 41.942
26.7225 41.8861
26.7684 41.1196
26.8142 40.541
26.8601 40.1148
26.9059 39.6215
26.9519 39.1504
26.9979 38.6829
27.0437 38.3102
27.0896 38.1807
27.1354 38.0849
27.1814 38.0795
27.2272 37.9087
27.2732 37.8923
27.3191 37.6723
27.3651 37.9322
27.4109 37.7486
27.4569 37.9438
27.5027 38.0284
27.5488 38.0593
27.5946 37.8874
27.6407 37.6702
27.6865 37.558
27.7326 37.3434
27.7784 37.3362
27.8245 37.3729
27.8703 37.4294
27.9164 37.7681
27.9623 37.9718
28.0084 38.5847
28.0543 38.9437
28.1003 38.8813
28.1462 38.5675
28.1923 38.163
28.2384 37.6808
28.2843 37.4264
28.3304 36.9017
28.3764 36.3879
28.4225 36.0186
28.4684 35.7623
28.5145 35.5201
28.5605 35.3088
28.6066 35.1435
28.6526 35.0806
28.6987 35.1184
28.7447 34.9113
28.7908 34.8958
28.8368 34.8411
28.8829 34.9533
28.9289 34.8659
28.9751 34.6402
29.0211 34.4509
29.0673 34.1694
29.1133 34.049
29.1595 33.873
29.2055 33.7093
29.2517 33.8637
29.2977 33.5941
29.3439 33.6854
29.3899 33.7209
29.4361 33.5708
29.4824 33.4826
29.5284 33.304
29.5746 32.9162
29.6207 32.7362
29.6669 32.6025
29.713 32.513
29.7593 32.3738
29.8053 32.3545
29.8516 32.1941
29.8977 32.1523
29.9439 32.0316
29.99 32.0473
30.0363 31.9243
30.0824 31.9729
30.1287 31.9675
30.1748 31.9691
30.2211 31.9732
30.2673 31.7796
30.3136 31.9032
30.3597 31.8051
30.406 31.6748
30.4522 31.6647
30.4985 31.5356
30.5447 31.6164
30.591 31.5745
30.6372 31.8335
30.6835 31.8833
30.7297 31.9474
30.7761 31.8202
30.8224 31.6372
30.8686 31.4825
30.915 31.2931
30.9612 31.2279
31.0076 30.9063
31.0538 30.7128
31.1002 30.7951
31.1464 30.5451
31.1928 30.5211
31.2391 30.532
31.2855 30.4582
31.3317 30.4672
31.3781 30.4798
31.4244 30.5645
31.4708 30.4915
31.5171 30.4772
31.5636 30.3491
31.6098 30.0407
31.6563 29.8566
31.7026 29.8777
31.7491 29.8325
31.7953 29.7962
31.8418 29.723
31.8881 29.8158
31.9346 29.7239
31.9809 29.7248
32.0275 29.6569
32.074 29.552
32.1203 29.2396
32.1668 29.1649
32.2132 28.9948
32.2597 28.8831
32.306 28.7481
32.3526 28.5821
32.399 28.6117
32.4455 28.3683
32.4919 28.3252
32.5385 28.3442
32.5848 28.179
32.6314 28.0279
32.6778 27.961
32.7244 27.8935
32.7708 27.7208
32.8174 27.7865
32.8638 27.6334
32.9104 27.6842
32.9569 27.5465
33.0035 27.5191
33.0499 27.4328
33.0966 27.416
33.143 27.4261
33.1897 27.3517
33.2361 27.2425
33.2828 27.2271
33.3293 27.0874
33.3759 27.071
33.4226 26.8953
33.4691 26.6872
33.5158 26.5999
33.5623 26.4422
33.609 26.3693
33.6555 26.3221
33.7022 26.2322
33.7487 26.1972
33.7954 26.0955
33.842 26.0126
33.8887 26.0074
33.9353 25.8324
33.982 25.8524
34.0286 25.7038
34.0753 25.5931
34.1219 25.4962
34.1687 25.5012
34.2152 25.4557
34.262 25.2381
34.3086 25.1736
34.3554 25.2001
34.402 24.9915
34.4488 24.9891
34.4954 24.8356
34.5422 24.8577
34.5889 24.7028
34.6357 24.6121
34.6825 24.5615
34.7292 24.5363
34.776 24.3871
34.8227 24.3275
34.8695 24.3027
34.9162 24.1879
34.9631 24.1385
35.0098 24.0826
35.0566 23.9596
35.1033 24.0029
35.1502 23.917
35.1969 23.8048
35.2438 23.8279
35.2906 23.7395
35.3375 23.6642
35.3842 23.6653
35.4311 23.7007
35.4779 23.6702
35.5248 23.5654
35.5716 23.4858
35.6185 23.4598
35.6653 23.2797
35.7123 23.2259
35.759 23.1458
35.806 23.0396
35.8528 22.9465
35.8998 22.9153
35.9468 22.7537
35.9936 22.7294
36.0406 22.7178
36.0874 22.654
36.1345 22.6484
36.1813 22.4542
36.2283 22.4521
36.2752 22.3359
36.3222 22.3107
36.3691 22.3024
36.4161 22.131
36.463 22.0958
36.5101 22.1456
36.557 22.0427
36.6041 21.8878
36.651 21.9681
36.6981 21.857
36.745 21.7449
36.7921 21.6936
36.839 21.6386
36.8861 21.625
36.9331 21.4134
36.9802 21.3833
37.0272 21.3289
37.0743 21.2085
37.1213 21.1609
37.1684 21.1183
37.2154 21.1358
37.2626 20.9116
37.3098 20.8719
37.3568 20.8835
37.404 20.8301
37.451 20.7105
37.4982 20.6466
37.5452 20.5997
37.5924 20.4783
37.6395 20.5418
37.6867 20.348
37.7337 20.3462
37.781 20.2096
37.8281 20.17
37.8753 20.0878
37.9224 19.9864
37.9697 19.9971
38.0168 19.8708
38.064 19.8938
38.1111 19.7856
38.1584 19.7154
38.2056 19.6647
38.2529 19.6215
38.3 19.6151
38.3473 19.4843
38.3945 19.4065
38.4418 19.4247
38.489 19.3369
38.5363 19.2201
38.5837 19.1426
38.6309 19.1498
38.6782 19.0532
38.7254 18.9654
38.7728 18.9812
38.82 18.86
38.8674 18.8208
38.9146 18.7215
38.9621 18.689
39.0093 18.6723
39.0567 18.5835
39.104 18.4949
39.1514 18.4172
39.1987 18.4211
39.2461 18.4277
39.2934 18.306
39.3409 18.209
39.3882 18.1007
39.4356 18.1081
39.483 18.0761
39.5304 17.9436
39.5778 17.9531
39.6253 17.9102
39.6726 17.9053
39.7201 17.7769
39.7675 17.7215
39.815 17.676
39.8624 17.6397
39.9099 17.5951
39.9575 17.5115
40.0049 17.4687
40.0525 17.3603
40.0999 17.4176
40.1474 17.2608
40.1949 17.2013
40.2425 17.1402
40.2899 17.1123
40.3375 17.0861
40.385 17.0138
40.4326 16.9439
40.48 16.8519
40.5277 16.9043
40.5752 16.8429
40.6228 16.7167
40.6703 16.7538
40.718 16.6178
40.7655 16.6223
40.8132 16.5439
40.8607 16.4788
40.9084 16.4316
40.9559 16.3628
41.0036 16.3366
41.0512 16.285
41.0989 16.2729
41.1465 16.123
41.1942 16.1132
41.242 15.9948
41.2896 15.9672
41.3373 15.9199
41.3849 15.9483
41.4327 15.8354
41.4803 15.819
41.5281 15.747
41.5758 15.6984
41.6236 15.6159
41.6712 15.5668
41.7191 15.502
41.7667 15.459
41.8146 15.508
41.8622 15.3643
41.9101 15.3178
41.9578 15.2328
42.0057 15.2502
42.0534 15.1711
42.1013 15.1729
42.149 15.0503
42.1969 15.0281
42.2446 15.0207
42.2925 14.9936
42.3403 14.8605
42.3882 14.9175
42.436 14.7661
42.4839 14.7133
42.5319 14.6589
42.5797 14.6241
42.6277 14.5829
42.6755 14.5402
42.7235 14.4364
42.7713 14.4285
42.8193 14.3586
42.8671 14.3173
42.9152 14.2624
42.963 14.2471
43.0111 14.1996
43.0589 14.0781
43.107 14.0389
43.1549 14.0187
43.2029 13.9738
43.2508 13.9587
43.2989 13.8923
43.3468 13.8086
43.3949 13.7695
43.4429 13.7203
43.491 13.6998
43.5389 13.628
43.5871 13.5936
43.635 13.5351
43.6832 13.5286
43.7312 13.4197
43.7793 13.4146
43.8273 13.3556
43.8755 13.3519
43.9237 13.2834
43.9717 13.2308
44.0199 13.161
44.068 13.0975
44.1162 13.0836
44.1642 13.0285
44.2125 13.0239
44.2606 12.9737
44.3088 12.8604
44.3569 12.8847
44.4052 12.8693
44.4533 12.8209
44.5016 12.7062
44.5497 12.7088
44.598 12.6373
44.6461 12.5837
44.6945 12.5676
44.7426 12.512
44.791 12.457
44.8391 12.4035
44.8875 12.3559
44.9357 12.3656
44.984 12.3105
45.0322 12.2778
45.0806 12.219
45.1288 12.1627
45.1773 12.1093
45.2257 12.0866
45.2739 12.0536
45.3224 12.0047
45.3706 11.9383
45.4191 11.9164
45.4673 11.8716
45.5158 11.8539
45.5641 11.7675
45.6126 11.7465
45.6609 11.6858
45.7094 11.6207
45.7577 11.5759
45.8063 11.5319
45.8546 11.5429
45.9031 11.4857
45.9515 11.4654
46.0001 11.4238
46.0484 11.352
46.097 11.3645
46.1454 11.3162
46.194 11.2756
46.2424 11.2323
46.291 11.1517
46.3395 11.1415
46.3881 11.0302
46.4365 11.0647
46.4852 10.9869
46.5337 10.9432
46.5823 10.9476
46.631 10.8643
46.6795 10.8767
46.7282 10.8355
46.7767 10.7596
46.8254 10.7144
46.8739 10.6817
46.9226 10.612
46.9712 10.5932
47.0199 10.5557
47.0685 10.5301
47.1173 10.4707
47.1658 10.4429
47.2146 10.4064
47.2632 10.3415
47.312 10.2957
47.3606 10.3061
47.4095 10.2344
47.4581 10.2424
47.5069 10.1766
47.5556 10.0948
47.6044 10.105
47.6531 10.0411
47.702 9.99165
47.7507 9.9755
47.7996 9.94238
47.8483 9.95733
47.8972 9.84723
47.9461 9.84431
47.9948 9.78369
48.0438 9.7736
48.0925 9.71667
48.1415 9.69187
48.1902 9.6782
48.2392 9.66303
48.288 9.5985
48.337 9.58805
48.3858 9.55981
48.4348 9.50245
48.4837 9.49762
48.5327 9.47002
48.5815 9.37656
48.6306 9.35331
48.6795 9.3588
48.7285 9.25921
48.7774 9.26671
48.8265 9.24924
48.8754 9.16003
48.9245 9.14155
48.9734 9.08643
49.0226 9.11609
49.0715 9.03544
49.1206 9.01337
49.1696 8.96943
49.2188 8.96352
49.2679 8.90718
49.3169 8.83852
49.3661 8.83489
49.4151 8.81715
49.4643 8.75981
49.5134 8.7632
49.5626 8.68233
49.6117 8.67213
49.6609 8.64384
49.71 8.59666
49.7592 8.54367
49.8083 8.53829
49.8576 8.53594
49.9067 8.47022
49.956 8.45578
50.0052 8.36859
50.0545 8.36601
50.1036 8.36057
50.153 8.28761
50.2022 8.29272
50.2515 8.25384
50.3007 8.19137
50.3501 8.19452
50.3993 8.16362
50.4487 8.07775
50.498 8.11557
50.5474 8.04861
50.5966 8.03663
50.6461 7.98436
50.6955 7.98949
50.7448 7.95517
50.7943 7.90526
50.8436 7.87741
50.8931 7.84398
50.9424 7.82703
50.9919 7.7903
51.0413 7.77583
51.0908 7.70705
51.1402 7.69888
51.1897 7.66614
51.2391 7.63313
51.2887 7.5908
51.3381 7.51876
51.3877 7.54088
51.4371 7.49044
51.4867 7.4844
51.5362 7.4471
51.5858 7.37672
51.6353 7.3522
51.6849 7.31995
51.7344 7.28575
51.7841 7.27373
51.8336 7.23761
51.8833 7.21186
51.9328 7.20197
51.9826 7.12916
52.0323 7.14544
52.0818 7.11543
52.1316 7.05254
52.1812 7.05792
52.231 7.01483
52.2806 6.93988
52.3304 6.984
52.38 6.90849
52.4298 6.92596
52.4794 6.84734
52.5293 6.83944
52.5789 6.8066
52.6288 6.78925
52.6785 6.77783
52.7284 6.75728
52.7781 6.70072
52.828 6.6867
52.8777 6.66956
52.9276 6.60409
52.9774 6.62928
53.0273 6.56486
53.0771 6.53353
53.1271 6.55728
53.1769 6.48813
53.2269 6.47191
53.2767 6.42664
53.3267 6.4197
53.3765 6.38945
53.4266 6.35887
53.4766 6.32229
53.5265 6.31408
53.5765 6.2396
53.6264 6.25825
53.6765 6.2217
53.7264 6.1782
53.7765 6.20387
53.8265 6.1171
53.8766 6.12599
53.9266 6.0802
53.9767 6.038
54.0267 6.01955
54.0769 6.04003
54.1269 5.97201
54.1771 5.93691
54.2271 5.90878
54.2773 5.87048
54.3274 5.84487
54.3776 5.79535
54.4277 5.79948
54.478 5.78269
54.528 5.75464
54.5783 5.67352
54.6285 5.66997
54.6788 5.60387
54.7289 5.55192
54.7792 5.59321
54.8296 5.51335
54.8798 5.46885
54.9301 5.43543
54.9803 5.38632
55.0307 5.38412
55.0809 5.31936
55.1314 5.29802
55.1816 5.15985
55.232 5.16613
55.2823 5.13439
55.3328 5.06345
55.383 5.03641
55.4335 5.0118
55.4838 4.98656
55.5344 4.9173
55.5847 4.86583
55.6352 4.82772
55.6856 4.77109
55.7361 4.75445