File: XRD/Ni3Fe_FD0324.xy
TT I
1.27165 7.57073
1.31627 6.92523
1.36089 6.9079
1.40551 5.95885
1.45013 6.9253
1.49476 6.08251
1.53938 6.71104
1.584 5.93382
1.62863 6.03389
1.67325 5.96448
1.71787 5.48874
1.7625 5.22853
1.80712 4.87695
1.85174 4.53922
1.89636 4.59302
1.94099 4.99951
1.98562 4.66392
2.03025 4.74206
2.07487 4.87799
2.11949 4.79515
2.16411 5.10426
2.20874 12.6557
2.25338 20.2031
2.298 5.72466
2.34263 5.19429
2.38725 5.30524
2.43188 5.41346
2.4765 5.602
2.52115 6.14554
2.56577 6.7921
2.6104 7.30595
2.65503 7.32978
2.69965 7.21012
2.7443 7.88103
2.78893 7.681
2.83356 8.32643
2.87818 8.77555
2.92281 8.93136
2.96744 9.53667
3.01209 10.7903
3.05672 10.4882
3.10135 12.0491
3.14599 13.2937
3.19062 14.6759
3.23527 14.5133
3.2799 15.8375
3.32454 16.882
3.36917 17.9837
3.4138 19.2657
3.45844 20.1361
3.50309 21.3003
3.54773 22.1609
3.59237 24.5054
3.637 84.4174
3.68164 55.1044
3.7263 26.2577
3.77094 26.4382
3.81558 27.3314
3.86022 27.8781
3.90486 29.0056
3.9495 30.429
3.99416 31.5382
4.0388 32.6782
4.08344 34.3856
4.12809 36.0277
4.17273 37.3212
4.21738 43.4454
4.26204 225.369
4.30669 195.121
4.35133 48.5483
4.39598 45.6112
4.44063 54.6499
4.4853 64.3118
4.52995 52.5047
4.5746 52.85
4.61925 55.0373
4.6639 56.6195
4.70855 59.7755
4.75322 62.9738
4.79788 66.04
4.84253 69.322
4.88719 74.2976
4.93184 77.7791
4.97652 84.3355
5.02118 91.6123
5.06583 100.741
5.11049 115.323
5.15515 188.349
5.19981 535.523
5.24449 3473.46
5.28916 11398.5
5.33382 3601.62
5.37848 231.562
5.42315 140.345
5.46783 121.028
5.5125 111.535
5.55716 106.272
5.60183 102.378
5.6465 100.714
5.69117 98.6471
5.73586 96.1333
5.78053 96.4688
5.8252 96.2594
5.86988 98.097
5.91455 100.889
5.95924 114.087
6.00392 285.086
6.0486 1189.44
6.09328 3955.92
6.13795 3495.86
6.18263 306.391
6.22733 101.503
6.27201 87.0521
6.3167 102.334
6.36138 82.3516
6.40606 71.36
6.45075 69.3383
6.49545 67.2038
6.54014 65.6584
6.58483 64.8159
6.62952 64.3325
6.67421 91.1365
6.71892 135.18
6.76361 68.6317
6.8083 60.4436
6.853 58.7308
6.89769 58.4558
6.94239 57.9472
6.98711 56.9872
7.03181 56.8135
7.07651 56.7197
7.12121 56.8969
7.16591 56.8009
7.21063 56.7488
7.25533 69.4198
7.30004 164.539
7.34475 89.2649
7.38945 57.855
7.43416 56.029
7.47889 55.6922
7.5236 56.1781
7.56831 56.9555
7.61303 58.2339
7.65774 58.9374
7.70247 57.7401
7.74719 57.8205
7.79191 58.3116
7.83663 58.5633
7.88135 59.3951
7.92607 60.582
7.97081 61.6917
8.01553 62.4474
8.06026 64.1455
8.10498 65.7209
8.14971 74.7943
8.19446 73.8128
8.23919 71.6812
8.28392 74.0919
8.32865 76.5736
8.37339 81.317
8.41812 88.8829
8.46288 118.626
8.50761 205.814
8.55235 469.013
8.59709 1139.32
8.64183 2096.03
8.68658 1109.26
8.73134 190.537
8.77609 104.791
8.82083 96.1345
8.86558 92.8478
8.91033 92.4235
8.9551 93.5401
8.99985 87.7527
9.04461 85.7952
9.08936 85.8163
9.13412 84.365
9.17888 84.3005
9.22365 84.7789
9.26841 84.4708
9.31318 85.4008
9.35794 85.8054
9.4027 86.0664
9.44749 86.5548
9.49226 87.4844
9.53703 88.397
9.5818 90.1132
9.62657 95.0039
9.67134 100.582
9.71614 96.2074
9.76091 97.0716
9.80569 99.8139
9.85047 103.341
9.89525 126.133
9.94005 142.28
9.98484 214.124
10.0296 411.995
10.0744 829.012
10.1192 1620.98
10.164 1723.93
10.2088 497.284
10.2536 140.513
10.2984 117.95
10.3432 118.417
10.388 109.016
10.4328 130.887
10.4776 179.751
10.5224 285.682
10.5672 477.731
10.612 525.971
10.6568 222.331
10.7017 100.963
10.7465 89.6661
10.7913 85.8279
10.8361 83.1429
10.8809 81.2655
10.9257 80.3954
10.9706 80.9187
11.0154 76.9412
11.0602 74.8292
11.105 73.8454
11.1499 77.0442
11.1947 83.8154
11.2395 75.546
11.2844 71.9107
11.3292 69.3651
11.374 68.0061
11.4189 67.6045
11.4637 66.6905
11.5086 67.3133
11.5534 69.6147
11.5983 67.1493
11.6431 65.4297
11.688 64.6259
11.7328 64.992
11.7777 64.6847
11.8225 64.3765
11.8674 64.331
11.9122 64.6634
11.9571 64.9654
12.002 65.8617
12.0468 71.9738
12.0917 85.4005
12.1366 107.509
12.1814 149.496
12.2263 201.09
12.2712 180.142
12.3161 102.594
12.3609 72.8386
12.4058 66.8044
12.4507 66.2557
12.4956 66.3904
12.5405 66.4134
12.5853 67.3481
12.6302 74.0698
12.6751 79.5876
12.72 71.6923
12.7649 70.0232
12.8098 70.5784
12.8547 71.6879
12.8996 73.1299
12.9445 74.628
12.9894 76.5833
13.0343 78.2594
13.0792 82.2609
13.1242 95.3502
13.1691 124.069
13.214 162.47
13.2589 239.057
13.3038 347.07
13.3487 427.974
13.3937 288.306
13.4386 134.324
13.4835 115.16
13.5285 132.859
13.5734 168.333
13.6183 236.479
13.6633 328.734
13.7082 344.821
13.7531 206.754
13.7981 103.988
13.843 84.6211
13.888 82.1829
13.9329 79.6008
13.9779 78.3073
14.0228 76.3951
14.0678 75.234
14.1127 74.8179
14.1577 74.5773
14.2027 73.5798
14.2476 72.5473
14.2926 72.4834
14.3376 73.4785
14.3825 72.3911
14.4275 71.0155
14.4725 70.7581
14.5175 71.1551
14.5624 71.2679
14.6074 73.0088
14.6524 74.0263
14.6974 72.7918
14.7424 75.3979
14.7874 84.5325
14.8324 95.9689
14.8774 116.558
14.9224 151.297
14.9674 198.356
15.0124 221.084
15.0574 159.032
15.1024 95.4313
15.1474 74.9939
15.1924 72.6241
15.2374 72.785
15.2824 72.1335
15.3274 70.2941
15.3725 68.8358
15.4175 68.4307
15.4625 67.9645
15.5076 68.4246
15.5526 68.41
15.5976 68.1061
15.6426 69.9131
15.6877 77.1013
15.7327 86.2914
15.7778 100.318
15.8228 126.419
15.8679 163.361
15.9129 194.963
15.958 167.786
16.003 105.002
16.0481 70.8272
16.0931 66.5141
16.1382 64.4996
16.1833 62.4086
16.2283 60.8935
16.2734 60.2244
16.3185 60.1102
16.3636 60.8817
16.4086 59.5559
16.4537 57.9122
16.4988 57.1724
16.5439 57.1876
16.589 56.956
16.6341 56.5609
16.6792 56.4593
16.7243 56.6119
16.7694 56.6434
16.8145 56.4708
16.8596 57.0625
16.9047 58.2506
16.9498 58.6829
16.9949 57.3595
17.04 57.6565
17.0851 59.5932
17.1302 61.3173
17.1754 64.2534
17.2205 68.8393
17.2656 74.5441
17.3108 82.7976
17.3559 84.1319
17.401 74.7012
17.4462 64.6983
17.4913 61.0133
17.5365 61.1552
17.5815 61.1357
17.6268 61.5985
17.6718 62.2852
17.7171 62.8355
17.7622 63.3278
17.8074 64.0291
17.8525 67.4457
17.8977 72.4488
17.9428 78.1161
17.9881 86.3965
18.0331 100.677
18.0784 118.74
18.1237 139.38
18.1688 138.876
18.214 111.977
18.2591 90.8463
18.3044 91.0235
18.3495 98.9109
18.3948 107.564
18.4399 100.453
18.4852 81.1087
18.5303 68.3724
18.5756 64.2815
18.6207 63.0902
18.666 62.5197
18.7112 61.651
18.7565 60.8169
18.8016 60.4941
18.8469 60.026
18.892 59.7068
18.9374 59.0138
18.9825 58.8322
19.0278 58.7974
19.073 58.823
19.1183 59.6021
19.1635 60.5887
19.2088 61.9836
19.254 64.0909
19.2993 67.5387
19.3447 72.8126
19.3898 77.6613
19.4352 75.1419
19.4804 66.3137
19.5257 58.9473
19.5709 56.0494
19.6163 55.5741
19.6615 55.5722
19.7068 55.087
19.752 55.0566
19.7974 55.399
19.8426 56.348
19.888 57.0885
19.9332 58.4549
19.9786 60.6017
20.0238 63.5312
20.0692 67.8818
20.1144 71.2946
20.1598 71.1333
20.205 66.2363
20.2504 63.7674
20.2957 64.5601
20.3411 66.9046
20.3863 66.4825
20.4318 60.9015
20.477 55.7736
20.5224 53.2179
20.5677 52.5046
20.6131 51.7609
20.6586 51.3836
20.7038 51.0689
20.7493 50.5205
20.7945 50.5161
20.84 50.4712
20.8853 50.2909
20.9307 50.0944
20.976 50.2438
21.0215 50.2679
21.0668 50.7177
21.1122 50.9588
21.1575 51.6258
21.203 52.0804
21.2483 53.0698
21.2938 53.1007
21.3391 51.9141
21.3846 50.6693
21.4299 50.0537
21.4754 50.0805
21.5207 50.1185
21.5662 50.5258
21.6116 51.1445
21.6571 51.8652
21.7024 52.9544
21.7479 54.6163
21.7933 56.9014
21.8388 59.938
21.8843 63.423
21.9297 66.5053
21.9752 65.8431
22.0206 62.2643
22.0661 58.0441
22.1115 57.1238
22.157 57.5697
22.2024 56.1902
22.248 53.3005
22.2933 51.6263
22.3389 50.7641
22.3843 50.6533
22.4299 50.4493
22.4753 50.5061
22.5208 50.3628
22.5662 49.9381
22.6118 50.4035
22.6572 50.6038
22.7028 50.9161
22.7483 51.6108
22.7939 52.1763
22.8393 53.637
22.8849 55.3371
22.9303 57.0749
22.9759 58.9041
23.0214 59.2026
23.067 56.8545
23.1126 53.1787
23.1581 51.0483
23.2037 50.3912
23.2492 50.5798
23.2948 50.5171
23.3403 50.9608
23.3859 51.5687
23.4314 52.4712
23.477 53.9557
23.5225 55.533
23.5682 57.6967
23.6137 59.2844
23.6593 57.7711
23.7048 53.9886
23.7505 50.1034
23.796 48.1492
23.8417 47.4852
23.8872 46.9098
23.9329 46.6907
23.9784 46.2474
24.0241 46.0019
24.0697 45.8942
24.1154 45.4904
24.1609 45.3413
24.2066 45.2757
24.2522 45.0764
24.2979 44.9289
24.3434 44.6351
24.3892 44.526
24.4349 44.5609
24.4805 44.3036
24.5262 44.3176
24.5718 44.3301
24.6175 44.2995
24.6631 44.2155
24.7089 43.8094
24.7545 43.725
24.8002 43.7198
24.8458 43.5677
24.8916 43.3083
24.9372 43.477
24.983 44.0739
25.0286 44.2511
25.0744 44.612
25.12 45.0298
25.1658 45.6349
25.2114 45.9486
25.2572 46.1304
25.3029 45.8931
25.3487 46.0621
25.3943 46.1284
25.4402 45.1889
25.4858 43.9868
25.5316 42.8294
25.5773 42.1313
25.6231 42.2257
25.669 41.9136
25.7147 41.7804
25.7605 41.8311
25.8062 41.8229
25.8521 41.9876
25.8977 41.968
25.9436 42.1103
25.9893 42.2396
26.0352 42.7162
26.0809 42.7639
26.1268 42.9302
26.1725 42.7615
26.2184 42.0874
26.2641 41.762
26.31 41.4924
26.3557 41.5494
26.4017 41.382
26.4474 41.728
26.4933 41.9241
26.5391 42.538
26.585 42.7904
26.6308 43.1906
26.6767 43.4815
26.7225 43.5222
26.7684 42.7566
26.8142 42.1659
26.8601 41.5958
26.9059 41.3292
26.9519 40.7599
26.9979 40.4319
27.0437 40.122
27.0896 39.9422
27.1354 40.0489
27.1814 39.8578
27.2272 39.7766
27.2732 39.8421
27.3191 39.5208
27.3651 39.6205
27.4109 39.7311
27.4569 39.6259
27.5027 39.6543
27.5488 39.7061
27.5946 39.5765
27.6407 39.4651
27.6865 39.3458
27.7326 39.0109
27.7784 39.0119
27.8245 38.9849
27.8703 39.2626
27.9164 39.4523
27.9623 39.4082
28.0084 39.7357
28.0543 40.1826
28.1003 40.0986
28.1462 39.9923
28.1923 39.7299
28.2384 39.1097
28.2843 38.8837
28.3304 38.3153
28.3764 37.9253
28.4225 37.5197
28.4684 37.3357
28.5145 37.1156
28.5605 37.0582
28.6066 36.7771
28.6526 36.7353
28.6987 36.7596
28.7447 36.6708
28.7908 36.5039
28.8368 36.5296
28.8829 36.5283
28.9289 36.5081
28.9751 36.3034
29.0211 36.056
29.0673 35.7627
29.1133 35.6653
29.1595 35.453
29.2055 35.3693
29.2517 35.3575
29.2977 35.3348
29.3439 35.3427
29.3899 35.2137
29.4361 35.1208
29.4824 35.0436
29.5284 34.875
29.5746 34.4348
29.6207 34.1047
29.6669 34.1543
29.713 33.9806
29.7593 33.8642
29.8053 33.9164
29.8516 33.7859
29.8977 33.8414
29.9439 33.6001
29.99 33.5881
30.0363 33.5046
30.0824 33.5615
30.1287 33.33
30.1748 33.4767
30.2211 33.4228
30.2673 33.2724
30.3136 33.4851
30.3597 33.2534
30.406 33.2484
30.4522 32.9754
30.4985 33.0438
30.5447 33.2112
30.591 33.1697
30.6372 33.1868
30.6835 33.0116
30.7297 33.2435
30.7761 33.1029
30.8224 33.0027
30.8686 32.8363
30.915 32.6191
30.9612 32.51
31.0076 32.3108
31.0538 32.1608
31.1002 32.2574
31.1464 31.8918
31.1928 31.9399
31.2391 31.9579
31.2855 31.8355
31.3317 31.7706
31.3781 31.839
31.4244 31.8399
31.4708 31.6548
31.5171 31.7227
31.5636 31.6576
31.6098 31.4447
31.6563 31.3424
31.7026 31.0979
31.7491 31.0706
31.7953 31.0651
31.8418 31.0192
31.8881 31.0132
31.9346 30.9737
31.9809 31.0142
32.0275 30.791
32.074 30.761
32.1203 30.4975
32.1668 30.4784
32.2132 30.2719
32.2597 30.1872
32.306 30.1221
32.3526 29.8859
32.399 29.8235
32.4455 29.5855
32.4919 29.7149
32.5385 29.6617
32.5848 29.4108
32.6314 29.3809
32.6778 29.318
32.7244 29.141
32.7708 29.0524
32.8174 29.0717
32.8638 28.8761
32.9104 28.9837
32.9569 28.8979
33.0035 28.7845
33.0499 28.7171
33.0966 28.642
33.143 28.5587
33.1897 28.5887
33.2361 28.4657
33.2828 28.4644
33.3293 28.2488
33.3759 28.1821
33.4226 28.0895
33.4691 27.9551
33.5158 27.8641
33.5623 27.7418
33.609 27.5597
33.6555 27.4996
33.7022 27.3607
33.7487 27.3418
33.7954 27.3353
33.842 27.2137
33.8887 27.2049
33.9353 27.1087
33.982 26.9184
34.0286 26.8681
34.0753 26.8257
34.1219 26.7299
34.1687 26.5776
34.2152 26.6139
34.262 26.4135
34.3086 26.3688
34.3554 26.3964
34.402 26.1257
34.4488 26.0162
34.4954 26.0258
34.5422 25.928
34.5889 25.8448
34.6357 25.8346
34.6825 25.613
34.7292 25.6299
34.776 25.5013
34.8227 25.3919
34.8695 25.4596
34.9162 25.3844
34.9631 25.2984
35.0098 25.1869
35.0566 25.0505
35.1033 25.0819
35.1502 25.0322
35.1969 24.9351
35.2438 24.8601
35.2906 24.8422
35.3375 24.7706
35.3842 24.7393
35.4311 24.7295
35.4779 24.7193
35.5248 24.5437
35.5716 24.4099
35.6185 24.4559
35.6653 24.3281
35.7123 24.2784
35.759 24.2679
35.806 24.1111
35.8528 23.9786
35.8998 23.8348
35.9468 23.7327
35.9936 23.7994
36.0406 23.7046
36.0874 23.7108
36.1345 23.6362
36.1813 23.4427
36.2283 23.398
36.2752 23.2442
36.3222 23.379
36.3691 23.2363
36.4161 23.1249
36.463 23.1395
36.5101 23.0682
36.557 23.042
36.6041 22.8804
36.651 22.7999
36.6981 22.8241
36.745 22.815
36.7921 22.6451
36.839 22.5326
36.8861 22.4511
36.9331 22.4574
36.9802 22.2941
37.0272 22.2568
37.0743 22.2236
37.1213 22.1475
37.1684 22.0309
37.2154 22.037
37.2626 21.9115
37.3098 21.8772
37.3568 21.8122
37.404 21.7392
37.451 21.554
37.4982 21.5464
37.5452 21.4784
37.5924 21.399
37.6395 21.4453
37.6867 21.3684
37.7337 21.2657
37.781 21.1285
37.8281 21.1071
37.8753 21.0217
37.9224 20.9992
37.9697 20.9268
38.0168 20.8103
38.064 20.6991
38.1111 20.6272
38.1584 20.6346
38.2056 20.549
38.2529 20.4962
38.3 20.4307
38.3473 20.4559
38.3945 20.3291
38.4418 20.2647
38.489 20.1888
38.5363 20.0794
38.5837 20.025
38.6309 20.0096
38.6782 19.9018
38.7254 19.8524
38.7728 19.8235
38.82 19.7735
38.8674 19.6222
38.9146 19.6207
38.9621 19.5532
39.0093 19.5029
39.0567 19.4511
39.104 19.416
39.1514 19.2885
39.1987 19.282
39.2461 19.1933
39.2934 19.1069
39.3409 19.1112
39.3882 18.9189
39.4356 18.9063
39.483 18.8719
39.5304 18.8345
39.5778 18.8107
39.6253 18.753
39.6726 18.6011
39.7201 18.5527
39.7675 18.5888
39.815 18.5114
39.8624 18.4188
39.9099 18.3812
39.9575 18.2824
40.0049 18.2445
40.0525 18.1388
40.0999 18.0929
40.1474 18.134
40.1949 18.0089
40.2425 17.8779
40.2899 17.8756
40.3375 17.8927
40.385 17.7724
40.4326 17.7321
40.48 17.6638
40.5277 17.6222
40.5752 17.4777
40.6228 17.4387
40.6703 17.453
40.718 17.3697
40.7655 17.2871
40.8132 17.2409
40.8607 17.2751
40.9084 17.1925
40.9559 17.1059
41.0036 17.0329
41.0512 17.0173
41.0989 16.9503
41.1465 16.8607
41.1942 16.8102
41.242 16.741
41.2896 16.7316
41.3373 16.6658
41.3849 16.6106
41.4327 16.5558
41.4803 16.4629
41.5281 16.4276
41.5758 16.3927
41.6236 16.3076
41.6712 16.2223
41.7191 16.1749
41.7667 16.1768
41.8146 16.1473
41.8622 16.0227
41.9101 16.0095
41.9578 15.8713
42.0057 15.8738
42.0534 15.8299
42.1013 15.8173
42.149 15.7426
42.1969 15.712
42.2446 15.7042
42.2925 15.5783
42.3403 15.5045
42.3882 15.5096
42.436 15.4077
42.4839 15.329
42.5319 15.3191
42.5797 15.2095
42.6277 15.2571
42.6755 15.1269
42.7235 15.055
42.7713 15.0812
42.8193 15.0083
42.8671 14.9998
42.9152 14.9176
42.963 14.8438
43.0111 14.7979
43.0589 14.7231
43.107 14.7119
43.1549 14.6657
43.2029 14.6145
43.2508 14.5356
43.2989 14.4781
43.3468 14.4745
43.3949 14.4106
43.4429 14.3593
43.491 14.2552
43.5389 14.2481
43.5871 14.1593
43.635 14.1641
43.6832 14.1244
43.7312 14.0263
43.7793 14.0139
43.8273 14.0093
43.8755 13.8724
43.9237 13.8533
43.9717 13.8102
44.0199 13.7274
44.068 13.7651
44.1162 13.6586
44.1642 13.6262
44.2125 13.5982
44.2606 13.5541
44.3088 13.4847
44.3569 13.3865
44.4052 13.3881
44.4533 13.3403
44.5016 13.2716
44.5497 13.2364
44.598 13.1844
44.6461 13.1369
44.6945 13.1407
44.7426 13.0939
44.791 12.9386
44.8391 12.9489
44.8875 12.9199
44.9357 12.8631
44.984 12.838
45.0322 12.7656
45.0806 12.7178
45.1288 12.6795
45.1773 12.6978
45.2257 12.5899
45.2739 12.5764
45.3224 12.5455
45.3706 12.5312
45.4191 12.3771
45.4673 12.3838
45.5158 12.3296
45.5641 12.3013
45.6126 12.2516
45.6609 12.2362
45.7094 12.1545
45.7577 12.1281
45.8063 11.9857
45.8546 12.0655
45.9031 11.9502
45.9515 11.9275
46.0001 11.926
46.0484 11.8819
46.097 11.8432
46.1454 11.7853
46.194 11.7471
46.2424 11.7168
46.291 11.6635
46.3395 11.6381
46.3881 11.5797
46.4365 11.5547
46.4852 11.496
46.5337 11.4489
46.5823 11.4341
46.631 11.3336
46.6795 11.3386
46.7282 11.2881
46.7767 11.2262
46.8254 11.1625
46.8739 11.1423
46.9226 11.125
46.9712 11.0764
47.0199 11.0277
47.0685 10.9756
47.1173 10.9685
47.1658 10.906
47.2146 10.8481
47.2632 10.8308
47.312 10.8099
47.3606 10.7406
47.4095 10.7219
47.4581 10.6472
47.5069 10.5965
47.5556 10.5838
47.6044 10.5422
47.6531 10.5242
47.702 10.4726
47.7507 10.468
47.7996 10.3636
47.8483 10.3493
47.8972 10.3056
47.9461 10.2746
47.9948 10.2349
48.0438 10.1935
48.0925 10.1855
48.1415 10.1445
48.1902 10.1035
48.2392 10.0936
48.288 10.0414
48.337 9.99814
48.3858 9.91458
48.4348 9.92189
48.4837 9.91821
48.5327 9.81868
48.5815 9.8036
48.6306 9.84118
48.6795 9.71091
48.7285 9.70644
48.7774 9.65882
48.8265 9.62718
48.8754 9.59393
48.9245 9.60658
48.9734 9.50891
49.0226 9.54562
49.0715 9.46484
49.1206 9.45522
49.1696 9.37861
49.2188 9.39263
49.2679 9.30636
49.3169 9.24501
49.3661 9.18712
49.4151 9.21786
49.4643 9.17517
49.5134 9.14709
49.5626 9.07924
49.6117 9.07227
49.6609 9.05223
49.71 8.94998
49.7592 8.9301
49.8083 8.95864
49.8576 8.90376
49.9067 8.85836
49.956 8.81876
50.0052 8.77645
50.0545 8.74747
50.1036 8.71072
50.153 8.65888
50.2022 8.65388
50.2515 8.59001
50.3007 8.57718
50.3501 8.53136
50.3993 8.50528
50.4487 8.5203
50.498 8.47772
50.5474 8.40731
50.5966 8.44671
50.6461 8.34996
50.6955 8.30317
50.7448 8.28393
50.7943 8.25953
50.8436 8.19598
50.8931 8.16369
50.9424 8.17378
50.9919 8.11629
51.0413 8.09057
51.0908 8.08279
51.1402 8.041
51.1897 7.98976
51.2391 7.96868
51.2887 7.94811
51.3381 7.90793
51.3877 7.84161
51.4371 7.83044
51.4867 7.80289
51.5362 7.76349
51.5858 7.73078
51.6353 7.68277
51.6849 7.68955
51.7344 7.64177
51.7841 7.61721
51.8336 7.59454
51.8833 7.55407
51.9328 7.48506
51.9826 7.47494
52.0323 7.45546
52.0818 7.40297
52.1316 7.3599
52.1812 7.36446
52.231 7.34039
52.2806 7.30355
52.3304 7.26486
52.38 7.23933
52.4298 7.2078
52.4794 7.17847
52.5293 7.18349
52.5789 7.09573
52.6288 7.13096
52.6785 7.06576
52.7284 7.04046
52.7781 6.99196
52.828 6.97501
52.8777 6.95264
52.9276 6.9214
52.9774 6.87855
53.0273 6.8813
53.0771 6.83245
53.1271 6.82183
53.1769 6.77001
53.2269 6.7484
53.2767 6.69928
53.3267 6.68868
53.3765 6.66695
53.4266 6.59262
53.4766 6.62261
53.5265 6.58105
53.5765 6.53581
53.6264 6.46063
53.6765 6.46705
53.7264 6.43789
53.7765 6.50711
53.8265 6.44182
53.8766 6.35922
53.9266 6.33081
53.9767 6.34381
54.0267 6.30033
54.0769 6.24616
54.1269 6.28008
54.1771 6.1964
54.2271 6.1671
54.2773 6.10166
54.3274 6.13136
54.3776 6.04706
54.4277 6.01331
54.478 5.98894
54.528 5.98421
54.5783 5.93922
54.6285 5.8596
54.6788 5.87475
54.7289 5.83531
54.7792 5.79153
54.8296 5.75222
54.8798 5.68016
54.9301 5.65963
54.9803 5.65989
55.0307 5.56725
55.0809 5.52803
55.1314 5.47933
55.1816 5.48016
55.232 5.4145
55.2823 5.36878
55.3328 5.29766
55.383 5.22688
55.4335 5.18698
55.4838 5.11673
55.5344 5.05885
55.5847 5.08324
55.6352 5.03334
55.6856 5.0268
55.7361 4.98424