File: XRD/Ni3Fe_FD0579.xy
TT I
1.27165 7.83005
1.31627 6.75111
1.36089 6.72035
1.40551 5.68945
1.45013 6.45153
1.49476 6.16676
1.53938 5.81788
1.584 5.14435
1.62863 5.47164
1.67325 4.95517
1.71787 4.58022
1.7625 4.86498
1.80712 5.07195
1.85174 4.7969
1.89636 4.70637
1.94099 5.39183
1.98562 4.72054
2.03025 4.22634
2.07487 4.58002
2.11949 4.98781
2.16411 4.12515
2.20874 9.10758
2.25338 13.4263
2.298 5.59481
2.34263 5.4066
2.38725 6.1164
2.43188 5.63426
2.4765 6.7819
2.52115 6.71244
2.56577 7.47671
2.6104 7.69365
2.65503 7.20428
2.69965 7.23832
2.7443 8.41776
2.78893 7.67862
2.83356 8.08869
2.87818 8.31712
2.92281 8.95856
2.96744 9.484
3.01209 9.99304
3.05672 11.1122
3.10135 12.047
3.14599 13.0016
3.19062 13.7532
3.23527 14.9206
3.2799 15.6153
3.32454 16.7433
3.36917 17.8409
3.4138 18.9181
3.45844 19.8026
3.50309 20.8115
3.54773 21.5574
3.59237 23.5219
3.637 56.898
3.68164 40.7722
3.7263 25.6205
3.77094 25.771
3.81558 26.6853
3.86022 27.2091
3.90486 28.6326
3.9495 29.8781
3.99416 30.9131
4.0388 31.7503
4.08344 33.7064
4.12809 34.5454
4.17273 36.2367
4.21738 39.9455
4.26204 144.198
4.30669 122.876
4.35133 45.3718
4.39598 43.8847
4.44063 50.1026
4.4853 56.7921
4.52995 53.7184
4.5746 54.071
4.61925 53.8802
4.6639 56.038
4.70855 59.4981
4.75322 62.1012
4.79788 66.6894
4.84253 68.3016
4.88719 73.8289
4.93184 76.669
4.97652 82.6065
5.02118 88.7726
5.06583 97.1165
5.11049 109.584
5.15515 162.931
5.19981 469.836
5.24449 3217.37
5.28916 12258.8
5.33382 2784.59
5.37848 198.571
5.42315 132.154
5.46783 117.739
5.5125 110.079
5.55716 103.595
5.60183 99.5155
5.6465 97.6676
5.69117 95.7647
5.73586 93.7113
5.78053 96.0742
5.8252 95.6955
5.86988 97.5523
5.91455 97.0001
5.95924 108.91
6.00392 270.022
6.0486 1109.52
6.09328 4440.08
6.13795 3329.7
6.18263 242.992
6.22733 93.3995
6.27201 82.2161
6.3167 88.6013
6.36138 76.3715
6.40606 69.9446
6.45075 68.6459
6.49545 65.5604
6.54014 64.1933
6.58483 63.4207
6.62952 62.8537
6.67421 77.7386
6.71892 101.644
6.76361 63.9371
6.8083 59.3121
6.853 58.4548
6.89769 56.83
6.94239 56.7436
6.98711 56.1065
7.03181 56.1583
7.07651 55.3715
7.12121 55.0041
7.16591 55.743
7.21063 55.4526
7.25533 62.8754
7.30004 116.565
7.34475 72.8713
7.38945 55.9813
7.43416 54.3276
7.47889 54.1712
7.5236 54.7333
7.56831 55.3216
7.61303 56.2364
7.65774 56.3642
7.70247 56.439
7.74719 56.4726
7.79191 56.8327
7.83663 57.0888
7.88135 58.2133
7.92607 58.7709
7.97081 59.9179
8.01553 61.2395
8.06026 62.7198
8.10498 64.6466
8.14971 71.1049
8.19446 70.828
8.23919 70.0966
8.28392 72.6385
8.32865 74.8407
8.37339 79.6799
8.41812 85.4176
8.46288 107.654
8.50761 195.431
8.55235 438.445
8.59709 1237.6
8.64183 2206.04
8.68658 925.796
8.73134 159.191
8.77609 99.648
8.82083 94.0723
8.86558 91.705
8.91033 90.9624
8.9551 89.6517
8.99985 85.9213
9.04461 84.4384
9.08936 84.0654
9.13412 83.3145
9.17888 82.9346
9.22365 83.4469
9.26841 82.756
9.31318 84.0873
9.35794 85.1194
9.4027 85.1453
9.44749 85.583
9.49226 85.4091
9.53703 86.4463
9.5818 88.9802
9.62657 92.8678
9.67134 96.0824
9.71614 93.8039
9.76091 95.1913
9.80569 99.2903
9.85047 101.663
9.89525 115.944
9.94005 132.509
9.98484 209.508
10.0296 382.024
10.0744 864.408
10.1192 1713.04
10.164 1516.62
10.2088 368.657
10.2536 125.208
10.2984 111.229
10.3432 110.472
10.388 106.53
10.4328 127.47
10.4776 171.659
10.5224 299.853
10.5672 521.924
10.612 493.791
10.6568 191.275
10.7017 95.6438
10.7465 87.0099
10.7913 83.7109
10.8361 81.7709
10.8809 79.3492
10.9257 78.493
10.9706 78.4441
11.0154 75.2272
11.0602 73.2689
11.105 71.994
11.1499 73.4224
11.1947 76.5374
11.2395 71.4913
11.2844 69.2086
11.3292 67.4022
11.374 66.3358
11.4189 65.9071
11.4637 65.0588
11.5086 65.3307
11.5534 65.9607
11.5983 65.0366
11.6431 64.2525
11.688 63.4979
11.7328 63.3543
11.7777 63.1105
11.8225 63.1623
11.8674 62.9044
11.9122 63.2697
11.9571 63.6376
12.002 64.9645
12.0468 70.7876
12.0917 81.8664
12.1366 106.854
12.1814 156.145
12.2263 201.552
12.2712 160.934
12.3161 89.1638
12.3609 67.9376
12.4058 64.8746
12.4507 64.7154
12.4956 65.1068
12.5405 65.1169
12.5853 65.4028
12.6302 69.4075
12.6751 72.5417
12.72 68.9607
12.7649 68.3476
12.8098 68.9218
12.8547 70.2257
12.8996 71.9105
12.9445 73.286
12.9894 75.1075
13.0343 76.8551
13.0792 81.2012
13.1242 95.1934
13.1691 118.011
13.214 158.533
13.2589 253.027
13.3038 374.845
13.3487 421.436
13.3937 249.124
13.4386 121.973
13.4835 110.856
13.5285 126.406
13.5734 168.539
13.6183 256.327
13.6633 350.708
13.7082 330.931
13.7531 181.637
13.7981 96.85
13.843 82.3777
13.888 80.1801
13.9329 77.5547
13.9779 76.4723
14.0228 74.9765
14.0678 73.5395
14.1127 73.2426
14.1577 72.6604
14.2027 72.0113
14.2476 71.1295
14.2926 70.582
14.3376 70.8902
14.3825 70.4374
14.4275 69.2758
14.4725 69.3706
14.5175 69.3271
14.5624 69.6171
14.6074 70.8006
14.6524 71.2913
14.6974 71.2757
14.7424 74.9565
14.7874 81.7428
14.8324 92.9769
14.8774 116.295
14.9224 158.655
14.9674 210.4
15.0124 216.402
15.0574 143.724
15.1024 88.7475
15.1474 72.509
15.1924 70.7568
15.2374 70.5071
15.2824 69.5649
15.3274 68.208
15.3725 67.2505
15.4175 66.6874
15.4625 66.3001
15.5076 66.3005
15.5526 66.7088
15.5976 66.7772
15.6426 69.3138
15.6877 75.0456
15.7327 82.8796
15.7778 99.3595
15.8228 131.393
15.8679 173.116
15.9129 193.561
15.958 150.151
16.003 93.1943
16.0481 67.1083
16.0931 63.855
16.1382 62.0678
16.1833 60.5492
16.2283 59.2676
16.2734 58.6923
16.3185 58.5309
16.3636 58.3605
16.4086 57.2649
16.4537 56.6587
16.4988 55.9405
16.5439 55.8105
16.589 55.5488
16.6341 55.2181
16.6792 55.0892
16.7243 55.2255
16.7694 55.1081
16.8145 55.0384
16.8596 55.2508
16.9047 56.3625
16.9498 56.5548
16.9949 55.9197
17.04 56.558
17.0851 58.0781
17.1302 59.6531
17.1754 62.7362
17.2205 68.0384
17.2656 75.519
17.3108 82.6119
17.3559 81.6694
17.401 71.0938
17.4462 62.04
17.4913 59.7747
17.5365 59.5731
17.5815 59.8194
17.6268 60.3186
17.6718 60.7967
17.7171 61.2077
17.7622 61.9841
17.8074 63.28
17.8525 66.4431
17.8977 69.7818
17.9428 75.7782
17.9881 85.4224
18.0331 102.986
18.0784 123.789
18.1237 141.89
18.1688 132.187
18.214 102.685
18.2591 87.524
18.3044 92.2383
18.3495 101.437
18.3948 106.257
18.4399 95.6428
18.4852 76.7244
18.5303 66.0362
18.5756 62.5798
18.6207 61.7183
18.666 60.7535
18.7112 60.2831
18.7565 59.4273
18.8016 59.1016
18.8469 58.6198
18.892 58.1728
18.9374 57.6718
18.9825 57.2633
19.0278 57.0923
19.073 57.6009
19.1183 58.0002
19.1635 58.527
19.2088 60.0671
19.254 62.9414
19.2993 67.6336
19.3447 72.9215
19.3898 75.9399
19.4352 72.1813
19.4804 62.7973
19.5257 56.7685
19.5709 54.6877
19.6163 54.1755
19.6615 54.0704
19.7068 53.7162
19.752 53.8248
19.7974 54.1997
19.8426 54.9576
19.888 55.5806
19.9332 56.9455
19.9786 59.9125
20.0238 63.4957
20.0692 68.2094
20.1144 70.1349
20.1598 68.2226
20.205 63.7709
20.2504 62.4986
20.2957 64.2724
20.3411 65.9082
20.3863 64.2316
20.4318 58.0052
20.477 53.6425
20.5224 51.6402
20.5677 51.1749
20.6131 50.5437
20.6586 50.0006
20.7038 49.8974
20.7493 49.5638
20.7945 49.5284
20.84 49.2237
20.8853 49.1965
20.9307 49.0267
20.976 49.1018
21.0215 49.0237
21.0668 49.634
21.1122 49.9383
21.1575 50.594
21.203 51.2237
21.2483 51.8058
21.2938 51.8179
21.3391 50.3277
21.3846 49.0001
21.4299 48.6885
21.4754 48.6595
21.5207 48.9345
21.5662 49.3707
21.6116 49.8827
21.6571 50.4435
21.7024 51.5621
21.7479 53.4869
21.7933 56.3274
21.8388 59.8056
21.8843 63.1782
21.9297 65.0132
21.9752 63.6041
22.0206 59.6342
22.0661 56.8473
22.1115 56.5169
22.157 56.2006
22.2024 54.3396
22.248 51.6962
22.2933 50.0291
22.3389 49.2524
22.3843 49.3278
22.4299 49.0419
22.4753 49.0454
22.5208 48.8796
22.5662 48.8497
22.6118 49.0254
22.6572 49.2939
22.7028 49.8518
22.7483 50.1943
22.7939 51.0567
22.8393 52.6189
22.8849 54.7264
22.9303 56.6948
22.9759 58.2809
23.0214 57.4797
23.067 54.4191
23.1126 51.1571
23.1581 49.5216
23.2037 49.2751
23.2492 49.4258
23.2948 49.2068
23.3403 49.5774
23.3859 50.1264
23.4314 51.5971
23.477 53.1792
23.5225 55.3925
23.5682 57.3251
23.6137 58.1557
23.6593 55.6533
23.7048 51.5037
23.7505 48.318
23.796 46.8637
23.8417 46.2422
23.8872 45.7796
23.9329 45.4767
23.9784 45.2998
24.0241 44.7139
24.0697 44.7638
24.1154 44.4847
24.1609 44.0365
24.2066 44.0837
24.2522 43.9401
24.2979 43.7336
24.3434 43.6394
24.3892 43.5172
24.4349 43.4162
24.4805 43.1147
24.5262 43.4515
24.5718 43.2489
24.6175 43.1728
24.6631 43.1857
24.7089 42.7217
24.7545 42.741
24.8002 42.5281
24.8458 42.6669
24.8916 42.4392
24.9372 42.6583
24.983 42.8771
25.0286 43.247
25.0744 43.6436
25.12 44.1355
25.1658 44.7461
25.2114 45.2011
25.2572 45.0652
25.3029 45.2102
25.3487 45.1903
25.3943 44.929
25.4402 43.7272
25.4858 42.5148
25.5316 41.7306
25.5773 41.2824
25.6231 41.2074
25.669 40.8504
25.7147 40.8653
25.7605 40.7522
25.8062 40.8717
25.8521 40.9748
25.8977 40.8484
25.9436 41.2379
25.9893 41.1748
26.0352 41.8467
26.0809 41.9791
26.1268 41.9662
26.1725 41.5362
26.2184 41.1175
26.2641 40.5436
26.31 40.3704
26.3557 40.5891
26.4017 40.5132
26.4474 40.7372
26.4933 41.0623
26.5391 41.5374
26.585 42.012
26.6308 42.3676
26.6767 42.4515
26.7225 42.125
26.7684 41.6287
26.8142 41.0847
26.8601 40.7376
26.9059 40.3627
26.9519 39.7303
26.9979 39.4637
27.0437 39.1164
27.0896 38.969
27.1354 39.0921
27.1814 39.0074
27.2272 38.739
27.2732 38.8206
27.3191 38.6762
27.3651 38.7999
27.4109 38.7461
27.4569 38.7173
27.5027 38.8161
27.5488 38.7775
27.5946 38.5486
27.6407 38.5156
27.6865 38.3788
27.7326 38.1677
27.7784 38.1497
27.8245 38.1569
27.8703 38.3557
27.9164 38.5216
27.9623 38.842
28.0084 39.0985
28.0543 39.3849
28.1003 39.383
28.1462 39.0325
28.1923 38.7533
28.2384 38.2269
28.2843 37.8086
28.3304 37.3495
28.3764 36.9149
28.4225 36.6594
28.4684 36.5309
28.5145 36.2491
28.5605 36.1244
28.6066 35.8317
28.6526 35.8797
28.6987 35.9261
28.7447 35.7952
28.7908 35.645
28.8368 35.7018
28.8829 35.6113
28.9289 35.4484
28.9751 35.4332
29.0211 35.1599
29.0673 34.8586
29.1133 34.857
29.1595 34.6664
29.2055 34.585
29.2517 34.6826
29.2977 34.515
29.3439 34.4891
29.3899 34.4799
29.4361 34.4764
29.4824 34.2009
29.5284 33.9089
29.5746 33.4954
29.6207 33.3647
29.6669 33.2934
29.713 33.2648
29.7593 33.0732
29.8053 33.185
29.8516 33.0098
29.8977 33.1059
29.9439 32.8213
29.99 32.9058
30.0363 32.5947
30.0824 32.6869
30.1287 32.5658
30.1748 32.7072
30.2211 32.6931
30.2673 32.4939
30.3136 32.5487
30.3597 32.4003
30.406 32.433
30.4522 32.3439
30.4985 32.2688
30.5447 32.4001
30.591 32.3376
30.6372 32.5274
30.6835 32.35
30.7297 32.5566
30.7761 32.3925
30.8224 32.1352
30.8686 32.0341
30.915 31.8574
30.9612 31.8264
31.0076 31.5398
31.0538 31.3773
31.1002 31.2692
31.1464 31.1601
31.1928 31.0982
31.2391 31.0993
31.2855 31.0875
31.3317 31.1026
31.3781 31.1911
31.4244 31.1575
31.4708 31.0805
31.5171 30.9454
31.5636 30.9902
31.6098 30.7071
31.6563 30.4893
31.7026 30.4831
31.7491 30.2601
31.7953 30.4506
31.8418 30.389
31.8881 30.3456
31.9346 30.2862
31.9809 30.3038
32.0275 30.1365
32.074 29.9973
32.1203 29.8853
32.1668 29.7606
32.2132 29.6853
32.2597 29.5148
32.306 29.4434
32.3526 29.1914
32.399 29.1204
32.4455 28.9493
32.4919 28.8664
32.5385 28.8059
32.5848 28.6421
32.6314 28.7299
32.6778 28.7177
32.7244 28.4477
32.7708 28.4222
32.8174 28.3227
32.8638 28.1932
32.9104 28.3485
32.9569 28.1711
33.0035 28.02
33.0499 28.0145
33.0966 27.9678
33.143 27.9831
33.1897 27.8937
33.2361 27.8261
33.2828 27.8159
33.3293 27.5798
33.3759 27.5941
33.4226 27.4383
33.4691 27.2881
33.5158 27.1691
33.5623 27.0839
33.609 26.9912
33.6555 26.7437
33.7022 26.756
33.7487 26.668
33.7954 26.7063
33.842 26.5567
33.8887 26.4252
33.9353 26.4421
33.982 26.3746
34.0286 26.1767
34.0753 26.1864
34.1219 26.0058
34.1687 26.013
34.2152 25.9772
34.262 25.8757
34.3086 25.7275
34.3554 25.7616
34.402 25.5941
34.4488 25.4261
34.4954 25.3825
34.5422 25.2921
34.5889 25.1688
34.6357 25.1038
34.6825 25.0403
34.7292 25.0222
34.776 24.8651
34.8227 24.8266
34.8695 24.916
34.9162 24.7255
34.9631 24.6578
35.0098 24.7279
35.0566 24.5434
35.1033 24.4463
35.1502 24.4913
35.1969 24.3
35.2438 24.3347
35.2906 24.2877
35.3375 24.2717
35.3842 24.2203
35.4311 24.1571
35.4779 24.121
35.5248 24.0598
35.5716 23.9335
35.6185 23.8033
35.6653 23.7081
35.7123 23.5981
35.759 23.6155
35.806 23.5505
35.8528 23.3879
35.8998 23.328
35.9468 23.2469
35.9936 23.2853
36.0406 23.1471
36.0874 23.1326
36.1345 23.0345
36.1813 22.9374
36.2283 22.8608
36.2752 22.7586
36.3222 22.7956
36.3691 22.7516
36.4161 22.5438
36.463 22.6104
36.5101 22.5505
36.557 22.4685
36.6041 22.4107
36.651 22.2701
36.6981 22.2979
36.745 22.2451
36.7921 22.0889
36.839 21.9876
36.8861 21.9016
36.9331 21.9298
36.9802 21.7694
37.0272 21.7673
37.0743 21.6941
37.1213 21.6301
37.1684 21.5888
37.2154 21.4509
37.2626 21.3436
37.3098 21.3204
37.3568 21.349
37.404 21.2129
37.451 21.0991
37.4982 21.152
37.5452 20.9708
37.5924 20.9032
37.6395 20.8797
37.6867 20.7875
37.7337 20.8122
37.781 20.6675
37.8281 20.6028
37.8753 20.5441
37.9224 20.4566
37.9697 20.4236
38.0168 20.324
38.064 20.2907
38.1111 20.2864
38.1584 20.1994
38.2056 20.1405
38.2529 19.9386
38.3 19.956
38.3473 19.8804
38.3945 19.8145
38.4418 19.7903
38.489 19.7405
38.5363 19.6635
38.5837 19.5535
38.6309 19.5152
38.6782 19.3984
38.7254 19.4307
38.7728 19.2877
38.82 19.2416
38.8674 19.2819
38.9146 19.1737
38.9621 19.1001
39.0093 19.101
39.0567 18.9792
39.104 18.8793
39.1514 18.8217
39.1987 18.7848
39.2461 18.739
39.2934 18.6984
39.3409 18.5927
39.3882 18.526
39.4356 18.4523
39.483 18.4352
39.5304 18.3407
39.5778 18.3062
39.6253 18.2554
39.6726 18.2267
39.7201 18.1656
39.7675 18.1142
39.815 18.0651
39.8624 17.9512
39.9099 17.9702
39.9575 17.8617
40.0049 17.7954
40.0525 17.7874
40.0999 17.7236
40.1474 17.6603
40.1949 17.545
40.2425 17.526
40.2899 17.4574
40.3375 17.399
40.385 17.4009
40.4326 17.3097
40.48 17.1861
40.5277 17.2376
40.5752 17.1042
40.6228 17.0869
40.6703 17.0206
40.718 16.9832
40.7655 16.9647
40.8132 16.8419
40.8607 16.8618
40.9084 16.7713
40.9559 16.6811
41.0036 16.6657
41.0512 16.5917
41.0989 16.5494
41.1465 16.5166
41.1942 16.4535
41.242 16.4018
41.2896 16.3275
41.3373 16.2558
41.3849 16.1971
41.4327 16.172
41.4803 16.043
41.5281 16.0419
41.5758 15.9953
41.6236 15.9261
41.6712 15.8787
41.7191 15.8217
41.7667 15.7616
41.8146 15.7978
41.8622 15.6546
41.9101 15.6419
41.9578 15.5299
42.0057 15.5556
42.0534 15.4385
42.1013 15.4048
42.149 15.3661
42.1969 15.3591
42.2446 15.2742
42.2925 15.2159
42.3403 15.1127
42.3882 15.1424
42.436 15.0705
42.4839 14.9628
42.5319 14.9553
42.5797 14.8793
42.6277 14.8983
42.6755 14.8273
42.7235 14.7161
42.7713 14.7419
42.8193 14.6299
42.8671 14.5676
42.9152 14.6049
42.963 14.4849
43.0111 14.4801
43.0589 14.3728
43.107 14.3438
43.1549 14.3201
43.2029 14.3254
43.2508 14.2062
43.2989 14.2154
43.3468 14.0899
43.3949 14.1073
43.4429 14.0091
43.491 13.977
43.5389 13.9125
43.5871 13.9293
43.635 13.8144
43.6832 13.7962
43.7312 13.6931
43.7793 13.6405
43.8273 13.6264
43.8755 13.506
43.9237 13.5611
43.9717 13.5097
44.0199 13.4526
44.068 13.4206
44.1162 13.3505
44.1642 13.3595
44.2125 13.2793
44.2606 13.214
44.3088 13.2016
44.3569 13.1129
44.4052 13.1064
44.4533 13.0184
44.5016 12.9866
44.5497 12.9339
44.598 12.9406
44.6461 12.8165
44.6945 12.7892
44.7426 12.7403
44.791 12.6687
44.8391 12.7055
44.8875 12.6644
44.9357 12.5892
44.984 12.5346
45.0322 12.4707
45.0806 12.443
45.1288 12.3672
45.1773 12.3418
45.2257 12.2809
45.2739 12.2623
45.3224 12.2161
45.3706 12.203
45.4191 12.1615
45.4673 12.0622
45.5158 12.0346
45.5641 12.023
45.6126 11.9747
45.6609 11.9159
45.7094 11.8733
45.7577 11.8189
45.8063 11.7836
45.8546 11.7239
45.9031 11.7132
45.9515 11.6456
46.0001 11.6308
46.0484 11.6216
46.097 11.5823
46.1454 11.5012
46.194 11.4734
46.2424 11.4187
46.291 11.3967
46.3395 11.3631
46.3881 11.2463
46.4365 11.2801
46.4852 11.2109
46.5337 11.19
46.5823 11.1693
46.631 11.0873
46.6795 11.0208
46.7282 11.0157
46.7767 11.0062
46.8254 10.9158
46.8739 10.9034
46.9226 10.8311
46.9712 10.7891
47.0199 10.7695
47.0685 10.7174
47.1173 10.6856
47.1658 10.6759
47.2146 10.6378
47.2632 10.6003
47.312 10.5448
47.3606 10.5007
47.4095 10.4279
47.4581 10.4566
47.5069 10.395
47.5556 10.3058
47.6044 10.283
47.6531 10.2209
47.702 10.1901
47.7507 10.227
47.7996 10.149
47.8483 10.1425
47.8972 10.0658
47.9461 10.0611
47.9948 9.98612
48.0438 9.93965
48.0925 9.90857
48.1415 9.89215
48.1902 9.8341
48.2392 9.84571
48.288 9.81415
48.337 9.71118
48.3858 9.71151
48.4348 9.69741
48.4837 9.66861
48.5327 9.64217
48.5815 9.58161
48.6306 9.57393
48.6795 9.53999
48.7285 9.46372
48.7774 9.44784
48.8265 9.40139
48.8754 9.34177
48.9245 9.34099
48.9734 9.33062
49.0226 9.24614
49.0715 9.26393
49.1206 9.20758
49.1696 9.1794
49.2188 9.11859
49.2679 9.12697
49.3169 9.05507
49.3661 8.99213
49.4151 8.97678
49.4643 8.96104
49.5134 8.94013
49.5626 8.86181
49.6117 8.83126
49.6609 8.80045
49.71 8.77657
49.7592 8.71368
49.8083 8.70819
49.8576 8.67394
49.9067 8.65277
49.956 8.65182
50.0052 8.56309
50.0545 8.52142
50.1036 8.53172
50.153 8.46271
50.2022 8.46103
50.2515 8.39286
50.3007 8.3486
50.3501 8.31522
50.3993 8.31784
50.4487 8.27289
50.498 8.26392
50.5474 8.22211
50.5966 8.19937
50.6461 8.14334
50.6955 8.14156
50.7448 8.10731
50.7943 8.06054
50.8436 8.04865
50.8931 8.0485
50.9424 7.98477
50.9919 7.93699
51.0413 7.92738
51.0908 7.87596
51.1402 7.87922
51.1897 7.82324
51.2391 7.76076
51.2887 7.77594
51.3381 7.71055
51.3877 7.70514
51.4371 7.65586
51.4867 7.62229
51.5362 7.59238
51.5858 7.60578
51.6353 7.52856
51.6849 7.49172
51.7344 7.47276
51.7841 7.45132
51.8336 7.39507
51.8833 7.36907
51.9328 7.34056
51.9826 7.27254
52.0323 7.27264
52.0818 7.25119
52.1316 7.21069
52.1812 7.17858
52.231 7.1562
52.2806 7.14878
52.3304 7.13455
52.38 7.04747
52.4298 7.07349
52.4794 7.00087
52.5293 6.97837
52.5789 6.95448
52.6288 6.96084
52.6785 6.89714
52.7284 6.88389
52.7781 6.83734
52.828 6.84286
52.8777 6.76065
52.9276 6.73366
52.9774 6.75018
53.0273 6.66234
53.0771 6.66196
53.1271 6.63251
53.1769 6.62929
53.2269 6.57903
53.2767 6.5659
53.3267 6.57344
53.3765 6.50675
53.4266 6.51221
53.4766 6.47018
53.5265 6.44151
53.5765 6.37336
53.6264 6.36595
53.6765 6.34546
53.7264 6.30223
53.7765 6.29114
53.8265 6.21472
53.8766 6.20456
53.9266 6.23364
53.9767 6.17265
54.0267 6.13036
54.0769 6.09248
54.1269 6.07127
54.1771 6.08063
54.2271 6.04362
54.2773 5.99331
54.3274 5.948
54.3776 5.94907
54.4277 5.88884
54.478 5.84383
54.528 5.82632
54.5783 5.83708
54.6285 5.75845
54.6788 5.71837
54.7289 5.65682
54.7792 5.67345
54.8296 5.59207
54.8798 5.58732
54.9301 5.49668
54.9803 5.47989
55.0307 5.43675
55.0809 5.39887
55.1314 5.39118
55.1816 5.34256
55.232 5.23675
55.2823 5.25115
55.3328 5.1565
55.383 5.17658
55.4335 5.06716
55.4838 5.09983
55.5344 5.04284
55.5847 4.98729
55.6352 4.93425
55.6856 4.8721
55.7361 4.8435