File: XRD/Ni3Fe_FD0016.xy
TT I
1.27165 36.0254
1.31627 35.8352
1.36089 34.2202
1.40551 32.9389
1.45013 31.825
1.49476 30.8746
1.53938 29.9687
1.584 27.7773
1.62863 27.8154
1.67325 26.7498
1.71787 26.8412
1.7625 26.2573
1.80712 25.9159
1.85174 25.2894
1.89636 24.6273
1.94099 24.8476
1.98562 25.1326
2.03025 25.2463
2.07487 25.1142
2.11949 25.7228
2.16411 25.8007
2.20874 26.0967
2.25338 26.5139
2.298 26.4147
2.34263 26.4608
2.38725 26.8221
2.43188 25.696
2.4765 26.4744
2.52115 25.7286
2.56577 26.6872
2.6104 27.0442
2.65503 28.9921
2.69965 30.0493
2.7443 31.0255
2.78893 33.3922
2.83356 36.1981
2.87818 39.8873
2.92281 44.3727
2.96744 49.0708
3.01209 57.6026
3.05672 66.7904
3.10135 76.5609
3.14599 83.3013
3.19062 84.4391
3.23527 79.2475
3.2799 68.8573
3.32454 57.4448
3.36917 50.0587
3.4138 43.9217
3.45844 40.8445
3.50309 39.3542
3.54773 38.1511
3.59237 39.0249
3.637 39.8724
3.68164 41.0225
3.7263 41.6031
3.77094 40.782
3.81558 40.6928
3.86022 40.3403
3.90486 41.1153
3.9495 42.1238
3.99416 43.6746
4.0388 46.3957
4.08344 49.6439
4.12809 53.3879
4.17273 59.6987
4.21738 66.8154
4.26204 73.792
4.30669 78.9786
4.35133 79.4584
4.39598 74.8526
4.44063 69.9805
4.4853 65.7295
4.52995 61.3127
4.5746 57.172
4.61925 53.9956
4.6639 51.8555
4.70855 52.0087
4.75322 52.6441
4.79788 54.0449
4.84253 57.7357
4.88719 61.4473
4.93184 67.4037
4.97652 75.2574
5.02118 89.2446
5.06583 112.482
5.11049 134.824
5.15515 173.527
5.19981 258.224
5.24449 513.347
5.28916 1065.4
5.33382 2857.81
5.37848 3975.87
5.42315 1350.43
5.46783 399.864
5.5125 223.226
5.55716 160.166
5.60183 127.692
5.6465 112.67
5.69117 106.021
5.73586 99.8399
5.78053 95.96
5.8252 95.758
5.86988 99.7647
5.91455 108.986
5.95924 125.702
6.00392 164.071
6.0486 252.456
6.09328 425.466
6.13795 741.613
6.18263 1282.32
6.22733 844.637
6.27201 342.533
6.3167 176.133
6.36138 112.718
6.40606 86.0649
6.45075 73.5403
6.49545 65.23
6.54014 60.072
6.58483 56.6525
6.62952 55.4828
6.67421 54.2234
6.71892 53.7615
6.76361 53.5078
6.8083 52.3495
6.853 51.2429
6.89769 49.9843
6.94239 48.5838
6.98711 47.4224
7.03181 47.0937
7.07651 47.7886
7.12121 48.284
7.16591 50.6178
7.21063 52.7261
7.25533 55.74
7.30004 62.5528
7.34475 69.0479
7.38945 69.8145
7.43416 65.3856
7.47889 61.0535
7.5236 62.3524
7.56831 95.4023
7.61303 164.369
7.65774 90.001
7.70247 49.877
7.74719 43.0269
7.79191 40.5572
7.83663 39.5269
7.88135 39.1916
7.92607 38.691
7.97081 39.1163
8.01553 39.4241
8.06026 39.9747
8.10498 40.5342
8.14971 41.8712
8.19446 42.9053
8.23919 44.9239
8.28392 46.1793
8.32865 47.9919
8.37339 51.3215
8.41812 55.7756
8.46288 62.8802
8.50761 73.8451
8.55235 96.4048
8.59709 148.152
8.64183 204.553
8.68658 335.685
8.73134 684.817
8.77609 720.011
8.82083 327.658
8.86558 150.701
8.91033 99.9204
8.9551 79.471
8.99985 70.5541
9.04461 64.5242
9.08936 61.1152
9.13412 58.9909
9.17888 59.8277
9.22365 66.3088
9.26841 112.665
9.31318 249.585
9.35794 179.858
9.4027 74.9077
9.44749 56.6471
9.49226 52.5866
9.53703 50.9396
9.5818 50.7348
9.62657 50.3434
9.67134 51.237
9.71614 52.4445
9.76091 53.4924
9.80569 55.2426
9.85047 57.2847
9.89525 61.3538
9.94005 66.1046
9.98484 74.4976
10.0296 92.0173
10.0744 128.389
10.1192 173.544
10.164 223.182
10.2088 421.157
10.2536 784.696
10.2984 656.55
10.3432 295.188
10.388 143.314
10.4328 98.8081
10.4776 83.8158
10.5224 83.5268
10.5672 89.7998
10.612 96.139
10.6568 136.245
10.7017 250.763
10.7465 290.598
10.7913 171.261
10.8361 82.4274
10.8809 56.7853
10.9257 48.9906
10.9706 45.717
11.0154 44.1366
11.0602 42.7491
11.105 42.3485
11.1499 41.2376
11.1947 41.0356
11.2395 40.5558
11.2844 40.6355
11.3292 40.1188
11.374 39.6989
11.4189 39.2106
11.4637 38.5753
11.5086 37.8668
11.5534 37.3656
11.5983 37.5695
11.6431 37.5699
11.688 37.2493
11.7328 37.0384
11.7777 36.8556
11.8225 37.1679
11.8674 37.863
11.9122 39.6306
11.9571 44.5691
12.002 68.8277
12.0468 94.9024
12.0917 68.9409
12.1366 47.9021
12.1814 46.4831
12.2263 48.0967
12.2712 53.0513
12.3161 66.3597
12.3609 90.202
12.4058 96.0928
12.4507 71.4526
12.4956 53.48
12.5405 45.5557
12.5853 42.24
12.6302 40.3838
12.6751 39.6716
12.72 39.7596
12.7649 40.04
12.8098 39.905
12.8547 39.661
12.8996 39.6262
12.9445 39.6159
12.9894 40.1113
13.0343 40.3026
13.0792 41.858
13.1242 45.0137
13.1691 54.9048
13.214 61.8723
13.2589 62.1967
13.3038 66.8309
13.3487 71.7712
13.3937 87.2099
13.4386 130.894
13.4835 209.351
13.5285 217.778
13.5734 143.676
13.6183 97.5632
13.6633 83.1802
13.7082 79.6458
13.7531 92.456
13.7981 140.541
13.843 211.574
13.888 186.257
13.9329 105.263
13.9779 66.4678
14.0228 52.5567
14.0678 46.6253
14.1127 44.7228
14.1577 46.2909
14.2027 61.3254
14.2476 86.5552
14.2926 77.1211
14.3376 50.132
14.3825 40.7592
14.4275 38.3337
14.4725 37.5226
14.5175 37.3039
14.5624 36.5719
14.6074 36.5481
14.6524 36.8316
14.6974 36.9068
14.7424 37.5205
14.7874 37.8491
14.8324 39.3609
14.8774 41.5936
14.9224 45.6018
14.9674 48.3601
15.0124 50.6351
15.0574 57.0942
15.1024 73.9554
15.1474 110.02
15.1924 132.938
15.2374 104.571
15.2824 69.4365
15.3274 51.4302
15.3725 44.2155
15.4175 40.888
15.4625 39.3948
15.5076 38.4715
15.5526 37.8005
15.5976 37.5207
15.6426 37.6
15.6877 37.5939
15.7327 38.4232
15.7778 39.938
15.8228 43.1831
15.8679 46.3987
15.9129 47.5474
15.958 51.6649
16.003 62.2205
16.0481 87.9813
16.0931 123.906
16.1382 129.164
16.1833 97.8541
16.2283 65.0487
16.2734 47.0509
16.3185 40.386
16.3636 36.8905
16.4086 34.8969
16.4537 33.9619
16.4988 33.2369
16.5439 32.8099
16.589 32.3651
16.6341 31.8123
16.6792 31.1774
16.7243 31.5236
16.7694 31.0832
16.8145 31.1022
16.8596 31.236
16.9047 31.3689
16.9498 32.2288
16.9949 34.7271
17.04 38.9089
17.0851 39.1454
17.1302 35.0024
17.1754 32.7782
17.2205 32.8384
17.2656 33.3414
17.3108 33.8654
17.3559 34.035
17.401 35.3199
17.4462 38.3212
17.4913 44.4932
17.5365 51.9209
17.5815 50.4128
17.6268 42.4546
17.6718 37.0159
17.7171 34.9298
17.7622 34.6605
17.8074 35.3946
17.8525 38.7354
17.8977 42.0802
17.9428 40.5593
17.9881 38.4064
18.0331 39.7647
18.0784 41.3943
18.1237 42.482
18.1688 43.8594
18.214 48.6417
18.2591 59.7319
18.3044 83.0666
18.3495 105.0
18.3948 97.3935
18.4399 72.1732
18.4852 58.1212
18.5303 58.0607
18.5756 67.4287
18.6207 77.6523
18.666 71.0719
18.7112 56.4396
18.7565 44.6488
18.8016 38.7181
18.8469 36.1432
18.892 34.8442
18.9374 33.8711
18.9825 33.3493
19.0278 32.935
19.073 32.7188
19.1183 32.5122
19.1635 32.4667
19.2088 32.7894
19.254 33.4619
19.2993 34.2444
19.3447 35.2461
19.3898 38.3115
19.4352 44.5381
19.4804 48.5073
19.5257 46.2509
19.5709 45.8285
19.6163 49.5779
19.6615 49.0509
19.7068 42.4042
19.752 36.9089
19.7974 33.8797
19.8426 32.5105
19.888 31.6338
19.9332 31.3414
19.9786 31.4821
20.0238 31.6723
20.0692 32.0497
20.1144 31.9377
20.1598 32.6621
20.205 33.6595
20.2504 36.1526
20.2957 40.614
20.3411 46.1075
20.3863 47.7979
20.4318 43.2359
20.477 39.4518
20.5224 39.98
20.5677 43.9333
20.6131 45.4733
20.6586 41.2457
20.7038 35.5196
20.7493 32.2825
20.7945 31.1165
20.84 31.2869
20.8853 32.9563
20.9307 33.8971
20.976 32.3992
21.0215 29.5901
21.0668 28.7125
21.1122 28.3322
21.1575 28.2052
21.203 28.124
21.2483 28.0985
21.2938 28.1234
21.3391 28.1837
21.3846 28.3958
21.4299 29.0778
21.4754 30.7227
21.5207 32.3354
21.5662 32.5383
21.6116 31.3344
21.6571 29.9693
21.7024 29.1814
21.7479 29.1205
21.7933 29.5051
21.8388 30.0777
21.8843 30.3738
21.9297 30.7464
21.9752 31.4865
22.0206 32.9192
22.0661 35.0669
22.1115 38.9942
22.157 45.302
22.2024 50.334
22.248 49.0733
22.2933 44.8337
22.3389 41.6281
22.3843 40.2635
22.4299 39.5066
22.4753 37.1482
22.5208 33.6406
22.5662 31.4124
22.6118 30.4532
22.6572 29.706
22.7028 29.5274
22.7483 29.4719
22.7939 29.3394
22.8393 30.0155
22.8849 30.785
22.9303 31.7454
22.9759 31.9148
23.0214 31.0177
23.067 30.8524
23.1126 31.6779
23.1581 33.5464
23.2037 37.5086
23.2492 42.2271
23.2948 43.6581
23.3403 39.8232
23.3859 35.2499
23.4314 32.748
23.477 32.2904
23.5225 33.3792
23.5682 34.5623
23.6137 34.2946
23.6593 32.904
23.7048 32.3839
23.7505 33.4146
23.796 35.9572
23.8417 40.9412
23.8872 45.3801
23.9329 44.5853
23.9784 39.0234
24.0241 33.6178
24.0697 30.7526
24.1154 29.4723
24.1609 28.9217
24.2066 28.5737
24.2522 28.0779
24.2979 27.1599
24.3434 26.796
24.3892 26.389
24.4349 26.1659
24.4805 26.0673
24.5262 26.1515
24.5718 25.8548
24.6175 25.8429
24.6631 26.0538
24.7089 26.2018
24.7545 26.9195
24.8002 27.6007
24.8458 27.7516
24.8916 27.0493
24.9372 26.4718
24.983 26.162
25.0286 25.8951
25.0744 25.7067
25.12 25.7246
25.1658 25.7623
25.2114 25.8744
25.2572 26.2185
25.3029 26.6589
25.3487 27.4022
25.3943 28.2228
25.4402 29.3825
25.4858 30.3972
25.5316 30.3972
25.5773 30.5325
25.6231 31.4104
25.669 32.5281
25.7147 32.2619
25.7605 30.0238
25.8062 27.9755
25.8521 26.7554
25.8977 26.3985
25.9436 26.6337
25.9893 26.6396
26.0352 26.3004
26.0809 25.6945
26.1268 25.4174
26.1725 25.2151
26.2184 25.3353
26.2641 25.5411
26.31 26.1114
26.3557 27.0967
26.4017 28.1925
26.4474 29.0317
26.4933 28.5242
26.5391 27.3626
26.585 26.612
26.6308 25.9592
26.6767 25.6739
26.7225 25.6712
26.7684 25.9266
26.8142 26.1809
26.8601 26.7861
26.9059 28.2117
26.9519 29.8926
26.9979 31.4197
27.0437 31.4978
27.0896 30.6934
27.1354 29.9805
27.1814 28.7971
27.2272 27.6019
27.2732 26.3654
27.3191 25.3879
27.3651 24.7805
27.4109 24.5463
27.4569 24.3776
27.5027 24.3472
27.5488 24.2504
27.5946 24.4313
27.6407 24.4373
27.6865 24.5503
27.7326 24.4125
27.7784 24.7016
27.8245 25.0301
27.8703 25.5455
27.9164 25.6949
27.9623 25.3853
28.0084 25.0588
28.0543 24.8556
28.1003 24.9357
28.1462 25.5145
28.1923 25.8776
28.2384 25.9458
28.2843 26.0931
28.3304 26.7089
28.3764 28.0828
28.4225 29.1056
28.4684 29.0282
28.5145 27.9604
28.5605 27.45
28.6066 27.1351
28.6526 26.3682
28.6987 25.4799
28.7447 24.5781
28.7908 23.8377
28.8368 23.2315
28.8829 22.9412
28.9289 22.767
28.9751 22.5803
29.0211 22.3985
29.0673 22.4083
29.1133 22.4306
29.1595 22.5269
29.2055 22.9073
29.2517 23.2668
29.2977 23.2979
29.3439 22.9985
29.3899 22.4376
29.4361 22.1175
29.4824 21.894
29.5284 21.7655
29.5746 21.732
29.6207 21.7275
29.6669 21.9977
29.713 22.3491
29.7593 22.8258
29.8053 22.8784
29.8516 22.5112
29.8977 22.03
29.9439 21.5856
29.99 21.3276
30.0363 21.0462
30.0824 21.0533
30.1287 21.0423
30.1748 21.2478
30.2211 21.4656
30.2673 21.3391
30.3136 21.2717
30.3597 20.9469
30.406 20.8763
30.4522 20.8806
30.4985 20.9103
30.5447 21.2199
30.591 21.4867
30.6372 21.5533
30.6835 21.3144
30.7297 21.1405
30.7761 20.9089
30.8224 20.8728
30.8686 20.9584
30.915 21.1135
30.9612 21.3498
31.0076 21.8172
31.0538 22.5452
31.1002 23.1919
31.1464 23.1627
31.1928 22.9018
31.2391 22.6371
31.2855 22.1487
31.3317 21.6119
31.3781 21.1769
31.4244 20.7134
31.4708 20.5288
31.5171 20.4492
31.5636 20.4183
31.6098 20.4415
31.6563 20.5421
31.7026 20.6631
31.7491 20.7276
31.7953 21.0661
31.8418 21.3863
31.8881 21.7126
31.9346 21.5929
31.9809 21.1821
32.0275 20.6578
32.074 20.3934
32.1203 20.2618
32.1668 20.3827
32.2132 20.3388
32.2597 20.5242
32.306 20.8653
32.3526 21.1241
32.399 21.1348
32.4455 20.826
32.4919 20.5899
32.5385 20.1881
32.5848 19.8474
32.6314 19.6082
32.6778 19.3849
32.7244 19.1046
32.7708 18.8669
32.8174 18.8797
32.8638 18.7283
32.9104 18.7982
32.9569 18.6859
33.0035 18.671
33.0499 18.7395
33.0966 18.7698
33.143 18.8067
33.1897 18.7101
33.2361 18.5331
33.2828 18.4335
33.3293 18.3595
33.3759 18.4005
33.4226 18.4819
33.4691 18.5118
33.5158 18.6883
33.5623 19.0271
33.609 19.0635
33.6555 19.1421
33.7022 19.1351
33.7487 19.0764
33.7954 18.7805
33.842 18.3989
33.8887 18.1248
33.9353 17.9545
33.982 17.8254
34.0286 17.7706
34.0753 17.6765
34.1219 17.5082
34.1687 17.5747
34.2152 17.5483
34.262 17.566
34.3086 17.6144
34.3554 17.6316
34.402 17.4019
34.4488 17.3131
34.4954 17.2055
34.5422 17.091
34.5889 16.9122
34.6357 16.9987
34.6825 17.0172
34.7292 17.1083
34.776 17.0024
34.8227 17.0814
34.8695 16.8962
34.9162 16.7808
34.9631 16.5864
35.0098 16.5621
35.0566 16.3681
35.1033 16.3346
35.1502 16.3149
35.1969 16.3299
35.2438 16.2961
35.2906 16.3036
35.3375 16.2178
35.3842 16.3019
35.4311 16.3297
35.4779 16.2599
35.5248 16.2092
35.5716 16.2084
35.6185 16.2371
35.6653 16.2538
35.7123 16.3304
35.759 16.438
35.806 16.6554
35.8528 16.6877
35.8998 16.8649
35.9468 16.8499
35.9936 16.808
36.0406 16.5505
36.0874 16.3612
36.1345 16.2197
36.1813 16.015
36.2283 15.8479
36.2752 15.6493
36.3222 15.6759
36.3691 15.628
36.4161 15.5027
36.463 15.5644
36.5101 15.6389
36.557 15.6453
36.6041 15.6754
36.651 15.6521
36.6981 15.5887
36.745 15.4674
36.7921 15.3362
36.839 15.2496
36.8861 15.2385
36.9331 15.2613
36.9802 15.3291
37.0272 15.2555
37.0743 15.2943
37.1213 15.2983
37.1684 15.1853
37.2154 15.0916
37.2626 14.9218
37.3098 14.8087
37.3568 14.7444
37.404 14.7038
37.451 14.5412
37.4982 14.4863
37.5452 14.3975
37.5924 14.4014
37.6395 14.4801
37.6867 14.4518
37.7337 14.3518
37.781 14.2937
37.8281 14.2845
37.8753 14.1547
37.9224 14.1146
37.9697 14.0369
38.0168 14.033
38.064 14.0093
38.1111 14.0827
38.1584 14.0701
38.2056 13.9868
38.2529 13.9338
38.3 13.8748
38.3473 13.7845
38.3945 13.6539
38.4418 13.6169
38.489 13.5816
38.5363 13.5333
38.5837 13.5435
38.6309 13.4377
38.6782 13.4721
38.7254 13.4852
38.7728 13.4721
38.82 13.4596
38.8674 13.3814
38.9146 13.3316
38.9621 13.2638
39.0093 13.2381
39.0567 13.1965
39.104 13.1754
39.1514 13.2296
39.1987 13.2684
39.2461 13.1958
39.2934 13.0617
39.3409 12.9366
39.3882 12.8426
39.4356 12.8317
39.483 12.8223
39.5304 12.7255
39.5778 12.6776
39.6253 12.5898
39.6726 12.531
39.7201 12.6033
39.7675 12.5386
39.815 12.5331
39.8624 12.4531
39.9099 12.4535
39.9575 12.4766
40.0049 12.3692
40.0525 12.32
40.0999 12.3188
40.1474 12.3071
40.1949 12.2789
40.2425 12.2774
40.2899 12.3545
40.3375 12.245
40.385 12.2547
40.4326 12.2115
40.48 12.1069
40.5277 12.0786
40.5752 12.0172
40.6228 11.923
40.6703 12.0331
40.718 11.9149
40.7655 11.9017
40.8132 11.8454
40.8607 11.8418
40.9084 11.7852
40.9559 11.8193
41.0036 11.7728
41.0512 11.7111
41.0989 11.6377
41.1465 11.6353
41.1942 11.629
41.242 11.6377
41.2896 11.6452
41.3373 11.5758
41.3849 11.5226
41.4327 11.4349
41.4803 11.3289
41.5281 11.3128
41.5758 11.3123
41.6236 11.2535
41.6712 11.1641
41.7191 11.1377
41.7667 11.1563
41.8146 11.1356
41.8622 11.0359
41.9101 11.0365
41.9578 10.9569
42.0057 10.9141
42.0534 10.9199
42.1013 10.9206
42.149 10.9263
42.1969 10.9136
42.2446 10.9058
42.2925 10.8903
42.3403 10.8275
42.3882 10.7568
42.436 10.6995
42.4839 10.63
42.5319 10.5946
42.5797 10.5133
42.6277 10.4825
42.6755 10.4829
42.7235 10.417
42.7713 10.3913
42.8193 10.3351
42.8671 10.3204
42.9152 10.3161
42.963 10.2382
43.0111 10.2242
43.0589 10.163
43.107 10.1304
43.1549 10.1325
43.2029 10.0464
43.2508 10.0521
43.2989 10.0402
43.3468 9.93933
43.3949 9.92257
43.4429 9.91072
43.491 9.82345
43.5389 9.82802
43.5871 9.747
43.635 9.76737
43.6832 9.71875
43.7312 9.64234
43.7793 9.63306
43.8273 9.61387
43.8755 9.56757
43.9237 9.5689
43.9717 9.53123
44.0199 9.51414
44.068 9.49275
44.1162 9.47964
44.1642 9.51104
44.2125 9.50622
44.2606 9.43194
44.3088 9.37883
44.3569 9.34601
44.4052 9.30688
44.4533 9.27519
44.5016 9.24643
44.5497 9.15709
44.598 9.17023
44.6461 9.13336
44.6945 9.16352
44.7426 9.12682
44.791 9.06784
44.8391 9.03737
44.8875 9.00781
44.9357 9.00249
44.984 8.97543
45.0322 8.93994
45.0806 8.93974
45.1288 8.92211
45.1773 8.84357
45.2257 8.82021
45.2739 8.79547
45.3224 8.74575
45.3706 8.71853
45.4191 8.69044
45.4673 8.61196
45.5158 8.59757
45.5641 8.5274
45.6126 8.57637
45.6609 8.49919
45.7094 8.48581
45.7577 8.44053
45.8063 8.42217
45.8546 8.42325
45.9031 8.35775
45.9515 8.39998
46.0001 8.33539
46.0484 8.32686
46.097 8.29195
46.1454 8.27121
46.194 8.25766
46.2424 8.17276
46.291 8.19962
46.3395 8.11447
46.3881 8.07608
46.4365 8.08264
46.4852 8.04472
46.5337 8.03152
46.5823 8.00208
46.631 7.98214
46.6795 7.96998
46.7282 7.94598
46.7767 7.88293
46.8254 7.8465
46.8739 7.81435
46.9226 7.79363
46.9712 7.79735
47.0199 7.73241
47.0685 7.74743
47.1173 7.69207
47.1658 7.62322
47.2146 7.62366
47.2632 7.62514
47.312 7.56958
47.3606 7.52302
47.4095 7.51784
47.4581 7.48375
47.5069 7.45764
47.5556 7.43923
47.6044 7.37826
47.6531 7.38969
47.702 7.34092
47.7507 7.34409
47.7996 7.27011
47.8483 7.28985
47.8972 7.26475
47.9461 7.25337
47.9948 7.20167
48.0438 7.16544
48.0925 7.15912
48.1415 7.11708
48.1902 7.0858
48.2392 7.07287
48.288 7.01753
48.337 7.01728
48.3858 7.01337
48.4348 6.98574
48.4837 6.97073
48.5327 6.92616
48.5815 6.89796
48.6306 6.92182
48.6795 6.86003
48.7285 6.81927
48.7774 6.80793
48.8265 6.78077
48.8754 6.76767
48.9245 6.7315
48.9734 6.69112
49.0226 6.67144
49.0715 6.64644
49.1206 6.64829
49.1696 6.6029
49.2188 6.59196
49.2679 6.57305
49.3169 6.51214
49.3661 6.50377
49.4151 6.48794
49.4643 6.49445
49.5134 6.46492
49.5626 6.41921
49.6117 6.44234
49.6609 6.39843
49.71 6.36157
49.7592 6.30711
49.8083 6.34064
49.8576 6.31006
49.9067 6.26664
49.956 6.246
50.0052 6.22504
50.0545 6.21907
50.1036 6.15248
50.153 6.18976
50.2022 6.16632
50.2515 6.12468
50.3007 6.1287
50.3501 6.05759
50.3993 6.08254
50.4487 6.06242
50.498 6.03087
50.5474 6.01642
50.5966 5.95133
50.6461 5.93038
50.6955 5.90487
50.7448 5.91509
50.7943 5.89449
50.8436 5.86427
50.8931 5.829
50.9424 5.83698
50.9919 5.74972
51.0413 5.81049
51.0908 5.77039
51.1402 5.7438
51.1897 5.71349
51.2391 5.69637
51.2887 5.64215
51.3381 5.62852
51.3877 5.62085
51.4371 5.59895
51.4867 5.57618
51.5362 5.54095
51.5858 5.51708
51.6353 5.50969
51.6849 5.49515
51.7344 5.47857
51.7841 5.44756
51.8336 5.42013
51.8833 5.39541
51.9328 5.35327
51.9826 5.33747
52.0323 5.33891
52.0818 5.3177
52.1316 5.29233
52.1812 5.27811
52.231 5.24436
52.2806 5.21447
52.3304 5.23629
52.38 5.21736
52.4298 5.16181
52.4794 5.15494
52.5293 5.15254
52.5789 5.1223
52.6288 5.09837
52.6785 5.0368
52.7284 5.06264
52.7781 5.04786
52.828 4.99094
52.8777 4.96387
52.9276 4.9405
52.9774 4.97924
53.0273 4.92586
53.0771 4.89429
53.1271 4.92501
53.1769 4.82605
53.2269 4.87726
53.2767 4.87968
53.3267 4.79046
53.3765 4.80792
53.4266 4.77773
53.4766 4.75932
53.5265 4.71723
53.5765 4.71614
53.6264 4.64223
53.6765 4.67183
53.7264 4.64175
53.7765 4.64302
53.8265 4.62121
53.8766 4.58514
53.9266 4.5547
53.9767 4.56062
54.0267 4.50339
54.0769 4.49069
54.1269 4.46871
54.1771 4.44926
54.2271 4.45344
54.2773 4.38651
54.3274 4.37023
54.3776 4.33081
54.4277 4.30776
54.478 4.27397
54.528 4.26802
54.5783 4.1988
54.6285 4.16087
54.6788 4.1753
54.7289 4.12893
54.7792 4.10891
54.8296 4.04555
54.8798 4.02027
54.9301 3.99089
54.9803 3.97257
55.0307 3.9415
55.0809 3.92688
55.1314 3.90805
55.1816 3.82031
55.232 3.8029
55.2823 3.75974
55.3328 3.71321
55.383 3.64452
55.4335 3.65703
55.4838 3.64083
55.5344 3.6057
55.5847 3.50778
55.6352 3.59471
55.6856 3.50577
55.7361 3.47015