File: XRD/Ni3Fe_FD0148.xy
TT I
1.27165 7.36749
1.31627 6.86514
1.36089 6.99506
1.40551 6.69038
1.45013 6.49995
1.49476 7.08959
1.53938 6.1386
1.584 5.93783
1.62863 5.35121
1.67325 5.72294
1.71787 5.02486
1.7625 5.16382
1.80712 5.81437
1.85174 5.05165
1.89636 5.29272
1.94099 5.44943
1.98562 5.78735
2.03025 4.9802
2.07487 4.93517
2.11949 4.77896
2.16411 5.02121
2.20874 4.86026
2.25338 4.56982
2.298 4.83738
2.34263 4.13981
2.38725 4.71476
2.43188 4.41721
2.4765 4.78143
2.52115 4.08348
2.56577 4.87806
2.6104 5.32493
2.65503 4.92003
2.69965 5.86179
2.7443 6.11838
2.78893 5.99716
2.83356 7.05488
2.87818 7.57487
2.92281 8.39941
2.96744 9.42246
3.01209 10.188
3.05672 11.1987
3.10135 12.5575
3.14599 13.2878
3.19062 14.1096
3.23527 14.819
3.2799 15.3988
3.32454 17.0277
3.36917 17.6836
3.4138 18.9114
3.45844 19.741
3.50309 20.3276
3.54773 21.1293
3.59237 21.4597
3.637 22.2319
3.68164 22.9563
3.7263 24.1605
3.77094 24.9692
3.81558 25.7075
3.86022 26.2095
3.90486 27.7445
3.9495 28.7607
3.99416 29.9677
4.0388 30.8814
4.08344 31.8302
4.12809 32.9695
4.17273 34.0999
4.21738 35.5869
4.26204 36.6526
4.30669 38.0438
4.35133 39.537
4.39598 41.1575
4.44063 42.9133
4.4853 44.5833
4.52995 47.2777
4.5746 49.1524
4.61925 51.2241
4.6639 53.4621
4.70855 56.282
4.75322 59.9889
4.79788 62.278
4.84253 66.3433
4.88719 69.8255
4.93184 75.2292
4.97652 82.3156
5.02118 90.5151
5.06583 101.03
5.11049 117.396
5.15515 154.887
5.19981 555.297
5.24449 3783.98
5.28916 8153.32
5.33382 6365.26
5.37848 452.471
5.42315 163.516
5.46783 127.488
5.5125 114.404
5.55716 107.864
5.60183 101.734
5.6465 98.3994
5.69117 97.2809
5.73586 95.4817
5.78053 94.8253
5.8252 95.4237
5.86988 98.5779
5.91455 105.074
5.95924 124.472
6.00392 290.381
6.0486 1384.74
6.09328 2698.29
6.13795 3995.59
6.18263 726.126
6.22733 122.342
6.27201 89.4239
6.3167 78.6031
6.36138 72.8936
6.40606 68.2184
6.45075 66.2625
6.49545 64.2105
6.54014 62.2814
6.58483 60.8637
6.62952 59.6692
6.67421 58.3586
6.71892 57.4994
6.76361 56.5461
6.8083 55.2677
6.853 54.5494
6.89769 54.4705
6.94239 53.9739
6.98711 53.7152
7.03181 53.0775
7.07651 52.8507
7.12121 52.5852
7.16591 52.1641
7.21063 51.6556
7.25533 51.6055
7.30004 52.033
7.34475 52.1249
7.38945 52.4004
7.43416 51.6817
7.47889 51.8671
7.5236 56.0751
7.56831 64.0282
7.61303 54.9773
7.65774 53.2615
7.70247 53.7409
7.74719 53.8626
7.79191 55.1485
7.83663 54.9432
7.88135 56.08
7.92607 57.0493
7.97081 58.15
8.01553 58.9228
8.06026 60.3958
8.10498 61.91
8.14971 63.4143
8.19446 64.7777
8.23919 67.5652
8.28392 70.6014
8.32865 73.2089
8.37339 77.9273
8.41812 83.3399
8.46288 95.3602
8.50761 173.405
8.55235 604.429
8.59709 882.48
8.64183 1473.97
8.68658 1630.94
8.73134 411.86
8.77609 116.192
8.82083 97.6248
8.86558 90.8018
8.91033 87.3481
8.9551 85.3799
8.99985 83.5767
9.04461 82.9705
9.08936 81.872
9.13412 81.2851
9.17888 81.1745
9.22365 86.9742
9.26841 97.8408
9.31318 86.5195
9.35794 82.1683
9.4027 81.9971
9.44749 82.6024
9.49226 83.2463
9.53703 84.3192
9.5818 85.8568
9.62657 86.9153
9.67134 88.6286
9.71614 90.5039
9.76091 92.667
9.80569 95.429
9.85047 98.6987
9.89525 103.545
9.94005 113.495
9.98484 185.963
10.0296 546.86
10.0744 732.763
10.1192 1023.94
10.164 1657.97
10.2088 986.13
10.2536 216.414
10.2984 115.977
10.3432 107.732
10.388 104.267
10.4328 121.326
10.4776 214.82
10.5224 260.195
10.5672 327.789
10.612 493.436
10.6568 377.16
10.7017 135.494
10.7465 90.8255
10.7913 83.6782
10.8361 80.3427
10.8809 77.8937
10.9257 75.5748
10.9706 74.03
11.0154 72.5821
11.0602 71.1332
11.105 69.9492
11.1499 68.7668
11.1947 67.5787
11.2395 66.8208
11.2844 65.8411
11.3292 65.1084
11.374 65.0253
11.4189 63.8831
11.4637 63.2878
11.5086 62.5196
11.5534 62.1427
11.5983 61.8149
11.6431 61.9667
11.688 61.1549
11.7328 61.2405
11.7777 61.2477
11.8225 60.6491
11.8674 60.8462
11.9122 61.97
11.9571 65.8815
12.002 65.2155
12.0468 67.6038
12.0917 90.5352
12.1366 107.943
12.1814 117.165
12.2263 149.353
12.2712 192.46
12.3161 138.328
12.3609 74.6308
12.4058 63.9922
12.4507 63.194
12.4956 63.0829
12.5405 63.0207
12.5853 63.4532
12.6302 63.3585
12.6751 64.4848
12.72 64.9326
12.7649 65.8666
12.8098 66.7112
12.8547 68.1777
12.8996 69.4785
12.9445 71.151
12.9894 73.114
13.0343 75.0326
13.0792 79.0175
13.1242 86.5387
13.1691 132.758
13.214 186.795
13.2589 203.208
13.3038 242.67
13.3487 347.499
13.3937 383.159
13.4386 210.504
13.4835 119.366
13.5285 154.363
13.5734 182.248
13.6183 191.15
13.6633 236.137
13.7082 329.434
13.7531 305.457
13.7981 153.362
13.843 88.1488
13.888 80.3685
13.9329 77.31
13.9779 75.7589
14.0228 74.3481
14.0678 72.7965
14.1127 72.754
14.1577 74.1031
14.2027 72.4798
14.2476 70.3152
14.2926 69.1967
14.3376 68.7048
14.3825 68.5411
14.4275 67.9468
14.4725 67.9988
14.5175 67.9884
14.5624 68.235
14.6074 68.6759
14.6524 68.779
14.6974 69.397
14.7424 71.1971
14.7874 80.5013
14.8324 106.97
14.8774 120.909
14.9224 126.171
14.9674 146.733
15.0124 190.171
15.0574 203.893
15.1024 139.382
15.1474 82.5784
15.1924 71.1192
15.2374 68.9981
15.2824 67.4695
15.3274 66.6608
15.3725 66.2931
15.4175 66.2065
15.4625 65.3344
15.5076 65.2543
15.5526 65.3018
15.5976 65.4837
15.6426 66.4409
15.6877 73.4811
15.7327 94.8743
15.7778 107.089
15.8228 110.256
15.8679 123.612
15.9129 152.998
15.958 183.483
16.003 150.54
16.0481 88.9211
16.0931 66.0821
16.1382 61.4509
16.1833 60.337
16.2283 58.8404
16.2734 57.9286
16.3185 57.067
16.3636 56.537
16.4086 55.7869
16.4537 55.4821
16.4988 55.0336
16.5439 54.7816
16.589 54.363
16.6341 54.3635
16.6792 53.8644
16.7243 54.2323
16.7694 53.8151
16.8145 53.9042
16.8596 54.0942
16.9047 54.5457
16.9498 54.7749
16.9949 54.7646
17.04 55.4267
17.0851 56.5578
17.1302 60.8213
17.1754 63.9959
17.2205 64.9104
17.2656 66.8652
17.3108 71.8226
17.3559 78.8822
17.401 80.5736
17.4462 70.5877
17.4913 61.1999
17.5365 59.0203
17.5815 58.9261
17.6268 59.1444
17.6718 59.5543
17.7171 59.9794
17.7622 61.3045
17.8074 61.9651
17.8525 63.5877
17.8977 71.8635
17.9428 83.5408
17.9881 88.2321
18.0331 90.4889
18.0784 97.6238
18.1237 114.046
18.1688 139.712
18.214 141.713
18.2591 110.466
18.3044 87.8678
18.3495 86.1857
18.3948 94.8084
18.4399 103.071
18.4852 94.9062
18.5303 76.1738
18.5756 64.684
18.6207 62.2414
18.666 60.6463
18.7112 59.845
18.7565 59.0723
18.8016 58.6127
18.8469 58.0566
18.892 57.5071
18.9374 57.1198
18.9825 56.8985
19.0278 56.6966
19.073 56.6262
19.1183 57.0786
19.1635 59.4928
19.2088 61.6619
19.254 62.1183
19.2993 62.8629
19.3447 65.0002
19.3898 68.6737
19.4352 73.3833
19.4804 72.4258
19.5257 63.8142
19.5709 56.4099
19.6163 54.2116
19.6615 53.8108
19.7068 53.2948
19.752 53.2813
19.7974 53.4509
19.8426 54.466
19.888 56.6595
19.9332 57.9678
19.9786 58.4512
20.0238 59.0322
20.0692 61.8569
20.1144 66.7535
20.1598 71.9249
20.205 70.7452
20.2504 65.1816
20.2957 60.8427
20.3411 61.4823
20.3863 64.2732
20.4318 64.3078
20.477 58.8025
20.5224 52.9827
20.5677 50.7844
20.6131 50.0038
20.6586 49.6806
20.7038 49.5422
20.7493 49.1581
20.7945 49.2923
20.84 48.989
20.8853 48.8885
20.9307 48.5117
20.976 48.6294
21.0215 48.7704
21.0668 49.2068
21.1122 49.3867
21.1575 49.3795
21.203 49.5649
21.2483 50.1692
21.2938 51.3269
21.3391 51.2723
21.3846 50.4668
21.4299 49.1841
21.4754 48.6488
21.5207 48.5176
21.5662 48.9436
21.6116 49.2446
21.6571 51.0856
21.7024 52.8328
21.7479 53.9999
21.7933 54.3032
21.8388 55.6248
21.8843 58.3392
21.9297 61.8952
21.9752 65.5824
22.0206 65.5164
22.0661 60.6087
22.1115 56.1394
22.157 55.3663
22.2024 56.2536
22.248 54.8902
22.2933 52.3534
22.3389 50.0895
22.3843 49.1354
22.4299 48.7451
22.4753 48.7564
22.5208 48.7852
22.5662 48.5664
22.6118 48.7358
22.6572 48.9713
22.7028 49.9579
22.7483 51.2726
22.7939 51.6952
22.8393 51.9945
22.8849 52.4912
22.9303 53.3553
22.9759 54.9128
23.0214 56.9898
23.067 58.2651
23.1126 55.9417
23.1581 52.2636
23.2037 49.8108
23.2492 49.3079
23.2948 49.6052
23.3403 50.706
23.3859 51.6638
23.4314 51.7223
23.477 51.807
23.5225 52.0954
23.5682 53.3602
23.6137 55.6513
23.6593 57.6427
23.7048 56.9219
23.7505 53.3468
23.796 48.9943
23.8417 46.8089
23.8872 45.8544
23.9329 45.5483
23.9784 45.2191
24.0241 44.8688
24.0697 44.611
24.1154 44.2733
24.1609 44.2641
24.2066 43.9443
24.2522 43.8375
24.2979 43.6015
24.3434 43.437
24.3892 43.088
24.4349 43.059
24.4805 42.7344
24.5262 42.893
24.5718 42.8089
24.6175 42.9411
24.6631 42.9455
24.7089 42.8351
24.7545 42.6166
24.8002 42.4433
24.8458 42.3846
24.8916 42.2508
24.9372 42.5704
24.983 42.7771
25.0286 43.0351
25.0744 43.3376
25.12 43.6479
25.1658 44.1605
25.2114 44.5772
25.2572 44.8344
25.3029 44.7301
25.3487 44.5849
25.3943 44.6751
25.4402 44.7551
25.4858 44.2994
25.5316 43.0236
25.5773 41.7164
25.6231 41.2644
25.669 40.8282
25.7147 40.6215
25.7605 40.6081
25.8062 40.9778
25.8521 40.9937
25.8977 40.9454
25.9436 40.9806
25.9893 40.813
26.0352 41.0503
26.0809 41.1752
26.1268 41.5609
26.1725 41.9243
26.2184 41.9415
26.2641 41.3157
26.31 40.7258
26.3557 40.737
26.4017 40.7363
26.4474 40.7314
26.4933 40.8702
26.5391 41.1426
26.585 41.2797
26.6308 41.6018
26.6767 41.9257
26.7225 42.4841
26.7684 42.5158
26.8142 41.9332
26.8601 41.164
26.9059 40.7253
26.9519 40.3084
26.9979 40.0031
27.0437 39.4627
27.0896 39.1891
27.1354 39.1069
27.1814 38.8746
27.2272 38.9218
27.2732 39.0488
27.3191 38.6067
27.3651 38.7493
27.4109 38.4751
27.4569 38.5418
27.5027 38.4461
27.5488 38.6047
27.5946 38.6129
27.6407 38.73
27.6865 38.6417
27.7326 38.486
27.7784 38.3892
27.8245 38.2969
27.8703 38.1193
27.9164 38.4429
27.9623 38.5162
28.0084 38.5421
28.0543 38.9237
28.1003 39.0998
28.1462 39.3247
28.1923 39.2294
28.2384 38.7951
28.2843 38.3497
28.3304 37.8755
28.3764 37.5583
28.4225 37.0508
28.4684 36.8046
28.5145 36.2053
28.5605 36.0844
28.6066 35.9854
28.6526 35.8197
28.6987 35.885
28.7447 35.6127
28.7908 35.3973
28.8368 35.5715
28.8829 35.426
28.9289 35.4732
28.9751 35.3755
29.0211 35.1653
29.0673 35.1672
29.1133 34.9842
29.1595 34.8105
29.2055 34.5125
29.2517 34.4408
29.2977 34.3294
29.3439 34.2909
29.3899 34.3094
29.4361 34.2182
29.4824 34.1948
29.5284 34.1639
29.5746 33.8217
29.6207 33.5354
29.6669 33.2802
29.713 33.142
29.7593 33.0254
29.8053 32.9727
29.8516 32.9115
29.8977 32.8138
29.9439 32.7573
29.99 32.7924
30.0363 32.6138
30.0824 32.7507
30.1287 32.5288
30.1748 32.533
30.2211 32.4677
30.2673 32.2234
30.3136 32.6025
30.3597 32.5663
30.406 32.428
30.4522 32.3233
30.4985 32.2438
30.5447 32.2595
30.591 32.1755
30.6372 32.2669
30.6835 32.1995
30.7297 32.3328
30.7761 32.3934
30.8224 32.4424
30.8686 32.3419
30.915 32.0139
30.9612 31.9321
31.0076 31.6445
31.0538 31.522
31.1002 31.4278
31.1464 31.1938
31.1928 31.2015
31.2391 31.16
31.2855 31.0574
31.3317 30.958
31.3781 31.0406
31.4244 30.9591
31.4708 30.922
31.5171 30.9681
31.5636 31.0293
31.6098 30.9288
31.6563 30.7979
31.7026 30.6262
31.7491 30.3313
31.7953 30.4233
31.8418 30.2614
31.8881 30.2236
31.9346 30.3366
31.9809 30.0931
32.0275 30.0753
32.074 30.0362
32.1203 29.9766
32.1668 29.8411
32.2132 29.6389
32.2597 29.5289
32.306 29.4664
32.3526 29.2008
32.399 29.1047
32.4455 28.9914
32.4919 28.8112
32.5385 28.8863
32.5848 28.7109
32.6314 28.6658
32.6778 28.581
32.7244 28.5085
32.7708 28.2886
32.8174 28.3394
32.8638 28.1703
32.9104 28.284
32.9569 28.0863
33.0035 28.1472
33.0499 27.9754
33.0966 27.9654
33.143 27.9041
33.1897 27.8666
33.2361 27.8037
33.2828 27.7875
33.3293 27.5843
33.3759 27.5377
33.4226 27.5013
33.4691 27.4745
33.5158 27.3012
33.5623 27.144
33.609 26.9362
33.6555 26.8822
33.7022 26.7188
33.7487 26.5473
33.7954 26.5739
33.842 26.4123
33.8887 26.4201
33.9353 26.3573
33.982 26.3371
34.0286 26.2441
34.0753 26.1656
34.1219 26.1585
34.1687 25.9558
34.2152 25.8404
34.262 25.7861
34.3086 25.6615
34.3554 25.6817
34.402 25.4976
34.4488 25.4651
34.4954 25.4251
34.5422 25.3159
34.5889 25.1641
34.6357 25.1077
34.6825 24.9829
34.7292 24.9356
34.776 24.9517
34.8227 24.8645
34.8695 24.7417
34.9162 24.7175
34.9631 24.5945
35.0098 24.5665
35.0566 24.4514
35.1033 24.407
35.1502 24.4091
35.1969 24.2709
35.2438 24.3051
35.2906 24.0446
35.3375 24.0749
35.3842 24.03
35.4311 24.0455
35.4779 24.0072
35.5248 24.0788
35.5716 23.8658
35.6185 23.9551
35.6653 23.7213
35.7123 23.7197
35.759 23.5947
35.806 23.4875
35.8528 23.3668
35.8998 23.3306
35.9468 23.2148
35.9936 23.2226
36.0406 23.1748
36.0874 23.0812
36.1345 23.04
36.1813 22.947
36.2283 22.8325
36.2752 22.7519
36.3222 22.8069
36.3691 22.7263
36.4161 22.5954
36.463 22.5098
36.5101 22.5192
36.557 22.4449
36.6041 22.3321
36.651 22.2911
36.6981 22.3054
36.745 22.2231
36.7921 22.0992
36.839 22.0059
36.8861 21.964
36.9331 21.8643
36.9802 21.7643
37.0272 21.7236
37.0743 21.6229
37.1213 21.582
37.1684 21.5457
37.2154 21.4105
37.2626 21.3837
37.3098 21.299
37.3568 21.1984
37.404 21.1799
37.451 21.1139
37.4982 21.036
37.5452 20.9894
37.5924 20.8936
37.6395 20.9449
37.6867 20.8302
37.7337 20.7582
37.781 20.6316
37.8281 20.6329
37.8753 20.5317
37.9224 20.3943
37.9697 20.3817
38.0168 20.287
38.064 20.2868
38.1111 20.2122
38.1584 20.0704
38.2056 20.0674
38.2529 20.0309
38.3 19.9147
38.3473 19.8947
38.3945 19.8678
38.4418 19.7273
38.489 19.7214
38.5363 19.6791
38.5837 19.5347
38.6309 19.4869
38.6782 19.4816
38.7254 19.347
38.7728 19.2912
38.82 19.2029
38.8674 19.157
38.9146 19.1486
38.9621 19.0986
39.0093 19.0416
39.0567 18.897
39.104 18.9213
39.1514 18.7147
39.1987 18.6978
39.2461 18.7047
39.2934 18.6784
39.3409 18.5291
39.3882 18.5175
39.4356 18.4908
39.483 18.4278
39.5304 18.3679
39.5778 18.2929
39.6253 18.2474
39.6726 18.2082
39.7201 18.1464
39.7675 18.0445
39.815 18.0196
39.8624 17.9269
39.9099 17.985
39.9575 17.8806
40.0049 17.7816
40.0525 17.7817
40.0999 17.6939
40.1474 17.6301
40.1949 17.5626
40.2425 17.5273
40.2899 17.4911
40.3375 17.4097
40.385 17.3135
40.4326 17.2829
40.48 17.26
40.5277 17.2124
40.5752 17.126
40.6228 17.0287
40.6703 16.9697
40.718 16.9591
40.7655 16.9546
40.8132 16.8078
40.8607 16.8377
40.9084 16.7675
40.9559 16.7075
41.0036 16.6725
41.0512 16.6217
41.0989 16.5366
41.1465 16.4686
41.1942 16.4089
41.242 16.3561
41.2896 16.3044
41.3373 16.2321
41.3849 16.186
41.4327 16.1329
41.4803 16.0696
41.5281 16.0844
41.5758 15.9794
41.6236 15.9707
41.6712 15.9045
41.7191 15.8346
41.7667 15.7566
41.8146 15.7678
41.8622 15.6637
41.9101 15.623
41.9578 15.5527
42.0057 15.4716
42.0534 15.4473
42.1013 15.4379
42.149 15.3231
42.1969 15.3077
42.2446 15.2396
42.2925 15.2039
42.3403 15.1228
42.3882 15.1053
42.436 15.0655
42.4839 14.9284
42.5319 14.9958
42.5797 14.9344
42.6277 14.8358
42.6755 14.8066
42.7235 14.7413
42.7713 14.6845
42.8193 14.6193
42.8671 14.6578
42.9152 14.5561
42.963 14.4407
43.0111 14.3994
43.0589 14.385
43.107 14.3244
43.1549 14.3035
43.2029 14.2322
43.2508 14.1666
43.2989 14.1249
43.3468 14.0943
43.3949 14.0647
43.4429 14.0019
43.491 13.9584
43.5389 13.9119
43.5871 13.8379
43.635 13.7877
43.6832 13.7264
43.7312 13.6919
43.7793 13.6738
43.8273 13.6192
43.8755 13.5373
43.9237 13.4968
43.9717 13.4951
44.0199 13.4103
44.068 13.4524
44.1162 13.3294
44.1642 13.3178
44.2125 13.272
44.2606 13.2443
44.3088 13.1687
44.3569 13.1236
44.4052 13.1235
44.4533 12.9755
44.5016 12.9626
44.5497 12.9428
44.598 12.9134
44.6461 12.8629
44.6945 12.7689
44.7426 12.7476
44.791 12.6672
44.8391 12.6686
44.8875 12.6286
44.9357 12.5696
44.984 12.4864
45.0322 12.4446
45.0806 12.43
45.1288 12.4285
45.1773 12.2981
45.2257 12.2799
45.2739 12.2862
45.3224 12.1901
45.3706 12.1989
45.4191 12.1169
45.4673 12.0363
45.5158 12.0391
45.5641 12.0285
45.6126 11.9771
45.6609 11.9459
45.7094 11.8361
45.7577 11.8119
45.8063 11.7283
45.8546 11.7976
45.9031 11.7271
45.9515 11.6966
46.0001 11.6176
46.0484 11.5849
46.097 11.5899
46.1454 11.5188
46.194 11.4698
46.2424 11.4057
46.291 11.353
46.3395 11.2962
46.3881 11.2767
46.4365 11.2757
46.4852 11.2027
46.5337 11.1503
46.5823 11.1108
46.631 11.0744
46.6795 11.0435
46.7282 10.9682
46.7767 10.9681
46.8254 10.9118
46.8739 10.8419
46.9226 10.8306
46.9712 10.8029
47.0199 10.7575
47.0685 10.7182
47.1173 10.6858
47.1658 10.6508
47.2146 10.6152
47.2632 10.4992
47.312 10.5342
47.3606 10.4847
47.4095 10.409
47.4581 10.4235
47.5069 10.381
47.5556 10.3084
47.6044 10.2539
47.6531 10.217
47.702 10.2023
47.7507 10.1519
47.7996 10.1162
47.8483 10.1299
47.8972 10.0772
47.9461 10.055
47.9948 9.98876
48.0438 9.96143
48.0925 9.92544
48.1415 9.87775
48.1902 9.86362
48.2392 9.79928
48.288 9.79502
48.337 9.767
48.3858 9.68648
48.4348 9.674
48.4837 9.65314
48.5327 9.62543
48.5815 9.58334
48.6306 9.58595
48.6795 9.46457
48.7285 9.43485
48.7774 9.41023
48.8265 9.42692
48.8754 9.36311
48.9245 9.31465
48.9734 9.34195
49.0226 9.296
49.0715 9.24661
49.1206 9.22566
49.1696 9.13603
49.2188 9.10354
49.2679 9.09329
49.3169 9.05124
49.3661 8.99256
49.4151 8.95028
49.4643 8.97202
49.5134 8.9167
49.5626 8.85631
49.6117 8.82176
49.6609 8.84194
49.71 8.75492
49.7592 8.7601
49.8083 8.6948
49.8576 8.71425
49.9067 8.67586
49.956 8.61376
50.0052 8.5969
50.0545 8.53201
50.1036 8.51544
50.153 8.50912
50.2022 8.45835
50.2515 8.3765
50.3007 8.37136
50.3501 8.34419
50.3993 8.3357
50.4487 8.28409
50.498 8.243
50.5474 8.24955
50.5966 8.19653
50.6461 8.16913
50.6955 8.13722
50.7448 8.08671
50.7943 8.08238
50.8436 8.00825
50.8931 8.01236
50.9424 7.97448
50.9919 7.95107
51.0413 7.89033
51.0908 7.86114
51.1402 7.8518
51.1897 7.82521
51.2391 7.75645
51.2887 7.74715
51.3381 7.70914
51.3877 7.67816
51.4371 7.62059
51.4867 7.61017
51.5362 7.60243
51.5858 7.55501
51.6353 7.55193
51.6849 7.48456
51.7344 7.46263
51.7841 7.48447
51.8336 7.40794
51.8833 7.39099
51.9328 7.34723
51.9826 7.29088
52.0323 7.29667
52.0818 7.25131
52.1316 7.23364
52.1812 7.21266
52.231 7.14917
52.2806 7.13648
52.3304 7.11607
52.38 7.07542
52.4298 7.0613
52.4794 6.98684
52.5293 7.00021
52.5789 7.00262
52.6288 6.9158
52.6785 6.85809
52.7284 6.87678
52.7781 6.8612
52.828 6.80912
52.8777 6.77739
52.9276 6.76176
52.9774 6.72376
53.0273 6.67391
53.0771 6.67975
53.1271 6.70168
53.1769 6.62036
53.2269 6.61015
53.2767 6.54326
53.3267 6.5317
53.3765 6.49633
53.4266 6.44727
53.4766 6.47571
53.5265 6.38902
53.5765 6.3877
53.6264 6.32567
53.6765 6.3721
53.7264 6.35851
53.7765 6.31072
53.8265 6.2347
53.8766 6.20682
53.9266 6.17736
53.9767 6.17083
54.0267 6.14617
54.0769 6.09059
54.1269 6.08571
54.1771 6.03103
54.2271 5.99986
54.2773 5.96941
54.3274 5.93901
54.3776 5.8857
54.4277 5.85083
54.478 5.86479
54.528 5.79052
54.5783 5.72143
54.6285 5.70625
54.6788 5.65462
54.7289 5.63309
54.7792 5.6109
54.8296 5.49502
54.8798 5.49049
54.9301 5.43588
54.9803 5.45601
55.0307 5.41538
55.0809 5.33791
55.1314 5.29311
55.1816 5.1863
55.232 5.18362
55.2823 5.09707
55.3328 5.07923
55.383 4.97368
55.4335 4.95608
55.4838 4.95075
55.5344 4.87916
55.5847 4.82729
55.6352 4.85315
55.6856 4.83075
55.7361 4.75377