File: XRD/Ni3Fe_FD0497.xy
TT I
1.27165 7.06764
1.31627 6.70929
1.36089 6.4972
1.40551 6.65879
1.45013 6.21739
1.49476 5.56001
1.53938 5.6447
1.584 5.28018
1.62863 5.23159
1.67325 5.41252
1.71787 5.58694
1.7625 4.93462
1.80712 4.78436
1.85174 4.45526
1.89636 4.71238
1.94099 4.95802
1.98562 5.01684
2.03025 4.63527
2.07487 4.84989
2.11949 5.15488
2.16411 5.37453
2.20874 13.492
2.25338 20.9287
2.298 5.58554
2.34263 4.92667
2.38725 5.64364
2.43188 5.6239
2.4765 6.13443
2.52115 6.30874
2.56577 7.3623
2.6104 7.80904
2.65503 7.24947
2.69965 7.68686
2.7443 7.92431
2.78893 8.02145
2.83356 7.36189
2.87818 8.49542
2.92281 9.37445
2.96744 9.16267
3.01209 9.91146
3.05672 10.8582
3.10135 12.178
3.14599 13.0472
3.19062 14.1986
3.23527 15.1459
3.2799 15.543
3.32454 16.8038
3.36917 17.7634
3.4138 19.0799
3.45844 19.6879
3.50309 21.0444
3.54773 22.2138
3.59237 24.3466
3.637 83.9985
3.68164 54.1873
3.7263 26.3556
3.77094 26.4685
3.81558 27.2451
3.86022 28.2488
3.90486 29.0875
3.9495 30.048
3.99416 31.6064
4.0388 32.1483
4.08344 33.8697
4.12809 35.2056
4.17273 37.5048
4.21738 42.9912
4.26204 223.403
4.30669 191.742
4.35133 48.1055
4.39598 45.2333
4.44063 53.7914
4.4853 63.699
4.52995 51.7194
4.5746 51.665
4.61925 54.1386
4.6639 56.2658
4.70855 58.8395
4.75322 61.7396
4.79788 64.8011
4.84253 67.8968
4.88719 72.3463
4.93184 76.3583
4.97652 81.6534
5.02118 88.6517
5.06583 96.8561
5.11049 109.317
5.15515 174.301
5.19981 408.107
5.24449 3120.93
5.28916 11817.6
5.33382 3192.76
5.37848 204.161
5.42315 134.084
5.46783 117.862
5.5125 108.458
5.55716 104.357
5.60183 99.951
5.6465 98.8023
5.69117 96.3199
5.73586 93.8171
5.78053 93.3886
5.8252 93.0404
5.86988 93.9625
5.91455 96.809
5.95924 106.324
6.00392 229.61
6.0486 1060.92
6.09328 4263.15
6.13795 3483.47
6.18263 289.515
6.22733 97.4127
6.27201 85.0832
6.3167 100.38
6.36138 81.0318
6.40606 70.1075
6.45075 68.2777
6.49545 66.6403
6.54014 64.9137
6.58483 63.9751
6.62952 63.525
6.67421 91.0398
6.71892 133.796
6.76361 67.957
6.8083 59.2649
6.853 58.1474
6.89769 57.6334
6.94239 57.165
6.98711 56.7968
7.03181 56.3135
7.07651 56.1223
7.12121 56.0644
7.16591 55.9802
7.21063 56.4126
7.25533 69.7409
7.30004 161.736
7.34475 86.5636
7.38945 57.2691
7.43416 55.177
7.47889 54.9633
7.5236 55.1204
7.56831 56.1851
7.61303 57.7319
7.65774 57.85
7.70247 57.0303
7.74719 57.053
7.79191 57.6262
7.83663 57.4495
7.88135 58.4811
7.92607 59.4279
7.97081 60.4928
8.01553 61.7625
8.06026 62.7313
8.10498 64.6549
8.14971 73.8615
8.19446 72.7141
8.23919 70.4584
8.28392 72.9876
8.32865 74.9853
8.37339 79.4209
8.41812 86.4506
8.46288 113.883
8.50761 175.195
8.55235 419.137
8.59709 1202.9
8.64183 2122.65
8.68658 1054.94
8.73134 182.421
8.77609 102.796
8.82083 94.8382
8.86558 91.29
8.91033 91.0251
8.9551 92.4139
8.99985 86.4019
9.04461 84.7787
9.08936 84.365
9.13412 83.2422
9.17888 83.0663
9.22365 83.9332
9.26841 83.1472
9.31318 83.6272
9.35794 84.1392
9.4027 84.3911
9.44749 85.3345
9.49226 85.8557
9.53703 86.8502
9.5818 88.7374
9.62657 92.8525
9.67134 98.7597
9.71614 94.8002
9.76091 95.37
9.80569 97.9295
9.85047 101.803
9.89525 123.15
9.94005 135.937
9.98484 188.151
10.0296 371.113
10.0744 838.813
10.1192 1662.5
10.164 1652.17
10.2088 455.393
10.2536 135.922
10.2984 115.076
10.3432 115.48
10.388 106.329
10.4328 122.062
10.4776 167.58
10.5224 291.847
10.5672 507.375
10.612 498.683
10.6568 223.543
10.7017 100.077
10.7465 88.2352
10.7913 84.6708
10.8361 82.2635
10.8809 80.5752
10.9257 79.6875
10.9706 79.5643
11.0154 75.8458
11.0602 73.7339
11.105 72.988
11.1499 76.3873
11.1947 82.5067
11.2395 74.7088
11.2844 70.9239
11.3292 68.23
11.374 67.0597
11.4189 66.4033
11.4637 65.8278
11.5086 66.311
11.5534 68.5865
11.5983 66.0601
11.6431 64.3721
11.688 64.1115
11.7328 63.9326
11.7777 63.7449
11.8225 63.2107
11.8674 63.351
11.9122 63.5097
11.9571 63.6264
12.002 64.3414
12.0468 69.4668
12.0917 81.7042
12.1366 106.266
12.1814 154.281
12.2263 197.927
12.2712 168.942
12.3161 100.984
12.3609 71.4641
12.4058 65.6904
12.4507 64.9014
12.4956 65.5729
12.5405 65.4169
12.5853 66.4611
12.6302 73.3465
12.6751 78.0192
12.72 70.5148
12.7649 68.6374
12.8098 69.1782
12.8547 70.7081
12.8996 72.0723
12.9445 73.2711
12.9894 75.2098
13.0343 77.0729
13.0792 79.9828
13.1242 90.5537
13.1691 115.84
13.214 154.052
13.2589 242.616
13.3038 358.313
13.3487 415.092
13.3937 278.169
13.4386 132.481
13.4835 109.138
13.5285 125.053
13.5734 164.049
13.6183 248.686
13.6633 331.315
13.7082 339.778
13.7531 201.357
13.7981 103.247
13.843 83.3549
13.888 81.0677
13.9329 78.1834
13.9779 77.1043
14.0228 75.5074
14.0678 74.0451
14.1127 73.6925
14.1577 73.3784
14.2027 72.3151
14.2476 71.3896
14.2926 71.7192
14.3376 72.374
14.3825 71.2205
14.4275 70.1112
14.4725 69.912
14.5175 69.8192
14.5624 70.2053
14.6074 71.8757
14.6524 72.3704
14.6974 71.3411
14.7424 73.0976
14.7874 80.7987
14.8324 91.7691
14.8774 113.404
14.9224 154.559
14.9674 200.693
15.0124 213.639
15.0574 156.92
15.1024 96.2683
15.1474 73.8746
15.1924 71.6698
15.2374 71.9429
15.2824 70.9683
15.3274 69.0453
15.3725 67.844
15.4175 67.3996
15.4625 67.1562
15.5076 67.1807
15.5526 67.2075
15.5976 66.7962
15.6426 67.8836
15.6877 73.6776
15.7327 82.1937
15.7778 97.5368
15.8228 127.976
15.8679 167.463
15.9129 188.951
15.958 159.386
16.003 102.96
16.0481 70.5046
16.0931 65.5747
16.1382 63.5319
16.1833 61.7273
16.2283 60.0114
16.2734 59.1361
16.3185 59.3236
16.3636 59.9087
16.4086 58.514
16.4537 57.0707
16.4988 56.4905
16.5439 56.3441
16.589 56.0422
16.6341 55.5092
16.6792 55.4239
16.7243 55.8135
16.7694 55.527
16.8145 55.8128
16.8596 56.0349
16.9047 57.415
16.9498 57.5297
16.9949 56.4144
17.04 56.665
17.0851 57.7283
17.1302 59.5948
17.1754 62.7662
17.2205 68.0581
17.2656 75.0077
17.3108 81.5057
17.3559 82.2674
17.401 72.7481
17.4462 63.807
17.4913 60.4574
17.5365 60.1759
17.5815 60.1913
17.6268 60.3797
17.6718 61.1424
17.7171 61.9378
17.7622 62.3011
17.8074 62.7729
17.8525 65.4464
17.8977 69.8869
17.9428 75.538
17.9881 84.2559
18.0331 101.235
18.0784 120.665
18.1237 136.533
18.1688 132.843
18.214 107.366
18.2591 89.369
18.3044 91.6501
18.3495 99.8146
18.3948 105.124
18.4399 98.3171
18.4852 80.5921
18.5303 67.9135
18.5756 63.28
18.6207 62.2117
18.666 61.5136
18.7112 60.506
18.7565 59.8335
18.8016 59.3146
18.8469 58.9124
18.892 58.7443
18.9374 58.0581
18.9825 57.938
19.0278 57.6708
19.073 57.8725
19.1183 58.2265
19.1635 59.0817
19.2088 60.4868
19.254 63.2934
19.2993 67.5164
19.3447 72.8033
19.3898 76.2165
19.4352 73.1065
19.4804 64.7177
19.5257 57.7679
19.5709 55.1471
19.6163 54.8985
19.6615 54.3542
19.7068 53.9231
19.752 53.992
19.7974 54.3713
19.8426 55.4128
19.888 55.8757
19.9332 57.261
19.9786 59.8945
20.0238 63.1748
20.0692 67.305
20.1144 69.8291
20.1598 69.2359
20.205 65.1524
20.2504 63.2099
20.2957 64.3066
20.3411 65.9021
20.3863 64.8145
20.4318 59.7796
20.477 54.8202
20.5224 52.5079
20.5677 51.6999
20.6131 51.0117
20.6586 50.291
20.7038 50.2953
20.7493 49.8314
20.7945 49.7736
20.84 49.5921
20.8853 49.3499
20.9307 49.2673
20.976 49.5429
21.0215 49.5657
21.0668 49.7304
21.1122 50.2248
21.1575 50.7885
21.203 51.3634
21.2483 51.8358
21.2938 52.2218
21.3391 51.0358
21.3846 49.7781
21.4299 49.0858
21.4754 49.1291
21.5207 49.2763
21.5662 49.6571
21.6116 50.1437
21.6571 50.773
21.7024 51.8323
21.7479 53.5608
21.7933 56.3205
21.8388 59.465
21.8843 63.0239
21.9297 64.7111
21.9752 64.0589
22.0206 60.9676
22.0661 57.5149
22.1115 56.5105
22.157 56.4687
22.2024 55.2114
22.248 52.3914
22.2933 50.7223
22.3389 49.9345
22.3843 49.6951
22.4299 49.6356
22.4753 49.5837
22.5208 49.2946
22.5662 49.2219
22.6118 49.3825
22.6572 49.4324
22.7028 50.0231
22.7483 50.5026
22.7939 51.1582
22.8393 52.593
22.8849 54.6149
22.9303 56.2782
22.9759 57.888
23.0214 58.0209
23.067 55.5842
23.1126 52.2009
23.1581 50.0417
23.2037 49.4997
23.2492 49.539
23.2948 49.6817
23.3403 49.9272
23.3859 50.6732
23.4314 51.6209
23.477 53.3793
23.5225 55.3965
23.5682 57.0212
23.6137 57.9806
23.6593 56.1583
23.7048 52.5775
23.7505 49.3558
23.796 47.2992
23.8417 46.6572
23.8872 46.166
23.9329 45.8406
23.9784 45.4564
24.0241 45.515
24.0697 45.0469
24.1154 44.7772
24.1609 44.6523
24.2066 44.4843
24.2522 44.3656
24.2979 44.0067
24.3434 43.9271
24.3892 43.6808
24.4349 43.7896
24.4805 43.5288
24.5262 43.6667
24.5718 43.5693
24.6175 43.4685
24.6631 43.3019
24.7089 43.1562
24.7545 42.9625
24.8002 42.8772
24.8458 42.8863
24.8916 42.5456
24.9372 42.7888
24.983 43.1389
25.0286 43.4259
25.0744 43.9532
25.12 44.4609
25.1658 44.9492
25.2114 45.2458
25.2572 45.5036
25.3029 45.4148
25.3487 45.3267
25.3943 45.1397
25.4402 44.2608
25.4858 43.0744
25.5316 42.3557
25.5773 41.5098
25.6231 41.4677
25.669 41.1165
25.7147 41.2818
25.7605 41.0356
25.8062 41.067
25.8521 41.0656
25.8977 41.2742
25.9436 41.4876
25.9893 41.6329
26.0352 42.053
26.0809 42.0988
26.1268 42.1456
26.1725 42.0503
26.2184 41.4349
26.2641 41.0227
26.31 40.6797
26.3557 40.7367
26.4017 40.7346
26.4474 41.1022
26.4933 41.5079
26.5391 41.6567
26.585 42.3476
26.6308 42.519
26.6767 42.5976
26.7225 42.5915
26.7684 42.1775
26.8142 41.4022
26.8601 41.0325
26.9059 40.7364
26.9519 39.9975
26.9979 39.7414
27.0437 39.4397
27.0896 39.3385
27.1354 39.2583
27.1814 39.1605
27.2272 39.1426
27.2732 39.0856
27.3191 39.0374
27.3651 39.1644
27.4109 38.8717
27.4569 39.0649
27.5027 39.0573
27.5488 39.1318
27.5946 38.9373
27.6407 38.6699
27.6865 38.6631
27.7326 38.3989
27.7784 38.4748
27.8245 38.2826
27.8703 38.5562
27.9164 38.9408
27.9623 39.024
28.0084 39.2538
28.0543 39.7091
28.1003 39.4212
28.1462 39.3893
28.1923 39.0674
28.2384 38.3311
28.2843 38.1167
28.3304 37.7848
28.3764 37.3154
28.4225 36.9115
28.4684 36.8322
28.5145 36.4404
28.5605 36.3755
28.6066 36.1481
28.6526 36.0555
28.6987 36.1749
28.7447 35.9603
28.7908 36.018
28.8368 36.0041
28.8829 35.9403
28.9289 35.8268
28.9751 35.4717
29.0211 35.4277
29.0673 35.1764
29.1133 34.9345
29.1595 34.8974
29.2055 34.7302
29.2517 34.8116
29.2977 34.7535
29.3439 34.7608
29.3899 34.6693
29.4361 34.5596
29.4824 34.3938
29.5284 34.1817
29.5746 33.9527
29.6207 33.6613
29.6669 33.6165
29.713 33.4327
29.7593 33.3564
29.8053 33.2789
29.8516 33.277
29.8977 33.1607
29.9439 33.0496
29.99 33.1112
30.0363 32.9093
30.0824 32.9374
30.1287 32.8916
30.1748 32.8472
30.2211 32.8879
30.2673 32.7284
30.3136 32.807
30.3597 32.6793
30.406 32.7237
30.4522 32.5306
30.4985 32.5432
30.5447 32.619
30.591 32.4388
30.6372 32.6007
30.6835 32.6143
30.7297 32.7323
30.7761 32.6379
30.8224 32.5067
30.8686 32.3885
30.915 32.0861
30.9612 31.9534
31.0076 31.7332
31.0538 31.624
31.1002 31.6296
31.1464 31.3887
31.1928 31.4384
31.2391 31.4396
31.2855 31.2702
31.3317 31.3247
31.3781 31.3419
31.4244 31.3494
31.4708 31.24
31.5171 31.155
31.5636 31.216
31.6098 30.9551
31.6563 30.8527
31.7026 30.5959
31.7491 30.5203
31.7953 30.6369
31.8418 30.4946
31.8881 30.6318
31.9346 30.5273
31.9809 30.4096
32.0275 30.3192
32.074 30.2684
32.1203 30.1051
32.1668 29.9931
32.2132 29.7875
32.2597 29.7036
32.306 29.6337
32.3526 29.3006
32.399 29.3539
32.4455 29.2074
32.4919 29.1559
32.5385 29.0999
32.5848 28.8351
32.6314 28.9014
32.6778 28.8329
32.7244 28.6783
32.7708 28.5498
32.8174 28.5063
32.8638 28.4152
32.9104 28.3966
32.9569 28.4473
33.0035 28.3156
33.0499 28.1572
33.0966 28.1728
33.143 28.1393
33.1897 28.0751
33.2361 28.0278
33.2828 27.9109
33.3293 27.7621
33.3759 27.7827
33.4226 27.5909
33.4691 27.5832
33.5158 27.3893
33.5623 27.3413
33.609 27.1293
33.6555 27.0859
33.7022 26.9276
33.7487 26.8851
33.7954 26.8594
33.842 26.7822
33.8887 26.7997
33.9353 26.6318
33.982 26.4733
34.0286 26.3435
34.0753 26.4079
34.1219 26.2732
34.1687 26.1428
34.2152 26.166
34.262 26.0235
34.3086 25.7944
34.3554 25.9122
34.402 25.7245
34.4488 25.6847
34.4954 25.6559
34.5422 25.5308
34.5889 25.3421
34.6357 25.3559
34.6825 25.358
34.7292 25.1865
34.776 25.064
34.8227 25.1054
34.8695 24.985
34.9162 25.0307
34.9631 24.8623
35.0098 24.7578
35.0566 24.7218
35.1033 24.6369
35.1502 24.6149
35.1969 24.4645
35.2438 24.4503
35.2906 24.4735
35.3375 24.347
35.3842 24.3201
35.4311 24.2947
35.4779 24.2669
35.5248 24.1547
35.5716 24.077
35.6185 24.0159
35.6653 23.959
35.7123 23.9052
35.759 23.7455
35.806 23.6611
35.8528 23.6069
35.8998 23.634
35.9468 23.5259
35.9936 23.4122
36.0406 23.3879
36.0874 23.3377
36.1345 23.2943
36.1813 23.114
36.2283 23.0596
36.2752 22.9374
36.3222 22.9444
36.3691 22.8701
36.4161 22.7443
36.463 22.6931
36.5101 22.7574
36.557 22.6156
36.6041 22.4699
36.651 22.4742
36.6981 22.4677
36.745 22.3795
36.7921 22.2985
36.839 22.1925
36.8861 22.1052
36.9331 21.9944
36.9802 21.9576
37.0272 21.8935
37.0743 21.7772
37.1213 21.7232
37.1684 21.7546
37.2154 21.6003
37.2626 21.5508
37.3098 21.442
37.3568 21.4613
37.404 21.4134
37.451 21.2657
37.4982 21.1937
37.5452 21.1007
37.5924 21.0179
37.6395 21.0436
37.6867 20.9447
37.7337 20.8698
37.781 20.7661
37.8281 20.7906
37.8753 20.7347
37.9224 20.6245
37.9697 20.5329
38.0168 20.4983
38.064 20.4492
38.1111 20.4067
38.1584 20.3013
38.2056 20.2246
38.2529 20.1946
38.3 20.0479
38.3473 20.157
38.3945 19.9946
38.4418 19.9687
38.489 19.885
38.5363 19.7696
38.5837 19.7658
38.6309 19.683
38.6782 19.5761
38.7254 19.5137
38.7728 19.5115
38.82 19.4218
38.8674 19.3613
38.9146 19.2828
38.9621 19.1929
39.0093 19.193
39.0567 19.1351
39.104 19.0784
39.1514 18.9982
39.1987 18.993
39.2461 18.8599
39.2934 18.8242
39.3409 18.7388
39.3882 18.6316
39.4356 18.6107
39.483 18.56
39.5304 18.4804
39.5778 18.4544
39.6253 18.3808
39.6726 18.3337
39.7201 18.3291
39.7675 18.2346
39.815 18.1597
39.8624 18.0875
39.9099 18.15
39.9575 17.9762
40.0049 17.9911
40.0525 17.8322
40.0999 17.8929
40.1474 17.8512
40.1949 17.6762
40.2425 17.6104
40.2899 17.659
40.3375 17.5809
40.385 17.444
40.4326 17.4492
40.48 17.3115
40.5277 17.3388
40.5752 17.2887
40.6228 17.2167
40.6703 17.2043
40.718 17.1194
40.7655 17.1005
40.8132 16.9827
40.8607 17.0352
40.9084 16.9468
40.9559 16.8443
41.0036 16.7681
41.0512 16.7391
41.0989 16.7363
41.1465 16.5811
41.1942 16.5141
41.242 16.4475
41.2896 16.4454
41.3373 16.4109
41.3849 16.3482
41.4327 16.3004
41.4803 16.1799
41.5281 16.1554
41.5758 16.0775
41.6236 16.037
41.6712 16.0019
41.7191 15.9719
41.7667 15.904
41.8146 15.8342
41.8622 15.8061
41.9101 15.7392
41.9578 15.7022
42.0057 15.6047
42.0534 15.6079
42.1013 15.4851
42.149 15.4936
42.1969 15.4589
42.2446 15.3827
42.2925 15.3395
42.3403 15.2275
42.3882 15.2553
42.436 15.1254
42.4839 15.142
42.5319 15.0499
42.5797 15.0356
42.6277 15.0162
42.6755 14.932
42.7235 14.8702
42.7713 14.8217
42.8193 14.7805
42.8671 14.7265
42.9152 14.6971
42.963 14.5953
43.0111 14.5768
43.0589 14.5528
43.107 14.4422
43.1549 14.3713
43.2029 14.3594
43.2508 14.3556
43.2989 14.3023
43.3468 14.2081
43.3949 14.2097
43.4429 14.135
43.491 14.0439
43.5389 14.0352
43.5871 13.9295
43.635 13.9118
43.6832 13.9025
43.7312 13.871
43.7793 13.7895
43.8273 13.7793
43.8755 13.6396
43.9237 13.6372
43.9717 13.6243
44.0199 13.543
44.068 13.5182
44.1162 13.4656
44.1642 13.3997
44.2125 13.3789
44.2606 13.3372
44.3088 13.278
44.3569 13.2533
44.4052 13.2081
44.4533 13.0963
44.5016 13.0406
44.5497 13.0348
44.598 13.0233
44.6461 12.9229
44.6945 12.8977
44.7426 12.805
44.791 12.7931
44.8391 12.8114
44.8875 12.6728
44.9357 12.747
44.984 12.6858
45.0322 12.6082
45.0806 12.5397
45.1288 12.4853
45.1773 12.4658
45.2257 12.4376
45.2739 12.3891
45.3224 12.2947
45.3706 12.3358
45.4191 12.2374
45.4673 12.1811
45.5158 12.1222
45.5641 12.0839
45.6126 12.0609
45.6609 12.0594
45.7094 11.9621
45.7577 11.9207
45.8063 11.8523
45.8546 11.8281
45.9031 11.7994
45.9515 11.773
46.0001 11.6939
46.0484 11.6816
46.097 11.6334
46.1454 11.5955
46.194 11.5929
46.2424 11.5019
46.291 11.5068
46.3395 11.3908
46.3881 11.3904
46.4365 11.3826
46.4852 11.2894
46.5337 11.2515
46.5823 11.2795
46.631 11.1509
46.6795 11.1268
46.7282 11.095
46.7767 11.0519
46.8254 10.9868
46.8739 10.967
46.9226 10.9433
46.9712 10.8556
47.0199 10.8598
47.0685 10.8312
47.1173 10.794
47.1658 10.7523
47.2146 10.7105
47.2632 10.6372
47.312 10.6624
47.3606 10.5893
47.4095 10.5386
47.4581 10.5079
47.5069 10.4797
47.5556 10.4323
47.6044 10.3969
47.6531 10.3457
47.702 10.3083
47.7507 10.2493
47.7996 10.1976
47.8483 10.1724
47.8972 10.1729
47.9461 10.1201
47.9948 10.0746
48.0438 10.0772
48.0925 10.0092
48.1415 10.0344
48.1902 9.94248
48.2392 9.92051
48.288 9.8664
48.337 9.82529
48.3858 9.81132
48.4348 9.80007
48.4837 9.7517
48.5327 9.70228
48.5815 9.63868
48.6306 9.66732
48.6795 9.59488
48.7285 9.56293
48.7774 9.53088
48.8265 9.52701
48.8754 9.45706
48.9245 9.41497
48.9734 9.39739
49.0226 9.35106
49.0715 9.32404
49.1206 9.24226
49.1696 9.2191
49.2188 9.21204
49.2679 9.15383
49.3169 9.06126
49.3661 9.07365
49.4151 9.06763
49.4643 9.03751
49.5134 8.99563
49.5626 8.90949
49.6117 8.90735
49.6609 8.89523
49.71 8.83198
49.7592 8.80616
49.8083 8.79537
49.8576 8.7601
49.9067 8.70311
49.956 8.71238
50.0052 8.66308
50.0545 8.61683
50.1036 8.58196
50.153 8.55098
50.2022 8.52484
50.2515 8.49477
50.3007 8.43514
50.3501 8.39993
50.3993 8.36737
50.4487 8.35074
50.498 8.32107
50.5474 8.29458
50.5966 8.26215
50.6461 8.20024
50.6955 8.18557
50.7448 8.17684
50.7943 8.13315
50.8436 8.0849
50.8931 8.06409
50.9424 8.0548
50.9919 7.97831
51.0413 7.97018
51.0908 7.95186
51.1402 7.93531
51.1897 7.87041
51.2391 7.82779
51.2887 7.83838
51.3381 7.77401
51.3877 7.79243
51.4371 7.7217
51.4867 7.67866
51.5362 7.65479
51.5858 7.60385
51.6353 7.59131
51.6849 7.57793
51.7344 7.52821
51.7841 7.47737
51.8336 7.5022
51.8833 7.43545
51.9328 7.37975
51.9826 7.35608
52.0323 7.34145
52.0818 7.30968
52.1316 7.29734
52.1812 7.28822
52.231 7.21586
52.2806 7.17748
52.3304 7.14868
52.38 7.13473
52.4298 7.10997
52.4794 7.07313
52.5293 7.01056
52.5789 7.04637
52.6288 6.99402
52.6785 6.94231
52.7284 6.95604
52.7781 6.91573
52.828 6.82992
52.8777 6.82603
52.9276 6.81364
52.9774 6.78657
53.0273 6.78052
53.0771 6.6946
53.1271 6.72364
53.1769 6.66039
53.2269 6.65463
53.2767 6.60194
53.3267 6.56941
53.3765 6.54773
53.4266 6.53858
53.4766 6.52791
53.5265 6.46831
53.5765 6.48805
53.6264 6.41308
53.6765 6.42092
53.7264 6.34372
53.7765 6.35587
53.8265 6.29605
53.8766 6.29103
53.9266 6.27463
53.9767 6.23669
54.0267 6.22392
54.0769 6.16583
54.1269 6.17959
54.1771 6.09239
54.2271 6.0828
54.2773 6.05189
54.3274 6.09641
54.3776 5.96968
54.4277 5.95211
54.478 5.90644
54.528 5.86566
54.5783 5.88965
54.6285 5.80884
54.6788 5.76207
54.7289 5.70283
54.7792 5.73623
54.8296 5.64254
54.8798 5.58619
54.9301 5.58366
54.9803 5.52836
55.0307 5.50137
55.0809 5.43421
55.1314 5.41164
55.1816 5.35148
55.232 5.31
55.2823 5.32864
55.3328 5.23031
55.383 5.14465
55.4335 5.13113
55.4838 5.09185
55.5344 5.00888
55.5847 4.9557
55.6352 4.94788
55.6856 4.91706
55.7361 4.88266