File: XRD/Ni3Fe_FD0533.xy
TT I
1.27165 7.75501
1.31627 6.39577
1.36089 6.62499
1.40551 5.96034
1.45013 5.84309
1.49476 5.76585
1.53938 6.34431
1.584 5.41226
1.62863 5.37625
1.67325 4.53894
1.71787 5.26081
1.7625 5.02045
1.80712 5.30229
1.85174 4.7546
1.89636 4.83476
1.94099 4.94814
1.98562 4.73832
2.03025 4.57555
2.07487 4.69159
2.11949 4.97313
2.16411 5.08371
2.20874 17.0223
2.25338 28.9496
2.298 6.32192
2.34263 5.54489
2.38725 5.61206
2.43188 6.10268
2.4765 6.65354
2.52115 6.70474
2.56577 6.61405
2.6104 7.64457
2.65503 7.60158
2.69965 7.42127
2.7443 7.68718
2.78893 7.97461
2.83356 8.88705
2.87818 8.06996
2.92281 8.70859
2.96744 9.3819
3.01209 10.1275
3.05672 11.191
3.10135 12.2009
3.14599 13.2237
3.19062 14.6669
3.23527 15.0418
3.2799 15.9371
3.32454 16.9056
3.36917 17.8445
3.4138 18.7649
3.45844 19.9712
3.50309 21.3265
3.54773 22.547
3.59237 24.8245
3.637 114.928
3.68164 71.1511
3.7263 26.5872
3.77094 26.178
3.81558 27.2746
3.86022 27.9128
3.90486 29.4056
3.9495 30.1625
3.99416 31.5737
4.0388 32.7666
4.08344 34.1075
4.12809 35.4586
4.17273 37.9343
4.21738 45.0768
4.26204 311.356
4.30669 279.486
4.35133 51.5573
4.39598 45.5256
4.44063 57.0963
4.4853 72.0624
4.52995 51.3594
4.5746 51.8798
4.61925 53.732
4.6639 55.674
4.70855 58.4862
4.75322 61.2024
4.79788 64.0966
4.84253 67.9073
4.88719 71.7071
4.93184 75.1682
4.97652 81.3181
5.02118 87.7167
5.06583 95.0037
5.11049 107.32
5.15515 193.902
5.19981 371.355
5.24449 2732.87
5.28916 11826.3
5.33382 3307.47
5.37848 206.515
5.42315 133.562
5.46783 115.75
5.5125 107.41
5.55716 103.714
5.60183 100.263
5.6465 98.1146
5.69117 95.251
5.73586 92.7706
5.78053 92.3752
5.8252 91.7956
5.86988 92.7319
5.91455 95.089
5.95924 102.778
6.00392 207.611
6.0486 942.775
6.09328 4108.49
6.13795 3553.57
6.18263 295.282
6.22733 97.7423
6.27201 85.8321
6.3167 112.726
6.36138 84.7383
6.40606 70.2753
6.45075 68.5347
6.49545 66.4952
6.54014 64.8701
6.58483 64.3897
6.62952 63.863
6.67421 104.482
6.71892 173.386
6.76361 72.665
6.8083 59.7913
6.853 58.2251
6.89769 58.2254
6.94239 57.6058
6.98711 57.1693
7.03181 56.6489
7.07651 56.4205
7.12121 55.894
7.16591 56.4071
7.21063 56.4675
7.25533 75.3575
7.30004 223.079
7.34475 105.582
7.38945 58.3239
7.43416 55.7367
7.47889 55.4268
7.5236 55.5839
7.56831 56.3467
7.61303 58.8017
7.65774 58.9555
7.70247 56.8924
7.74719 56.8549
7.79191 57.6775
7.83663 57.6841
7.88135 58.523
7.92607 59.3226
7.97081 60.4584
8.01553 61.4529
8.06026 62.9904
8.10498 64.6254
8.14971 76.4869
8.19446 74.8661
8.23919 70.0925
8.28392 72.4912
8.32865 74.6566
8.37339 79.0995
8.41812 86.7185
8.46288 122.691
8.50761 165.213
8.55235 378.41
8.59709 1099.45
8.64183 2155.65
8.68658 1078.95
8.73134 194.693
8.77609 102.155
8.82083 94.2975
8.86558 90.5416
8.91033 91.5134
8.9551 94.7326
8.99985 86.7498
9.04461 84.3562
9.08936 83.4013
9.13412 83.0433
9.17888 82.4852
9.22365 83.9864
9.26841 82.9632
9.31318 83.3012
9.35794 83.3987
9.4027 83.7141
9.44749 84.543
9.49226 85.3473
9.53703 85.9309
9.5818 88.139
9.62657 93.5825
9.67134 102.418
9.71614 95.3401
9.76091 94.365
9.80569 96.8826
9.85047 101.268
9.89525 131.114
9.94005 145.694
9.98484 174.507
10.0296 332.251
10.0744 750.039
10.1192 1618.88
10.164 1699.45
10.2088 464.683
10.2536 134.54
10.2984 116.999
10.3432 119.921
10.388 106.577
10.4328 117.678
10.4776 157.919
10.5224 268.016
10.5672 494.499
10.612 544.616
10.6568 224.88
10.7017 100.129
10.7465 87.9157
10.7913 84.0254
10.8361 82.0572
10.8809 79.9289
10.9257 79.7607
10.9706 81.1085
11.0154 76.0749
11.0602 73.7743
11.105 72.9292
11.1499 78.9679
11.1947 89.199
11.2395 77.3064
11.2844 72.5687
11.3292 68.3449
11.374 67.1834
11.4189 66.6352
11.4637 65.8645
11.5086 66.5212
11.5534 70.8017
11.5983 67.1045
11.6431 64.6387
11.688 63.6822
11.7328 63.654
11.7777 63.9453
11.8225 63.0577
11.8674 63.02
11.9122 63.6412
11.9571 63.8011
12.002 64.462
12.0468 68.2099
12.0917 79.6153
12.1366 102.107
12.1814 146.832
12.2263 202.289
12.2712 176.993
12.3161 104.502
12.3609 73.5455
12.4058 65.7258
12.4507 65.3058
12.4956 65.3254
12.5405 65.4754
12.5853 66.5849
12.6302 76.7265
12.6751 83.9622
12.72 72.1183
12.7649 68.5615
12.8098 69.2867
12.8547 70.6261
12.8996 71.8235
12.9445 72.8192
12.9894 74.4737
13.0343 76.3678
13.0792 79.4509
13.1242 87.9374
13.1691 111.425
13.214 146.464
13.2589 225.035
13.3038 349.433
13.3487 437.368
13.3937 290.237
13.4386 132.02
13.4835 106.518
13.5285 119.911
13.5734 154.453
13.6183 233.208
13.6633 335.581
13.7082 352.846
13.7531 201.882
13.7981 103.245
13.843 83.161
13.888 80.5
13.9329 77.9249
13.9779 76.7973
14.0228 75.2151
14.0678 73.8045
14.1127 73.4388
14.1577 73.7057
14.2027 72.2718
14.2476 71.1988
14.2926 71.7963
14.3376 73.303
14.3825 71.5021
14.4275 69.4604
14.4725 69.2848
14.5175 69.4192
14.5624 69.8251
14.6074 72.5367
14.6524 73.0438
14.6974 71.042
14.7424 72.3693
14.7874 78.9127
14.8324 88.6409
14.8774 108.425
14.9224 146.284
14.9674 198.107
15.0124 220.99
15.0574 160.083
15.1024 95.9991
15.1474 73.7999
15.1924 71.4135
15.2374 72.8093
15.2824 72.1088
15.3274 69.4097
15.3725 67.8272
15.4175 67.2573
15.4625 66.8313
15.5076 67.2312
15.5526 67.1206
15.5976 66.5539
15.6426 67.1958
15.6877 72.293
15.7327 79.7993
15.7778 93.7059
15.8228 121.385
15.8679 163.39
15.9129 193.982
15.958 164.423
16.003 103.354
16.0481 70.5729
16.0931 66.5883
16.1382 64.3278
16.1833 61.4436
16.2283 59.9596
16.2734 59.3446
16.3185 59.831
16.3636 61.0481
16.4086 59.1325
16.4537 57.1294
16.4988 56.4085
16.5439 56.3031
16.589 56.0625
16.6341 55.7207
16.6792 55.3648
16.7243 55.7544
16.7694 56.0642
16.8145 55.7626
16.8596 56.2185
16.9047 57.8905
16.9498 58.1754
16.9949 56.7042
17.04 56.4922
17.0851 57.6947
17.1302 59.2644
17.1754 61.972
17.2205 66.3453
17.2656 73.3293
17.3108 81.9147
17.3559 82.9799
17.401 73.7157
17.4462 63.6619
17.4913 59.7915
17.5365 59.7438
17.5815 59.7302
17.6268 60.0192
17.6718 61.213
17.7171 61.8
17.7622 61.7957
17.8074 62.5529
17.8525 64.562
17.8977 68.6565
17.9428 74.0789
17.9881 82.0165
18.0331 97.0157
18.0784 117.377
18.1237 137.845
18.1688 135.191
18.214 108.368
18.2591 88.1893
18.3044 89.6568
18.3495 98.869
18.3948 107.006
18.4399 100.648
18.4852 81.1083
18.5303 67.4963
18.5756 63.1751
18.6207 62.0128
18.666 61.0761
18.7112 60.6228
18.7565 59.7199
18.8016 59.3394
18.8469 58.7267
18.892 58.3591
18.9374 57.9899
18.9825 57.8208
19.0278 57.6766
19.073 57.6545
19.1183 58.0701
19.1635 58.9494
19.2088 60.1526
19.254 62.3448
19.2993 66.3857
19.3447 72.1901
19.3898 77.0667
19.4352 74.6188
19.4804 64.9863
19.5257 57.9351
19.5709 55.1628
19.6163 54.6375
19.6615 54.2859
19.7068 53.8775
19.752 53.7632
19.7974 54.2
19.8426 55.0952
19.888 55.6028
19.9332 56.7508
19.9786 58.8054
20.0238 62.1055
20.0692 66.6678
20.1144 70.5694
20.1598 69.7151
20.205 64.7655
20.2504 62.3336
20.2957 63.7217
20.3411 66.1237
20.3863 65.3369
20.4318 60.0205
20.477 54.9269
20.5224 52.6351
20.5677 51.8196
20.6131 51.1381
20.6586 50.4256
20.7038 50.0848
20.7493 49.8029
20.7945 49.7439
20.84 49.5508
20.8853 49.2635
20.9307 49.2627
20.976 49.3349
21.0215 49.2424
21.0668 49.7365
21.1122 49.8796
21.1575 50.5931
21.203 51.2699
21.2483 52.0861
21.2938 52.3301
21.3391 50.9981
21.3846 49.7539
21.4299 49.0104
21.4754 48.8356
21.5207 49.0026
21.5662 49.2884
21.6116 49.6844
21.6571 50.3601
21.7024 51.3363
21.7479 52.851
21.7933 55.2799
21.8388 58.5474
21.8843 62.3717
21.9297 64.9182
21.9752 64.5452
22.0206 60.8792
22.0661 57.3736
22.1115 56.2963
22.157 56.7012
22.2024 55.4631
22.248 52.4167
22.2933 50.6905
22.3389 49.815
22.3843 49.8074
22.4299 49.646
22.4753 49.6083
22.5208 49.458
22.5662 49.078
22.6118 49.1062
22.6572 49.3936
22.7028 49.6001
22.7483 50.0871
22.7939 50.8134
22.8393 52.2369
22.8849 54.1303
22.9303 56.1161
22.9759 58.2904
23.0214 58.3274
23.067 55.7711
23.1126 52.1441
23.1581 49.9902
23.2037 49.5055
23.2492 49.436
23.2948 49.3109
23.3403 49.45
23.3859 50.0184
23.4314 51.1195
23.477 52.7048
23.5225 54.7717
23.5682 56.9064
23.6137 58.391
23.6593 56.851
23.7048 52.5883
23.7505 49.1394
23.796 47.2786
23.8417 46.4494
23.8872 46.0219
23.9329 45.7947
23.9784 45.5153
24.0241 45.3113
24.0697 44.8558
24.1154 44.7644
24.1609 44.4853
24.2066 44.3887
24.2522 44.2126
24.2979 43.8655
24.3434 43.809
24.3892 43.636
24.4349 43.6347
24.4805 43.5504
24.5262 43.5219
24.5718 43.4223
24.6175 43.3731
24.6631 43.3734
24.7089 43.0666
24.7545 42.8733
24.8002 42.782
24.8458 42.7662
24.8916 42.3405
24.9372 42.5289
24.983 42.948
25.0286 43.2537
25.0744 43.7555
25.12 44.0625
25.1658 44.6878
25.2114 45.0532
25.2572 45.1598
25.3029 45.2027
25.3487 45.4695
25.3943 45.2982
25.4402 44.2929
25.4858 43.1323
25.5316 42.0903
25.5773 41.4653
25.6231 41.3422
25.669 40.9847
25.7147 40.9707
25.7605 41.0063
25.8062 40.8783
25.8521 41.0978
25.8977 41.0858
25.9436 41.1869
25.9893 41.3386
26.0352 41.8651
26.0809 41.884
26.1268 42.2554
26.1725 41.921
26.2184 41.4155
26.2641 40.8502
26.31 40.5912
26.3557 40.534
26.4017 40.5219
26.4474 40.8603
26.4933 41.1801
26.5391 41.8082
26.585 42.0596
26.6308 42.3965
26.6767 42.5579
26.7225 42.5625
26.7684 42.0816
26.8142 41.44
26.8601 40.9355
26.9059 40.5815
26.9519 39.9663
26.9979 39.7245
27.0437 39.2814
27.0896 39.1656
27.1354 39.2193
27.1814 39.0463
27.2272 38.9958
27.2732 39.0557
27.3191 38.8343
27.3651 38.9301
27.4109 38.7838
27.4569 38.9451
27.5027 38.9912
27.5488 38.991
27.5946 38.7411
27.6407 38.5358
27.6865 38.5467
27.7326 38.1867
27.7784 38.2985
27.8245 38.3028
27.8703 38.2989
27.9164 38.5176
27.9623 38.6336
28.0084 39.0938
28.0543 39.4901
28.1003 39.3914
28.1462 39.4283
28.1923 38.9518
28.2384 38.3091
28.2843 38.1053
28.3304 37.7089
28.3764 37.2905
28.4225 36.8179
28.4684 36.6954
28.5145 36.3476
28.5605 36.2665
28.6066 36.0838
28.6526 36.0388
28.6987 36.0619
28.7447 35.8319
28.7908 35.8161
28.8368 35.8208
28.8829 35.9547
28.9289 35.8223
28.9751 35.5321
29.0211 35.4495
29.0673 35.0442
29.1133 34.9904
29.1595 34.8441
29.2055 34.7247
29.2517 34.7408
29.2977 34.692
29.3439 34.6951
29.3899 34.5679
29.4361 34.5379
29.4824 34.4484
29.5284 34.2478
29.5746 33.8373
29.6207 33.6461
29.6669 33.4427
29.713 33.3407
29.7593 33.2388
29.8053 33.24
29.8516 33.1896
29.8977 33.2141
29.9439 32.968
29.99 32.9209
30.0363 32.8643
30.0824 32.9284
30.1287 32.9179
30.1748 32.8255
30.2211 32.8733
30.2673 32.67
30.3136 32.7345
30.3597 32.6962
30.406 32.5888
30.4522 32.4246
30.4985 32.4196
30.5447 32.4396
30.591 32.5594
30.6372 32.4988
30.6835 32.4998
30.7297 32.5505
30.7761 32.5751
30.8224 32.3801
30.8686 32.2645
30.915 31.9606
30.9612 31.8907
31.0076 31.7157
31.0538 31.5736
31.1002 31.4912
31.1464 31.2862
31.1928 31.3068
31.2391 31.2078
31.2855 31.2123
31.3317 31.1092
31.3781 31.2477
31.4244 31.2479
31.4708 31.0742
31.5171 31.1447
31.5636 31.1291
31.6098 30.8732
31.6563 30.7438
31.7026 30.5436
31.7491 30.4068
31.7953 30.488
31.8418 30.3778
31.8881 30.4348
31.9346 30.3984
31.9809 30.3897
32.0275 30.1932
32.074 30.0866
32.1203 30.0195
32.1668 29.9341
32.2132 29.7336
32.2597 29.6291
32.306 29.4867
32.3526 29.3328
32.399 29.2449
32.4455 29.031
32.4919 28.9781
32.5385 28.968
32.5848 28.8308
32.6314 28.8126
32.6778 28.7562
32.7244 28.5751
32.7708 28.4069
32.8174 28.4868
32.8638 28.3219
32.9104 28.4005
32.9569 28.2786
33.0035 28.2731
33.0499 28.1573
33.0966 28.0963
33.143 28.153
33.1897 28.0448
33.2361 27.9638
33.2828 27.9023
33.3293 27.6864
33.3759 27.6971
33.4226 27.5972
33.4691 27.4821
33.5158 27.3997
33.5623 27.1294
33.609 27.0252
33.6555 27.0692
33.7022 26.9595
33.7487 26.886
33.7954 26.8293
33.842 26.7134
33.8887 26.6073
33.9353 26.5251
33.982 26.4275
34.0286 26.4077
34.0753 26.2644
34.1219 26.1346
34.1687 26.1632
34.2152 26.0421
34.262 25.8918
34.3086 25.8595
34.3554 25.8676
34.402 25.6468
34.4488 25.643
34.4954 25.5786
34.5422 25.4788
34.5889 25.415
34.6357 25.3183
34.6825 25.2399
34.7292 25.1191
34.776 24.9971
34.8227 24.987
34.8695 25.006
34.9162 24.8977
34.9631 24.7861
35.0098 24.8
35.0566 24.6478
35.1033 24.5887
35.1502 24.5678
35.1969 24.49
35.2438 24.4318
35.2906 24.335
35.3375 24.3126
35.3842 24.2713
35.4311 24.2936
35.4779 24.2413
35.5248 24.1371
35.5716 24.0689
35.6185 24.0207
35.6653 23.9066
35.7123 23.8734
35.759 23.7245
35.806 23.5876
35.8528 23.4601
35.8998 23.5162
35.9468 23.3913
35.9936 23.3874
36.0406 23.3193
36.0874 23.2716
36.1345 23.0969
36.1813 23.0689
36.2283 22.9707
36.2752 22.9408
36.3222 22.9202
36.3691 22.894
36.4161 22.8086
36.463 22.8107
36.5101 22.7109
36.557 22.655
36.6041 22.4202
36.651 22.4693
36.6981 22.4306
36.745 22.319
36.7921 22.2257
36.839 22.1768
36.8861 22.0595
36.9331 22.0139
36.9802 22.0123
37.0272 21.9136
37.0743 21.7915
37.1213 21.6439
37.1684 21.7126
37.2154 21.634
37.2626 21.5746
37.3098 21.4651
37.3568 21.4008
37.404 21.3944
37.451 21.2215
37.4982 21.1623
37.5452 21.0773
37.5924 21.0403
37.6395 21.1166
37.6867 21.0223
37.7337 20.8953
37.781 20.7681
37.8281 20.6903
37.8753 20.6342
37.9224 20.5152
37.9697 20.5515
38.0168 20.4476
38.064 20.3818
38.1111 20.3529
38.1584 20.2441
38.2056 20.164
38.2529 20.0728
38.3 20.0535
38.3473 20.0756
38.3945 19.9545
38.4418 19.9068
38.489 19.8815
38.5363 19.7477
38.5837 19.6398
38.6309 19.6808
38.6782 19.591
38.7254 19.5062
38.7728 19.4457
38.82 19.3623
38.8674 19.3116
38.9146 19.2906
38.9621 19.1706
39.0093 19.1201
39.0567 18.989
39.104 19.0392
39.1514 18.9867
39.1987 18.8759
39.2461 18.8485
39.2934 18.7794
39.3409 18.6758
39.3882 18.6401
39.4356 18.6333
39.483 18.58
39.5304 18.5345
39.5778 18.4563
39.6253 18.3823
39.6726 18.2969
39.7201 18.2741
39.7675 18.2506
39.815 18.186
39.8624 18.0353
39.9099 18.0873
39.9575 17.9747
40.0049 17.9025
40.0525 17.8479
40.0999 17.8076
40.1474 17.7563
40.1949 17.6783
40.2425 17.6761
40.2899 17.6153
40.3375 17.58
40.385 17.4523
40.4326 17.4131
40.48 17.3557
40.5277 17.3246
40.5752 17.2922
40.6228 17.2006
40.6703 17.1381
40.718 17.0973
40.7655 17.0813
40.8132 16.9357
40.8607 16.9159
40.9084 16.9035
40.9559 16.8098
41.0036 16.7172
41.0512 16.7467
41.0989 16.6825
41.1465 16.6029
41.1942 16.5445
41.242 16.5226
41.2896 16.4281
41.3373 16.3499
41.3849 16.3215
41.4327 16.2421
41.4803 16.1699
41.5281 16.1848
41.5758 16.1014
41.6236 16.0142
41.6712 15.9575
41.7191 15.9579
41.7667 15.8673
41.8146 15.8245
41.8622 15.7652
41.9101 15.6954
41.9578 15.6312
42.0057 15.6365
42.0534 15.5834
42.1013 15.5471
42.149 15.4664
42.1969 15.399
42.2446 15.3694
42.2925 15.3035
42.3403 15.3058
42.3882 15.2862
42.436 15.1709
42.4839 15.077
42.5319 15.0768
42.5797 15.0024
42.6277 14.9685
42.6755 14.9445
42.7235 14.824
42.7713 14.8403
42.8193 14.7749
42.8671 14.6626
42.9152 14.6641
42.963 14.6241
43.0111 14.5444
43.0589 14.4795
43.107 14.3945
43.1549 14.3968
43.2029 14.3423
43.2508 14.3295
43.2989 14.2666
43.3468 14.1918
43.3949 14.1716
43.4429 14.091
43.491 14.0527
43.5389 14.0168
43.5871 13.9405
43.635 13.9356
43.6832 13.9
43.7312 13.8102
43.7793 13.7296
43.8273 13.6844
43.8755 13.6988
43.9237 13.6703
43.9717 13.6002
44.0199 13.5209
44.068 13.4748
44.1162 13.4307
44.1642 13.446
44.2125 13.376
44.2606 13.2835
44.3088 13.243
44.3569 13.2419
44.4052 13.2363
44.4533 13.1155
44.5016 13.0481
44.5497 13.0184
44.598 12.968
44.6461 12.9672
44.6945 12.9099
44.7426 12.847
44.791 12.7614
44.8391 12.7865
44.8875 12.7176
44.9357 12.6478
44.984 12.6566
45.0322 12.5708
45.0806 12.559
45.1288 12.4729
45.1773 12.4169
45.2257 12.4149
45.2739 12.3397
45.3224 12.3163
45.3706 12.3118
45.4191 12.2245
45.4673 12.2013
45.5158 12.1624
45.5641 12.0914
45.6126 12.0751
45.6609 11.9792
45.7094 11.9526
45.7577 11.8918
45.8063 11.8795
45.8546 11.8111
45.9031 11.7589
45.9515 11.7666
46.0001 11.7578
46.0484 11.7109
46.097 11.6493
46.1454 11.6028
46.194 11.5535
46.2424 11.5421
46.291 11.4839
46.3395 11.429
46.3881 11.3299
46.4365 11.3254
46.4852 11.3029
46.5337 11.267
46.5823 11.2055
46.631 11.1519
46.6795 11.1949
46.7282 11.1216
46.7767 11.0783
46.8254 11.0051
46.8739 10.957
46.9226 10.9124
46.9712 10.871
47.0199 10.885
47.0685 10.8136
47.1173 10.7556
47.1658 10.73
47.2146 10.7031
47.2632 10.6218
47.312 10.6287
47.3606 10.5603
47.4095 10.5208
47.4581 10.4838
47.5069 10.4646
47.5556 10.4047
47.6044 10.3638
47.6531 10.3093
47.702 10.2905
47.7507 10.2525
47.7996 10.239
47.8483 10.1896
47.8972 10.1479
47.9461 10.1596
47.9948 10.0892
48.0438 10.0358
48.0925 10.0278
48.1415 9.96502
48.1902 9.9193
48.2392 9.91364
48.288 9.88701
48.337 9.81351
48.3858 9.79008
48.4348 9.77501
48.4837 9.78354
48.5327 9.70477
48.5815 9.66569
48.6306 9.62816
48.6795 9.58095
48.7285 9.52511
48.7774 9.51838
48.8265 9.46924
48.8754 9.42061
48.9245 9.39156
48.9734 9.38054
49.0226 9.36501
49.0715 9.29032
49.1206 9.25916
49.1696 9.19304
49.2188 9.20607
49.2679 9.17306
49.3169 9.08629
49.3661 9.10826
49.4151 9.04827
49.4643 9.03414
49.5134 8.97154
49.5626 8.92724
49.6117 8.8986
49.6609 8.9166
49.71 8.83255
49.7592 8.82566
49.8083 8.79893
49.8576 8.7443
49.9067 8.67486
49.956 8.66432
50.0052 8.64774
50.0545 8.61494
50.1036 8.59222
50.153 8.54305
50.2022 8.53929
50.2515 8.42538
50.3007 8.46972
50.3501 8.42212
50.3993 8.39553
50.4487 8.34493
50.498 8.32446
50.5474 8.28734
50.5966 8.23159
50.6461 8.25315
50.6955 8.17919
50.7448 8.13468
50.7943 8.10148
50.8436 8.08261
50.8931 8.07726
50.9424 8.02137
50.9919 8.0129
51.0413 7.97183
51.0908 7.95412
51.1402 7.89265
51.1897 7.85114
51.2391 7.87103
51.2887 7.83996
51.3381 7.76386
51.3877 7.74975
51.4371 7.72471
51.4867 7.67383
51.5362 7.63764
51.5858 7.67164
51.6353 7.55621
51.6849 7.54047
51.7344 7.52238
51.7841 7.50701
51.8336 7.47065
51.8833 7.41556
51.9328 7.38014
51.9826 7.35662
52.0323 7.34956
52.0818 7.31104
52.1316 7.25991
52.1812 7.24261
52.231 7.20413
52.2806 7.18951
52.3304 7.14626
52.38 7.12825
52.4298 7.08787
52.4794 7.05419
52.5293 7.04234
52.5789 7.0297
52.6288 6.98379
52.6785 6.93159
52.7284 6.90188
52.7781 6.89113
52.828 6.84421
52.8777 6.82087
52.9276 6.81027
52.9774 6.75371
53.0273 6.73522
53.0771 6.69617
53.1271 6.66991
53.1769 6.66438
53.2269 6.63607
53.2767 6.57876
53.3267 6.59975
53.3765 6.56986
53.4266 6.50668
53.4766 6.5152
53.5265 6.48618
53.5765 6.43961
53.6264 6.35845
53.6765 6.3756
53.7264 6.35787
53.7765 6.32429
53.8265 6.30446
53.8766 6.26539
53.9266 6.24629
53.9767 6.21155
54.0267 6.18394
54.0769 6.14942
54.1269 6.12723
54.1771 6.09536
54.2271 6.05488
54.2773 6.02244
54.3274 6.03435
54.3776 5.94868
54.4277 5.91692
54.478 5.89966
54.528 5.84956
54.5783 5.83884
54.6285 5.80091
54.6788 5.71962
54.7289 5.7118
54.7792 5.68393
54.8296 5.63805
54.8798 5.57729
54.9301 5.56253
54.9803 5.51985
55.0307 5.47626
55.0809 5.45043
55.1314 5.42538
55.1816 5.31952
55.232 5.31992
55.2823 5.2925
55.3328 5.2084
55.383 5.16298
55.4335 5.12005
55.4838 5.02093
55.5344 4.98367
55.5847 4.95563
55.6352 4.9949
55.6856 4.88691
55.7361 4.82167