File: XRD/Ni3Fe_FD0062.xy
TT I
1.27165 31.7617
1.31627 30.3243
1.36089 28.6012
1.40551 26.7198
1.45013 25.9586
1.49476 25.585
1.53938 24.048
1.584 22.9604
1.62863 22.8633
1.67325 21.4734
1.71787 21.3686
1.7625 20.8496
1.80712 20.4493
1.85174 20.4676
1.89636 20.2055
1.94099 20.4183
1.98562 19.7343
2.03025 19.4548
2.07487 19.6163
2.11949 19.8235
2.16411 19.9251
2.20874 19.9188
2.25338 19.7368
2.298 20.2205
2.34263 20.4516
2.38725 20.3971
2.43188 20.3558
2.4765 21.1754
2.52115 21.2545
2.56577 21.3566
2.6104 22.7919
2.65503 23.1248
2.69965 25.5147
2.7443 26.9739
2.78893 28.6341
2.83356 31.8431
2.87818 35.7431
2.92281 40.5208
2.96744 45.8759
3.01209 54.6767
3.05672 63.0467
3.10135 71.4349
3.14599 75.1761
3.19062 71.4084
3.23527 62.6366
3.2799 52.4366
3.32454 43.3904
3.36917 37.0473
3.4138 32.8494
3.45844 30.155
3.50309 28.566
3.54773 27.0705
3.59237 26.1604
3.637 26.2083
3.68164 25.395
3.7263 25.6391
3.77094 25.5772
3.81558 26.0584
3.86022 25.8294
3.90486 26.6522
3.9495 26.9213
3.99416 27.2785
4.0388 28.2849
4.08344 29.4706
4.12809 29.9374
4.17273 30.9616
4.21738 32.3549
4.26204 34.227
4.30669 37.7769
4.35133 40.94
4.39598 39.2747
4.44063 37.9078
4.4853 38.0958
4.52995 39.1644
4.5746 40.4976
4.61925 42.0437
4.6639 43.638
4.70855 45.9356
4.75322 49.0695
4.79788 52.4665
4.84253 56.6218
4.88719 61.981
4.93184 70.6522
4.97652 84.4052
5.02118 105.659
5.06583 123.362
5.11049 145.149
5.15515 195.542
5.19981 342.53
5.24449 815.479
5.28916 1857.25
5.33382 4253.7
5.37848 2745.89
5.42315 671.194
5.46783 277.819
5.5125 185.624
5.55716 146.963
5.60183 125.144
5.6465 115.62
5.69117 110.58
5.73586 103.899
5.78053 101.595
5.8252 103.277
5.86988 109.715
5.91455 122.558
5.95924 147.819
6.00392 211.972
6.0486 366.469
6.09328 624.001
6.13795 1120.79
6.18263 1009.87
6.22733 423.784
6.27201 196.191
6.3167 121.14
6.36138 88.8438
6.40606 72.2954
6.45075 63.7361
6.49545 57.4645
6.54014 53.6091
6.58483 50.2911
6.62952 48.3522
6.67421 46.5572
6.71892 44.8513
6.76361 43.8975
6.8083 42.8917
6.853 42.2572
6.89769 41.7668
6.94239 41.9492
6.98711 42.4657
7.03181 42.9464
7.07651 45.1681
7.12121 45.6558
7.16591 43.2806
7.21063 41.1808
7.25533 40.2257
7.30004 39.9412
7.34475 40.3139
7.38945 40.567
7.43416 40.9347
7.47889 44.4902
7.5236 66.4949
7.56831 185.529
7.61303 150.543
7.65774 58.176
7.70247 43.831
7.74719 40.9097
7.79191 40.0163
7.83663 39.4633
7.88135 39.874
7.92607 40.0029
7.97081 40.49
8.01553 41.2633
8.06026 42.3643
8.10498 42.7076
8.14971 44.1418
8.19446 45.4479
8.23919 48.1467
8.28392 51.1275
8.32865 53.8897
8.37339 57.5672
8.41812 61.8355
8.46288 70.7975
8.50761 90.3684
8.55235 140.02
8.59709 201.042
8.64183 308.978
8.68658 639.713
8.73134 672.087
8.77609 296.167
8.82083 144.483
8.86558 98.3127
8.91033 82.104
8.9551 74.1427
8.99985 70.2801
9.04461 67.8538
9.08936 66.637
9.13412 67.0139
9.17888 71.9276
9.22365 104.214
9.26841 290.653
9.31318 290.113
9.35794 103.956
9.4027 69.4097
9.44749 63.2755
9.49226 60.6653
9.53703 58.9908
9.5818 59.3957
9.62657 59.3324
9.67134 59.6056
9.71614 60.7876
9.76091 61.9323
9.80569 63.8869
9.85047 66.3924
9.89525 70.4981
9.94005 77.929
9.98484 93.684
10.0296 134.247
10.0744 178.224
10.1192 227.481
10.164 415.134
10.2088 707.01
10.2536 511.755
10.2984 219.271
10.3432 128.206
10.388 94.7635
10.4328 84.9846
10.4776 88.3187
10.5224 95.6664
10.5672 102.845
10.612 146.728
10.6568 242.446
10.7017 248.572
10.7465 169.786
10.7913 87.1071
10.8361 62.7958
10.8809 56.1013
10.9257 52.6939
10.9706 50.8722
11.0154 48.9911
11.0602 47.516
11.105 46.5537
11.1499 45.6019
11.1947 45.2461
11.2395 44.8092
11.2844 44.1893
11.3292 43.0327
11.374 42.3578
11.4189 41.984
11.4637 41.3102
11.5086 40.9088
11.5534 40.7763
11.5983 40.5607
11.6431 40.589
11.688 40.3206
11.7328 40.7404
11.7777 40.9435
11.8225 41.3901
11.8674 42.75
11.9122 47.2119
11.9571 76.3081
12.002 115.657
12.0468 79.9867
12.0917 52.6436
12.1366 50.5445
12.1814 51.8959
12.2263 56.9468
12.2712 70.5201
12.3161 86.7605
12.3609 78.1304
12.4058 58.9998
12.4507 49.1883
12.4956 45.1059
12.5405 42.8783
12.5853 41.8806
12.6302 41.3555
12.6751 41.0124
12.72 41.1078
12.7649 41.5642
12.8098 41.8647
12.8547 42.3072
12.8996 42.9411
12.9445 43.6372
12.9894 44.8532
13.0343 46.6885
13.0792 50.6611
13.1242 61.8235
13.1691 69.1304
13.214 68.0936
13.2589 70.6798
13.3038 75.9382
13.3487 95.5068
13.3937 144.668
13.4386 187.261
13.4835 147.686
13.5285 99.6983
13.5734 84.7253
13.6183 79.1989
13.6633 81.2204
13.7082 102.584
13.7531 151.437
13.7981 172.056
13.843 115.452
13.888 74.4576
13.9329 59.9917
13.9779 54.1383
14.0228 51.1291
14.0678 50.3377
14.1127 52.5013
14.1577 72.3133
14.2027 103.151
14.2476 82.4938
14.2926 53.4429
14.3376 46.6967
14.3825 44.8707
14.4275 43.8532
14.4725 43.3581
14.5175 42.9841
14.5624 42.8288
14.6074 42.5675
14.6524 42.6874
14.6974 43.0566
14.7424 43.6615
14.7874 44.6695
14.8324 47.531
14.8774 51.1085
14.9224 52.7323
14.9674 55.0323
15.0124 63.586
15.0574 84.5899
15.1024 105.883
15.1474 94.2882
15.1924 70.6633
15.2374 55.0425
15.2824 48.0893
15.3274 45.001
15.3725 43.3746
15.4175 42.6664
15.4625 42.1502
15.5076 42.0331
15.5526 41.7455
15.5976 41.6937
15.6426 41.9148
15.6877 42.8336
15.7327 45.1028
15.7778 47.4144
15.8228 48.9784
15.8679 50.7807
15.9129 55.5347
15.958 69.5343
16.003 91.2046
16.0481 97.9905
16.0931 85.2609
16.1382 69.8404
16.1833 52.4377
16.2283 43.4113
16.2734 40.3365
16.3185 38.6941
16.3636 37.4891
16.4086 36.804
16.4537 36.1677
16.4988 35.6163
16.5439 35.6848
16.589 35.3148
16.6341 34.9835
16.6792 34.5677
16.7243 35.0121
16.7694 34.7761
16.8145 34.384
16.8596 34.8006
16.9047 35.6102
16.9498 39.3114
16.9949 43.0511
17.04 40.7209
17.0851 36.5213
17.1302 35.6919
17.1754 36.2557
17.2205 36.5294
17.2656 36.9363
17.3108 37.6623
17.3559 38.9775
17.401 42.6902
17.4462 47.0286
17.4913 46.2759
17.5365 41.7292
17.5815 38.7584
17.6268 37.6493
17.6718 37.4127
17.7171 37.7904
17.7622 39.7173
17.8074 43.4529
17.8525 44.809
17.8977 41.9741
17.9428 41.9943
17.9881 43.0594
18.0331 43.7494
18.0784 44.3405
18.1237 47.0817
18.1688 53.6705
18.214 66.5819
18.2591 78.52
18.3044 72.2514
18.3495 58.2406
18.3948 51.2961
18.4399 51.8576
18.4852 57.3218
18.5303 61.4053
18.5756 57.131
18.6207 51.0485
18.666 45.785
18.7112 41.2264
18.7565 38.8839
18.8016 38.1518
18.8469 37.4869
18.892 37.1346
18.9374 36.7839
18.9825 36.4075
19.0278 36.1077
19.073 36.1679
19.1183 35.9788
19.1635 36.0458
19.2088 36.5062
19.254 36.8992
19.2993 38.0291
19.3447 42.5335
19.3898 47.559
19.4352 46.9686
19.4804 44.0313
19.5257 44.1983
19.5709 42.2496
19.6163 39.0331
19.6615 36.5646
19.7068 35.1046
19.752 34.3507
19.7974 34.1652
19.8426 34.0359
19.888 33.8464
19.9332 34.055
19.9786 34.108
20.0238 33.9117
20.0692 34.4097
20.1144 34.9406
20.1598 36.6144
20.205 38.7777
20.2504 41.5155
20.2957 40.9763
20.3411 38.1783
20.3863 37.0745
20.4318 37.8456
20.477 39.5301
20.5224 39.1098
20.5677 36.5521
20.6131 34.31
20.6586 32.9008
20.7038 32.4586
20.7493 32.3527
20.7945 33.6776
20.84 35.1483
20.8853 34.4873
20.9307 32.3923
20.976 31.36
21.0215 30.76
21.0668 30.9087
21.1122 30.7704
21.1575 30.8046
21.203 30.546
21.2483 30.7215
21.2938 30.9087
21.3391 31.1946
21.3846 31.9406
21.4299 32.2069
21.4754 32.0706
21.5207 31.899
21.5662 31.5733
21.6116 30.9557
21.6571 30.7467
21.7024 31.081
21.7479 31.4496
21.7933 31.5255
21.8388 31.7374
21.8843 32.164
21.9297 32.8152
21.9752 34.1156
22.0206 36.3293
22.0661 38.7486
22.1115 39.1976
22.157 38.4487
22.2024 37.6215
22.248 36.9159
22.2933 36.1118
22.3389 34.8267
22.3843 33.3317
22.4299 32.1207
22.4753 31.5462
22.5208 31.1406
22.5662 30.9245
22.6118 30.9659
22.6572 30.8737
22.7028 31.1696
22.7483 31.0218
22.7939 31.4439
22.8393 32.2911
22.8849 32.4936
22.9303 31.8828
22.9759 31.8278
23.0214 32.0077
23.067 33.2342
23.1126 34.9821
23.1581 36.1207
23.2037 35.3566
23.2492 33.4442
23.2948 32.0289
23.3403 31.5751
23.3859 31.841
23.4314 32.4635
23.477 33.4183
23.5225 33.3914
23.5682 32.3872
23.6137 32.3553
23.6593 32.7003
23.7048 33.8762
23.7505 35.7241
23.796 36.1571
23.8417 34.2696
23.8872 31.9687
23.9329 30.7305
23.9784 30.0033
24.0241 29.6007
24.0697 29.5631
24.1154 29.3793
24.1609 29.0935
24.2066 28.7013
24.2522 28.3402
24.2979 28.1797
24.3434 28.0707
24.3892 27.8265
24.4349 27.6347
24.4805 27.6036
24.5262 27.7108
24.5718 27.5854
24.6175 27.5936
24.6631 28.0052
24.7089 28.4765
24.7545 28.3442
24.8002 27.9075
24.8458 27.3773
24.8916 27.0855
24.9372 27.0041
24.983 27.1468
25.0286 26.9904
25.0744 27.0171
25.12 26.956
25.1658 27.0455
25.2114 27.3254
25.2572 27.533
25.3029 27.8872
25.3487 28.3807
25.3943 28.2129
25.4402 28.0425
25.4858 28.365
25.5316 28.6332
25.5773 28.3888
25.6231 27.8287
25.669 27.074
25.7147 26.6556
25.7605 26.3867
25.8062 26.3411
25.8521 26.5109
25.8977 26.6561
25.9436 26.3991
25.9893 25.964
26.0352 26.0788
26.0809 25.8277
26.1268 25.8833
26.1725 26.0545
26.2184 26.3133
26.2641 26.5117
26.31 26.6684
26.3557 26.6044
26.4017 26.2579
26.4474 26.1258
26.4933 25.9085
26.5391 25.8925
26.585 25.8118
26.6308 25.8272
26.6767 25.8848
26.7225 26.1075
26.7684 26.4648
26.8142 26.8474
26.8601 27.1765
26.9059 27.0971
26.9519 26.9773
26.9979 27.0828
27.0437 26.8122
27.0896 26.2292
27.1354 25.8296
27.1814 25.3418
27.2272 25.2571
27.2732 25.2464
27.3191 24.9939
27.3651 25.0116
27.4109 24.7385
27.4569 24.8544
27.5027 24.8427
27.5488 24.9279
27.5946 24.8565
27.6407 24.7275
27.6865 24.8652
27.7326 24.9481
27.7784 24.8943
27.8245 24.7838
27.8703 24.5993
27.9164 24.5122
27.9623 24.4033
28.0084 24.7216
28.0543 24.8799
28.1003 24.9517
28.1462 24.9015
28.1923 24.9944
28.2384 25.085
28.2843 25.1838
28.3304 25.0145
28.3764 24.702
28.4225 24.677
28.4684 24.5473
28.5145 24.256
28.5605 23.9693
28.6066 23.7782
28.6526 23.6157
28.6987 23.5724
28.7447 23.1819
28.7908 22.999
28.8368 22.9692
28.8829 22.9038
28.9289 22.8819
28.9751 22.819
29.0211 22.7894
29.0673 22.6788
29.1133 22.8401
29.1595 22.7378
29.2055 22.6622
29.2517 22.4378
29.2977 22.3434
29.3439 22.1756
29.3899 22.0919
29.4361 21.9971
29.4824 22.02
29.5284 22.1058
29.5746 21.9626
29.6207 21.9202
29.6669 21.9635
29.713 21.8473
29.7593 21.6425
29.8053 21.5383
29.8516 21.4135
29.8977 21.4418
29.9439 21.3067
29.99 21.3193
30.0363 21.1746
30.0824 21.271
30.1287 21.2877
30.1748 21.2505
30.2211 21.1433
30.2673 20.9931
30.3136 21.0581
30.3597 21.0063
30.406 21.0692
30.4522 20.9942
30.4985 20.9012
30.5447 20.9746
30.591 20.8601
30.6372 20.8445
30.6835 20.7073
30.7297 20.7307
30.7761 20.8518
30.8224 20.7694
30.8686 20.9121
30.915 21.0029
30.9612 21.0636
31.0076 20.9414
31.0538 20.8201
31.1002 20.7855
31.1464 20.634
31.1928 20.5954
31.2391 20.3573
31.2855 20.3484
31.3317 20.196
31.3781 20.2437
31.4244 20.1149
31.4708 20.1243
31.5171 20.0959
31.5636 20.1866
31.6098 20.1388
31.6563 20.1572
31.7026 20.1481
31.7491 20.008
31.7953 20.022
31.8418 19.896
31.8881 19.8865
31.9346 19.7994
31.9809 19.7127
32.0275 19.6887
32.074 19.6659
32.1203 19.6161
32.1668 19.7002
32.2132 19.6307
32.2597 19.5954
32.306 19.5552
32.3526 19.4047
32.399 19.3084
32.4455 19.2132
32.4919 19.0838
32.5385 19.0751
32.5848 18.8318
32.6314 18.9256
32.6778 18.8152
32.7244 18.7618
32.7708 18.633
32.8174 18.6838
32.8638 18.5166
32.9104 18.6637
32.9569 18.5912
33.0035 18.4694
33.0499 18.4067
33.0966 18.3776
33.143 18.3054
33.1897 18.2461
33.2361 18.1494
33.2828 18.2141
33.3293 18.1214
33.3759 18.1133
33.4226 18.1548
33.4691 18.0557
33.5158 18.0622
33.5623 18.0169
33.609 17.8856
33.6555 17.7693
33.7022 17.7423
33.7487 17.617
33.7954 17.5996
33.842 17.4423
33.8887 17.474
33.9353 17.4639
33.982 17.3966
34.0286 17.372
34.0753 17.2745
34.1219 17.2721
34.1687 17.2084
34.2152 17.2161
34.262 16.9895
34.3086 17.0438
34.3554 16.9423
34.402 16.8607
34.4488 16.8547
34.4954 16.847
34.5422 16.7028
34.5889 16.7219
34.6357 16.6251
34.6825 16.5881
34.7292 16.5624
34.776 16.5024
34.8227 16.4067
34.8695 16.4336
34.9162 16.3851
34.9631 16.2433
35.0098 16.2378
35.0566 16.2398
35.1033 16.1176
35.1502 16.1561
35.1969 16.0709
35.2438 16.0906
35.2906 15.9889
35.3375 16.0441
35.3842 15.9633
35.4311 15.8849
35.4779 15.8977
35.5248 15.8642
35.5716 15.8625
35.6185 15.8395
35.6653 15.8144
35.7123 15.7122
35.759 15.7381
35.806 15.6933
35.8528 15.6173
35.8998 15.5126
35.9468 15.4766
35.9936 15.4496
36.0406 15.4346
36.0874 15.3457
36.1345 15.3094
36.1813 15.1557
36.2283 15.2151
36.2752 15.1517
36.3222 15.1398
36.3691 15.0866
36.4161 15.0037
36.463 15.0533
36.5101 14.9367
36.557 14.956
36.6041 14.8603
36.651 14.8728
36.6981 14.846
36.745 14.7626
36.7921 14.7312
36.839 14.6539
36.8861 14.6506
36.9331 14.5928
36.9802 14.5896
37.0272 14.4709
37.0743 14.4351
37.1213 14.4318
37.1684 14.3402
37.2154 14.3269
37.2626 14.2239
37.3098 14.2169
37.3568 14.1921
37.404 14.1322
37.451 14.0647
37.4982 14.0376
37.5452 13.9665
37.5924 14.0056
37.6395 14.0193
37.6867 13.953
37.7337 13.8292
37.781 13.765
37.8281 13.7816
37.8753 13.7785
37.9224 13.6521
37.9697 13.6841
38.0168 13.6233
38.064 13.5998
38.1111 13.4769
38.1584 13.41
38.2056 13.4198
38.2529 13.3596
38.3 13.3219
38.3473 13.2797
38.3945 13.2024
38.4418 13.2181
38.489 13.1948
38.5363 13.0848
38.5837 13.1351
38.6309 13.09
38.6782 13.0258
38.7254 12.9035
38.7728 12.8783
38.82 12.8476
38.8674 12.8875
38.9146 12.8196
38.9621 12.7713
39.0093 12.7551
39.0567 12.7732
39.104 12.7207
39.1514 12.6394
39.1987 12.603
39.2461 12.5753
39.2934 12.5304
39.3409 12.4381
39.3882 12.3796
39.4356 12.4325
39.483 12.3889
39.5304 12.2992
39.5778 12.3036
39.6253 12.2932
39.6726 12.1713
39.7201 12.2544
39.7675 12.1071
39.815 12.1365
39.8624 12.0362
39.9099 12.0438
39.9575 11.9965
40.0049 11.9092
40.0525 11.9623
40.0999 11.9203
40.1474 11.8505
40.1949 11.8049
40.2425 11.7593
40.2899 11.7824
40.3375 11.6835
40.385 11.6517
40.4326 11.6269
40.48 11.5749
40.5277 11.6274
40.5752 11.5372
40.6228 11.5141
40.6703 11.4862
40.718 11.4341
40.7655 11.3947
40.8132 11.3558
40.8607 11.3766
40.9084 11.2841
40.9559 11.2704
41.0036 11.2295
41.0512 11.1895
41.0989 11.1533
41.1465 11.1358
41.1942 11.0943
41.242 11.0698
41.2896 11.0693
41.3373 10.9588
41.3849 11.0215
41.4327 10.942
41.4803 10.9028
41.5281 10.8969
41.5758 10.8399
41.6236 10.774
41.6712 10.7998
41.7191 10.6901
41.7667 10.6142
41.8146 10.6493
41.8622 10.6106
41.9101 10.5627
41.9578 10.5391
42.0057 10.502
42.0534 10.529
42.1013 10.468
42.149 10.4021
42.1969 10.3822
42.2446 10.3606
42.2925 10.3436
42.3403 10.2776
42.3882 10.2413
42.436 10.217
42.4839 10.1463
42.5319 10.1638
42.5797 10.114
42.6277 10.0581
42.6755 10.0827
42.7235 9.94205
42.7713 9.95354
42.8193 9.96172
42.8671 9.94425
42.9152 9.85309
42.963 9.81042
43.0111 9.83126
43.0589 9.79058
43.107 9.79936
43.1549 9.68531
43.2029 9.65866
43.2508 9.63196
43.2989 9.65672
43.3468 9.5784
43.3949 9.51636
43.4429 9.45506
43.491 9.49804
43.5389 9.50047
43.5871 9.41792
43.635 9.43833
43.6832 9.35142
43.7312 9.3153
43.7793 9.30797
43.8273 9.26735
43.8755 9.25303
43.9237 9.18973
43.9717 9.20088
44.0199 9.15908
44.068 9.10374
44.1162 9.09377
44.1642 9.12747
44.2125 9.07494
44.2606 9.02005
44.3088 8.95996
44.3569 8.93839
44.4052 8.9291
44.4533 8.87989
44.5016 8.85246
44.5497 8.84081
44.598 8.79415
44.6461 8.76561
44.6945 8.7217
44.7426 8.6687
44.791 8.68064
44.8391 8.62989
44.8875 8.6317
44.9357 8.56893
44.984 8.5497
45.0322 8.54206
45.0806 8.52249
45.1288 8.482
45.1773 8.48493
45.2257 8.39009
45.2739 8.39017
45.3224 8.36553
45.3706 8.33505
45.4191 8.33672
45.4673 8.29358
45.5158 8.27809
45.5641 8.21077
45.6126 8.21455
45.6609 8.14324
45.7094 8.14449
45.7577 8.10532
45.8063 8.09083
45.8546 8.07864
45.9031 8.02402
45.9515 8.00497
46.0001 7.93543
46.0484 7.96282
46.097 7.94028
46.1454 7.89567
46.194 7.86793
46.2424 7.82525
46.291 7.8067
46.3395 7.79036
46.3881 7.72829
46.4365 7.73404
46.4852 7.69901
46.5337 7.69978
46.5823 7.67118
46.631 7.60807
46.6795 7.59671
46.7282 7.59981
46.7767 7.51641
46.8254 7.49747
46.8739 7.48578
46.9226 7.44199
46.9712 7.44356
47.0199 7.39543
47.0685 7.34114
47.1173 7.3344
47.1658 7.32078
47.2146 7.287
47.2632 7.27996
47.312 7.22437
47.3606 7.18916
47.4095 7.15025
47.4581 7.16438
47.5069 7.12105
47.5556 7.12411
47.6044 7.09195
47.6531 7.04931
47.702 7.02221
47.7507 7.04148
47.7996 6.9827
47.8483 6.98031
47.8972 6.96167
47.9461 6.9347
47.9948 6.90914
48.0438 6.87484
48.0925 6.84573
48.1415 6.83161
48.1902 6.81159
48.2392 6.78429
48.288 6.78075
48.337 6.7371
48.3858 6.73571
48.4348 6.67796
48.4837 6.67654
48.5327 6.64919
48.5815 6.59907
48.6306 6.5922
48.6795 6.58068
48.7285 6.54141
48.7774 6.5113
48.8265 6.53518
48.8754 6.45637
48.9245 6.45762
48.9734 6.41526
49.0226 6.43343
49.0715 6.35609
49.1206 6.34822
49.1696 6.31432
49.2188 6.3259
49.2679 6.28791
49.3169 6.26998
49.3661 6.23137
49.4151 6.22302
49.4643 6.1953
49.5134 6.18431
49.5626 6.12313
49.6117 6.15008
49.6609 6.10326
49.71 6.08088
49.7592 6.04892
49.8083 6.04408
49.8576 6.01901
49.9067 5.98533
49.956 5.98675
50.0052 5.97363
50.0545 5.93933
50.1036 5.90895
50.153 5.88819
50.2022 5.8465
50.2515 5.84675
50.3007 5.81463
50.3501 5.80351
50.3993 5.78603
50.4487 5.78666
50.498 5.73857
50.5474 5.72382
50.5966 5.72485
50.6461 5.68081
50.6955 5.63427
50.7448 5.62882
50.7943 5.61318
50.8436 5.57507
50.8931 5.58902
50.9424 5.56297
50.9919 5.52818
51.0413 5.52261
51.0908 5.5117
51.1402 5.50365
51.1897 5.45804
51.2391 5.42909
51.2887 5.41341
51.3381 5.39698
51.3877 5.37869
51.4371 5.37508
51.4867 5.28627
51.5362 5.31147
51.5858 5.26439
51.6353 5.25378
51.6849 5.26056
51.7344 5.23665
51.7841 5.21507
51.8336 5.17897
51.8833 5.1597
51.9328 5.09902
51.9826 5.1291
52.0323 5.0826
52.0818 5.06729
52.1316 5.0403
52.1812 5.04116
52.231 5.00817
52.2806 4.99033
52.3304 5.04548
52.38 4.96423
52.4298 4.94097
52.4794 4.92402
52.5293 4.92007
52.5789 4.88118
52.6288 4.86136
52.6785 4.8278
52.7284 4.86905
52.7781 4.8098
52.828 4.78484
52.8777 4.74301
52.9276 4.73953
52.9774 4.7414
53.0273 4.74108
53.0771 4.68864
53.1271 4.69029
53.1769 4.68408
53.2269 4.6734
53.2767 4.62238
53.3267 4.55588
53.3765 4.60322
53.4266 4.57569
53.4766 4.5612
53.5265 4.53016
53.5765 4.50948
53.6264 4.47763
53.6765 4.44285
53.7264 4.43515
53.7765 4.41443
53.8265 4.40601
53.8766 4.34436
53.9266 4.33741
53.9767 4.3633
54.0267 4.2932
54.0769 4.29108
54.1269 4.2655
54.1771 4.26086
54.2271 4.24194
54.2773 4.22228
54.3274 4.20909
54.3776 4.15076
54.4277 4.12212
54.478 4.08158
54.528 4.03723
54.5783 4.00432
54.6285 3.97717
54.6788 3.94671
54.7289 3.92663
54.7792 3.9127
54.8296 3.8577
54.8798 3.80508
54.9301 3.81196
54.9803 3.79909
55.0307 3.73587
55.0809 3.71866
55.1314 3.69032
55.1816 3.61837
55.232 3.65593
55.2823 3.60182
55.3328 3.567
55.383 3.50023
55.4335 3.50455
55.4838 3.45396
55.5344 3.38077
55.5847 3.34617
55.6352 3.38299
55.6856 3.3408
55.7361 3.29227