File: XRD/Ni3Fe_FD0655.xy
TT I
1.27165 7.40957
1.31627 7.09046
1.36089 6.80279
1.40551 6.11442
1.45013 5.97346
1.49476 5.37309
1.53938 5.86501
1.584 5.48204
1.62863 5.47822
1.67325 5.42424
1.71787 4.93105
1.7625 4.57567
1.80712 5.15422
1.85174 4.66624
1.89636 4.59799
1.94099 5.0182
1.98562 4.76468
2.03025 4.40968
2.07487 4.35412
2.11949 5.06026
2.16411 4.35006
2.20874 17.4263
2.25338 30.0704
2.298 7.08515
2.34263 5.51777
2.38725 6.12297
2.43188 5.69779
2.4765 7.30487
2.52115 7.05344
2.56577 7.12259
2.6104 8.21681
2.65503 7.5899
2.69965 7.59303
2.7443 8.25655
2.78893 8.2304
2.83356 8.19198
2.87818 8.5294
2.92281 8.66505
2.96744 10.0924
3.01209 10.3709
3.05672 10.9767
3.10135 12.1237
3.14599 12.892
3.19062 14.1016
3.23527 15.4709
3.2799 15.8967
3.32454 16.698
3.36917 17.6449
3.4138 19.2179
3.45844 19.9746
3.50309 20.8764
3.54773 22.2619
3.59237 24.7899
3.637 118.966
3.68164 74.1181
3.7263 27.0238
3.77094 26.5252
3.81558 27.066
3.86022 27.8094
3.90486 29.6336
3.9495 29.9048
3.99416 30.8712
4.0388 32.8015
4.08344 34.2646
4.12809 35.6197
4.17273 37.7274
4.21738 45.6504
4.26204 328.533
4.30669 293.462
4.35133 51.633
4.39598 45.6152
4.44063 57.5833
4.4853 72.8627
4.52995 50.6797
4.5746 51.3295
4.61925 53.2199
4.6639 55.4955
4.70855 57.9463
4.75322 61.1308
4.79788 63.9498
4.84253 67.0675
4.88719 70.9555
4.93184 74.4726
4.97652 80.462
5.02118 86.4216
5.06583 93.529
5.11049 104.933
5.15515 189.313
5.19981 327.951
5.24449 2565.98
5.28916 12695.4
5.33382 3242.72
5.37848 196.944
5.42315 131.221
5.46783 114.04
5.5125 106.537
5.55716 101.944
5.60183 98.5255
5.6465 96.8655
5.69117 93.9569
5.73586 91.8895
5.78053 91.5074
5.8252 90.4879
5.86988 91.2281
5.91455 93.1089
5.95924 100.073
6.00392 185.796
6.0486 883.43
6.09328 4300.0
6.13795 3500.5
6.18263 265.402
6.22733 95.4105
6.27201 84.3493
6.3167 113.295
6.36138 85.0387
6.40606 69.0778
6.45075 67.9342
6.49545 66.0033
6.54014 64.5977
6.58483 63.8038
6.62952 64.0754
6.67421 105.548
6.71892 179.847
6.76361 73.7543
6.8083 59.3087
6.853 58.2005
6.89769 57.4911
6.94239 57.2857
6.98711 56.4869
7.03181 56.1472
7.07651 56.5156
7.12121 56.0541
7.16591 56.1351
7.21063 56.7245
7.25533 75.6954
7.30004 230.387
7.34475 108.257
7.38945 57.7125
7.43416 55.4426
7.47889 54.9242
7.5236 55.3336
7.56831 55.6966
7.61303 58.2222
7.65774 58.9149
7.70247 56.6167
7.74719 56.5148
7.79191 57.207
7.83663 57.2713
7.88135 58.3674
7.92607 58.7942
7.97081 59.6504
8.01553 61.1896
8.06026 62.5309
8.10498 63.9759
8.14971 76.1566
8.19446 74.5423
8.23919 69.8098
8.28392 71.8796
8.32865 73.6593
8.37339 78.4334
8.41812 85.5851
8.46288 122.072
8.50761 156.11
8.55235 357.456
8.59709 1072.68
8.64183 2173.06
8.68658 1043.02
8.73134 179.184
8.77609 100.516
8.82083 93.3412
8.86558 89.7931
8.91033 90.4657
8.9551 94.2143
8.99985 85.7487
9.04461 83.6869
9.08936 83.0235
9.13412 81.8542
9.17888 82.2286
9.22365 83.3411
9.26841 82.2612
9.31318 82.4335
9.35794 82.5522
9.4027 82.7475
9.44749 83.7923
9.49226 84.5284
9.53703 85.5453
9.5818 87.3722
9.62657 92.7025
9.67134 102.038
9.71614 94.7601
9.76091 93.7334
9.80569 95.9886
9.85047 99.937
9.89525 130.814
9.94005 145.305
9.98484 165.583
10.0296 313.848
10.0744 739.892
10.1192 1662.13
10.164 1693.99
10.2088 453.688
10.2536 132.539
10.2984 116.065
10.3432 119.713
10.388 105.807
10.4328 114.606
10.4776 152.147
10.5224 261.713
10.5672 482.726
10.612 532.883
10.6568 220.796
10.7017 98.9221
10.7465 87.0205
10.7913 83.6537
10.8361 81.3581
10.8809 79.3841
10.9257 79.011
10.9706 80.68
11.0154 75.528
11.0602 73.2047
11.105 72.2604
11.1499 78.5644
11.1947 89.649
11.2395 77.3984
11.2844 71.7583
11.3292 67.7785
11.374 66.8097
11.4189 66.0125
11.4637 65.3379
11.5086 66.1584
11.5534 70.5636
11.5983 67.058
11.6431 64.0515
11.688 63.137
11.7328 63.0845
11.7777 63.1594
11.8225 62.9399
11.8674 62.5291
11.9122 63.0116
11.9571 63.2841
12.002 63.4573
12.0468 66.9146
12.0917 77.8626
12.1366 100.539
12.1814 145.07
12.2263 202.56
12.2712 176.791
12.3161 104.717
12.3609 73.6612
12.4058 65.1315
12.4507 64.654
12.4956 64.5719
12.5405 64.8627
12.5853 66.0343
12.6302 76.4356
12.6751 84.3927
12.72 71.7991
12.7649 68.063
12.8098 68.5409
12.8547 69.6187
12.8996 70.8267
12.9445 72.2278
12.9894 73.8934
13.0343 75.3829
13.0792 78.355
13.1242 85.7901
13.1691 108.641
13.214 142.544
13.2589 223.242
13.3038 353.063
13.3487 439.61
13.3937 286.504
13.4386 130.416
13.4835 104.388
13.5285 116.488
13.5734 151.317
13.6183 232.476
13.6633 335.546
13.7082 351.026
13.7531 199.732
13.7981 100.421
13.843 82.1009
13.888 80.0192
13.9329 76.9582
13.9779 76.103
14.0228 74.4112
14.0678 73.2246
14.1127 72.8832
14.1577 72.8388
14.2027 72.1046
14.2476 70.571
14.2926 71.0893
14.3376 72.7983
14.3825 70.8164
14.4275 69.0614
14.4725 68.7843
14.5175 68.9296
14.5624 68.8867
14.6074 72.0173
14.6524 72.6051
14.6974 70.3596
14.7424 71.1592
14.7874 77.2836
14.8324 86.6803
14.8774 106.093
14.9224 145.708
14.9674 199.113
15.0124 220.891
15.0574 157.488
15.1024 94.4767
15.1474 72.9861
15.1924 71.0032
15.2374 72.1221
15.2824 71.4402
15.3274 68.7846
15.3725 66.9973
15.4175 66.5031
15.4625 66.2871
15.5076 66.6695
15.5526 66.4332
15.5976 65.9185
15.6426 66.2811
15.6877 71.0137
15.7327 77.8032
15.7778 91.837
15.8228 120.438
15.8679 162.993
15.9129 195.33
15.958 165.552
16.003 103.002
16.0481 70.0052
16.0931 65.9581
16.1382 64.0987
16.1833 61.2981
16.2283 59.3381
16.2734 58.7873
16.3185 59.354
16.3636 60.8014
16.4086 58.7757
16.4537 56.4251
16.4988 55.7627
16.5439 55.7893
16.589 55.5341
16.6341 54.9998
16.6792 54.6962
16.7243 55.3036
16.7694 55.3685
16.8145 55.0517
16.8596 55.5185
16.9047 57.6611
16.9498 57.8292
16.9949 56.2074
17.04 55.8293
17.0851 56.7645
17.1302 58.514
17.1754 61.2283
17.2205 65.7852
17.2656 72.7959
17.3108 82.1275
17.3559 83.479
17.401 72.4244
17.4462 62.6836
17.4913 59.24
17.5365 59.0683
17.5815 59.2314
17.6268 59.5213
17.6718 60.6284
17.7171 61.161
17.7622 61.3823
17.8074 61.7146
17.8525 63.6827
17.8977 67.4583
17.9428 72.5627
17.9881 80.7128
18.0331 95.8984
18.0784 117.694
18.1237 138.651
18.1688 135.064
18.214 106.352
18.2591 86.5959
18.3044 88.7449
18.3495 98.653
18.3948 106.769
18.4399 99.3757
18.4852 79.9379
18.5303 66.946
18.5756 62.5067
18.6207 61.3502
18.666 60.7337
18.7112 59.8537
18.7565 59.0359
18.8016 58.9354
18.8469 58.0409
18.892 57.8386
18.9374 57.2338
18.9825 57.1635
19.0278 57.3315
19.073 57.204
19.1183 57.7076
19.1635 58.4203
19.2088 59.4319
19.254 61.5621
19.2993 65.8068
19.3447 72.1486
19.3898 77.2091
19.4352 74.0137
19.4804 64.5422
19.5257 57.2687
19.5709 54.5847
19.6163 54.1261
19.6615 53.8661
19.7068 53.4406
19.752 53.4616
19.7974 53.5502
19.8426 54.5859
19.888 55.1855
19.9332 56.2062
19.9786 58.2498
20.0238 61.395
20.0692 66.6188
20.1144 69.6951
20.1598 68.8618
20.205 63.9261
20.2504 61.917
20.2957 63.1098
20.3411 65.5304
20.3863 64.9842
20.4318 59.2537
20.477 54.3206
20.5224 52.1968
20.5677 51.4173
20.6131 50.6199
20.6586 49.9474
20.7038 49.6207
20.7493 49.2152
20.7945 49.1473
20.84 48.9833
20.8853 48.8283
20.9307 48.6577
20.976 48.8214
21.0215 48.7818
21.0668 49.2323
21.1122 49.5305
21.1575 50.0603
21.203 50.9099
21.2483 51.7092
21.2938 51.8365
21.3391 50.3191
21.3846 49.3429
21.4299 48.5383
21.4754 48.4795
21.5207 48.5853
21.5662 48.8082
21.6116 49.1972
21.6571 49.756
21.7024 50.6704
21.7479 52.3674
21.7933 54.7351
21.8388 58.2813
21.8843 62.1316
21.9297 64.7622
21.9752 64.1931
22.0206 60.2254
22.0661 56.8778
22.1115 56.0188
22.157 56.3109
22.2024 54.8531
22.248 51.9229
22.2933 50.243
22.3389 49.2748
22.3843 49.25
22.4299 49.2814
22.4753 49.2012
22.5208 48.7639
22.5662 48.5759
22.6118 48.7409
22.6572 48.9071
22.7028 49.167
22.7483 49.5916
22.7939 50.4035
22.8393 51.7467
22.8849 53.7899
22.9303 55.7963
22.9759 57.8856
23.0214 58.1009
23.067 55.3237
23.1126 51.6927
23.1581 49.5171
23.2037 48.9527
23.2492 49.0178
23.2948 48.925
23.3403 49.0915
23.3859 49.7129
23.4314 50.4642
23.477 52.2625
23.5225 54.3119
23.5682 56.7201
23.6137 58.2719
23.6593 56.4367
23.7048 52.3629
23.7505 48.7244
23.796 46.8718
23.8417 46.2895
23.8872 45.5817
23.9329 45.3691
23.9784 45.106
24.0241 44.8568
24.0697 44.5368
24.1154 44.252
24.1609 44.2542
24.2066 44.0554
24.2522 43.8381
24.2979 43.6584
24.3434 43.5631
24.3892 43.2632
24.4349 43.2713
24.4805 42.9568
24.5262 43.1481
24.5718 43.1299
24.6175 43.061
24.6631 43.0602
24.7089 42.701
24.7545 42.648
24.8002 42.3073
24.8458 42.3617
24.8916 42.1178
24.9372 42.375
24.983 42.5859
25.0286 42.9152
25.0744 43.2149
25.12 43.6161
25.1658 44.2997
25.2114 44.7854
25.2572 44.9057
25.3029 45.0034
25.3487 44.9607
25.3943 44.904
25.4402 43.9905
25.4858 42.8123
25.5316 41.824
25.5773 41.1446
25.6231 40.9933
25.669 40.7914
25.7147 40.5088
25.7605 40.5878
25.8062 40.6923
25.8521 40.7947
25.8977 40.7012
25.9436 40.92
25.9893 40.8446
26.0352 41.4346
26.0809 41.6911
26.1268 41.762
26.1725 41.6271
26.2184 41.0385
26.2641 40.5252
26.31 40.1912
26.3557 40.3803
26.4017 40.282
26.4474 40.6535
26.4933 40.689
26.5391 41.2276
26.585 41.663
26.6308 42.0015
26.6767 42.3544
26.7225 42.1549
26.7684 41.7186
26.8142 41.0003
26.8601 40.5909
26.9059 40.132
26.9519 39.726
26.9979 39.2545
27.0437 39.0221
27.0896 38.8346
27.1354 38.9579
27.1814 38.7249
27.2272 38.7018
27.2732 38.6899
27.3191 38.3706
27.3651 38.6879
27.4109 38.5777
27.4569 38.5332
27.5027 38.5048
27.5488 38.6395
27.5946 38.5599
27.6407 38.281
27.6865 38.2263
27.7326 37.9041
27.7784 37.9702
27.8245 37.8969
27.8703 38.1146
27.9164 38.3401
27.9623 38.3826
28.0084 38.7598
28.0543 39.1461
28.1003 39.0909
28.1462 38.9937
28.1923 38.6714
28.2384 38.1419
28.2843 37.7234
28.3304 37.318
28.3764 36.8642
28.4225 36.7212
28.4684 36.3231
28.5145 36.0903
28.5605 35.8481
28.6066 35.8135
28.6526 35.8597
28.6987 35.8458
28.7447 35.6171
28.7908 35.55
28.8368 35.4075
28.8829 35.4987
28.9289 35.4668
28.9751 35.2801
29.0211 35.1206
29.0673 34.9208
29.1133 34.7604
29.1595 34.5528
29.2055 34.3995
29.2517 34.4333
29.2977 34.4142
29.3439 34.3885
29.3899 34.3385
29.4361 34.246
29.4824 34.1674
29.5284 33.9911
29.5746 33.4885
29.6207 33.3905
29.6669 33.2169
29.713 33.1223
29.7593 33.0177
29.8053 32.9629
29.8516 32.9344
29.8977 32.9263
29.9439 32.6853
29.99 32.6722
30.0363 32.6395
30.0824 32.6691
30.1287 32.5084
30.1748 32.517
30.2211 32.5334
30.2673 32.3853
30.3136 32.4725
30.3597 32.3509
30.406 32.3347
30.4522 32.1791
30.4985 32.144
30.5447 32.1436
30.591 32.1619
30.6372 32.324
30.6835 32.2427
30.7297 32.3498
30.7761 32.2883
30.8224 32.1261
30.8686 32.0192
30.915 31.7502
30.9612 31.6709
31.0076 31.3657
31.0538 31.2577
31.1002 31.2218
31.1464 31.0921
31.1928 31.0409
31.2391 31.1211
31.2855 31.0617
31.3317 30.9842
31.3781 31.0695
31.4244 31.0975
31.4708 30.9164
31.5171 30.8383
31.5636 30.9049
31.6098 30.6962
31.6563 30.5173
31.7026 30.4011
31.7491 30.2242
31.7953 30.2128
31.8418 30.2596
31.8881 30.2767
31.9346 30.2147
31.9809 30.135
32.0275 30.0942
32.074 29.9797
32.1203 29.783
32.1668 29.6271
32.2132 29.4783
32.2597 29.4647
32.306 29.276
32.3526 29.0747
32.399 29.0017
32.4455 28.9099
32.4919 28.784
32.5385 28.8638
32.5848 28.5689
32.6314 28.5227
32.6778 28.5109
32.7244 28.3871
32.7708 28.2544
32.8174 28.2148
32.8638 28.0657
32.9104 28.162
32.9569 28.0222
33.0035 27.9459
33.0499 28.0283
33.0966 27.928
33.143 27.8394
33.1897 27.8082
33.2361 27.7372
33.2828 27.6561
33.3293 27.4656
33.3759 27.5663
33.4226 27.3823
33.4691 27.2521
33.5158 27.1172
33.5623 27.0008
33.609 26.9024
33.6555 26.799
33.7022 26.7427
33.7487 26.6672
33.7954 26.5975
33.842 26.5101
33.8887 26.4282
33.9353 26.3558
33.982 26.2678
34.0286 26.0697
34.0753 26.1208
34.1219 26.0894
34.1687 25.9506
34.2152 25.886
34.262 25.8279
34.3086 25.6815
34.3554 25.6208
34.402 25.4358
34.4488 25.4483
34.4954 25.4102
34.5422 25.2289
34.5889 25.1217
34.6357 25.0616
34.6825 25.0507
34.7292 24.9058
34.776 24.8754
34.8227 24.7819
34.8695 24.8713
34.9162 24.7296
34.9631 24.5988
35.0098 24.5746
35.0566 24.3793
35.1033 24.4153
35.1502 24.344
35.1969 24.376
35.2438 24.2645
35.2906 24.2102
35.3375 24.098
35.3842 24.1819
35.4311 24.059
35.4779 23.9953
35.5248 23.9671
35.5716 23.9186
35.6185 23.8065
35.6653 23.71
35.7123 23.679
35.759 23.5543
35.806 23.5764
35.8528 23.3438
35.8998 23.2811
35.9468 23.2319
35.9936 23.2036
36.0406 23.1403
36.0874 23.0656
36.1345 22.9659
36.1813 22.9389
36.2283 22.8555
36.2752 22.715
36.3222 22.7519
36.3691 22.66
36.4161 22.5262
36.463 22.5108
36.5101 22.4988
36.557 22.4193
36.6041 22.2432
36.651 22.3178
36.6981 22.2677
36.745 22.151
36.7921 22.1251
36.839 21.967
36.8861 21.8382
36.9331 21.7881
36.9802 21.7672
37.0272 21.6333
37.0743 21.6091
37.1213 21.5618
37.1684 21.4881
37.2154 21.4117
37.2626 21.3489
37.3098 21.3343
37.3568 21.1841
37.404 21.1282
37.451 21.0196
37.4982 21.0617
37.5452 20.9242
37.5924 20.864
37.6395 20.828
37.6867 20.8053
37.7337 20.725
37.781 20.5991
37.8281 20.5587
37.8753 20.437
37.9224 20.4168
37.9697 20.4044
38.0168 20.2893
38.064 20.2452
38.1111 20.1654
38.1584 20.0302
38.2056 20.0467
38.2529 19.9785
38.3 19.9431
38.3473 19.9592
38.3945 19.8224
38.4418 19.7576
38.489 19.7145
38.5363 19.5761
38.5837 19.5274
38.6309 19.473
38.6782 19.4283
38.7254 19.3289
38.7728 19.2654
38.82 19.2173
38.8674 19.2169
38.9146 19.1665
38.9621 19.0392
39.0093 19.0434
39.0567 18.9809
39.104 18.8714
39.1514 18.8113
39.1987 18.8226
39.2461 18.715
39.2934 18.6041
39.3409 18.564
39.3882 18.4802
39.4356 18.4154
39.483 18.4279
39.5304 18.3336
39.5778 18.3903
39.6253 18.2555
39.6726 18.1891
39.7201 18.0776
39.7675 18.0463
39.815 18.0519
39.8624 17.8859
39.9099 17.9194
39.9575 17.7868
40.0049 17.7454
40.0525 17.6971
40.0999 17.6506
40.1474 17.644
40.1949 17.5217
40.2425 17.475
40.2899 17.4598
40.3375 17.3228
40.385 17.3131
40.4326 17.2156
40.48 17.2012
40.5277 17.1949
40.5752 17.0917
40.6228 17.0044
40.6703 16.9679
40.718 16.978
40.7655 16.8984
40.8132 16.7669
40.8607 16.8085
40.9084 16.7384
40.9559 16.6379
41.0036 16.6661
41.0512 16.5613
41.0989 16.5958
41.1465 16.4838
41.1942 16.4232
41.242 16.3516
41.2896 16.3323
41.3373 16.2329
41.3849 16.1681
41.4327 16.1182
41.4803 16.0679
41.5281 16.0345
41.5758 15.9499
41.6236 15.9184
41.6712 15.977
41.7191 15.7767
41.7667 15.7568
41.8146 15.7096
41.8622 15.6414
41.9101 15.6285
41.9578 15.5193
42.0057 15.5097
42.0534 15.4644
42.1013 15.3856
42.149 15.3082
42.1969 15.3157
42.2446 15.2301
42.2925 15.1979
42.3403 15.0987
42.3882 15.1182
42.436 15.0712
42.4839 14.9594
42.5319 14.9535
42.5797 14.9285
42.6277 14.8538
42.6755 14.8142
42.7235 14.7458
42.7713 14.7061
42.8193 14.6205
42.8671 14.6437
42.9152 14.573
42.963 14.5053
43.0111 14.4425
43.0589 14.3592
43.107 14.3052
43.1549 14.321
43.2029 14.2128
43.2508 14.2287
43.2989 14.1187
43.3468 14.0523
43.3949 14.0792
43.4429 14.0141
43.491 13.9255
43.5389 13.9287
43.5871 13.8536
43.635 13.7969
43.6832 13.7752
43.7312 13.7603
43.7793 13.6792
43.8273 13.5852
43.8755 13.5641
43.9237 13.5245
43.9717 13.4791
44.0199 13.404
44.068 13.4207
44.1162 13.3696
44.1642 13.2978
44.2125 13.2417
44.2606 13.2067
44.3088 13.1735
44.3569 13.1176
44.4052 13.0998
44.4533 13.0138
44.5016 12.9631
44.5497 12.9648
44.598 12.8992
44.6461 12.8811
44.6945 12.8205
44.7426 12.7505
44.791 12.6857
44.8391 12.6597
44.8875 12.6302
44.9357 12.5745
44.984 12.5131
45.0322 12.4992
45.0806 12.4339
45.1288 12.3653
45.1773 12.3266
45.2257 12.327
45.2739 12.2785
45.3224 12.2245
45.3706 12.2042
45.4191 12.1105
45.4673 12.1068
45.5158 12.079
45.5641 12.0304
45.6126 11.948
45.6609 11.9003
45.7094 11.9034
45.7577 11.8328
45.8063 11.7968
45.8546 11.7499
45.9031 11.6871
45.9515 11.7418
46.0001 11.6423
46.0484 11.5596
46.097 11.5331
46.1454 11.5091
46.194 11.5192
46.2424 11.4313
46.291 11.3762
46.3395 11.357
46.3881 11.264
46.4365 11.2989
46.4852 11.2147
46.5337 11.1407
46.5823 11.1558
46.631 11.0578
46.6795 11.0598
46.7282 11.0364
46.7767 10.9853
46.8254 10.9182
46.8739 10.881
46.9226 10.8392
46.9712 10.8238
47.0199 10.7433
47.0685 10.7511
47.1173 10.6904
47.1658 10.6435
47.2146 10.6275
47.2632 10.5416
47.312 10.5448
47.3606 10.5055
47.4095 10.4151
47.4581 10.4114
47.5069 10.3708
47.5556 10.3356
47.6044 10.2992
47.6531 10.2699
47.702 10.2053
47.7507 10.1697
47.7996 10.1242
47.8483 10.1152
47.8972 10.1152
47.9461 10.0459
47.9948 9.98403
48.0438 10.0016
48.0925 9.97197
48.1415 9.91237
48.1902 9.86647
48.2392 9.85317
48.288 9.80077
48.337 9.79288
48.3858 9.73639
48.4348 9.69678
48.4837 9.69563
48.5327 9.64145
48.5815 9.60403
48.6306 9.54007
48.6795 9.48504
48.7285 9.4818
48.7774 9.46258
48.8265 9.39842
48.8754 9.37911
48.9245 9.34262
48.9734 9.30008
49.0226 9.26452
49.0715 9.21734
49.1206 9.18687
49.1696 9.16901
49.2188 9.1281
49.2679 9.09213
49.3169 9.06959
49.3661 9.00251
49.4151 9.00665
49.4643 8.96148
49.5134 8.92718
49.5626 8.88141
49.6117 8.86199
49.6609 8.84961
49.71 8.75609
49.7592 8.76488
49.8083 8.72191
49.8576 8.72156
49.9067 8.63683
49.956 8.62239
50.0052 8.601
50.0545 8.58232
50.1036 8.49879
50.153 8.50087
50.2022 8.4431
50.2515 8.41912
50.3007 8.34779
50.3501 8.35242
50.3993 8.3094
50.4487 8.30532
50.498 8.24812
50.5474 8.21242
50.5966 8.18104
50.6461 8.1611
50.6955 8.12153
50.7448 8.07711
50.7943 8.07915
50.8436 8.03317
50.8931 7.97676
50.9424 7.9735
50.9919 7.9068
51.0413 7.93131
51.0908 7.89113
51.1402 7.85375
51.1897 7.83831
51.2391 7.7729
51.2887 7.72984
51.3381 7.70791
51.3877 7.69618
51.4371 7.63986
51.4867 7.5876
51.5362 7.57634
51.5858 7.57214
51.6353 7.51876
51.6849 7.54278
51.7344 7.42388
51.7841 7.48264
51.8336 7.39723
51.8833 7.39286
51.9328 7.34986
51.9826 7.26151
52.0323 7.27637
52.0818 7.258
52.1316 7.22002
52.1812 7.17959
52.231 7.18376
52.2806 7.13985
52.3304 7.13064
52.38 7.05335
52.4298 7.06373
52.4794 7.01774
52.5293 6.96855
52.5789 6.97548
52.6288 6.92608
52.6785 6.87863
52.7284 6.88307
52.7781 6.86028
52.828 6.82676
52.8777 6.77651
52.9276 6.76699
52.9774 6.72081
53.0273 6.7211
53.0771 6.69257
53.1271 6.64431
53.1769 6.62169
53.2269 6.60273
53.2767 6.58047
53.3267 6.55308
53.3765 6.51995
53.4266 6.4417
53.4766 6.43641
53.5265 6.46298
53.5765 6.39182
53.6264 6.41629
53.6765 6.32496
53.7264 6.30522
53.7765 6.28437
53.8265 6.23452
53.8766 6.22409
53.9266 6.19258
53.9767 6.14271
54.0267 6.15883
54.0769 6.12528
54.1269 6.09859
54.1771 6.0476
54.2271 6.02903
54.2773 5.98732
54.3274 6.03339
54.3776 5.93269
54.4277 5.93095
54.478 5.89817
54.528 5.85463
54.5783 5.80835
54.6285 5.76444
54.6788 5.74183
54.7289 5.69241
54.7792 5.6335
54.8296 5.57125
54.8798 5.51837
54.9301 5.50508
54.9803 5.49303
55.0307 5.47206
55.0809 5.34637
55.1314 5.40733
55.1816 5.33859
55.232 5.25591
55.2823 5.21777
55.3328 5.17327
55.383 5.12352
55.4335 5.10478
55.4838 5.04261
55.5344 4.97247
55.5847 4.94624
55.6352 4.97442
55.6856 4.92072
55.7361 4.83896