File: XRD/Ni3Fe_FD0133.xy
TT I
1.27165 7.8334
1.31627 6.98374
1.36089 7.17098
1.40551 6.03943
1.45013 7.13703
1.49476 7.07207
1.53938 6.65043
1.584 6.20041
1.62863 5.82184
1.67325 5.25259
1.71787 5.28591
1.7625 5.51592
1.80712 5.26746
1.85174 4.66749
1.89636 4.97602
1.94099 5.43985
1.98562 5.30546
2.03025 5.34578
2.07487 4.58492
2.11949 5.35149
2.16411 4.54592
2.20874 4.5197
2.25338 4.70764
2.298 4.7367
2.34263 4.19783
2.38725 4.56931
2.43188 3.90286
2.4765 4.44175
2.52115 4.01567
2.56577 4.99712
2.6104 4.95776
2.65503 4.44227
2.69965 5.14624
2.7443 6.12468
2.78893 6.38961
2.83356 7.02999
2.87818 8.20553
2.92281 8.20686
2.96744 9.34106
3.01209 10.6294
3.05672 11.096
3.10135 12.0737
3.14599 13.433
3.19062 14.0961
3.23527 14.8741
3.2799 15.7012
3.32454 16.7049
3.36917 17.3265
3.4138 18.6229
3.45844 19.5976
3.50309 20.6356
3.54773 20.8092
3.59237 21.4463
3.637 22.5944
3.68164 23.0868
3.7263 24.102
3.77094 24.7609
3.81558 25.2108
3.86022 26.5272
3.90486 27.3069
3.9495 28.5309
3.99416 29.2141
4.0388 30.1988
4.08344 31.8931
4.12809 32.3881
4.17273 34.0824
4.21738 35.4957
4.26204 36.4726
4.30669 37.4046
4.35133 39.6862
4.39598 40.8944
4.44063 42.863
4.4853 44.7697
4.52995 47.0958
4.5746 48.988
4.61925 51.178
4.6639 53.4193
4.70855 56.2847
4.75322 59.0989
4.79788 62.1806
4.84253 65.7453
4.88719 70.1686
4.93184 75.0234
4.97652 82.5947
5.02118 90.6999
5.06583 101.458
5.11049 118.331
5.15515 157.403
5.19981 574.814
5.24449 3763.01
5.28916 7857.6
5.33382 6460.12
5.37848 479.478
5.42315 167.042
5.46783 128.853
5.5125 114.592
5.55716 108.348
5.60183 102.027
5.6465 99.1129
5.69117 97.3153
5.73586 95.4665
5.78053 95.0735
5.8252 95.3484
5.86988 98.8624
5.91455 105.917
5.95924 125.787
6.00392 297.085
6.0486 1392.88
6.09328 2591.52
6.13795 3928.27
6.18263 712.008
6.22733 125.685
6.27201 90.0439
6.3167 78.5042
6.36138 72.4087
6.40606 68.0173
6.45075 66.2289
6.49545 64.0076
6.54014 61.9537
6.58483 60.3918
6.62952 59.4847
6.67421 58.0301
6.71892 57.1425
6.76361 56.0907
6.8083 55.2373
6.853 54.5131
6.89769 54.2009
6.94239 54.0045
6.98711 53.4378
7.03181 52.9107
7.07651 52.5993
7.12121 52.1701
7.16591 52.0987
7.21063 51.5059
7.25533 51.7586
7.30004 51.8337
7.34475 51.8372
7.38945 51.9314
7.43416 51.5061
7.47889 51.5877
7.5236 56.4047
7.56831 64.6872
7.61303 55.4063
7.65774 53.0628
7.70247 53.5976
7.74719 53.7359
7.79191 54.721
7.83663 54.8645
7.88135 55.6365
7.92607 56.6176
7.97081 57.6973
8.01553 58.693
8.06026 60.1716
8.10498 61.217
8.14971 63.3785
8.19446 64.6606
8.23919 67.4806
8.28392 70.65
8.32865 73.0604
8.37339 77.9472
8.41812 82.9698
8.46288 95.5573
8.50761 175.739
8.55235 611.514
8.59709 855.974
8.64183 1416.65
8.68658 1680.89
8.73134 442.915
8.77609 118.102
8.82083 97.7845
8.86558 90.6965
8.91033 87.648
8.9551 84.9653
8.99985 83.7012
9.04461 82.86
9.08936 81.742
9.13412 80.6416
9.17888 81.0304
9.22365 87.7576
9.26841 100.027
9.31318 86.9007
9.35794 82.0541
9.4027 81.4624
9.44749 82.2677
9.49226 83.1335
9.53703 83.722
9.5818 84.841
9.62657 86.6609
9.67134 88.279
9.71614 90.0123
9.76091 92.1512
9.80569 94.7494
9.85047 98.2775
9.89525 103.527
9.94005 113.673
9.98484 187.818
10.0296 553.425
10.0744 720.398
10.1192 975.848
10.164 1625.89
10.2088 1014.71
10.2536 222.806
10.2984 117.0
10.3432 108.058
10.388 104.154
10.4328 121.166
10.4776 217.107
10.5224 256.586
10.5672 315.339
10.612 474.182
10.6568 381.909
10.7017 138.991
10.7465 90.9521
10.7913 83.3546
10.8361 80.2296
10.8809 77.5452
10.9257 75.4182
10.9706 74.0867
11.0154 72.2208
11.0602 70.8585
11.105 69.707
11.1499 68.4817
11.1947 67.2368
11.2395 66.1082
11.2844 65.8375
11.3292 64.8309
11.374 64.158
11.4189 63.8589
11.4637 62.958
11.5086 62.2267
11.5534 61.8925
11.5983 61.7863
11.6431 61.6643
11.688 61.2582
11.7328 60.9816
11.7777 60.7907
11.8225 60.6867
11.8674 60.9931
11.9122 62.1681
11.9571 66.2097
12.002 65.4828
12.0468 67.5768
12.0917 90.8381
12.1366 107.385
12.1814 114.489
12.2263 144.7
12.2712 187.341
12.3161 141.846
12.3609 75.9541
12.4058 63.7968
12.4507 62.8353
12.4956 62.7991
12.5405 62.9966
12.5853 63.2665
12.6302 63.194
12.6751 63.9101
12.72 64.5529
12.7649 65.6979
12.8098 66.3057
12.8547 67.7491
12.8996 69.1814
12.9445 70.7946
12.9894 72.7295
13.0343 74.3606
13.0792 78.938
13.1242 86.1104
13.1691 133.662
13.214 187.214
13.2589 199.509
13.3038 234.381
13.3487 336.428
13.3937 382.976
13.4386 219.994
13.4835 121.315
13.5285 155.07
13.5734 181.469
13.6183 186.655
13.6633 227.215
13.7082 320.357
13.7531 309.75
13.7981 159.982
13.843 88.5751
13.888 80.2998
13.9329 76.9727
13.9779 75.4844
14.0228 74.0829
14.0678 72.6341
14.1127 72.3226
14.1577 74.2527
14.2027 72.6924
14.2476 70.1063
14.2926 68.9592
14.3376 68.461
14.3825 68.1846
14.4275 67.7536
14.4725 67.7543
14.5175 67.8104
14.5624 67.7325
14.6074 68.2723
14.6524 68.7587
14.6974 69.294
14.7424 70.8332
14.7874 80.4028
14.8324 107.323
14.8774 120.682
14.9224 123.41
14.9674 142.575
15.0124 185.707
15.0574 205.977
15.1024 142.638
15.1474 82.7196
15.1924 71.0708
15.2374 68.7361
15.2824 67.433
15.3274 66.4382
15.3725 65.8559
15.4175 65.6784
15.4625 65.3254
15.5076 65.0403
15.5526 64.9369
15.5976 65.1616
15.6426 66.074
15.6877 73.3799
15.7327 95.46
15.7778 107.118
15.8228 108.25
15.8679 119.892
15.9129 149.414
15.958 183.853
16.003 154.47
16.0481 90.4076
16.0931 66.4048
16.1382 61.4274
16.1833 60.0821
16.2283 58.3595
16.2734 57.8239
16.3185 56.9916
16.3636 56.2534
16.4086 55.5753
16.4537 55.1773
16.4988 54.5197
16.5439 54.6131
16.589 54.2803
16.6341 53.9801
16.6792 53.5481
16.7243 53.8285
16.7694 53.8456
16.8145 53.6989
16.8596 53.7635
16.9047 54.2757
16.9498 54.735
16.9949 54.496
17.04 54.987
17.0851 56.2924
17.1302 60.7539
17.1754 63.9464
17.2205 64.5212
17.2656 65.7388
17.3108 71.2065
17.3559 78.1702
17.401 81.2892
17.4462 71.7483
17.4913 61.3244
17.5365 58.9029
17.5815 58.6378
17.6268 58.9118
17.6718 59.5107
17.7171 59.7797
17.7622 60.9472
17.8074 61.8326
17.8525 63.3337
17.8977 71.7937
17.9428 83.613
17.9881 87.9549
18.0331 89.1605
18.0784 95.3153
18.1237 111.515
18.1688 138.408
18.214 143.13
18.2591 112.798
18.3044 87.9504
18.3495 84.8334
18.3948 92.9817
18.4399 102.146
18.4852 95.6981
18.5303 76.6559
18.5756 64.8448
18.6207 61.7537
18.666 60.3756
18.7112 59.6819
18.7565 58.6619
18.8016 58.4149
18.8469 57.755
18.892 57.5531
18.9374 56.7785
18.9825 56.4881
19.0278 56.2327
19.073 56.3707
19.1183 56.7527
19.1635 59.312
19.2088 61.3853
19.254 61.9214
19.2993 62.4529
19.3447 64.261
19.3898 68.0182
19.4352 73.0178
19.4804 72.4371
19.5257 63.9453
19.5709 56.1532
19.6163 54.1175
19.6615 53.501
19.7068 53.0727
19.752 52.8995
19.7974 53.3327
19.8426 54.2973
19.888 56.4231
19.9332 57.968
19.9786 58.1641
20.0238 58.4761
20.0692 60.9606
20.1144 65.8294
20.1598 71.8115
20.205 70.7887
20.2504 65.2733
20.2957 60.5347
20.3411 60.7644
20.3863 63.7577
20.4318 64.3522
20.477 59.2639
20.5224 53.1601
20.5677 50.6552
20.6131 50.094
20.6586 49.4696
20.7038 49.2195
20.7493 48.9456
20.7945 48.8955
20.84 48.6804
20.8853 48.3186
20.9307 48.3699
20.976 48.4914
21.0215 48.871
21.0668 49.0631
21.1122 49.1376
21.1575 49.1437
21.203 49.4305
21.2483 49.8279
21.2938 50.9987
21.3391 51.02
21.3846 50.2965
21.4299 49.0519
21.4754 48.3221
21.5207 48.4627
21.5662 48.67
21.6116 49.0875
21.6571 51.1003
21.7024 52.7203
21.7479 53.7955
21.7933 54.0416
21.8388 55.2266
21.8843 57.6789
21.9297 61.0157
21.9752 64.8545
22.0206 65.3945
22.0661 60.6879
22.1115 56.1778
22.157 55.0299
22.2024 56.1733
22.248 54.8481
22.2933 52.3325
22.3389 49.8144
22.3843 49.0369
22.4299 48.6029
22.4753 48.5971
22.5208 48.5145
22.5662 48.365
22.6118 48.6661
22.6572 48.8017
22.7028 49.8727
22.7483 51.108
22.7939 51.4679
22.8393 51.761
22.8849 52.005
22.9303 52.7935
22.9759 54.1445
23.0214 56.2893
23.067 57.9936
23.1126 55.9246
23.1581 52.4442
23.2037 49.7
23.2492 48.9695
23.2948 49.4901
23.3403 50.7768
23.3859 51.4586
23.4314 51.4066
23.477 51.2531
23.5225 51.7112
23.5682 52.9382
23.6137 55.036
23.6593 57.168
23.7048 57.1041
23.7505 53.4183
23.796 49.1011
23.8417 46.7805
23.8872 45.8329
23.9329 45.2829
23.9784 45.0056
24.0241 44.7323
24.0697 44.6556
24.1154 44.0773
24.1609 43.9106
24.2066 43.6399
24.2522 43.5377
24.2979 43.3917
24.3434 43.3005
24.3892 43.0157
24.4349 42.9548
24.4805 42.6504
24.5262 42.9196
24.5718 42.5651
24.6175 42.705
24.6631 42.92
24.7089 42.6008
24.7545 42.5704
24.8002 42.2361
24.8458 42.3326
24.8916 42.242
24.9372 42.4839
24.983 42.7214
25.0286 42.7426
25.0744 43.2133
25.12 43.5427
25.1658 43.8451
25.2114 44.269
25.2572 44.6626
25.3029 44.6691
25.3487 44.4928
25.3943 44.5512
25.4402 44.7156
25.4858 44.4002
25.5316 42.9799
25.5773 41.5791
25.6231 41.0021
25.669 40.4703
25.7147 40.6259
25.7605 40.6009
25.8062 40.6447
25.8521 40.9186
25.8977 40.7341
25.9436 40.7877
25.9893 40.6705
26.0352 40.9316
26.0809 40.9083
26.1268 41.3523
26.1725 41.714
26.2184 41.7194
26.2641 41.1907
26.31 40.6667
26.3557 40.7068
26.4017 40.549
26.4474 40.6192
26.4933 40.6535
26.5391 40.8947
26.585 41.1305
26.6308 41.3567
26.6767 41.6755
26.7225 42.3588
26.7684 42.4249
26.8142 41.8029
26.8601 41.1333
26.9059 40.6598
26.9519 40.2849
26.9979 39.944
27.0437 39.3929
27.0896 39.0147
27.1354 38.9841
27.1814 38.7187
27.2272 38.7173
27.2732 38.7728
27.3191 38.5743
27.3651 38.5004
27.4109 38.4375
27.4569 38.4621
27.5027 38.4087
27.5488 38.533
27.5946 38.4516
27.6407 38.5025
27.6865 38.5001
27.7326 38.446
27.7784 38.3743
27.8245 38.0808
27.8703 38.1788
27.9164 38.3479
27.9623 38.288
28.0084 38.4256
28.0543 38.7597
28.1003 38.8252
28.1462 39.0349
28.1923 39.1177
28.2384 38.5958
28.2843 38.2
28.3304 37.7471
28.3764 37.333
28.4225 37.1199
28.4684 36.6193
28.5145 36.0812
28.5605 35.9361
28.6066 35.9929
28.6526 35.6445
28.6987 35.7774
28.7447 35.4773
28.7908 35.3855
28.8368 35.2143
28.8829 35.4404
28.9289 35.1974
28.9751 35.1868
29.0211 35.0949
29.0673 34.9851
29.1133 34.8528
29.1595 34.5854
29.2055 34.3653
29.2517 34.3448
29.2977 34.1709
29.3439 34.0821
29.3899 33.9877
29.4361 33.9915
29.4824 34.0929
29.5284 33.9909
29.5746 33.6539
29.6207 33.3478
29.6669 33.2103
29.713 33.0869
29.7593 32.7425
29.8053 32.9356
29.8516 32.8069
29.8977 32.8779
29.9439 32.636
29.99 32.5775
30.0363 32.4503
30.0824 32.447
30.1287 32.3414
30.1748 32.3134
30.2211 32.3259
30.2673 32.2668
30.3136 32.3993
30.3597 32.3937
30.406 32.4007
30.4522 32.3564
30.4985 32.1311
30.5447 32.074
30.591 32.1089
30.6372 32.0106
30.6835 31.9827
30.7297 32.2055
30.7761 32.2515
30.8224 32.1887
30.8686 32.0863
30.915 31.9984
30.9612 31.7692
31.0076 31.481
31.0538 31.2858
31.1002 31.1001
31.1464 31.1833
31.1928 31.0496
31.2391 31.0736
31.2855 30.8835
31.3317 30.7675
31.3781 30.9537
31.4244 30.8195
31.4708 30.79
31.5171 30.7347
31.5636 30.8895
31.6098 30.8135
31.6563 30.7029
31.7026 30.5461
31.7491 30.2971
31.7953 30.3149
31.8418 30.1865
31.8881 30.2065
31.9346 30.0484
31.9809 30.0694
32.0275 30.0012
32.074 30.0128
32.1203 29.8667
32.1668 29.7873
32.2132 29.5433
32.2597 29.4798
32.306 29.3661
32.3526 29.1269
32.399 29.0753
32.4455 28.8611
32.4919 28.7162
32.5385 28.7406
32.5848 28.5392
32.6314 28.5334
32.6778 28.509
32.7244 28.2591
32.7708 28.2048
32.8174 28.2182
32.8638 27.9472
32.9104 28.1351
32.9569 28.0305
33.0035 27.9232
33.0499 27.8931
33.0966 27.8585
33.143 27.8306
33.1897 27.6597
33.2361 27.5597
33.2828 27.5683
33.3293 27.5114
33.3759 27.5267
33.4226 27.3897
33.4691 27.2728
33.5158 27.226
33.5623 27.0062
33.609 26.8968
33.6555 26.7693
33.7022 26.6001
33.7487 26.592
33.7954 26.4566
33.842 26.4215
33.8887 26.3264
33.9353 26.2265
33.982 26.2428
34.0286 26.1063
34.0753 26.0171
34.1219 25.9918
34.1687 25.8932
34.2152 25.7831
34.262 25.681
34.3086 25.5214
34.3554 25.5765
34.402 25.376
34.4488 25.3611
34.4954 25.3283
34.5422 25.2135
34.5889 25.0955
34.6357 24.9567
34.6825 24.9213
34.7292 24.8354
34.776 24.7472
34.8227 24.7042
34.8695 24.6339
34.9162 24.5748
34.9631 24.6068
35.0098 24.5139
35.0566 24.4149
35.1033 24.3491
35.1502 24.314
35.1969 24.1859
35.2438 24.2061
35.2906 24.1415
35.3375 24.0744
35.3842 24.0001
35.4311 23.8669
35.4779 23.9228
35.5248 23.8996
35.5716 23.8367
35.6185 23.7814
35.6653 23.6669
35.7123 23.5963
35.759 23.5667
35.806 23.4735
35.8528 23.275
35.8998 23.2064
35.9468 23.1528
35.9936 23.1391
36.0406 23.0398
36.0874 22.9455
36.1345 22.9579
36.1813 22.8558
36.2283 22.7072
36.2752 22.7066
36.3222 22.7361
36.3691 22.6635
36.4161 22.4839
36.463 22.4714
36.5101 22.4786
36.557 22.4011
36.6041 22.2367
36.651 22.2056
36.6981 22.1487
36.745 22.0731
36.7921 22.0274
36.839 21.9029
36.8861 21.8806
36.9331 21.7728
36.9802 21.6813
37.0272 21.6291
37.0743 21.4705
37.1213 21.5115
37.1684 21.4445
37.2154 21.3439
37.2626 21.2501
37.3098 21.1818
37.3568 21.1621
37.404 21.102
37.451 21.0142
37.4982 20.9814
37.5452 20.8095
37.5924 20.7609
37.6395 20.9115
37.6867 20.7072
37.7337 20.6135
37.781 20.572
37.8281 20.5225
37.8753 20.3471
37.9224 20.2749
37.9697 20.2757
38.0168 20.2173
38.064 20.1512
38.1111 20.1364
38.1584 19.9704
38.2056 19.9618
38.2529 19.9233
38.3 19.8728
38.3473 19.7951
38.3945 19.726
38.4418 19.7071
38.489 19.5987
38.5363 19.5884
38.5837 19.4044
38.6309 19.4423
38.6782 19.3552
38.7254 19.3605
38.7728 19.2664
38.82 19.1455
38.8674 19.1199
38.9146 19.0133
38.9621 19.0186
39.0093 18.9601
39.0567 18.9239
39.104 18.7865
39.1514 18.6636
39.1987 18.7156
39.2461 18.6789
39.2934 18.5172
39.3409 18.5194
39.3882 18.3893
39.4356 18.3028
39.483 18.2799
39.5304 18.2576
39.5778 18.2729
39.6253 18.1576
39.6726 18.1357
39.7201 18.0456
39.7675 17.9835
39.815 17.9008
39.8624 17.9298
39.9099 17.8619
39.9575 17.7688
40.0049 17.7312
40.0525 17.6025
40.0999 17.6136
40.1474 17.5409
40.1949 17.5084
40.2425 17.4111
40.2899 17.3367
40.3375 17.2963
40.385 17.2144
40.4326 17.2477
40.48 17.1393
40.5277 17.1409
40.5752 17.0874
40.6228 17.0042
40.6703 16.9648
40.718 16.961
40.7655 16.8654
40.8132 16.7348
40.8607 16.738
40.9084 16.6536
40.9559 16.6415
41.0036 16.5794
41.0512 16.5154
41.0989 16.4949
41.1465 16.4292
41.1942 16.355
41.242 16.2882
41.2896 16.2778
41.3373 16.155
41.3849 16.1533
41.4327 16.0728
41.4803 16.0236
41.5281 15.9624
41.5758 15.9673
41.6236 15.8141
41.6712 15.7917
41.7191 15.7278
41.7667 15.6614
41.8146 15.6229
41.8622 15.579
41.9101 15.5324
41.9578 15.4391
42.0057 15.4244
42.0534 15.3822
42.1013 15.3288
42.149 15.3074
42.1969 15.214
42.2446 15.1799
42.2925 15.1172
42.3403 15.0832
42.3882 15.0862
42.436 14.9396
42.4839 14.9502
42.5319 14.8909
42.5797 14.7917
42.6277 14.7791
42.6755 14.6971
42.7235 14.73
42.7713 14.6332
42.8193 14.577
42.8671 14.5108
42.9152 14.474
42.963 14.4332
43.0111 14.3875
43.0589 14.3325
43.107 14.2639
43.1549 14.2185
43.2029 14.157
43.2508 14.1323
43.2989 14.0356
43.3468 14.0327
43.3949 13.9924
43.4429 13.8842
43.491 13.8486
43.5389 13.825
43.5871 13.8049
43.635 13.7512
43.6832 13.751
43.7312 13.6182
43.7793 13.5988
43.8273 13.5361
43.8755 13.5232
43.9237 13.4543
43.9717 13.4085
44.0199 13.3667
44.068 13.367
44.1162 13.2688
44.1642 13.2435
44.2125 13.1836
44.2606 13.136
44.3088 13.0932
44.3569 13.0462
44.4052 13.0148
44.4533 12.9482
44.5016 12.9074
44.5497 12.8339
44.598 12.8528
44.6461 12.7484
44.6945 12.7019
44.7426 12.6895
44.791 12.6171
44.8391 12.6261
44.8875 12.5564
44.9357 12.5038
44.984 12.4481
45.0322 12.3896
45.0806 12.3779
45.1288 12.3102
45.1773 12.2626
45.2257 12.2464
45.2739 12.1991
45.3224 12.1387
45.3706 12.1117
45.4191 12.0545
45.4673 12.0398
45.5158 12.0097
45.5641 11.9276
45.6126 11.9136
45.6609 11.84
45.7094 11.82
45.7577 11.7615
45.8063 11.7639
45.8546 11.6965
45.9031 11.6562
45.9515 11.5945
46.0001 11.5905
46.0484 11.5545
46.097 11.4493
46.1454 11.4734
46.194 11.3774
46.2424 11.4078
46.291 11.3434
46.3395 11.2842
46.3881 11.231
46.4365 11.2218
46.4852 11.1713
46.5337 11.1176
46.5823 11.0662
46.631 11.0386
46.6795 10.9664
46.7282 10.912
46.7767 10.9352
46.8254 10.8331
46.8739 10.8844
46.9226 10.7734
46.9712 10.7355
47.0199 10.7311
47.0685 10.6549
47.1173 10.663
47.1658 10.5886
47.2146 10.5556
47.2632 10.4961
47.312 10.4727
47.3606 10.4183
47.4095 10.3648
47.4581 10.3398
47.5069 10.2961
47.5556 10.2754
47.6044 10.2133
47.6531 10.2002
47.702 10.1355
47.7507 10.1645
47.7996 10.0584
47.8483 10.0857
47.8972 10.044
47.9461 9.97542
47.9948 9.9675
48.0438 9.91408
48.0925 9.84791
48.1415 9.83174
48.1902 9.82196
48.2392 9.80112
48.288 9.78076
48.337 9.71586
48.3858 9.64897
48.4348 9.64098
48.4837 9.65577
48.5327 9.59453
48.5815 9.52046
48.6306 9.52922
48.6795 9.49128
48.7285 9.38924
48.7774 9.39259
48.8265 9.38656
48.8754 9.31643
48.9245 9.30684
48.9734 9.25128
49.0226 9.2266
49.0715 9.18028
49.1206 9.16355
49.1696 9.11498
49.2188 9.08805
49.2679 9.03774
49.3169 8.98081
49.3661 8.9492
49.4151 8.9534
49.4643 8.89464
49.5134 8.86515
49.5626 8.83199
49.6117 8.8024
49.6609 8.80283
49.71 8.74107
49.7592 8.68235
49.8083 8.6282
49.8576 8.66892
49.9067 8.59682
49.956 8.53674
50.0052 8.55906
50.0545 8.51484
50.1036 8.44803
50.153 8.45305
50.2022 8.42293
50.2515 8.37753
50.3007 8.33273
50.3501 8.29065
50.3993 8.27117
50.4487 8.26016
50.498 8.25023
50.5474 8.19382
50.5966 8.14584
50.6461 8.11325
50.6955 8.12796
50.7448 8.08198
50.7943 8.03256
50.8436 7.97634
50.8931 7.98267
50.9424 7.96076
50.9919 7.92179
51.0413 7.87959
51.0908 7.83532
51.1402 7.80924
51.1897 7.78162
51.2391 7.78509
51.2887 7.69318
51.3381 7.68851
51.3877 7.65554
51.4371 7.59103
51.4867 7.58155
51.5362 7.56631
51.5858 7.53907
51.6353 7.48721
51.6849 7.45179
51.7344 7.4101
51.7841 7.41626
51.8336 7.38541
51.8833 7.33497
51.9328 7.30609
51.9826 7.28241
52.0323 7.28445
52.0818 7.21361
52.1316 7.16578
52.1812 7.16052
52.231 7.15079
52.2806 7.08659
52.3304 7.10184
52.38 7.05427
52.4298 6.99908
52.4794 6.96217
52.5293 6.97759
52.5789 6.95789
52.6288 6.87596
52.6785 6.86303
52.7284 6.83869
52.7781 6.85265
52.828 6.77464
52.8777 6.74787
52.9276 6.74403
52.9774 6.70176
53.0273 6.69108
53.0771 6.64724
53.1271 6.64531
53.1769 6.57662
53.2269 6.57565
53.2767 6.5095
53.3267 6.49039
53.3765 6.49479
53.4266 6.46115
53.4766 6.46118
53.5265 6.40239
53.5765 6.36625
53.6264 6.38899
53.6765 6.33399
53.7264 6.29038
53.7765 6.30163
53.8265 6.23548
53.8766 6.17465
53.9266 6.20538
53.9767 6.17249
54.0267 6.1348
54.0769 6.04698
54.1269 6.03595
54.1771 5.95959
54.2271 5.99512
54.2773 5.91116
54.3274 5.879
54.3776 5.89047
54.4277 5.81615
54.478 5.81444
54.528 5.76692
54.5783 5.72391
54.6285 5.61842
54.6788 5.66759
54.7289 5.57178
54.7792 5.55281
54.8296 5.47457
54.8798 5.43862
54.9301 5.37526
54.9803 5.39023
55.0307 5.31874
55.0809 5.32254
55.1314 5.29324
55.1816 5.21088
55.232 5.16711
55.2823 5.11426
55.3328 5.00321
55.383 4.95526
55.4335 4.94709
55.4838 4.89389
55.5344 4.83849
55.5847 4.81726
55.6352 4.86607
55.6856 4.81132
55.7361 4.73986