File: XRD/Ni3Fe_FD0662.xy
TT I
1.27165 6.99617
1.31627 6.52247
1.36089 7.31213
1.40551 5.95634
1.45013 6.01229
1.49476 5.91224
1.53938 5.64164
1.584 5.8616
1.62863 5.59756
1.67325 5.72887
1.71787 5.0998
1.7625 5.19358
1.80712 4.96404
1.85174 4.5882
1.89636 4.88207
1.94099 4.76752
1.98562 4.79009
2.03025 4.03568
2.07487 4.64381
2.11949 5.33218
2.16411 4.40362
2.20874 13.7878
2.25338 22.3828
2.298 6.6235
2.34263 4.81676
2.38725 5.93241
2.43188 5.61583
2.4765 6.56386
2.52115 7.21717
2.56577 7.5905
2.6104 8.07414
2.65503 7.87733
2.69965 7.56672
2.7443 8.10509
2.78893 8.11293
2.83356 8.29803
2.87818 8.48152
2.92281 8.67449
2.96744 9.31283
3.01209 10.2849
3.05672 10.8171
3.10135 12.3792
3.14599 12.5492
3.19062 13.9089
3.23527 15.1903
3.2799 15.3781
3.32454 16.998
3.36917 17.6576
3.4138 19.1196
3.45844 19.5896
3.50309 20.8027
3.54773 21.6124
3.59237 23.2964
3.637 89.8218
3.68164 57.4056
3.7263 26.3001
3.77094 26.1039
3.81558 26.9101
3.86022 27.148
3.90486 28.9086
3.9495 30.0467
3.99416 31.1229
4.0388 32.2417
4.08344 33.6923
4.12809 34.306
4.17273 36.944
4.21738 43.0181
4.26204 242.379
4.30669 208.423
4.35133 47.7971
4.39598 44.2296
4.44063 53.8903
4.4853 64.1073
4.52995 50.1288
4.5746 50.8562
4.61925 53.1207
4.6639 55.7464
4.70855 58.1606
4.75322 60.8464
4.79788 63.6016
4.84253 67.0963
4.88719 71.2531
4.93184 75.109
4.97652 80.7867
5.02118 86.7831
5.06583 94.3795
5.11049 105.651
5.15515 172.476
5.19981 338.148
5.24449 2797.12
5.28916 12692.2
5.33382 2823.54
5.37848 185.189
5.42315 127.113
5.46783 112.426
5.5125 105.531
5.55716 102.077
5.60183 97.7724
5.6465 96.4679
5.69117 93.7097
5.73586 92.2215
5.78053 91.1537
5.8252 90.4776
5.86988 91.8149
5.91455 94.0613
5.95924 102.459
6.00392 198.526
6.0486 956.943
6.09328 4559.06
6.13795 3272.67
6.18263 228.595
6.22733 92.4157
6.27201 82.8308
6.3167 100.611
6.36138 80.0757
6.40606 68.8482
6.45075 67.067
6.49545 65.3195
6.54014 63.8226
6.58483 62.8047
6.62952 62.7679
6.67421 92.8208
6.71892 140.606
6.76361 68.1447
6.8083 58.3413
6.853 57.2583
6.89769 56.5692
6.94239 56.4896
6.98711 55.6074
7.03181 55.3029
7.07651 55.2256
7.12121 54.9985
7.16591 55.1601
7.21063 55.5088
7.25533 69.8443
7.30004 173.203
7.34475 90.3398
7.38945 56.3678
7.43416 54.3153
7.47889 54.4196
7.5236 54.7399
7.56831 54.9433
7.61303 56.8267
7.65774 56.8449
7.70247 56.3417
7.74719 56.0433
7.79191 56.3726
7.83663 56.9253
7.88135 58.0995
7.92607 58.522
7.97081 59.6848
8.01553 60.6791
8.06026 62.115
8.10498 63.9278
8.14971 72.9373
8.19446 72.1266
8.23919 69.4774
8.28392 71.4548
8.32865 74.1118
8.37339 78.3223
8.41812 85.0455
8.46288 112.51
8.50761 161.579
8.55235 385.373
8.59709 1193.12
8.64183 2245.32
8.68658 922.638
8.73134 156.813
8.77609 98.3195
8.82083 92.0422
8.86558 89.2024
8.91033 88.9258
8.9551 90.5195
8.99985 85.1231
9.04461 83.2886
9.08936 82.6098
9.13412 81.6975
9.17888 82.0162
9.22365 82.6194
9.26841 81.6865
9.31318 82.4261
9.35794 82.6675
9.4027 82.8673
9.44749 83.8408
9.49226 84.2637
9.53703 85.4066
9.5818 86.8842
9.62657 91.7119
9.67134 98.1068
9.71614 93.4528
9.76091 93.7512
9.80569 96.2269
9.85047 99.4689
9.89525 123.124
9.94005 135.43
9.98484 172.898
10.0296 340.472
10.0744 812.001
10.1192 1791.71
10.164 1592.13
10.2088 386.932
10.2536 124.218
10.2984 112.343
10.3432 113.849
10.388 104.443
10.4328 116.02
10.4776 158.462
10.5224 278.392
10.5672 517.063
10.612 505.728
10.6568 193.821
10.7017 95.0513
10.7465 86.2799
10.7913 82.9264
10.8361 80.964
10.8809 78.6689
10.9257 78.089
10.9706 78.8222
11.0154 74.5647
11.0602 72.6207
11.105 71.7724
11.1499 75.7078
11.1947 82.7909
11.2395 74.055
11.2844 70.1877
11.3292 67.1795
11.374 65.9128
11.4189 65.3106
11.4637 64.686
11.5086 65.2523
11.5534 68.0873
11.5983 65.4826
11.6431 63.5932
11.688 62.7235
11.7328 62.9386
11.7777 62.7118
11.8225 62.4338
11.8674 62.5237
11.9122 62.496
11.9571 62.8209
12.002 63.465
12.0468 67.3448
12.0917 78.893
12.1366 103.198
12.1814 153.422
12.2263 208.11
12.2712 164.219
12.3161 92.6296
12.3609 69.9475
12.4058 64.4359
12.4507 63.8021
12.4956 64.1492
12.5405 64.3546
12.5853 65.3198
12.6302 72.7678
12.6751 77.9795
12.72 69.7649
12.7649 67.4908
12.8098 68.0879
12.8547 69.4878
12.8996 70.9868
12.9445 72.2657
12.9894 73.8683
13.0343 75.8172
13.0792 78.8493
13.1242 86.9419
13.1691 111.304
13.214 148.741
13.2589 240.167
13.3038 382.46
13.3487 430.721
13.3937 255.708
13.4386 120.14
13.4835 104.311
13.5285 119.785
13.5734 157.717
13.6183 249.493
13.6633 357.806
13.7082 334.803
13.7531 177.508
13.7981 94.7654
13.843 81.1859
13.888 79.0289
13.9329 76.5366
13.9779 75.6362
14.0228 74.1822
14.0678 72.9692
14.1127 72.4088
14.1577 72.1528
14.2027 71.5265
14.2476 70.2544
14.2926 70.5444
14.3376 71.3139
14.3825 70.2405
14.4275 68.7466
14.4725 68.5474
14.5175 68.4564
14.5624 68.691
14.6074 70.9643
14.6524 71.5947
14.6974 70.1871
14.7424 71.3409
14.7874 77.8075
14.8324 88.278
14.8774 109.819
14.9224 154.582
14.9674 211.652
15.0124 218.581
15.0574 144.15
15.1024 87.9596
15.1474 71.9734
15.1924 70.1121
15.2374 71.0137
15.2824 70.1109
15.3274 67.9184
15.3725 66.6849
15.4175 65.9319
15.4625 65.9338
15.5076 66.2051
15.5526 66.3755
15.5976 65.4239
15.6426 66.3919
15.6877 71.6807
15.7327 79.3804
15.7778 94.2186
15.8228 126.343
15.8679 172.862
15.9129 195.519
15.958 154.194
16.003 94.642
16.0481 67.0785
16.0931 64.2996
16.1382 62.6145
16.1833 60.542
16.2283 58.8445
16.2734 58.2715
16.3185 58.5823
16.3636 59.1159
16.4086 57.6165
16.4537 56.0931
16.4988 55.3179
16.5439 55.2591
16.589 55.0317
16.6341 54.7363
16.6792 54.3154
16.7243 54.6332
16.7694 54.9458
16.8145 54.8407
16.8596 55.0542
16.9047 56.6432
16.9498 56.6227
16.9949 55.6283
17.04 55.721
17.0851 56.7714
17.1302 58.5958
17.1754 61.5712
17.2205 66.549
17.2656 74.5271
17.3108 83.7347
17.3559 82.3691
17.401 70.5284
17.4462 61.6056
17.4913 59.0373
17.5365 59.0605
17.5815 59.1284
17.6268 59.4198
17.6718 60.3135
17.7171 60.8571
17.7622 61.1378
17.8074 61.819
17.8525 64.0324
17.8977 68.0147
17.9428 73.4668
17.9881 82.292
18.0331 99.8942
18.0784 123.874
18.1237 142.365
18.1688 130.891
18.214 101.735
18.2591 85.6846
18.3044 90.6577
18.3495 100.943
18.3948 106.211
18.4399 96.1428
18.4852 76.2745
18.5303 65.4524
18.5756 61.989
18.6207 61.0567
18.666 60.0572
18.7112 59.4181
18.7565 58.7226
18.8016 58.57
18.8469 57.8582
18.892 57.4653
18.9374 57.1354
18.9825 57.012
19.0278 56.8346
19.073 56.867
19.1183 57.291
19.1635 58.1962
19.2088 59.4686
19.254 61.8988
19.2993 66.9622
19.3447 73.578
19.3898 77.0785
19.4352 71.8676
19.4804 62.5533
19.5257 56.2887
19.5709 54.1345
19.6163 53.806
19.6615 53.6123
19.7068 53.1495
19.752 53.2185
19.7974 53.4654
19.8426 54.3841
19.888 54.9247
19.9332 56.126
19.9786 58.7433
20.0238 62.3051
20.0692 67.6507
20.1144 69.8827
20.1598 67.7967
20.205 62.8557
20.2504 61.8529
20.2957 64.0827
20.3411 65.6481
20.3863 63.6029
20.4318 57.8375
20.477 53.2578
20.5224 51.5109
20.5677 50.9481
20.6131 50.231
20.6586 49.602
20.7038 49.3061
20.7493 48.8456
20.7945 48.884
20.84 48.729
20.8853 48.3991
20.9307 48.5133
20.976 48.6722
21.0215 48.5938
21.0668 49.0482
21.1122 49.2758
21.1575 50.0947
21.203 50.7062
21.2483 51.3294
21.2938 51.3685
21.3391 49.6978
21.3846 48.8313
21.4299 48.22
21.4754 48.3414
21.5207 48.2997
21.5662 48.7443
21.6116 49.2188
21.6571 49.7933
21.7024 50.7786
21.7479 52.5152
21.7933 55.1385
21.8388 59.2878
21.8843 63.0365
21.9297 64.7753
21.9752 62.957
22.0206 59.1285
22.0661 56.3496
22.1115 56.0565
22.157 55.9286
22.2024 53.9569
22.248 51.2894
22.2933 49.8238
22.3389 48.7766
22.3843 49.0078
22.4299 48.8146
22.4753 48.856
22.5208 48.4227
22.5662 48.4607
22.6118 48.5057
22.6572 48.9628
22.7028 49.169
22.7483 49.613
22.7939 50.4072
22.8393 51.8903
22.8849 54.1485
22.9303 56.3287
22.9759 58.1163
23.0214 57.4657
23.067 54.2687
23.1126 50.8569
23.1581 49.1854
23.2037 48.6298
23.2492 48.6921
23.2948 48.714
23.3403 49.0276
23.3859 49.4968
23.4314 50.6213
23.477 52.5304
23.5225 54.9035
23.5682 57.3718
23.6137 58.2743
23.6593 55.279
23.7048 51.2025
23.7505 47.9446
23.796 46.478
23.8417 45.8368
23.8872 45.5243
23.9329 45.1242
23.9784 44.8522
24.0241 44.5117
24.0697 44.3913
24.1154 44.1822
24.1609 43.9476
24.2066 43.9285
24.2522 43.6155
24.2979 43.3695
24.3434 43.2129
24.3892 43.2569
24.4349 42.8956
24.4805 42.7202
24.5262 43.1901
24.5718 42.7977
24.6175 42.8832
24.6631 42.6479
24.7089 42.527
24.7545 42.3826
24.8002 42.2357
24.8458 42.1487
24.8916 42.0269
24.9372 42.0998
24.983 42.5394
25.0286 42.7836
25.0744 43.2673
25.12 43.809
25.1658 44.3185
25.2114 44.5339
25.2572 44.5906
25.3029 44.8267
25.3487 44.9496
25.3943 44.5894
25.4402 43.3381
25.4858 42.2591
25.5316 41.3412
25.5773 40.9345
25.6231 40.8964
25.669 40.5198
25.7147 40.4294
25.7605 40.4822
25.8062 40.4034
25.8521 40.6041
25.8977 40.4985
25.9436 40.8209
25.9893 40.9679
26.0352 41.4512
26.0809 41.5208
26.1268 41.635
26.1725 41.3634
26.2184 40.7856
26.2641 40.2724
26.31 40.0484
26.3557 40.0451
26.4017 40.0304
26.4474 40.426
26.4933 40.7191
26.5391 41.2893
26.585 41.6924
26.6308 42.0425
26.6767 42.2444
26.7225 42.015
26.7684 41.3959
26.8142 40.8814
26.8601 40.276
26.9059 39.8855
26.9519 39.4509
26.9979 39.0552
27.0437 38.911
27.0896 38.5924
27.1354 38.7605
27.1814 38.5605
27.2272 38.4517
27.2732 38.4528
27.3191 38.292
27.3651 38.3174
27.4109 38.5079
27.4569 38.5523
27.5027 38.4967
27.5488 38.5559
27.5946 38.3465
27.6407 38.0535
27.6865 38.0176
27.7326 37.8125
27.7784 37.8342
27.8245 37.825
27.8703 37.9853
27.9164 38.2637
27.9623 38.4664
28.0084 38.7181
28.0543 39.1057
28.1003 38.9574
28.1462 38.8426
28.1923 38.439
28.2384 37.8744
28.2843 37.6079
28.3304 37.1649
28.3764 36.6586
28.4225 36.2247
28.4684 36.2025
28.5145 35.9665
28.5605 35.8535
28.6066 35.5958
28.6526 35.5584
28.6987 35.4905
28.7447 35.5003
28.7908 35.5297
28.8368 35.3662
28.8829 35.5216
28.9289 35.2386
28.9751 35.2745
29.0211 34.8513
29.0673 34.6738
29.1133 34.455
29.1595 34.2921
29.2055 34.2446
29.2517 34.4028
29.2977 34.2267
29.3439 34.3372
29.3899 34.3216
29.4361 34.1955
29.4824 33.8754
29.5284 33.7274
29.5746 33.3372
29.6207 33.2117
29.6669 33.0321
29.713 32.9342
29.7593 32.7494
29.8053 32.838
29.8516 32.8062
29.8977 32.7349
29.9439 32.6015
29.99 32.5744
30.0363 32.4793
30.0824 32.4863
30.1287 32.277
30.1748 32.4252
30.2211 32.4455
30.2673 32.3026
30.3136 32.3623
30.3597 32.1736
30.406 32.0996
30.4522 32.0508
30.4985 31.9807
30.5447 32.163
30.591 32.0505
30.6372 32.2668
30.6835 32.1149
30.7297 32.2289
30.7761 32.1297
30.8224 32.0237
30.8686 31.8363
30.915 31.5786
30.9612 31.4723
31.0076 31.2545
31.0538 31.0622
31.1002 30.9988
31.1464 30.8948
31.1928 30.9411
31.2391 30.9374
31.2855 30.8724
31.3317 30.8289
31.3781 30.8858
31.4244 30.7871
31.4708 30.84
31.5171 30.6804
31.5636 30.8738
31.6098 30.4647
31.6563 30.4406
31.7026 30.1922
31.7491 30.0958
31.7953 30.2701
31.8418 30.1718
31.8881 30.1552
31.9346 30.0932
31.9809 30.0668
32.0275 29.9592
32.074 29.8217
32.1203 29.6471
32.1668 29.5488
32.2132 29.3531
32.2597 29.192
32.306 29.1262
32.3526 28.8841
32.399 28.877
32.4455 28.7101
32.4919 28.7376
32.5385 28.714
32.5848 28.4704
32.6314 28.4613
32.6778 28.397
32.7244 28.2799
32.7708 28.1114
32.8174 28.1745
32.8638 27.9712
32.9104 27.9987
32.9569 27.9646
33.0035 27.9032
33.0499 27.8438
33.0966 27.8106
33.143 27.7758
33.1897 27.721
33.2361 27.58
33.2828 27.4824
33.3293 27.3819
33.3759 27.3639
33.4226 27.2576
33.4691 27.1701
33.5158 27.0576
33.5623 26.8371
33.609 26.7243
33.6555 26.6296
33.7022 26.5605
33.7487 26.5458
33.7954 26.4952
33.842 26.3623
33.8887 26.3224
33.9353 26.3011
33.982 26.1323
34.0286 26.0997
34.0753 26.0484
34.1219 25.902
34.1687 25.7887
34.2152 25.6981
34.262 25.6273
34.3086 25.5267
34.3554 25.5346
34.402 25.4215
34.4488 25.3145
34.4954 25.2831
34.5422 25.1589
34.5889 25.0405
34.6357 24.9775
34.6825 24.9571
34.7292 24.8206
34.776 24.7954
34.8227 24.7054
34.8695 24.6007
34.9162 24.5199
34.9631 24.4926
35.0098 24.5442
35.0566 24.345
35.1033 24.2524
35.1502 24.2763
35.1969 24.1936
35.2438 24.0864
35.2906 24.0976
35.3375 23.9236
35.3842 24.0169
35.4311 23.9465
35.4779 23.9286
35.5248 23.9674
35.5716 23.7331
35.6185 23.7209
35.6653 23.6244
35.7123 23.5292
35.759 23.4493
35.806 23.3284
35.8528 23.2602
35.8998 23.2028
35.9468 23.1649
35.9936 23.1072
36.0406 23.0755
36.0874 22.9762
36.1345 22.9221
36.1813 22.8188
36.2283 22.7578
36.2752 22.6848
36.3222 22.6498
36.3691 22.5183
36.4161 22.4281
36.463 22.4285
36.5101 22.4004
36.557 22.3235
36.6041 22.1893
36.651 22.1645
36.6981 22.1386
36.745 21.9905
36.7921 21.9235
36.839 21.842
36.8861 21.697
36.9331 21.6961
36.9802 21.6595
37.0272 21.5622
37.0743 21.5404
37.1213 21.5042
37.1684 21.4162
37.2154 21.3556
37.2626 21.1757
37.3098 21.1989
37.3568 21.1101
37.404 21.1141
37.451 20.9681
37.4982 20.9353
37.5452 20.816
37.5924 20.8234
37.6395 20.8223
37.6867 20.7586
37.7337 20.5922
37.781 20.4979
37.8281 20.4447
37.8753 20.3547
37.9224 20.2681
37.9697 20.2979
38.0168 20.1601
38.064 20.1078
38.1111 20.1319
38.1584 20.021
38.2056 19.9727
38.2529 19.9365
38.3 19.7833
38.3473 19.74
38.3945 19.6667
38.4418 19.6199
38.489 19.5664
38.5363 19.4837
38.5837 19.3963
38.6309 19.4127
38.6782 19.3637
38.7254 19.26
38.7728 19.2045
38.82 19.1263
38.8674 19.0605
38.9146 19.0646
38.9621 18.9804
39.0093 18.883
39.0567 18.8448
39.104 18.7511
39.1514 18.7216
39.1987 18.681
39.2461 18.6313
39.2934 18.6115
39.3409 18.506
39.3882 18.3922
39.4356 18.4355
39.483 18.2452
39.5304 18.2408
39.5778 18.2092
39.6253 18.1658
39.6726 18.1639
39.7201 18.1015
39.7675 18.035
39.815 18.0246
39.8624 17.8829
39.9099 17.8293
39.9575 17.7012
40.0049 17.6224
40.0525 17.6073
40.0999 17.6144
40.1474 17.5726
40.1949 17.4215
40.2425 17.435
40.2899 17.3359
40.3375 17.3426
40.385 17.2062
40.4326 17.2172
40.48 17.1191
40.5277 17.0792
40.5752 17.0587
40.6228 16.9295
40.6703 16.9141
40.718 16.8486
40.7655 16.8301
40.8132 16.7173
40.8607 16.7555
40.9084 16.6678
40.9559 16.6033
41.0036 16.5558
41.0512 16.5161
41.0989 16.4555
41.1465 16.3267
41.1942 16.3367
41.242 16.2538
41.2896 16.2733
41.3373 16.2008
41.3849 16.1793
41.4327 16.0835
41.4803 15.9944
41.5281 15.9171
41.5758 15.9231
41.6236 15.7815
41.6712 15.7982
41.7191 15.7371
41.7667 15.6818
41.8146 15.6534
41.8622 15.5895
41.9101 15.5653
41.9578 15.4105
42.0057 15.4447
42.0534 15.373
42.1013 15.345
42.149 15.2613
42.1969 15.2138
42.2446 15.1474
42.2925 15.1245
42.3403 15.0442
42.3882 15.0227
42.436 15.0096
42.4839 14.8833
42.5319 14.8828
42.5797 14.7962
42.6277 14.7813
42.6755 14.7036
42.7235 14.67
42.7713 14.6048
42.8193 14.5712
42.8671 14.5506
42.9152 14.4751
42.963 14.4059
43.0111 14.3558
43.0589 14.3319
43.107 14.2485
43.1549 14.2145
43.2029 14.1517
43.2508 14.1035
43.2989 14.036
43.3468 14.0176
43.3949 13.9371
43.4429 13.8924
43.491 13.8852
43.5389 13.8656
43.5871 13.81
43.635 13.7408
43.6832 13.7444
43.7312 13.6406
43.7793 13.5971
43.8273 13.5711
43.8755 13.5018
43.9237 13.4854
43.9717 13.4257
44.0199 13.3478
44.068 13.3108
44.1162 13.2951
44.1642 13.2734
44.2125 13.1336
44.2606 13.12
44.3088 13.0819
44.3569 13.0468
44.4052 13.0108
44.4533 12.9321
44.5016 12.8836
44.5497 12.8521
44.598 12.8384
44.6461 12.7964
44.6945 12.7102
44.7426 12.6695
44.791 12.6147
44.8391 12.5678
44.8875 12.5388
44.9357 12.5177
44.984 12.4855
45.0322 12.3965
45.0806 12.3936
45.1288 12.324
45.1773 12.251
45.2257 12.2374
45.2739 12.203
45.3224 12.1762
45.3706 12.1563
45.4191 12.0343
45.4673 12.0287
45.5158 11.9383
45.5641 11.9285
45.6126 11.9071
45.6609 11.8828
45.7094 11.819
45.7577 11.7368
45.8063 11.7513
45.8546 11.6977
45.9031 11.6174
45.9515 11.588
46.0001 11.5616
46.0484 11.5374
46.097 11.4911
46.1454 11.4557
46.194 11.456
46.2424 11.3282
46.291 11.3117
46.3395 11.2828
46.3881 11.2108
46.4365 11.2345
46.4852 11.1568
46.5337 11.1673
46.5823 11.0918
46.631 11.0202
46.6795 11.028
46.7282 10.9794
46.7767 10.8831
46.8254 10.8576
46.8739 10.8567
46.9226 10.788
46.9712 10.7709
47.0199 10.7068
47.0685 10.6881
47.1173 10.6349
47.1658 10.5942
47.2146 10.5485
47.2632 10.4787
47.312 10.467
47.3606 10.4431
47.4095 10.3925
47.4581 10.3641
47.5069 10.301
47.5556 10.2882
47.6044 10.2384
47.6531 10.2092
47.702 10.1629
47.7507 10.0916
47.7996 10.0682
47.8483 10.0619
47.8972 9.98691
47.9461 9.98294
47.9948 9.98981
48.0438 9.90002
48.0925 9.88336
48.1415 9.84546
48.1902 9.79576
48.2392 9.75752
48.288 9.71823
48.337 9.70546
48.3858 9.67542
48.4348 9.63491
48.4837 9.64302
48.5327 9.59191
48.5815 9.5123
48.6306 9.49778
48.6795 9.48415
48.7285 9.4399
48.7774 9.34888
48.8265 9.36664
48.8754 9.29814
48.9245 9.27285
48.9734 9.26973
49.0226 9.22898
49.0715 9.18018
49.1206 9.1353
49.1696 9.11582
49.2188 9.0823
49.2679 9.03124
49.3169 9.02145
49.3661 8.96716
49.4151 8.93394
49.4643 8.93235
49.5134 8.91517
49.5626 8.78059
49.6117 8.80924
49.6609 8.78098
49.71 8.72943
49.7592 8.7259
49.8083 8.6477
49.8576 8.6373
49.9067 8.58736
49.956 8.57812
50.0052 8.51342
50.0545 8.53404
50.1036 8.46805
50.153 8.4559
50.2022 8.4114
50.2515 8.34436
50.3007 8.35425
50.3501 8.32693
50.3993 8.27422
50.4487 8.25208
50.498 8.18707
50.5474 8.1871
50.5966 8.13433
50.6461 8.10654
50.6955 8.08425
50.7448 8.03784
50.7943 8.04355
50.8436 8.00024
50.8931 7.95324
50.9424 7.9266
50.9919 7.8973
51.0413 7.88407
51.0908 7.81731
51.1402 7.8027
51.1897 7.77267
51.2391 7.76344
51.2887 7.67485
51.3381 7.65848
51.3877 7.6753
51.4371 7.62137
51.4867 7.52681
51.5362 7.57077
51.5858 7.50912
51.6353 7.48073
51.6849 7.46687
51.7344 7.42588
51.7841 7.42333
51.8336 7.37303
51.8833 7.36245
51.9328 7.27248
51.9826 7.26455
52.0323 7.24509
52.0818 7.22557
52.1316 7.21454
52.1812 7.14736
52.231 7.11994
52.2806 7.11145
52.3304 7.09801
52.38 7.04438
52.4298 7.01749
52.4794 6.9708
52.5293 6.95679
52.5789 6.94101
52.6288 6.91775
52.6785 6.85332
52.7284 6.85212
52.7781 6.82238
52.828 6.76668
52.8777 6.77666
52.9276 6.72251
52.9774 6.70789
53.0273 6.65796
53.0771 6.62959
53.1271 6.65215
53.1769 6.58499
53.2269 6.57122
53.2767 6.509
53.3267 6.48405
53.3765 6.43651
53.4266 6.45671
53.4766 6.38904
53.5265 6.37933
53.5765 6.34819
53.6264 6.32612
53.6765 6.30518
53.7264 6.30413
53.7765 6.27369
53.8265 6.23085
53.8766 6.23046
53.9266 6.16092
53.9767 6.15221
54.0267 6.13532
54.0769 6.07337
54.1269 6.03447
54.1771 6.00089
54.2271 6.00911
54.2773 5.98087
54.3274 5.9667
54.3776 5.88185
54.4277 5.85225
54.478 5.85342
54.528 5.8176
54.5783 5.75579
54.6285 5.71832
54.6788 5.69476
54.7289 5.64326
54.7792 5.57515
54.8296 5.55407
54.8798 5.49749
54.9301 5.45163
54.9803 5.45887
55.0307 5.45078
55.0809 5.33577
55.1314 5.34206
55.1816 5.31875
55.232 5.26105
55.2823 5.22064
55.3328 5.15268
55.383 5.15385
55.4335 5.11268
55.4838 5.00477
55.5344 4.97594
55.5847 4.91549
55.6352 4.95244
55.6856 4.84981
55.7361 4.80064