File: XRD/Ni3Fe_FD1015.xy
TT I
1.27165 6.98372
1.31627 6.53157
1.36089 6.36707
1.40551 5.66285
1.45013 5.75378
1.49476 5.90442
1.53938 4.51784
1.584 5.39248
1.62863 4.93449
1.67325 4.5331
1.71787 4.51224
1.7625 4.48537
1.80712 4.33685
1.85174 4.4656
1.89636 4.7473
1.94099 4.9016
1.98562 4.46074
2.03025 3.88947
2.07487 4.71576
2.11949 4.98874
2.16411 4.62795
2.20874 5.59218
2.25338 7.38525
2.298 5.48539
2.34263 4.91833
2.38725 5.87446
2.43188 5.94643
2.4765 6.52782
2.52115 7.27439
2.56577 7.77197
2.6104 8.5465
2.65503 8.26941
2.69965 8.68096
2.7443 8.57558
2.78893 9.20091
2.83356 8.41568
2.87818 9.20406
2.92281 9.06833
2.96744 9.56725
3.01209 10.0914
3.05672 10.9571
3.10135 12.2739
3.14599 13.2422
3.19062 14.5182
3.23527 15.0254
3.2799 15.3668
3.32454 16.3783
3.36917 17.0837
3.4138 18.4423
3.45844 18.9355
3.50309 20.1603
3.54773 20.6558
3.59237 21.4436
3.637 28.8435
3.68164 27.295
3.7263 24.1682
3.77094 24.8044
3.81558 25.3289
3.86022 25.6694
3.90486 27.261
3.9495 28.2971
3.99416 29.0966
4.0388 30.0957
4.08344 31.5152
4.12809 32.1062
4.17273 33.1163
4.21738 35.2286
4.26204 54.7985
4.30669 59.7112
4.35133 40.5215
4.39598 40.3995
4.44063 42.9944
4.4853 46.3222
4.52995 46.1451
4.5746 47.8685
4.61925 49.9479
4.6639 52.351
4.70855 54.597
4.75322 57.1088
4.79788 60.2347
4.84253 63.351
4.88719 66.9432
4.93184 70.6948
4.97652 75.5229
5.02118 81.6804
5.06583 87.9378
5.11049 96.227
5.15515 116.527
5.19981 221.97
5.24449 2238.14
5.28916 13551.9
5.33382 3527.22
5.37848 244.748
5.42315 126.295
5.46783 108.148
5.5125 100.14
5.55716 96.2809
5.60183 92.3234
5.6465 90.1208
5.69117 88.9558
5.73586 86.7908
5.78053 86.0204
5.8252 85.1356
5.86988 85.7188
5.91455 87.1818
5.95924 93.2016
6.00392 155.024
6.0486 777.954
6.09328 4326.67
6.13795 3526.06
6.18263 246.483
6.22733 86.7615
6.27201 75.0017
6.3167 72.7803
6.36138 67.9301
6.40606 64.2533
6.45075 62.8464
6.49545 60.9677
6.54014 59.6801
6.58483 57.9216
6.62952 57.2597
6.67421 58.4809
6.71892 64.8273
6.76361 56.5872
6.8083 54.1675
6.853 53.4451
6.89769 52.8333
6.94239 52.505
6.98711 51.9665
7.03181 51.7763
7.07651 51.7287
7.12121 51.1924
7.16591 51.2196
7.21063 50.8522
7.25533 51.5339
7.30004 62.7209
7.34475 56.7162
7.38945 51.3257
7.43416 50.4951
7.47889 51.8328
7.5236 63.1313
7.56831 87.0081
7.61303 60.2703
7.65774 52.5733
7.70247 52.6671
7.74719 52.514
7.79191 53.0897
7.83663 53.4132
7.88135 54.3308
7.92607 55.0067
7.97081 56.2917
8.01553 56.5684
8.06026 57.9525
8.10498 59.2677
8.14971 61.5917
8.19446 63.2401
8.23919 64.592
8.28392 66.9491
8.32865 69.0863
8.37339 72.418
8.41812 76.3402
8.46288 84.9779
8.50761 122.867
8.55235 323.611
8.59709 1034.11
8.64183 2289.95
8.68658 1109.52
8.73134 178.162
8.77609 94.4079
8.82083 87.4418
8.86558 84.7134
8.91033 82.5226
8.9551 81.6962
8.99985 80.2249
9.04461 79.2932
9.08936 78.5353
9.13412 78.8159
9.17888 79.7204
9.22365 99.2527
9.26841 136.636
9.31318 96.7283
9.35794 80.063
9.4027 79.1444
9.44749 79.9294
9.49226 80.0416
9.53703 80.7101
9.5818 82.1408
9.62657 83.0964
9.67134 85.2478
9.71614 86.2466
9.76091 87.7571
9.80569 90.0967
9.85047 92.05
9.89525 97.2912
9.94005 104.581
9.98484 140.107
10.0296 304.902
10.0744 707.517
10.1192 1715.94
10.164 1720.08
10.2088 467.228
10.2536 126.429
10.2984 102.118
10.3432 99.4752
10.388 96.4411
10.4328 104.632
10.4776 147.153
10.5224 250.319
10.5672 488.598
10.612 534.077
10.6568 225.108
10.7017 108.639
10.7465 87.9169
10.7913 79.0938
10.8361 76.6805
10.8809 74.5445
10.9257 72.2808
10.9706 71.4315
11.0154 69.7706
11.0602 68.2935
11.105 67.2428
11.1499 66.1563
11.1947 66.2816
11.2395 64.9481
11.2844 63.8301
11.3292 62.8792
11.374 62.0269
11.4189 61.5965
11.4637 61.2612
11.5086 60.2718
11.5534 60.4941
11.5983 60.0738
11.6431 59.8442
11.688 59.3197
11.7328 59.1311
11.7777 58.9094
11.8225 58.9621
11.8674 59.2307
11.9122 62.7125
11.9571 72.9429
12.002 69.9872
12.0468 64.1429
12.0917 73.0917
12.1366 92.8821
12.1814 141.192
12.2263 200.585
12.2712 169.963
12.3161 94.3078
12.3609 63.6676
12.4058 60.4492
12.4507 60.354
12.4956 60.6199
12.5405 60.4438
12.5853 60.9043
12.6302 61.7219
12.6751 63.2272
12.72 63.1229
12.7649 63.5361
12.8098 64.2004
12.8547 65.2746
12.8996 66.6239
12.9445 67.9647
12.9894 69.4729
13.0343 71.4383
13.0792 75.6548
13.1242 82.114
13.1691 102.193
13.214 135.889
13.2589 214.754
13.3038 358.994
13.3487 438.614
13.3937 280.99
13.4386 127.581
13.4835 96.6693
13.5285 113.453
13.5734 145.549
13.6183 226.102
13.6633 349.956
13.7082 362.74
13.7531 204.916
13.7981 99.8158
13.843 78.4381
13.888 76.0351
13.9329 73.5408
13.9779 72.4024
14.0228 71.0973
14.0678 70.1926
14.1127 72.1295
14.1577 78.6042
14.2027 76.2765
14.2476 69.0661
14.2926 66.8316
14.3376 66.4852
14.3825 65.86
14.4275 65.2289
14.4725 65.2257
14.5175 65.3371
14.5624 65.1451
14.6074 65.4714
14.6524 66.102
14.6974 66.0832
14.7424 67.4291
14.7874 72.4767
14.8324 83.9742
14.8774 103.44
14.9224 142.167
14.9674 204.118
15.0124 225.05
15.0574 158.674
15.1024 94.05
15.1474 70.9906
15.1924 67.1188
15.2374 65.55
15.2824 64.7425
15.3274 63.968
15.3725 63.2826
15.4175 63.0191
15.4625 62.5669
15.5076 62.2939
15.5526 62.4344
15.5976 62.3047
15.6426 62.9601
15.6877 66.7016
15.7327 75.5365
15.7778 88.7992
15.8228 116.799
15.8679 166.366
15.9129 203.078
15.958 172.319
16.003 104.618
16.0481 69.914
16.0931 63.4438
16.1382 59.7704
16.1833 57.7619
16.2283 56.3021
16.2734 55.6563
16.3185 54.7523
16.3636 54.5501
16.4086 53.7596
16.4537 53.3833
16.4988 52.7569
16.5439 52.5575
16.589 52.3478
16.6341 52.2362
16.6792 51.6146
16.7243 51.9132
16.7694 51.8173
16.8145 51.7978
16.8596 52.1006
16.9047 53.0029
16.9498 54.1813
16.9949 53.4627
17.04 53.1498
17.0851 53.6454
17.1302 55.5666
17.1754 58.4078
17.2205 62.9051
17.2656 70.7822
17.3108 81.5062
17.3559 81.8342
17.401 71.4453
17.4462 60.6922
17.4913 56.7065
17.5365 56.2317
17.5815 56.2893
17.6268 56.6129
17.6718 57.2059
17.7171 57.9862
17.7622 59.4004
17.8074 60.1878
17.8525 60.6535
17.8977 64.4951
17.9428 69.9904
17.9881 77.9907
18.0331 93.5128
18.0784 117.859
18.1237 140.312
18.1688 138.243
18.214 108.428
18.2591 86.345
18.3044 86.7773
18.3495 97.8488
18.3948 105.852
18.4399 97.9108
18.4852 78.5744
18.5303 65.057
18.5756 60.8066
18.6207 59.7253
18.666 58.0177
18.7112 57.1833
18.7565 56.3791
18.8016 56.0527
18.8469 55.577
18.892 55.3997
18.9374 54.5826
18.9825 54.3388
19.0278 54.256
19.073 54.1032
19.1183 54.3054
19.1635 54.9997
19.2088 56.6453
19.254 59.3155
19.2993 64.6383
19.3447 71.8713
19.3898 75.9825
19.4352 71.8013
19.4804 62.9172
19.5257 55.4622
19.5709 52.2406
19.6163 51.6676
19.6615 51.3859
19.7068 51.0071
19.752 50.8446
19.7974 50.9515
19.8426 51.6621
19.888 52.4171
19.9332 53.7609
19.9786 56.1142
20.0238 59.5953
20.0692 65.4186
20.1144 69.4415
20.1598 68.0403
20.205 63.0451
20.2504 60.4988
20.2957 62.3977
20.3411 64.5801
20.3863 63.3835
20.4318 57.7603
20.477 52.2096
20.5224 49.2762
20.5677 48.6261
20.6131 48.2498
20.6586 47.718
20.7038 47.5485
20.7493 47.6581
20.7945 47.661
20.84 47.5506
20.8853 46.8411
20.9307 46.5427
20.976 46.7083
21.0215 46.3945
21.0668 46.75
21.1122 47.3358
21.1575 47.8832
21.203 48.5832
21.2483 49.3796
21.2938 49.595
21.3391 48.5975
21.3846 47.268
21.4299 46.4866
21.4754 46.6862
21.5207 46.6399
21.5662 46.696
21.6116 46.9618
21.6571 47.7274
21.7024 48.8492
21.7479 50.4634
21.7933 52.8424
21.8388 56.8605
21.8843 61.6559
21.9297 64.356
21.9752 63.3753
22.0206 59.199
22.0661 55.6153
22.1115 55.1016
22.157 55.5454
22.2024 53.6685
22.248 50.4961
22.2933 48.3868
22.3389 47.3557
22.3843 46.9617
22.4299 46.7991
22.4753 46.7126
22.5208 46.647
22.5662 46.5947
22.6118 46.6662
22.6572 47.0068
22.7028 47.4552
22.7483 48.0538
22.7939 48.788
22.8393 50.1163
22.8849 52.2761
22.9303 54.91
22.9759 56.9937
23.0214 56.9196
23.067 53.9592
23.1126 50.3065
23.1581 47.776
23.2037 47.2383
23.2492 46.9902
23.2948 47.0855
23.3403 47.5392
23.3859 48.3974
23.4314 49.4801
23.477 51.2507
23.5225 53.6701
23.5682 56.3459
23.6137 57.698
23.6593 55.9303
23.7048 51.4435
23.7505 47.562
23.796 45.3275
23.8417 44.4217
23.8872 44.1189
23.9329 43.4223
23.9784 43.2821
24.0241 43.1287
24.0697 42.9396
24.1154 42.5182
24.1609 42.2561
24.2066 42.1432
24.2522 42.0829
24.2979 41.6714
24.3434 41.5831
24.3892 41.4907
24.4349 41.3686
24.4805 41.4523
24.5262 41.6181
24.5718 41.4215
24.6175 41.5151
24.6631 41.4464
24.7089 41.004
24.7545 40.9257
24.8002 40.5325
24.8458 40.6666
24.8916 40.4862
24.9372 40.5912
24.983 40.8737
25.0286 41.2042
25.0744 41.8055
25.12 42.4289
25.1658 43.0078
25.2114 43.5451
25.2572 43.6887
25.3029 43.8632
25.3487 43.9839
25.3943 43.8906
25.4402 42.819
25.4858 41.478
25.5316 40.2991
25.5773 39.5963
25.6231 39.5223
25.669 39.0892
25.7147 39.0706
25.7605 38.997
25.8062 39.1842
25.8521 39.3089
25.8977 39.1136
25.9436 39.4435
25.9893 39.7106
26.0352 40.061
26.0809 40.4011
26.1268 40.7791
26.1725 40.4192
26.2184 39.8482
26.2641 39.0788
26.31 38.7262
26.3557 38.8946
26.4017 38.7383
26.4474 38.9888
26.4933 39.3355
26.5391 39.8027
26.585 40.5513
26.6308 41.186
26.6767 41.3922
26.7225 41.2169
26.7684 40.6356
26.8142 40.1156
26.8601 39.5702
26.9059 39.1718
26.9519 38.6157
26.9979 38.1252
27.0437 37.7215
27.0896 37.4397
27.1354 37.5262
27.1814 37.3639
27.2272 37.2713
27.2732 37.2146
27.3191 37.0972
27.3651 37.237
27.4109 37.157
27.4569 37.3725
27.5027 37.4324
27.5488 37.4768
27.5946 37.2357
27.6407 37.1332
27.6865 37.0223
27.7326 36.771
27.7784 36.7355
27.8245 36.6583
27.8703 36.8239
27.9164 37.0664
27.9623 37.4215
28.0084 37.9728
28.0543 38.3447
28.1003 38.3282
28.1462 38.1264
28.1923 37.729
28.2384 37.2285
28.2843 36.6546
28.3304 36.3543
28.3764 35.6369
28.4225 35.4146
28.4684 35.1794
28.5145 34.8095
28.5605 34.6925
28.6066 34.6196
28.6526 34.4841
28.6987 34.504
28.7447 34.3596
28.7908 34.306
28.8368 34.3186
28.8829 34.4202
28.9289 34.1688
28.9751 34.1098
29.0211 33.8385
29.0673 33.5987
29.1133 33.71
29.1595 33.3495
29.2055 33.1373
29.2517 33.2552
29.2977 33.1076
29.3439 33.2045
29.3899 33.2684
29.4361 33.0353
29.4824 33.0071
29.5284 32.7757
29.5746 32.437
29.6207 32.1948
29.6669 31.874
29.713 31.9006
29.7593 31.5923
29.8053 31.8165
29.8516 31.7685
29.8977 31.7471
29.9439 31.5418
29.99 31.565
30.0363 31.446
30.0824 31.4491
30.1287 31.3985
30.1748 31.4446
30.2211 31.5433
30.2673 31.2316
30.3136 31.4072
30.3597 31.1972
30.406 31.2122
30.4522 31.0696
30.4985 31.0894
30.5447 31.1552
30.591 31.1427
30.6372 31.2919
30.6835 31.2578
30.7297 31.4026
30.7761 31.3825
30.8224 31.2105
30.8686 31.0109
30.915 30.7002
30.9612 30.6241
31.0076 30.4834
31.0538 30.3116
31.1002 30.274
31.1464 30.0815
31.1928 29.9747
31.2391 30.0994
31.2855 29.9244
31.3317 29.967
31.3781 29.9318
31.4244 30.0569
31.4708 29.9649
31.5171 30.0397
31.5636 29.8825
31.6098 29.7104
31.6563 29.4888
31.7026 29.4185
31.7491 29.315
31.7953 29.2717
31.8418 29.3108
31.8881 29.3573
31.9346 29.3321
31.9809 29.2795
32.0275 29.1732
32.074 29.0407
32.1203 28.8261
32.1668 28.7154
32.2132 28.5706
32.2597 28.4237
32.306 28.3334
32.3526 28.1546
32.399 28.0813
32.4455 27.8872
32.4919 27.8017
32.5385 27.8052
32.5848 27.592
32.6314 27.632
32.6778 27.591
32.7244 27.3771
32.7708 27.3016
32.8174 27.2965
32.8638 27.2138
32.9104 27.2266
32.9569 27.1128
33.0035 27.0813
33.0499 27.0143
33.0966 26.9958
33.143 26.9272
33.1897 26.9367
33.2361 26.8745
33.2828 26.8238
33.3293 26.6346
33.3759 26.5817
33.4226 26.4368
33.4691 26.3672
33.5158 26.2128
33.5623 26.1655
33.609 25.9793
33.6555 25.8915
33.7022 25.7837
33.7487 25.6607
33.7954 25.7726
33.842 25.6048
33.8887 25.5708
33.9353 25.5072
33.982 25.4343
34.0286 25.3576
34.0753 25.2108
34.1219 25.1235
34.1687 25.075
34.2152 24.9574
34.262 24.8325
34.3086 24.7615
34.3554 24.7545
34.402 24.6176
34.4488 24.4989
34.4954 24.4178
34.5422 24.4206
34.5889 24.2737
34.6357 24.2444
34.6825 24.1989
34.7292 24.0867
34.776 23.9619
34.8227 24.0121
34.8695 23.8455
34.9162 23.8682
34.9631 23.7793
35.0098 23.7409
35.0566 23.5662
35.1033 23.5744
35.1502 23.5869
35.1969 23.5203
35.2438 23.4203
35.2906 23.3443
35.3375 23.3673
35.3842 23.2677
35.4311 23.2668
35.4779 23.2786
35.5248 23.2296
35.5716 23.1405
35.6185 23.0544
35.6653 22.9872
35.7123 22.848
35.759 22.8279
35.806 22.7219
35.8528 22.5151
35.8998 22.4929
35.9468 22.5103
35.9936 22.3704
36.0406 22.348
36.0874 22.3086
36.1345 22.27
36.1813 22.1778
36.2283 22.0598
36.2752 21.9901
36.3222 22.0074
36.3691 21.9321
36.4161 21.8468
36.463 21.7913
36.5101 21.7807
36.557 21.7255
36.6041 21.5058
36.651 21.6056
36.6981 21.4319
36.745 21.3845
36.7921 21.3255
36.839 21.1926
36.8861 21.1683
36.9331 21.1182
36.9802 21.0603
37.0272 20.9453
37.0743 20.867
37.1213 20.9009
37.1684 20.7118
37.2154 20.7378
37.2626 20.6762
37.3098 20.5669
37.3568 20.4955
37.404 20.4159
37.451 20.3994
37.4982 20.3209
37.5452 20.2121
37.5924 20.1399
37.6395 20.2918
37.6867 20.0866
37.7337 19.9365
37.781 19.9567
37.8281 19.8663
37.8753 19.8474
37.9224 19.7207
37.9697 19.6365
38.0168 19.6465
38.064 19.5238
38.1111 19.4951
38.1584 19.3782
38.2056 19.3365
38.2529 19.3768
38.3 19.2239
38.3473 19.2636
38.3945 19.077
38.4418 19.0984
38.489 19.074
38.5363 18.8902
38.5837 18.8861
38.6309 18.8849
38.6782 18.8005
38.7254 18.6768
38.7728 18.6637
38.82 18.5416
38.8674 18.5638
38.9146 18.4826
38.9621 18.4004
39.0093 18.413
39.0567 18.3715
39.104 18.2479
39.1514 18.1616
39.1987 18.1299
39.2461 18.0546
39.2934 17.9852
39.3409 17.9186
39.3882 17.8887
39.4356 17.8387
39.483 17.7739
39.5304 17.6981
39.5778 17.7151
39.6253 17.6291
39.6726 17.6244
39.7201 17.5032
39.7675 17.4532
39.815 17.4117
39.8624 17.3479
39.9099 17.3177
39.9575 17.2426
40.0049 17.1917
40.0525 17.1017
40.0999 17.0789
40.1474 17.0201
40.1949 16.949
40.2425 16.8469
40.2899 16.7963
40.3375 16.8151
40.385 16.7407
40.4326 16.6672
40.48 16.6935
40.5277 16.5857
40.5752 16.5533
40.6228 16.4927
40.6703 16.3659
40.718 16.4115
40.7655 16.3987
40.8132 16.257
40.8607 16.2559
40.9084 16.1574
40.9559 16.1571
41.0036 16.0105
41.0512 16.0452
41.0989 16.011
41.1465 15.9407
41.1942 15.9124
41.242 15.8057
41.2896 15.7796
41.3373 15.7
41.3849 15.6344
41.4327 15.5715
41.4803 15.5359
41.5281 15.5378
41.5758 15.4437
41.6236 15.3835
41.6712 15.3059
41.7191 15.3203
41.7667 15.2345
41.8146 15.224
41.8622 15.1119
41.9101 15.0551
41.9578 14.9912
42.0057 14.9689
42.0534 14.9498
42.1013 14.9516
42.149 14.8632
42.1969 14.7738
42.2446 14.7687
42.2925 14.7058
42.3403 14.6415
42.3882 14.5606
42.436 14.5528
42.4839 14.4618
42.5319 14.4568
42.5797 14.4109
42.6277 14.3744
42.6755 14.3222
42.7235 14.2335
42.7713 14.174
42.8193 14.1443
42.8671 14.1068
42.9152 14.0339
42.963 13.9846
43.0111 13.9295
43.0589 13.9418
43.107 13.8315
43.1549 13.8634
43.2029 13.7642
43.2508 13.7185
43.2989 13.6376
43.3468 13.5699
43.3949 13.6223
43.4429 13.5214
43.491 13.4638
43.5389 13.4304
43.5871 13.3752
43.635 13.3582
43.6832 13.2991
43.7312 13.246
43.7793 13.2163
43.8273 13.1846
43.8755 13.0809
43.9237 13.0665
43.9717 12.9895
44.0199 12.981
44.068 12.8931
44.1162 12.8826
44.1642 12.9284
44.2125 12.8177
44.2606 12.7784
44.3088 12.6862
44.3569 12.645
44.4052 12.6633
44.4533 12.542
44.5016 12.485
44.5497 12.4707
44.598 12.4498
44.6461 12.3556
44.6945 12.3989
44.7426 12.3018
44.791 12.2601
44.8391 12.2549
44.8875 12.1887
44.9357 12.1391
44.984 12.0955
45.0322 12.048
45.0806 11.9927
45.1288 11.9707
45.1773 11.91
45.2257 11.9115
45.2739 11.8501
45.3224 11.8009
45.3706 11.77
45.4191 11.7172
45.4673 11.7239
45.5158 11.6597
45.5641 11.5803
45.6126 11.5495
45.6609 11.4955
45.7094 11.4762
45.7577 11.4233
45.8063 11.3643
45.8546 11.357
45.9031 11.2709
45.9515 11.2258
46.0001 11.2273
46.0484 11.2217
46.097 11.1761
46.1454 11.1258
46.194 11.0585
46.2424 11.0236
46.291 10.9696
46.3395 10.9722
46.3881 10.8907
46.4365 10.8509
46.4852 10.8542
46.5337 10.761
46.5823 10.7263
46.631 10.6554
46.6795 10.6898
46.7282 10.6257
46.7767 10.6467
46.8254 10.5257
46.8739 10.51
46.9226 10.4486
46.9712 10.4181
47.0199 10.4635
47.0685 10.3555
47.1173 10.3021
47.1658 10.2669
47.2146 10.265
47.2632 10.2189
47.312 10.2023
47.3606 10.1096
47.4095 10.0741
47.4581 10.0673
47.5069 10.0046
47.5556 9.97124
47.6044 9.93409
47.6531 9.92681
47.702 9.88992
47.7507 9.77922
47.7996 9.78426
47.8483 9.79175
47.8972 9.73263
47.9461 9.68769
47.9948 9.67735
48.0438 9.63359
48.0925 9.6014
48.1415 9.54802
48.1902 9.50235
48.2392 9.48197
48.288 9.49403
48.337 9.4174
48.3858 9.39779
48.4348 9.3801
48.4837 9.33186
48.5327 9.29602
48.5815 9.25082
48.6306 9.23746
48.6795 9.19884
48.7285 9.1578
48.7774 9.11956
48.8265 9.07777
48.8754 9.03084
48.9245 9.00191
48.9734 8.99807
49.0226 8.92685
49.0715 8.90575
49.1206 8.85058
49.1696 8.84212
49.2188 8.80327
49.2679 8.80454
49.3169 8.74942
49.3661 8.65822
49.4151 8.66716
49.4643 8.67527
49.5134 8.60784
49.5626 8.56876
49.6117 8.53443
49.6609 8.49819
49.71 8.47965
49.7592 8.45764
49.8083 8.40811
49.8576 8.39529
49.9067 8.30549
49.956 8.31356
50.0052 8.28883
50.0545 8.24468
50.1036 8.21573
50.153 8.20493
50.2022 8.16497
50.2515 8.12317
50.3007 8.05461
50.3501 8.03496
50.3993 8.00557
50.4487 8.02208
50.498 7.97536
50.5474 7.92309
50.5966 7.89426
50.6461 7.87219
50.6955 7.85247
50.7448 7.81191
50.7943 7.80071
50.8436 7.74049
50.8931 7.73702
50.9424 7.70501
50.9919 7.68954
51.0413 7.68878
51.0908 7.57839
51.1402 7.57789
51.1897 7.5233
51.2391 7.51685
51.2887 7.49776
51.3381 7.43678
51.3877 7.45478
51.4371 7.3839
51.4867 7.34066
51.5362 7.35885
51.5858 7.3107
51.6353 7.27374
51.6849 7.23003
51.7344 7.21723
51.7841 7.1919
51.8336 7.14336
51.8833 7.13393
51.9328 7.08487
51.9826 7.07696
52.0323 7.039
52.0818 7.02769
52.1316 6.9825
52.1812 6.94455
52.231 6.9046
52.2806 6.93103
52.3304 6.85117
52.38 6.81402
52.4298 6.78024
52.4794 6.77889
52.5293 6.7575
52.5789 6.76092
52.6288 6.70457
52.6785 6.62629
52.7284 6.63493
52.7781 6.63469
52.828 6.57027
52.8777 6.5575
52.9276 6.56436
52.9774 6.53071
53.0273 6.44462
53.0771 6.45189
53.1271 6.45648
53.1769 6.37051
53.2269 6.39788
53.2767 6.33436
53.3267 6.33207
53.3765 6.30539
53.4266 6.26495
53.4766 6.25687
53.5265 6.20077
53.5765 6.22362
53.6264 6.16756
53.6765 6.11806
53.7264 6.05953
53.7765 6.05357
53.8265 6.08844
53.8766 6.01292
53.9266 5.99282
53.9767 5.99508
54.0267 5.9669
54.0769 5.91282
54.1269 5.89794
54.1771 5.89523
54.2271 5.86586
54.2773 5.83587
54.3274 5.77841
54.3776 5.76059
54.4277 5.68468
54.478 5.69811
54.528 5.69888
54.5783 5.64486
54.6285 5.54431
54.6788 5.53854
54.7289 5.53072
54.7792 5.46793
54.8296 5.39827
54.8798 5.35313
54.9301 5.31538
54.9803 5.31373
55.0307 5.27012
55.0809 5.19581
55.1314 5.17684
55.1816 5.15316
55.232 5.10137
55.2823 5.06019
55.3328 5.0029
55.383 4.95667
55.4335 4.95533
55.4838 4.86988
55.5344 4.79813
55.5847 4.78981
55.6352 4.73937
55.6856 4.77988
55.7361 4.71353