File: XRD/Ni3Fe_FD0536.xy
TT I
1.27165 7.61628
1.31627 6.72108
1.36089 6.6112
1.40551 6.16552
1.45013 6.16362
1.49476 6.1132
1.53938 6.08426
1.584 5.51723
1.62863 5.2748
1.67325 5.41768
1.71787 5.17276
1.7625 5.15322
1.80712 4.9643
1.85174 5.03113
1.89636 5.11908
1.94099 5.14885
1.98562 4.76914
2.03025 4.40647
2.07487 4.70532
2.11949 5.13823
2.16411 5.2629
2.20874 16.6577
2.25338 29.1068
2.298 5.94566
2.34263 4.90526
2.38725 5.64567
2.43188 5.45556
2.4765 6.30925
2.52115 6.18355
2.56577 7.37062
2.6104 8.62308
2.65503 7.17559
2.69965 7.75103
2.7443 7.97537
2.78893 8.15444
2.83356 8.80657
2.87818 8.15805
2.92281 8.91714
2.96744 10.1751
3.01209 10.272
3.05672 11.1808
3.10135 12.371
3.14599 12.6261
3.19062 14.2335
3.23527 15.444
3.2799 15.8783
3.32454 17.2074
3.36917 18.0083
3.4138 19.2687
3.45844 19.8106
3.50309 21.3127
3.54773 22.2236
3.59237 24.5473
3.637 116.449
3.68164 73.0926
3.7263 27.2201
3.77094 26.5615
3.81558 26.894
3.86022 27.9804
3.90486 29.1336
3.9495 30.2004
3.99416 31.3266
4.0388 32.5366
4.08344 34.1197
4.12809 35.6677
4.17273 38.2218
4.21738 45.2852
4.26204 314.611
4.30669 288.644
4.35133 51.3108
4.39598 45.5942
4.44063 57.0848
4.4853 72.9667
4.52995 51.5129
4.5746 51.8486
4.61925 53.7181
4.6639 55.4538
4.70855 58.329
4.75322 61.0748
4.79788 63.3423
4.84253 66.9521
4.88719 71.472
4.93184 75.1121
4.97652 80.8672
5.02118 87.6653
5.06583 94.6325
5.11049 106.549
5.15515 192.001
5.19981 366.944
5.24449 2671.91
5.28916 11795.5
5.33382 3365.48
5.37848 207.149
5.42315 133.841
5.46783 115.371
5.5125 107.316
5.55716 102.87
5.60183 99.4772
5.6465 97.7294
5.69117 94.7266
5.73586 92.5666
5.78053 92.7142
5.8252 91.4527
5.86988 92.3051
5.91455 94.7064
5.95924 102.603
6.00392 204.234
6.0486 929.964
6.09328 4093.93
6.13795 3613.59
6.18263 299.116
6.22733 97.3784
6.27201 85.5607
6.3167 113.332
6.36138 85.1942
6.40606 69.9837
6.45075 68.3297
6.49545 66.2667
6.54014 64.8276
6.58483 63.9101
6.62952 63.9317
6.67421 104.423
6.71892 177.166
6.76361 73.3518
6.8083 59.7526
6.853 58.3981
6.89769 57.8099
6.94239 57.4683
6.98711 56.3863
7.03181 56.6429
7.07651 56.4644
7.12121 55.9154
7.16591 56.4419
7.21063 56.6364
7.25533 74.8385
7.30004 226.116
7.34475 107.863
7.38945 58.2672
7.43416 55.4754
7.47889 55.3544
7.5236 55.7489
7.56831 56.2709
7.61303 58.3432
7.65774 59.0228
7.70247 56.835
7.74719 56.9546
7.79191 57.583
7.83663 57.346
7.88135 58.6734
7.92607 59.2989
7.97081 60.1723
8.01553 61.2083
8.06026 62.7113
8.10498 64.359
8.14971 77.0076
8.19446 75.1282
8.23919 70.2597
8.28392 72.1071
8.32865 74.32
8.37339 79.0106
8.41812 86.4629
8.46288 123.007
8.50761 165.101
8.55235 373.676
8.59709 1083.55
8.64183 2146.84
8.68658 1096.8
8.73134 205.53
8.77609 101.999
8.82083 94.1262
8.86558 90.5896
8.91033 91.1926
8.9551 94.7199
8.99985 86.4052
9.04461 84.0098
9.08936 83.4787
9.13412 82.6095
9.17888 82.5897
9.22365 83.7833
9.26841 83.0651
9.31318 82.9964
9.35794 83.4335
9.4027 83.4558
9.44749 84.5699
9.49226 84.9275
9.53703 86.1742
9.5818 87.8601
9.62657 93.46
9.67134 102.681
9.71614 95.443
9.76091 94.5292
9.80569 96.6617
9.85047 100.864
9.89525 131.354
9.94005 146.944
9.98484 173.939
10.0296 328.026
10.0744 741.419
10.1192 1627.67
10.164 1723.96
10.2088 475.587
10.2536 135.199
10.2984 116.924
10.3432 120.005
10.388 106.299
10.4328 117.702
10.4776 157.272
10.5224 265.558
10.5672 492.724
10.612 539.905
10.6568 226.332
10.7017 100.139
10.7465 87.733
10.7913 83.9759
10.8361 81.873
10.8809 79.7331
10.9257 79.7836
10.9706 81.0007
11.0154 76.1352
11.0602 73.5396
11.105 72.6993
11.1499 78.7476
11.1947 90.0489
11.2395 77.8592
11.2844 72.3262
11.3292 68.4518
11.374 67.0908
11.4189 66.5632
11.4637 65.7382
11.5086 66.4528
11.5534 70.6206
11.5983 66.9973
11.6431 64.481
11.688 63.6737
11.7328 63.3272
11.7777 63.7296
11.8225 63.2258
11.8674 63.1303
11.9122 63.243
11.9571 63.6151
12.002 64.0118
12.0468 67.899
12.0917 79.0779
12.1366 101.353
12.1814 147.288
12.2263 203.844
12.2712 181.017
12.3161 106.418
12.3609 73.9926
12.4058 65.8406
12.4507 65.2135
12.4956 65.107
12.5405 64.9912
12.5853 66.2351
12.6302 76.5436
12.6751 84.6018
12.72 72.3279
12.7649 68.7581
12.8098 68.7835
12.8547 70.2646
12.8996 71.5697
12.9445 72.6097
12.9894 74.4182
13.0343 76.0667
13.0792 79.2427
13.1242 87.6474
13.1691 111.169
13.214 145.377
13.2589 223.16
13.3038 346.149
13.3487 438.121
13.3937 295.115
13.4386 133.448
13.4835 106.385
13.5285 119.139
13.5734 153.255
13.6183 230.566
13.6633 335.513
13.7082 358.076
13.7531 204.959
13.7981 102.925
13.843 83.0519
13.888 80.6139
13.9329 77.947
13.9779 76.3976
14.0228 75.1653
14.0678 73.6894
14.1127 73.3304
14.1577 73.4122
14.2027 72.3937
14.2476 71.0869
14.2926 71.4101
14.3376 73.0802
14.3825 71.3222
14.4275 69.604
14.4725 69.4413
14.5175 69.581
14.5624 69.8217
14.6074 72.4569
14.6524 73.252
14.6974 71.2403
14.7424 72.2774
14.7874 78.4674
14.8324 88.3698
14.8774 107.518
14.9224 145.416
14.9674 197.988
15.0124 225.278
15.0574 162.706
15.1024 97.0564
15.1474 73.8076
15.1924 71.6614
15.2374 72.728
15.2824 72.0892
15.3274 69.3463
15.3725 67.6111
15.4175 67.226
15.4625 66.7278
15.5076 67.0634
15.5526 67.044
15.5976 66.3797
15.6426 67.0729
15.6877 71.9627
15.7327 79.4925
15.7778 93.5352
15.8228 120.191
15.8679 161.688
15.9129 193.22
15.958 166.532
16.003 104.272
16.0481 70.6769
16.0931 66.5289
16.1382 64.5394
16.1833 61.6069
16.2283 59.7579
16.2734 59.123
16.3185 59.7169
16.3636 61.087
16.4086 59.1593
16.4537 56.9765
16.4988 56.3549
16.5439 56.3324
16.589 55.8428
16.6341 55.5548
16.6792 55.2248
16.7243 55.572
16.7694 55.7182
16.8145 55.5775
16.8596 56.164
16.9047 57.9099
16.9498 58.2895
16.9949 56.5426
17.04 56.3782
17.0851 57.4254
17.1302 59.0211
17.1754 62.0319
17.2205 66.2631
17.2656 73.2643
17.3108 82.296
17.3559 83.3973
17.401 74.2261
17.4462 63.6458
17.4913 59.7875
17.5365 59.8789
17.5815 60.0493
17.6268 60.1293
17.6718 61.0523
17.7171 61.8353
17.7622 61.8741
17.8074 62.4169
17.8525 64.225
17.8977 68.3487
17.9428 73.7358
17.9881 81.6323
18.0331 96.5617
18.0784 116.84
18.1237 137.959
18.1688 136.225
18.214 108.965
18.2591 88.1506
18.3044 89.503
18.3495 98.6765
18.3948 107.114
18.4399 101.02
18.4852 81.577
18.5303 67.721
18.5756 63.179
18.6207 61.9614
18.666 61.3468
18.7112 60.2642
18.7565 59.7176
18.8016 59.2014
18.8469 58.6978
18.892 58.4507
18.9374 57.8936
18.9825 57.6482
19.0278 57.4597
19.073 57.6384
19.1183 58.08
19.1635 58.7985
19.2088 59.9923
19.254 62.0658
19.2993 66.1722
19.3447 72.2727
19.3898 77.1078
19.4352 74.5671
19.4804 65.3324
19.5257 57.9572
19.5709 54.9676
19.6163 54.4254
19.6615 54.3999
19.7068 53.8288
19.752 53.9282
19.7974 54.0824
19.8426 54.9782
19.888 55.6744
19.9332 56.7206
19.9786 58.8524
20.0238 61.8823
20.0692 66.6021
20.1144 70.5396
20.1598 70.002
20.205 64.7736
20.2504 62.2756
20.2957 63.614
20.3411 66.2136
20.3863 65.8173
20.4318 60.0102
20.477 54.9713
20.5224 52.6957
20.5677 51.8077
20.6131 50.9403
20.6586 50.1942
20.7038 50.1533
20.7493 49.8449
20.7945 49.588
20.84 49.3675
20.8853 49.2214
20.9307 49.0993
20.976 49.2209
21.0215 49.0897
21.0668 49.3585
21.1122 49.8336
21.1575 50.5725
21.203 51.2257
21.2483 51.7743
21.2938 52.0737
21.3391 50.8786
21.3846 49.6258
21.4299 48.8863
21.4754 48.9303
21.5207 48.752
21.5662 49.1743
21.6116 49.6908
21.6571 50.2844
21.7024 51.2178
21.7479 52.9032
21.7933 55.3214
21.8388 58.4634
21.8843 62.3423
21.9297 65.1495
21.9752 64.9152
22.0206 61.0831
22.0661 57.2883
22.1115 56.3172
22.157 56.6295
22.2024 55.3695
22.248 52.516
22.2933 50.8683
22.3389 49.8845
22.3843 49.5592
22.4299 49.5367
22.4753 49.5522
22.5208 49.3155
22.5662 48.9659
22.6118 49.06
22.6572 49.237
22.7028 49.655
22.7483 50.0162
22.7939 50.761
22.8393 52.1391
22.8849 54.1006
22.9303 56.0638
22.9759 58.206
23.0214 58.4621
23.067 56.0252
23.1126 52.3455
23.1581 50.0313
23.2037 49.3275
23.2492 49.4256
23.2948 49.1585
23.3403 49.6387
23.3859 50.047
23.4314 50.9315
23.477 52.591
23.5225 54.5075
23.5682 56.9055
23.6137 58.6285
23.6593 56.8946
23.7048 52.9004
23.7505 49.384
23.796 47.2097
23.8417 46.5167
23.8872 46.2409
23.9329 45.8351
23.9784 45.2899
24.0241 45.1612
24.0697 45.0443
24.1154 44.8542
24.1609 44.5457
24.2066 44.2734
24.2522 44.1946
24.2979 43.9131
24.3434 43.7439
24.3892 43.6771
24.4349 43.5599
24.4805 43.3948
24.5262 43.4444
24.5718 43.3421
24.6175 43.4909
24.6631 43.2849
24.7089 43.029
24.7545 43.0157
24.8002 42.7125
24.8458 42.7159
24.8916 42.6191
24.9372 42.6353
24.983 43.0229
25.0286 43.2338
25.0744 43.6692
25.12 44.0008
25.1658 44.7728
25.2114 45.1338
25.2572 45.1326
25.3029 45.1554
25.3487 45.3845
25.3943 45.2048
25.4402 44.2495
25.4858 43.1779
25.5316 42.0701
25.5773 41.4662
25.6231 41.3682
25.669 41.0575
25.7147 40.9469
25.7605 40.8878
25.8062 41.114
25.8521 41.21
25.8977 40.9595
25.9436 41.2912
25.9893 41.3628
26.0352 41.8182
26.0809 41.7651
26.1268 42.2131
26.1725 41.9907
26.2184 41.4023
26.2641 40.8366
26.31 40.5312
26.3557 40.5161
26.4017 40.553
26.4474 40.8542
26.4933 41.1759
26.5391 41.5604
26.585 41.9284
26.6308 42.3891
26.6767 42.5408
26.7225 42.6075
26.7684 41.9372
26.8142 41.2247
26.8601 40.9885
26.9059 40.6458
26.9519 40.073
26.9979 39.7517
27.0437 39.3844
27.0896 39.2485
27.1354 39.0648
27.1814 39.0484
27.2272 38.9739
27.2732 39.0451
27.3191 38.7612
27.3651 38.9278
27.4109 38.7686
27.4569 38.796
27.5027 38.8968
27.5488 38.9944
27.5946 38.8645
27.6407 38.5953
27.6865 38.532
27.7326 38.0455
27.7784 38.292
27.8245 38.2581
27.8703 38.3576
27.9164 38.6785
27.9623 38.7372
28.0084 39.0495
28.0543 39.3281
28.1003 39.5027
28.1462 39.4051
28.1923 38.9898
28.2384 38.3803
28.2843 38.1908
28.3304 37.7142
28.3764 37.0857
28.4225 36.7977
28.4684 36.7309
28.5145 36.4406
28.5605 36.2678
28.6066 36.0016
28.6526 36.0566
28.6987 36.0114
28.7447 35.8111
28.7908 35.8343
28.8368 35.746
28.8829 35.8045
28.9289 35.7937
28.9751 35.619
29.0211 35.3771
29.0673 35.0317
29.1133 34.9726
29.1595 34.8738
29.2055 34.6796
29.2517 34.6763
29.2977 34.5885
29.3439 34.6766
29.3899 34.6028
29.4361 34.5841
29.4824 34.3664
29.5284 34.1855
29.5746 33.7495
29.6207 33.5945
29.6669 33.5524
29.713 33.3413
29.7593 33.2819
29.8053 33.1927
29.8516 33.1803
29.8977 33.169
29.9439 33.0105
29.99 32.9263
30.0363 32.8319
30.0824 32.8415
30.1287 32.7457
30.1748 32.7772
30.2211 32.7156
30.2673 32.7158
30.3136 32.7274
30.3597 32.6429
30.406 32.5256
30.4522 32.4476
30.4985 32.383
30.5447 32.4626
30.591 32.4417
30.6372 32.5224
30.6835 32.4723
30.7297 32.5929
30.7761 32.5547
30.8224 32.4362
30.8686 32.2425
30.915 32.0616
30.9612 31.9308
31.0076 31.7082
31.0538 31.4611
31.1002 31.5951
31.1464 31.3102
31.1928 31.3383
31.2391 31.3295
31.2855 31.2529
31.3317 31.1511
31.3781 31.2866
31.4244 31.2197
31.4708 31.1837
31.5171 31.1926
31.5636 31.081
31.6098 30.8622
31.6563 30.7256
31.7026 30.5789
31.7491 30.4721
31.7953 30.5632
31.8418 30.5393
31.8881 30.4873
31.9346 30.3591
31.9809 30.4318
32.0275 30.2312
32.074 30.2432
32.1203 30.0204
32.1668 29.9361
32.2132 29.819
32.2597 29.4624
32.306 29.5994
32.3526 29.366
32.399 29.308
32.4455 29.1306
32.4919 29.0996
32.5385 29.0775
32.5848 28.8293
32.6314 28.9481
32.6778 28.812
32.7244 28.5811
32.7708 28.5196
32.8174 28.555
32.8638 28.3038
32.9104 28.454
32.9569 28.3491
33.0035 28.0866
33.0499 28.1755
33.0966 28.1111
33.143 28.117
33.1897 27.9851
33.2361 27.9214
33.2828 28.0003
33.3293 27.7189
33.3759 27.7597
33.4226 27.6219
33.4691 27.4943
33.5158 27.4067
33.5623 27.1808
33.609 27.0982
33.6555 26.9987
33.7022 26.8707
33.7487 26.8276
33.7954 26.8366
33.842 26.6664
33.8887 26.6673
33.9353 26.548
33.982 26.4787
34.0286 26.3617
34.0753 26.2766
34.1219 26.1869
34.1687 26.1946
34.2152 26.0665
34.262 25.9526
34.3086 25.9082
34.3554 25.8332
34.402 25.6873
34.4488 25.6441
34.4954 25.564
34.5422 25.4792
34.5889 25.3783
34.6357 25.3438
34.6825 25.2202
34.7292 25.1359
34.776 25.0391
34.8227 24.953
34.8695 24.9163
34.9162 24.9293
34.9631 24.7743
35.0098 24.7553
35.0566 24.5969
35.1033 24.6041
35.1502 24.5715
35.1969 24.455
35.2438 24.4699
35.2906 24.4563
35.3375 24.3499
35.3842 24.1983
35.4311 24.2018
35.4779 24.1543
35.5248 24.1859
35.5716 24.0372
35.6185 24.0359
35.6653 23.8988
35.7123 23.8242
35.759 23.7855
35.806 23.617
35.8528 23.5102
35.8998 23.6068
35.9468 23.3464
35.9936 23.352
36.0406 23.3022
36.0874 23.2236
36.1345 23.2129
36.1813 23.1862
36.2283 22.9788
36.2752 22.9274
36.3222 22.9295
36.3691 22.876
36.4161 22.7603
36.463 22.7149
36.5101 22.6486
36.557 22.6005
36.6041 22.4686
36.651 22.4504
36.6981 22.3789
36.745 22.3173
36.7921 22.2493
36.839 22.1479
36.8861 22.1245
36.9331 22.0189
36.9802 21.9793
37.0272 21.8272
37.0743 21.7974
37.1213 21.7691
37.1684 21.6834
37.2154 21.6507
37.2626 21.5301
37.3098 21.4528
37.3568 21.435
37.404 21.3618
37.451 21.2018
37.4982 21.2781
37.5452 21.1237
37.5924 21.0352
37.6395 21.1082
37.6867 20.9699
37.7337 20.804
37.781 20.7767
37.8281 20.7759
37.8753 20.6373
37.9224 20.5723
37.9697 20.5705
38.0168 20.4394
38.064 20.3137
38.1111 20.2787
38.1584 20.2529
38.2056 20.2625
38.2529 20.1653
38.3 20.0212
38.3473 20.0819
38.3945 19.9238
38.4418 19.8832
38.489 19.832
38.5363 19.7686
38.5837 19.7951
38.6309 19.6718
38.6782 19.5228
38.7254 19.4689
38.7728 19.427
38.82 19.3727
38.8674 19.288
38.9146 19.3081
38.9621 19.2496
39.0093 19.1753
39.0567 19.1315
39.104 19.027
39.1514 18.9685
39.1987 18.8636
39.2461 18.8875
39.2934 18.8197
39.3409 18.7276
39.3882 18.6588
39.4356 18.6044
39.483 18.5329
39.5304 18.4733
39.5778 18.4689
39.6253 18.3947
39.6726 18.3497
39.7201 18.2536
39.7675 18.1547
39.815 18.1791
39.8624 18.0991
39.9099 18.0695
39.9575 17.9753
40.0049 17.9137
40.0525 17.8361
40.0999 17.8007
40.1474 17.8081
40.1949 17.6697
40.2425 17.6136
40.2899 17.6289
40.3375 17.5324
40.385 17.4553
40.4326 17.4229
40.48 17.3394
40.5277 17.2856
40.5752 17.2192
40.6228 17.1706
40.6703 17.157
40.718 17.094
40.7655 17.0506
40.8132 16.9317
40.8607 16.9354
40.9084 16.9054
40.9559 16.7994
41.0036 16.781
41.0512 16.661
41.0989 16.6498
41.1465 16.638
41.1942 16.5744
41.242 16.4562
41.2896 16.4262
41.3373 16.4112
41.3849 16.3543
41.4327 16.3266
41.4803 16.1741
41.5281 16.1786
41.5758 16.0774
41.6236 16.0117
41.6712 15.9999
41.7191 15.931
41.7667 15.8405
41.8146 15.8076
41.8622 15.7888
41.9101 15.7553
41.9578 15.6309
42.0057 15.6037
42.0534 15.5696
42.1013 15.5148
42.149 15.5004
42.1969 15.4115
42.2446 15.4358
42.2925 15.2863
42.3403 15.2861
42.3882 15.2277
42.436 15.17
42.4839 15.0756
42.5319 15.0293
42.5797 15.0248
42.6277 14.9629
42.6755 14.896
42.7235 14.8181
42.7713 14.8229
42.8193 14.7939
42.8671 14.733
42.9152 14.6441
42.963 14.6
43.0111 14.5303
43.0589 14.5023
43.107 14.4307
43.1549 14.3988
43.2029 14.3806
43.2508 14.3334
43.2989 14.2519
43.3468 14.1944
43.3949 14.1605
43.4429 14.0894
43.491 14.1035
43.5389 14.0262
43.5871 13.9808
43.635 13.9397
43.6832 13.8656
43.7312 13.8568
43.7793 13.772
43.8273 13.7551
43.8755 13.7193
43.9237 13.6227
43.9717 13.6085
44.0199 13.5332
44.068 13.5443
44.1162 13.4129
44.1642 13.4045
44.2125 13.3596
44.2606 13.3428
44.3088 13.2568
44.3569 13.2328
44.4052 13.2141
44.4533 13.1151
44.5016 13.0736
44.5497 13.057
44.598 13.0266
44.6461 12.9272
44.6945 12.909
44.7426 12.8302
44.791 12.7554
44.8391 12.7823
44.8875 12.7234
44.9357 12.6674
44.984 12.6358
45.0322 12.5713
45.0806 12.5421
45.1288 12.4846
45.1773 12.4388
45.2257 12.3981
45.2739 12.3774
45.3224 12.3471
45.3706 12.2587
45.4191 12.2335
45.4673 12.1577
45.5158 12.1457
45.5641 12.0995
45.6126 12.0516
45.6609 11.9776
45.7094 11.9543
45.7577 11.9467
45.8063 11.8536
45.8546 11.861
45.9031 11.7623
45.9515 11.7439
46.0001 11.7486
46.0484 11.6352
46.097 11.6147
46.1454 11.6
46.194 11.5708
46.2424 11.4822
46.291 11.4546
46.3395 11.4441
46.3881 11.3259
46.4365 11.3961
46.4852 11.2954
46.5337 11.2415
46.5823 11.2418
46.631 11.1499
46.6795 11.1315
46.7282 11.1176
46.7767 11.06
46.8254 11.0087
46.8739 11.008
46.9226 10.9032
46.9712 10.88
47.0199 10.8525
47.0685 10.8315
47.1173 10.7633
47.1658 10.7019
47.2146 10.688
47.2632 10.6392
47.312 10.5995
47.3606 10.5894
47.4095 10.5388
47.4581 10.5085
47.5069 10.447
47.5556 10.4266
47.6044 10.3869
47.6531 10.3253
47.702 10.2845
47.7507 10.2577
47.7996 10.2194
47.8483 10.194
47.8972 10.1371
47.9461 10.0892
47.9948 10.082
48.0438 10.039
48.0925 10.0274
48.1415 9.98576
48.1902 9.93099
48.2392 9.9053
48.288 9.89881
48.337 9.85728
48.3858 9.80354
48.4348 9.77499
48.4837 9.73129
48.5327 9.68728
48.5815 9.64069
48.6306 9.60294
48.6795 9.60014
48.7285 9.55948
48.7774 9.52436
48.8265 9.50925
48.8754 9.38783
48.9245 9.39599
48.9734 9.35338
49.0226 9.38019
49.0715 9.32256
49.1206 9.2492
49.1696 9.22667
49.2188 9.19366
49.2679 9.12763
49.3169 9.13603
49.3661 9.10347
49.4151 9.07763
49.4643 9.04222
49.5134 8.99595
49.5626 8.92288
49.6117 8.89525
49.6609 8.84917
49.71 8.84711
49.7592 8.81462
49.8083 8.7477
49.8576 8.74177
49.9067 8.66843
49.956 8.70493
50.0052 8.64348
50.0545 8.60972
50.1036 8.59653
50.153 8.56163
50.2022 8.50927
50.2515 8.46014
50.3007 8.45627
50.3501 8.38519
50.3993 8.35313
50.4487 8.34899
50.498 8.30066
50.5474 8.28922
50.5966 8.24223
50.6461 8.24471
50.6955 8.16356
50.7448 8.15275
50.7943 8.11147
50.8436 8.10753
50.8931 8.0574
50.9424 8.04053
50.9919 8.02299
51.0413 7.98904
51.0908 7.91736
51.1402 7.91024
51.1897 7.87068
51.2391 7.83089
51.2887 7.81333
51.3381 7.76597
51.3877 7.76373
51.4371 7.72033
51.4867 7.68994
51.5362 7.64207
51.5858 7.58793
51.6353 7.5613
51.6849 7.54176
51.7344 7.56498
51.7841 7.49313
51.8336 7.47304
51.8833 7.4405
51.9328 7.3829
51.9826 7.36319
52.0323 7.35443
52.0818 7.28797
52.1316 7.25324
52.1812 7.23789
52.231 7.25039
52.2806 7.18233
52.3304 7.16682
52.38 7.1247
52.4298 7.10731
52.4794 7.07609
52.5293 7.05328
52.5789 7.02273
52.6288 6.99976
52.6785 6.94166
52.7284 6.8876
52.7781 6.92362
52.828 6.89762
52.8777 6.83005
52.9276 6.81739
52.9774 6.7877
53.0273 6.7489
53.0771 6.72391
53.1271 6.74528
53.1769 6.64537
53.2269 6.63638
53.2767 6.59842
53.3267 6.57284
53.3765 6.56095
53.4266 6.52921
53.4766 6.53052
53.5265 6.50384
53.5765 6.45045
53.6264 6.40442
53.6765 6.35646
53.7264 6.3696
53.7765 6.35596
53.8265 6.28011
53.8766 6.28322
53.9266 6.22644
53.9767 6.22697
54.0267 6.20661
54.0769 6.1621
54.1269 6.13615
54.1771 6.09614
54.2271 6.10616
54.2773 6.02589
54.3274 6.03392
54.3776 5.99993
54.4277 5.96566
54.478 5.92473
54.528 5.86774
54.5783 5.83093
54.6285 5.80228
54.6788 5.80171
54.7289 5.67131
54.7792 5.68918
54.8296 5.66324
54.8798 5.5395
54.9301 5.55859
54.9803 5.5744
55.0307 5.49856
55.0809 5.4656
55.1314 5.42135
55.1816 5.36857
55.232 5.32553
55.2823 5.28477
55.3328 5.21789
55.383 5.15905
55.4335 5.11397
55.4838 5.05485
55.5344 5.04354
55.5847 4.98637
55.6352 4.95294
55.6856 4.945
55.7361 4.87965