File: XRD/Ni3Fe_FD0455.xy
TT I
1.27165 7.54036
1.31627 6.91877
1.36089 6.60729
1.40551 6.06688
1.45013 6.06098
1.49476 6.13479
1.53938 5.66881
1.584 5.10062
1.62863 5.44389
1.67325 4.80341
1.71787 5.52748
1.7625 5.29579
1.80712 5.19595
1.85174 4.58478
1.89636 4.92562
1.94099 4.88184
1.98562 4.19719
2.03025 4.72952
2.07487 4.33108
2.11949 4.4638
2.16411 5.00939
2.20874 10.6631
2.25338 14.704
2.298 5.55012
2.34263 4.95796
2.38725 5.28326
2.43188 5.40038
2.4765 5.89213
2.52115 6.73772
2.56577 7.25128
2.6104 7.58104
2.65503 7.20689
2.69965 7.44581
2.7443 7.95745
2.78893 7.65793
2.83356 8.31621
2.87818 8.45107
2.92281 8.89977
2.96744 9.64891
3.01209 10.3538
3.05672 10.4527
3.10135 12.6799
3.14599 12.9126
3.19062 14.458
3.23527 14.6951
3.2799 16.0733
3.32454 16.9289
3.36917 17.7587
3.4138 19.1475
3.45844 19.9593
3.50309 21.1727
3.54773 21.2827
3.59237 23.2501
3.637 64.5823
3.68164 43.9269
3.7263 25.4597
3.77094 26.0952
3.81558 26.8648
3.86022 27.1293
3.90486 29.435
3.9495 29.9599
3.99416 31.5708
4.0388 31.8646
4.08344 33.9986
4.12809 35.0246
4.17273 36.1593
4.21738 40.8583
4.26204 165.388
4.30669 140.581
4.35133 46.6057
4.39598 44.4632
4.44063 51.1909
4.4853 57.9709
4.52995 51.2227
4.5746 52.5373
4.61925 53.7943
4.6639 56.8118
4.70855 59.1573
4.75322 61.6774
4.79788 65.5238
4.84253 68.7207
4.88719 73.934
4.93184 76.7725
4.97652 82.9456
5.02118 89.6543
5.06583 98.269
5.11049 111.572
5.15515 169.093
5.19981 509.595
5.24449 3444.88
5.28916 11765.5
5.33382 2995.1
5.37848 203.548
5.42315 133.832
5.46783 117.449
5.5125 109.729
5.55716 104.57
5.60183 100.811
5.6465 98.7127
5.69117 96.373
5.73586 94.765
5.78053 94.8276
5.8252 95.2191
5.86988 96.4623
5.91455 98.9304
5.95924 111.806
6.00392 283.871
6.0486 1186.58
6.09328 4232.35
6.13795 3335.84
6.18263 265.344
6.22733 96.2727
6.27201 83.9626
6.3167 92.4665
6.36138 77.9635
6.40606 70.285
6.45075 68.5289
6.49545 66.3325
6.54014 64.42
6.58483 63.7082
6.62952 63.5156
6.67421 80.5757
6.71892 109.888
6.76361 65.0171
6.8083 59.4292
6.853 58.1027
6.89769 57.471
6.94239 56.9192
6.98711 56.2643
7.03181 55.9271
7.07651 55.646
7.12121 55.4797
7.16591 55.9297
7.21063 55.7794
7.25533 64.4883
7.30004 125.805
7.34475 76.9237
7.38945 56.289
7.43416 54.9893
7.47889 54.5251
7.5236 55.2044
7.56831 55.8744
7.61303 56.6732
7.65774 57.0642
7.70247 56.9694
7.74719 56.8966
7.79191 57.3632
7.83663 57.5814
7.88135 58.5412
7.92607 59.5704
7.97081 60.6889
8.01553 61.8882
8.06026 63.1625
8.10498 65.1909
8.14971 71.7427
8.19446 71.6522
8.23919 70.8233
8.28392 73.1296
8.32865 75.4796
8.37339 80.3482
8.41812 86.8947
8.46288 110.789
8.50761 204.771
8.55235 461.803
8.59709 1230.81
8.64183 2150.27
8.68658 998.373
8.73134 174.518
8.77609 102.178
8.82083 94.3853
8.86558 91.5831
8.91033 91.1376
8.9551 90.8522
8.99985 86.5154
9.04461 84.8871
9.08936 84.3492
9.13412 83.7998
9.17888 83.2048
9.22365 83.8158
9.26841 83.7418
9.31318 84.6586
9.35794 84.6044
9.4027 85.0375
9.44749 85.9499
9.49226 86.308
9.53703 87.0626
9.5818 89.4484
9.62657 92.5527
9.67134 96.9664
9.71614 95.0593
9.76091 96.4281
9.80569 98.666
9.85047 102.419
9.89525 118.534
9.94005 135.517
9.98484 217.59
10.0296 408.001
10.0744 874.975
10.1192 1693.89
10.164 1631.95
10.2088 412.304
10.2536 129.856
10.2984 113.47
10.3432 113.238
10.388 107.993
10.4328 130.664
10.4776 177.885
10.5224 298.594
10.5672 491.829
10.612 497.276
10.6568 202.687
10.7017 97.6223
10.7465 88.1391
10.7913 84.5053
10.8361 82.5144
10.8809 80.2015
10.9257 78.8127
10.9706 78.9751
11.0154 75.7267
11.0602 73.608
11.105 72.3022
11.1499 74.4994
11.1947 78.2041
11.2395 72.932
11.2844 70.3473
11.3292 67.7577
11.374 66.9711
11.4189 66.387
11.4637 65.5943
11.5086 65.9323
11.5534 67.4476
11.5983 65.6057
11.6431 64.4889
11.688 63.9621
11.7328 63.8146
11.7777 63.8709
11.8225 63.386
11.8674 63.4238
11.9122 63.7491
11.9571 64.1551
12.002 65.4835
12.0468 71.7304
12.0917 84.0951
12.1366 108.966
12.1814 155.532
12.2263 203.965
12.2712 172.26
12.3161 93.5747
12.3609 69.4696
12.4058 65.5402
12.4507 65.339
12.4956 65.3244
12.5405 65.3705
12.5853 66.4426
12.6302 70.8615
12.6751 74.4458
12.72 69.7846
12.7649 68.7095
12.8098 69.3965
12.8547 70.8444
12.8996 72.4179
12.9445 73.7935
12.9894 75.8188
13.0343 77.2612
13.0792 81.816
13.1242 96.1364
13.1691 122.453
13.214 162.086
13.2589 249.605
13.3038 363.694
13.3487 420.159
13.3937 264.366
13.4386 125.472
13.4835 113.724
13.5285 130.516
13.5734 170.562
13.6183 252.96
13.6633 339.592
13.7082 339.866
13.7531 188.688
13.7981 97.9932
13.843 83.3513
13.888 80.6392
13.9329 78.2035
13.9779 77.2642
14.0228 75.5913
14.0678 74.2382
14.1127 73.5258
14.1577 73.4407
14.2027 72.6877
14.2476 71.4935
14.2926 71.4466
14.3376 72.0074
14.3825 71.0088
14.4275 70.0221
14.4725 69.6362
14.5175 70.1148
14.5624 70.002
14.6074 71.6991
14.6524 72.2519
14.6974 71.8039
14.7424 75.2968
14.7874 83.8622
14.8324 95.1392
14.8774 117.733
14.9224 157.048
14.9674 202.973
15.0124 216.427
15.0574 148.753
15.1024 91.1023
15.1474 73.4824
15.1924 71.3991
15.2374 71.2132
15.2824 70.5419
15.3274 68.8089
15.3725 68.2547
15.4175 67.5825
15.4625 67.2107
15.5076 67.3506
15.5526 67.4659
15.5976 67.2382
15.6426 69.7596
15.6877 76.5392
15.7327 84.7517
15.7778 101.356
15.8228 130.867
15.8679 168.336
15.9129 191.492
15.958 156.45
16.003 97.0381
16.0481 68.4414
16.0931 64.6059
16.1382 63.121
16.1833 61.3701
16.2283 59.9268
16.2734 59.2332
16.3185 59.0953
16.3636 59.2391
16.4086 58.1872
16.4537 57.0787
16.4988 56.2757
16.5439 56.3247
16.589 56.0386
16.6341 55.7039
16.6792 55.493
16.7243 55.7141
16.7694 55.7423
16.8145 55.7205
16.8596 55.9801
16.9047 56.9563
16.9498 57.2223
16.9949 56.552
17.04 56.9471
17.0851 58.5464
17.1302 60.6199
17.1754 63.6363
17.2205 68.4496
17.2656 75.216
17.3108 81.9885
17.3559 82.626
17.401 71.8818
17.4462 62.9126
17.4913 60.0413
17.5365 60.0136
17.5815 60.1949
17.6268 60.5607
17.6718 61.2524
17.7171 61.8712
17.7622 62.5974
17.8074 63.5854
17.8525 66.9382
17.8977 71.2861
17.9428 77.0062
17.9881 86.5686
18.0331 102.583
18.0784 121.287
18.1237 139.484
18.1688 133.098
18.214 105.83
18.2591 88.8339
18.3044 91.876
18.3495 100.473
18.3948 107.072
18.4399 97.6211
18.4852 78.1895
18.5303 66.8971
18.5756 63.073
18.6207 62.4102
18.666 61.3261
18.7112 60.6375
18.7565 60.0627
18.8016 59.743
18.8469 59.121
18.892 58.6999
18.9374 58.2013
18.9825 57.9637
19.0278 57.9523
19.073 58.1058
19.1183 58.8558
19.1635 59.3536
19.2088 60.9486
19.254 63.8113
19.2993 67.8219
19.3447 72.9411
19.3898 76.6951
19.4352 72.9787
19.4804 63.8278
19.5257 57.2837
19.5709 54.849
19.6163 54.789
19.6615 54.546
19.7068 54.4423
19.752 54.235
19.7974 54.9214
19.8426 55.6835
19.888 56.2382
19.9332 57.8447
19.9786 60.4792
20.0238 63.5766
20.0692 67.9609
20.1144 70.6096
20.1598 69.358
20.205 64.6078
20.2504 63.0828
20.2957 64.1914
20.3411 66.3237
20.3863 64.756
20.4318 58.9132
20.477 54.1932
20.5224 52.125
20.5677 51.6156
20.6131 51.1316
20.6586 50.5083
20.7038 50.2465
20.7493 49.7869
20.7945 49.8565
20.84 49.5265
20.8853 49.5887
20.9307 49.5632
20.976 49.6163
21.0215 49.4333
21.0668 49.8837
21.1122 50.2928
21.1575 50.9818
21.203 51.6243
21.2483 52.0702
21.2938 52.4482
21.3391 50.8232
21.3846 49.8457
21.4299 49.2332
21.4754 49.1713
21.5207 49.4735
21.5662 49.9275
21.6116 50.5432
21.6571 51.1212
21.7024 52.1019
21.7479 53.9208
21.7933 56.589
21.8388 59.8299
21.8843 63.3539
21.9297 65.4171
21.9752 64.3225
22.0206 60.6599
22.0661 56.9859
22.1115 56.5264
22.157 56.7323
22.2024 55.0969
22.248 52.3786
22.2933 50.6453
22.3389 50.0217
22.3843 49.7218
22.4299 49.497
22.4753 49.6592
22.5208 49.4366
22.5662 49.2785
22.6118 49.6151
22.6572 49.9359
22.7028 50.261
22.7483 50.6839
22.7939 51.5054
22.8393 52.9905
22.8849 54.9046
22.9303 56.6571
22.9759 58.3871
23.0214 58.0683
23.067 55.2593
23.1126 52.0536
23.1581 50.0619
23.2037 49.7914
23.2492 49.9009
23.2948 49.9371
23.3403 50.1725
23.3859 50.8747
23.4314 52.0332
23.477 53.7492
23.5225 55.6236
23.5682 57.4202
23.6137 58.6476
23.6593 56.5252
23.7048 52.5989
23.7505 49.1129
23.796 47.255
23.8417 46.7116
23.8872 46.1936
23.9329 45.9742
23.9784 45.6436
24.0241 45.4639
24.0697 45.2177
24.1154 44.8581
24.1609 44.6823
24.2066 44.528
24.2522 44.5244
24.2979 44.2761
24.3434 44.1223
24.3892 43.9372
24.4349 43.6353
24.4805 43.6861
24.5262 43.7185
24.5718 43.7007
24.6175 43.6364
24.6631 43.485
24.7089 43.3126
24.7545 43.058
24.8002 42.9372
24.8458 43.0204
24.8916 42.6503
24.9372 43.1121
24.983 43.4045
25.0286 43.6791
25.0744 44.1213
25.12 44.5174
25.1658 45.2375
25.2114 45.5094
25.2572 45.5036
25.3029 45.2622
25.3487 45.4802
25.3943 45.2579
25.4402 44.2341
25.4858 43.1183
25.5316 42.1139
25.5773 41.5181
25.6231 41.5541
25.669 41.274
25.7147 41.2452
25.7605 41.1657
25.8062 41.2438
25.8521 41.3852
25.8977 41.3293
25.9436 41.5965
25.9893 41.617
26.0352 42.1647
26.0809 42.3129
26.1268 42.3937
26.1725 42.1368
26.2184 41.4701
26.2641 40.9461
26.31 40.9483
26.3557 40.7766
26.4017 40.8093
26.4474 41.1454
26.4933 41.4847
26.5391 41.861
26.585 42.3622
26.6308 42.7284
26.6767 42.823
26.7225 42.5998
26.7684 42.0491
26.8142 41.4771
26.8601 41.0567
26.9059 40.6239
26.9519 40.1916
26.9979 39.7288
27.0437 39.6057
27.0896 39.3945
27.1354 39.4279
27.1814 39.2429
27.2272 39.1303
27.2732 39.2329
27.3191 38.9945
27.3651 39.2367
27.4109 39.1591
27.4569 39.1815
27.5027 39.205
27.5488 39.2812
27.5946 39.1612
27.6407 38.8007
27.6865 38.8131
27.7326 38.671
27.7784 38.5406
27.8245 38.5502
27.8703 38.6958
27.9164 38.9729
27.9623 39.203
28.0084 39.3673
28.0543 39.6313
28.1003 39.7254
28.1462 39.4857
28.1923 38.9836
28.2384 38.5224
28.2843 38.338
28.3304 37.7429
28.3764 37.2381
28.4225 36.9597
28.4684 36.8497
28.5145 36.6442
28.5605 36.3924
28.6066 36.3726
28.6526 36.189
28.6987 36.2226
28.7447 36.081
28.7908 36.0549
28.8368 36.0533
28.8829 35.9697
28.9289 35.9999
28.9751 35.7344
29.0211 35.5871
29.0673 35.216
29.1133 35.1531
29.1595 34.9193
29.2055 34.8425
29.2517 34.97
29.2977 34.8812
29.3439 34.6587
29.3899 34.7807
29.4361 34.7049
29.4824 34.5683
29.5284 34.3366
29.5746 33.862
29.6207 33.6013
29.6669 33.5134
29.713 33.5922
29.7593 33.4105
29.8053 33.4773
29.8516 33.3454
29.8977 33.3492
29.9439 33.1801
29.99 33.0924
30.0363 33.0567
30.0824 33.057
30.1287 32.9513
30.1748 32.9887
30.2211 32.9113
30.2673 32.746
30.3136 32.9382
30.3597 32.7425
30.406 32.7176
30.4522 32.5709
30.4985 32.5336
30.5447 32.7423
30.591 32.6416
30.6372 32.7383
30.6835 32.6604
30.7297 32.8097
30.7761 32.7089
30.8224 32.5218
30.8686 32.3736
30.915 32.0987
30.9612 32.0599
31.0076 31.8443
31.0538 31.7765
31.1002 31.6131
31.1464 31.5483
31.1928 31.5132
31.2391 31.4597
31.2855 31.427
31.3317 31.3385
31.3781 31.4836
31.4244 31.4222
31.4708 31.31
31.5171 31.3374
31.5636 31.2285
31.6098 30.9603
31.6563 30.8473
31.7026 30.6403
31.7491 30.6191
31.7953 30.6517
31.8418 30.6315
31.8881 30.6174
31.9346 30.6134
31.9809 30.4711
32.0275 30.4209
32.074 30.2824
32.1203 30.096
32.1668 29.9592
32.2132 29.8385
32.2597 29.6937
32.306 29.7275
32.3526 29.4796
32.399 29.3706
32.4455 29.3048
32.4919 29.0718
32.5385 29.1604
32.5848 28.9466
32.6314 28.9452
32.6778 28.9454
32.7244 28.8059
32.7708 28.6369
32.8174 28.5872
32.8638 28.4294
32.9104 28.4634
32.9569 28.4011
33.0035 28.3432
33.0499 28.4074
33.0966 28.2312
33.143 28.268
33.1897 28.2148
33.2361 28.0596
33.2828 27.9196
33.3293 27.7927
33.3759 27.8152
33.4226 27.7051
33.4691 27.5393
33.5158 27.3864
33.5623 27.3652
33.609 27.2554
33.6555 27.0608
33.7022 27.0284
33.7487 26.9501
33.7954 26.9529
33.842 26.8447
33.8887 26.7225
33.9353 26.7268
33.982 26.6236
34.0286 26.4666
34.0753 26.3844
34.1219 26.2586
34.1687 26.2862
34.2152 26.1807
34.262 26.0386
34.3086 25.9973
34.3554 25.9549
34.402 25.797
34.4488 25.7162
34.4954 25.6123
34.5422 25.6457
34.5889 25.457
34.6357 25.4008
34.6825 25.272
34.7292 25.1966
34.776 25.1992
34.8227 25.0562
34.8695 25.0346
34.9162 24.9721
34.9631 24.8894
35.0098 24.8062
35.0566 24.767
35.1033 24.7292
35.1502 24.6145
35.1969 24.6951
35.2438 24.6196
35.2906 24.49
35.3375 24.4709
35.3842 24.3847
35.4311 24.4713
35.4779 24.3214
35.5248 24.2538
35.5716 24.1151
35.6185 24.0578
35.6653 23.9742
35.7123 23.8862
35.759 23.7971
35.806 23.6986
35.8528 23.6108
35.8998 23.5613
35.9468 23.4653
35.9936 23.4197
36.0406 23.3595
36.0874 23.3819
36.1345 23.2421
36.1813 23.2434
36.2283 23.0903
36.2752 23.0349
36.3222 23.0347
36.3691 22.9431
36.4161 22.8051
36.463 22.8302
36.5101 22.7745
36.557 22.7071
36.6041 22.5751
36.651 22.6254
36.6981 22.4694
36.745 22.381
36.7921 22.3562
36.839 22.2838
36.8861 22.1216
36.9331 22.0774
36.9802 22.0628
37.0272 21.9392
37.0743 21.8373
37.1213 21.8046
37.1684 21.7337
37.2154 21.7368
37.2626 21.6535
37.3098 21.5419
37.3568 21.5101
37.404 21.4066
37.451 21.3153
37.4982 21.2962
37.5452 21.1118
37.5924 21.1609
37.6395 21.2364
37.6867 21.0829
37.7337 20.9557
37.781 20.9213
37.8281 20.7946
37.8753 20.6466
37.9224 20.6546
37.9697 20.5654
38.0168 20.5011
38.064 20.511
38.1111 20.4381
38.1584 20.3087
38.2056 20.2596
38.2529 20.2301
38.3 20.0787
38.3473 20.092
38.3945 19.9722
38.4418 19.9927
38.489 19.9506
38.5363 19.8404
38.5837 19.8185
38.6309 19.6596
38.6782 19.6464
38.7254 19.5553
38.7728 19.5377
38.82 19.4487
38.8674 19.4237
38.9146 19.345
38.9621 19.2967
39.0093 19.2233
39.0567 19.1634
39.104 19.1506
39.1514 18.9696
39.1987 18.9905
39.2461 18.936
39.2934 18.9164
39.3409 18.7396
39.3882 18.6462
39.4356 18.6226
39.483 18.5609
39.5304 18.5236
39.5778 18.4756
39.6253 18.3927
39.6726 18.4245
39.7201 18.3418
39.7675 18.2887
39.815 18.2417
39.8624 18.1447
39.9099 18.1539
39.9575 18.055
40.0049 18.021
40.0525 17.9014
40.0999 17.9047
40.1474 17.8531
40.1949 17.7282
40.2425 17.6286
40.2899 17.6621
40.3375 17.5675
40.385 17.5138
40.4326 17.4999
40.48 17.4112
40.5277 17.4084
40.5752 17.2999
40.6228 17.2073
40.6703 17.2486
40.718 17.121
40.7655 17.1392
40.8132 16.9905
40.8607 17.0008
40.9084 16.9645
40.9559 16.8543
41.0036 16.8604
41.0512 16.7974
41.0989 16.7123
41.1465 16.6521
41.1942 16.6365
41.242 16.5531
41.2896 16.4784
41.3373 16.4732
41.3849 16.4356
41.4327 16.3481
41.4803 16.2155
41.5281 16.2192
41.5758 16.1222
41.6236 16.1025
41.6712 16.0758
41.7191 15.9954
41.7667 15.8735
41.8146 15.8871
41.8622 15.857
41.9101 15.81
41.9578 15.7314
42.0057 15.6633
42.0534 15.5968
42.1013 15.5518
42.149 15.5082
42.1969 15.4575
42.2446 15.3879
42.2925 15.3398
42.3403 15.2933
42.3882 15.2977
42.436 15.1977
42.4839 15.1231
42.5319 15.1082
42.5797 15.0576
42.6277 14.9866
42.6755 14.9567
42.7235 14.8838
42.7713 14.8263
42.8193 14.7903
42.8671 14.7625
42.9152 14.6815
42.963 14.6388
43.0111 14.6135
43.0589 14.5808
43.107 14.4728
43.1549 14.4566
43.2029 14.372
43.2508 14.3405
43.2989 14.2917
43.3468 14.2248
43.3949 14.1738
43.4429 14.2141
43.491 14.0552
43.5389 14.0426
43.5871 13.994
43.635 13.932
43.6832 13.8678
43.7312 13.8481
43.7793 13.7945
43.8273 13.7641
43.8755 13.7454
43.9237 13.668
43.9717 13.6282
44.0199 13.5704
44.068 13.5474
44.1162 13.4255
44.1642 13.4766
44.2125 13.4149
44.2606 13.3314
44.3088 13.2853
44.3569 13.2271
44.4052 13.2089
44.4533 13.1746
44.5016 13.0952
44.5497 13.0856
44.598 13.0365
44.6461 12.9449
44.6945 12.9474
44.7426 12.8884
44.791 12.8127
44.8391 12.7896
44.8875 12.6992
44.9357 12.6915
44.984 12.631
45.0322 12.6245
45.0806 12.546
45.1288 12.5094
45.1773 12.4745
45.2257 12.4549
45.2739 12.3348
45.3224 12.3217
45.3706 12.276
45.4191 12.2327
45.4673 12.2078
45.5158 12.1765
45.5641 12.1072
45.6126 12.0516
45.6609 12.0038
45.7094 11.9624
45.7577 11.9632
45.8063 11.9014
45.8546 11.8607
45.9031 11.8502
45.9515 11.7738
46.0001 11.7942
46.0484 11.6802
46.097 11.6971
46.1454 11.5884
46.194 11.5355
46.2424 11.5347
46.291 11.4835
46.3395 11.4587
46.3881 11.4038
46.4365 11.3663
46.4852 11.3163
46.5337 11.3278
46.5823 11.2759
46.631 11.1763
46.6795 11.1318
46.7282 11.1124
46.7767 11.0878
46.8254 10.9986
46.8739 10.9926
46.9226 10.9575
46.9712 10.9278
47.0199 10.8961
47.0685 10.8244
47.1173 10.7687
47.1658 10.7199
47.2146 10.7121
47.2632 10.6667
47.312 10.6417
47.3606 10.5767
47.4095 10.5544
47.4581 10.4596
47.5069 10.461
47.5556 10.4109
47.6044 10.3904
47.6531 10.3764
47.702 10.3172
47.7507 10.2568
47.7996 10.2296
47.8483 10.1968
47.8972 10.1581
47.9461 10.1543
47.9948 10.0544
48.0438 10.019
48.0925 9.99744
48.1415 9.99332
48.1902 9.97108
48.2392 9.90816
48.288 9.92594
48.337 9.81751
48.3858 9.79654
48.4348 9.78739
48.4837 9.75922
48.5327 9.71329
48.5815 9.68009
48.6306 9.62191
48.6795 9.56957
48.7285 9.52621
48.7774 9.54518
48.8265 9.47849
48.8754 9.47726
48.9245 9.41036
48.9734 9.37279
49.0226 9.34545
49.0715 9.29144
49.1206 9.27735
49.1696 9.20764
49.2188 9.21548
49.2679 9.20556
49.3169 9.14361
49.3661 9.10127
49.4151 9.11537
49.4643 9.03163
49.5134 8.99271
49.5626 8.93435
49.6117 8.90114
49.6609 8.86986
49.71 8.83182
49.7592 8.79907
49.8083 8.76013
49.8576 8.73284
49.9067 8.70709
49.956 8.71922
50.0052 8.62946
50.0545 8.62888
50.1036 8.59379
50.153 8.55309
50.2022 8.55598
50.2515 8.52972
50.3007 8.42781
50.3501 8.40505
50.3993 8.37411
50.4487 8.34873
50.498 8.3324
50.5474 8.30816
50.5966 8.27281
50.6461 8.25085
50.6955 8.18949
50.7448 8.21455
50.7943 8.17634
50.8436 8.13631
50.8931 8.06536
50.9424 8.07238
50.9919 7.98983
51.0413 7.98136
51.0908 7.97865
51.1402 7.91924
51.1897 7.90351
51.2391 7.8942
51.2887 7.79013
51.3381 7.79334
51.3877 7.76741
51.4371 7.73844
51.4867 7.64689
51.5362 7.68363
51.5858 7.63737
51.6353 7.59575
51.6849 7.57799
51.7344 7.54936
51.7841 7.51229
51.8336 7.51233
51.8833 7.45005
51.9328 7.39568
51.9826 7.40161
52.0323 7.3529
52.0818 7.32581
52.1316 7.27926
52.1812 7.26775
52.231 7.26502
52.2806 7.19951
52.3304 7.15722
52.38 7.12446
52.4298 7.13478
52.4794 7.04604
52.5293 7.04004
52.5789 7.02057
52.6288 6.95954
52.6785 6.96924
52.7284 6.94455
52.7781 6.9309
52.828 6.92348
52.8777 6.85471
52.9276 6.79356
52.9774 6.7873
53.0273 6.77107
53.0771 6.73141
53.1271 6.74626
53.1769 6.67558
53.2269 6.66196
53.2767 6.60271
53.3267 6.64284
53.3765 6.57666
53.4266 6.5573
53.4766 6.49324
53.5265 6.49061
53.5765 6.46198
53.6264 6.42623
53.6765 6.41018
53.7264 6.33744
53.7765 6.34581
53.8265 6.32614
53.8766 6.30628
53.9266 6.27735
53.9767 6.22039
54.0267 6.21147
54.0769 6.18731
54.1269 6.13947
54.1771 6.11998
54.2271 6.09485
54.2773 6.04585
54.3274 6.03228
54.3776 6.01395
54.4277 5.98354
54.478 5.99457
54.528 5.8981
54.5783 5.84929
54.6285 5.82762
54.6788 5.79231
54.7289 5.68072
54.7792 5.71387
54.8296 5.65057
54.8798 5.66132
54.9301 5.59472
54.9803 5.545
55.0307 5.5199
55.0809 5.42548
55.1314 5.44461
55.1816 5.39787
55.232 5.39549
55.2823 5.33884
55.3328 5.24175
55.383 5.14327
55.4335 5.15513
55.4838 5.06104
55.5344 5.05421
55.5847 4.99444
55.6352 4.95387
55.6856 4.91694
55.7361 4.91887