File: XRD/Ni3Fe_FD0971.xy
TT I
1.27165 7.17049
1.31627 6.32433
1.36089 7.01616
1.40551 5.34932
1.45013 5.56224
1.49476 6.03811
1.53938 5.67126
1.584 5.27333
1.62863 5.28855
1.67325 4.6942
1.71787 4.7596
1.7625 4.47927
1.80712 4.53629
1.85174 4.4212
1.89636 4.21846
1.94099 5.02092
1.98562 4.39764
2.03025 4.91131
2.07487 4.60348
2.11949 4.9573
2.16411 5.21094
2.20874 13.8953
2.25338 22.305
2.298 6.11001
2.34263 5.3903
2.38725 6.08193
2.43188 6.13696
2.4765 7.95124
2.52115 7.07847
2.56577 8.58196
2.6104 8.82581
2.65503 7.74375
2.69965 9.17339
2.7443 8.86307
2.78893 8.51462
2.83356 8.43029
2.87818 8.88606
2.92281 9.12808
2.96744 9.90617
3.01209 10.4355
3.05672 11.0881
3.10135 13.0347
3.14599 13.091
3.19062 14.6276
3.23527 15.0668
3.2799 15.9209
3.32454 16.8903
3.36917 17.6691
3.4138 19.0481
3.45844 19.8142
3.50309 20.6892
3.54773 21.5907
3.59237 23.6924
3.637 87.4563
3.68164 57.2621
3.7263 26.1492
3.77094 26.2002
3.81558 26.4352
3.86022 27.3086
3.90486 28.4625
3.9495 29.8114
3.99416 30.5695
4.0388 32.0913
4.08344 33.3073
4.12809 34.1951
4.17273 36.5526
4.21738 42.542
4.26204 235.44
4.30669 207.529
4.35133 48.0975
4.39598 43.6288
4.44063 53.7149
4.4853 63.821
4.52995 49.7751
4.5746 50.699
4.61925 52.2895
4.6639 54.6411
4.70855 57.6113
4.75322 60.0232
4.79788 62.6814
4.84253 65.825
4.88719 69.7771
4.93184 73.2445
4.97652 78.5968
5.02118 84.764
5.06583 90.979
5.11049 100.784
5.15515 161.593
5.19981 277.82
5.24449 2376.63
5.28916 13637.2
5.33382 2866.63
5.37848 172.839
5.42315 123.795
5.46783 110.45
5.5125 103.19
5.55716 99.7956
5.60183 96.1293
5.6465 94.4676
5.69117 92.3362
5.73586 90.1291
5.78053 88.8946
5.8252 88.6343
5.86988 89.145
5.91455 90.5302
5.95924 96.207
6.00392 171.666
6.0486 802.339
6.09328 4615.78
6.13795 3188.91
6.18263 217.106
6.22733 88.7286
6.27201 80.4074
6.3167 98.5565
6.36138 78.7951
6.40606 67.7867
6.45075 65.7237
6.49545 64.423
6.54014 62.7033
6.58483 61.8903
6.62952 61.7661
6.67421 91.6387
6.71892 137.873
6.76361 67.5823
6.8083 57.3674
6.853 56.704
6.89769 56.4202
6.94239 55.6147
6.98711 54.9876
7.03181 54.6543
7.07651 54.3076
7.12121 54.3696
7.16591 54.5643
7.21063 54.8343
7.25533 69.1812
7.30004 170.14
7.34475 88.9759
7.38945 55.3474
7.43416 53.4668
7.47889 53.4548
7.5236 54.2533
7.56831 54.8153
7.61303 55.9667
7.65774 56.425
7.70247 55.3989
7.74719 55.3369
7.79191 55.8117
7.83663 55.8033
7.88135 56.9534
7.92607 57.4009
7.97081 58.6951
8.01553 59.5581
8.06026 61.4361
8.10498 63.0184
8.14971 71.703
8.19446 70.6206
8.23919 68.0271
8.28392 70.3005
8.32865 72.6881
8.37339 76.5913
8.41812 82.7883
8.46288 108.317
8.50761 142.553
8.55235 331.39
8.59709 1144.37
8.64183 2279.72
8.68658 927.54
8.73134 159.442
8.77609 96.3781
8.82083 90.6125
8.86558 87.903
8.91033 88.041
8.9551 89.5884
8.99985 83.6139
9.04461 81.7778
9.08936 81.0882
9.13412 80.3262
9.17888 80.3294
9.22365 81.1021
9.26841 80.6651
9.31318 80.993
9.35794 81.0811
9.4027 81.493
9.44749 82.2824
9.49226 83.1188
9.53703 83.9135
9.5818 85.4294
9.62657 90.1816
9.67134 96.5486
9.71614 92.0
9.76091 91.9368
9.80569 94.3515
9.85047 97.6804
9.89525 119.969
9.94005 130.21
9.98484 155.349
10.0296 298.007
10.0744 769.017
10.1192 1795.89
10.164 1532.22
10.2088 360.455
10.2536 121.813
10.2984 110.109
10.3432 111.38
10.388 101.489
10.4328 110.711
10.4776 148.143
10.5224 272.056
10.5672 523.385
10.612 497.181
10.6568 194.717
10.7017 94.164
10.7465 84.4557
10.7913 81.6424
10.8361 79.3918
10.8809 77.1758
10.9257 76.785
10.9706 77.4168
11.0154 73.2281
11.0602 71.2244
11.105 70.5633
11.1499 74.5168
11.1947 81.3096
11.2395 72.7689
11.2844 69.1732
11.3292 65.8106
11.374 64.6677
11.4189 64.3354
11.4637 63.4707
11.5086 64.4562
11.5534 66.9269
11.5983 64.3017
11.6431 62.3747
11.688 61.8455
11.7328 61.8211
11.7777 61.3805
11.8225 61.3284
11.8674 61.2235
11.9122 61.6951
11.9571 61.6163
12.002 62.0821
12.0468 65.2049
12.0917 74.8386
12.1366 97.8556
12.1814 153.458
12.2263 207.959
12.2712 160.726
12.3161 94.8474
12.3609 69.1216
12.4058 63.3402
12.4507 62.9122
12.4956 62.9139
12.5405 63.2104
12.5853 64.2418
12.6302 71.7552
12.6751 76.499
12.72 68.5719
12.7649 66.2293
12.8098 66.6658
12.8547 68.2811
12.8996 69.3478
12.9445 70.7111
12.9894 72.0185
13.0343 73.9319
13.0792 76.9172
13.1242 83.6233
13.1691 103.736
13.214 138.255
13.2589 233.202
13.3038 379.767
13.3487 425.039
13.3937 245.529
13.4386 118.978
13.4835 99.7244
13.5285 112.421
13.5734 149.565
13.6183 247.262
13.6633 359.055
13.7082 328.441
13.7531 176.555
13.7981 94.5424
13.843 80.0018
13.888 77.9207
13.9329 75.3752
13.9779 74.0415
14.0228 72.7008
14.0678 71.4764
14.1127 71.2401
14.1577 70.8663
14.2027 69.9952
14.2476 68.9207
14.2926 69.1029
14.3376 70.0571
14.3825 68.6583
14.4275 67.2013
14.4725 66.9038
14.5175 67.3593
14.5624 67.5674
14.6074 69.7321
14.6524 69.9524
14.6974 68.958
14.7424 69.7931
14.7874 74.8923
14.8324 84.0772
14.8774 106.079
14.9224 151.906
14.9674 213.288
15.0124 216.563
15.0574 146.25
15.1024 87.8165
15.1474 70.785
15.1924 68.8004
15.2374 69.5049
15.2824 68.7061
15.3274 66.7525
15.3725 65.396
15.4175 65.0875
15.4625 64.5779
15.5076 64.7964
15.5526 64.7884
15.5976 64.4287
15.6426 64.6553
15.6877 68.7538
15.7327 76.0076
15.7778 90.6403
15.8228 124.431
15.8679 174.813
15.9129 196.917
15.958 151.425
16.003 94.2289
16.0481 66.8566
16.0931 63.1053
16.1382 61.6391
16.1833 59.3944
16.2283 57.7097
16.2734 57.1927
16.3185 57.4859
16.3636 58.1463
16.4086 56.5278
16.4537 55.0547
16.4988 54.323
16.5439 54.4692
16.589 53.9731
16.6341 53.7221
16.6792 53.4478
16.7243 53.8855
16.7694 53.9172
16.8145 53.4822
16.8596 54.2173
16.9047 55.6206
16.9498 55.6859
16.9949 54.6482
17.04 54.7431
17.0851 55.441
17.1302 57.0208
17.1754 59.8862
17.2205 65.1555
17.2656 73.6775
17.3108 82.5355
17.3559 80.2621
17.401 68.833
17.4462 60.8073
17.4913 57.8882
17.5365 57.8989
17.5815 58.0613
17.6268 58.4211
17.6718 59.2747
17.7171 59.4389
17.7622 59.9043
17.8074 60.4251
17.8525 62.2071
17.8977 65.759
17.9428 70.9502
17.9881 79.4246
18.0331 98.1341
18.0784 123.08
18.1237 137.212
18.1688 125.039
18.214 98.9235
18.2591 83.8018
18.3044 89.5669
18.3495 100.752
18.3948 106.012
18.4399 93.8242
18.4852 75.085
18.5303 64.45
18.5756 60.9849
18.6207 60.0512
18.666 59.0864
18.7112 58.3995
18.7565 57.6655
18.8016 57.522
18.8469 56.8039
18.892 56.498
18.9374 55.936
18.9825 55.9324
19.0278 55.7117
19.073 55.627
19.1183 56.0386
19.1635 56.591
19.2088 58.0597
19.254 60.511
19.2993 65.6186
19.3447 71.8655
19.3898 74.9651
19.4352 70.1898
19.4804 61.3658
19.5257 55.3148
19.5709 53.0716
19.6163 52.6744
19.6615 52.5673
19.7068 52.2709
19.752 52.2613
19.7974 52.455
19.8426 53.1682
19.888 53.6362
19.9332 54.8105
19.9786 57.5734
20.0238 61.6502
20.0692 66.7937
20.1144 68.7217
20.1598 66.0775
20.205 62.0135
20.2504 61.101
20.2957 63.402
20.3411 65.2262
20.3863 62.7253
20.4318 57.0628
20.477 52.4578
20.5224 50.5025
20.5677 50.1682
20.6131 49.2475
20.6586 48.6933
20.7038 48.4741
20.7493 48.1196
20.7945 48.1848
20.84 47.9021
20.8853 47.9454
20.9307 47.6559
20.976 47.7665
21.0215 47.5717
21.0668 47.9267
21.1122 48.4665
21.1575 48.9496
21.203 50.0965
21.2483 50.5316
21.2938 50.3537
21.3391 49.0234
21.3846 47.9026
21.4299 47.5045
21.4754 47.3301
21.5207 47.5892
21.5662 47.8876
21.6116 48.006
21.6571 48.5215
21.7024 49.5089
21.7479 51.2776
21.7933 54.3173
21.8388 58.2594
21.8843 62.1161
21.9297 63.5798
21.9752 61.6323
22.0206 58.0668
22.0661 55.6632
22.1115 55.1439
22.157 54.9667
22.2024 52.8671
22.248 50.3426
22.2933 49.0147
22.3389 48.181
22.3843 48.0316
22.4299 48.1089
22.4753 47.8827
22.5208 47.6384
22.5662 47.5055
22.6118 47.6301
22.6572 47.8858
22.7028 47.9569
22.7483 48.4643
22.7939 49.1362
22.8393 50.6465
22.8849 53.1493
22.9303 55.4384
22.9759 56.9741
23.0214 56.0243
23.067 53.1381
23.1126 49.885
23.1581 48.1378
23.2037 47.866
23.2492 47.7075
23.2948 47.8302
23.3403 47.9669
23.3859 48.6016
23.4314 49.6546
23.477 51.5334
23.5225 54.296
23.5682 56.5183
23.6137 56.9329
23.6593 54.3701
23.7048 50.5185
23.7505 47.4173
23.796 45.7393
23.8417 45.1615
23.8872 44.7012
23.9329 44.4503
23.9784 44.0076
24.0241 43.8729
24.0697 43.5876
24.1154 43.24
24.1609 43.1459
24.2066 43.0657
24.2522 42.9526
24.2979 42.5753
24.3434 42.5631
24.3892 42.4268
24.4349 42.4476
24.4805 42.203
24.5262 42.253
24.5718 42.1808
24.6175 42.1434
24.6631 42.0246
24.7089 41.741
24.7545 41.7288
24.8002 41.5072
24.8458 41.4622
24.8916 41.369
24.9372 41.2527
24.983 41.6327
25.0286 41.9435
25.0744 42.4641
25.12 43.0435
25.1658 43.4557
25.2114 43.8716
25.2572 44.1273
25.3029 44.2022
25.3487 44.2363
25.3943 43.6576
25.4402 42.5228
25.4858 41.5796
25.5316 40.6953
25.5773 40.2957
25.6231 40.0586
25.669 39.6513
25.7147 39.7622
25.7605 39.7722
25.8062 39.7282
25.8521 39.7641
25.8977 39.6909
25.9436 40.1163
25.9893 40.1938
26.0352 40.928
26.0809 40.7421
26.1268 40.8551
26.1725 40.5133
26.2184 40.0226
26.2641 39.5122
26.31 39.3271
26.3557 39.2685
26.4017 39.259
26.4474 39.617
26.4933 39.9176
26.5391 40.4503
26.585 41.0123
26.6308 41.4179
26.6767 41.4175
26.7225 41.1878
26.7684 40.6445
26.8142 40.0844
26.8601 39.6681
26.9059 39.19
26.9519 38.7111
26.9979 38.3843
27.0437 38.1229
27.0896 38.0357
27.1354 37.8488
27.1814 37.8499
27.2272 37.852
27.2732 37.9036
27.3191 37.7027
27.3651 37.6851
27.4109 37.5871
27.4569 37.7824
27.5027 37.8231
27.5488 37.8301
27.5946 37.5708
27.6407 37.37
27.6865 37.3485
27.7326 37.0894
27.7784 37.0078
27.8245 36.9649
27.8703 37.2639
27.9164 37.5936
27.9623 37.8017
28.0084 38.1497
28.0543 38.4774
28.1003 38.315
28.1462 38.0504
28.1923 37.707
28.2384 37.26
28.2843 36.8556
28.3304 36.5603
28.3764 36.0615
28.4225 35.7913
28.4684 35.6325
28.5145 35.1719
28.5605 35.1647
28.6066 35.0609
28.6526 34.933
28.6987 34.8787
28.7447 34.8117
28.7908 34.8415
28.8368 34.8336
28.8829 34.7733
28.9289 34.7188
28.9751 34.4992
29.0211 34.3294
29.0673 34.0746
29.1133 33.9393
29.1595 33.7583
29.2055 33.6538
29.2517 33.7453
29.2977 33.7542
29.3439 33.6098
29.3899 33.7116
29.4361 33.5417
29.4824 33.3024
29.5284 33.0951
29.5746 32.7735
29.6207 32.511
29.6669 32.4218
29.713 32.2692
29.7593 32.2261
29.8053 32.2438
29.8516 32.2834
29.8977 32.1567
29.9439 31.9226
29.99 31.8889
30.0363 31.7974
30.0824 31.9201
30.1287 31.872
30.1748 31.8599
30.2211 31.789
30.2673 31.63
30.3136 31.8112
30.3597 31.6719
30.406 31.546
30.4522 31.4765
30.4985 31.4499
30.5447 31.6114
30.591 31.5321
30.6372 31.6168
30.6835 31.6484
30.7297 31.6646
30.7761 31.6969
30.8224 31.3938
30.8686 31.3321
30.915 31.0533
30.9612 30.8771
31.0076 30.7691
31.0538 30.6603
31.1002 30.4877
31.1464 30.3822
31.1928 30.3325
31.2391 30.3724
31.2855 30.2484
31.3317 30.3214
31.3781 30.3902
31.4244 30.2837
31.4708 30.2313
31.5171 30.3504
31.5636 30.1816
31.6098 29.9037
31.6563 29.8159
31.7026 29.737
31.7491 29.5355
31.7953 29.5894
31.8418 29.5163
31.8881 29.6084
31.9346 29.5289
31.9809 29.5326
32.0275 29.372
32.074 29.2031
32.1203 29.1218
32.1668 28.9375
32.2132 28.8518
32.2597 28.6955
32.306 28.6525
32.3526 28.4971
32.399 28.4438
32.4455 28.3064
32.4919 28.1261
32.5385 28.1651
32.5848 28.0292
32.6314 27.9678
32.6778 27.9538
32.7244 27.7709
32.7708 27.5646
32.8174 27.7321
32.8638 27.5104
32.9104 27.5402
32.9569 27.4552
33.0035 27.4018
33.0499 27.3482
33.0966 27.3049
33.143 27.2929
33.1897 27.254
33.2361 27.0612
33.2828 27.079
33.3293 26.833
33.3759 26.8527
33.4226 26.7214
33.4691 26.6071
33.5158 26.5565
33.5623 26.3688
33.609 26.2294
33.6555 26.2129
33.7022 26.063
33.7487 26.0566
33.7954 26.0473
33.842 25.9389
33.8887 25.8683
33.9353 25.7528
33.982 25.6984
34.0286 25.5816
34.0753 25.5944
34.1219 25.436
34.1687 25.4253
34.2152 25.3038
34.262 25.0786
34.3086 25.1017
34.3554 25.0606
34.402 24.9567
34.4488 24.7998
34.4954 24.7313
34.5422 24.7205
34.5889 24.6054
34.6357 24.5723
34.6825 24.4403
34.7292 24.3894
34.776 24.2947
34.8227 24.248
34.8695 24.2389
34.9162 24.1638
34.9631 24.067
35.0098 24.0154
35.0566 23.9145
35.1033 23.8423
35.1502 23.853
35.1969 23.7735
35.2438 23.7699
35.2906 23.6067
35.3375 23.572
35.3842 23.5799
35.4311 23.5433
35.4779 23.5132
35.5248 23.4719
35.5716 23.3683
35.6185 23.3101
35.6653 23.2005
35.7123 23.1602
35.759 23.1011
35.806 22.9944
35.8528 22.7857
35.8998 22.8195
35.9468 22.715
35.9936 22.6353
36.0406 22.5629
36.0874 22.5787
36.1345 22.5041
36.1813 22.3458
36.2283 22.3321
36.2752 22.1894
36.3222 22.287
36.3691 22.146
36.4161 22.0526
36.463 22.0471
36.5101 22.0177
36.557 21.9576
36.6041 21.8013
36.651 21.7774
36.6981 21.8121
36.745 21.6796
36.7921 21.5779
36.839 21.5161
36.8861 21.4548
36.9331 21.3315
36.9802 21.2443
37.0272 21.2498
37.0743 21.086
37.1213 21.0712
37.1684 21.0426
37.2154 20.959
37.2626 20.8543
37.3098 20.8615
37.3568 20.7231
37.404 20.7299
37.451 20.6867
37.4982 20.5836
37.5452 20.4636
37.5924 20.3683
37.6395 20.4462
37.6867 20.3265
37.7337 20.2066
37.781 20.2292
37.8281 20.0695
37.8753 20.0081
37.9224 19.9966
37.9697 19.886
38.0168 19.8582
38.064 19.7906
38.1111 19.6936
38.1584 19.6949
38.2056 19.5746
38.2529 19.5338
38.3 19.5043
38.3473 19.3982
38.3945 19.3557
38.4418 19.3466
38.489 19.2801
38.5363 19.2053
38.5837 19.0678
38.6309 19.054
38.6782 18.9474
38.7254 18.9424
38.7728 18.9102
38.82 18.8074
38.8674 18.8006
38.9146 18.6983
38.9621 18.5431
39.0093 18.6341
39.0567 18.4923
39.104 18.5029
39.1514 18.3942
39.1987 18.3347
39.2461 18.3358
39.2934 18.2448
39.3409 18.1453
39.3882 18.052
39.4356 18.0119
39.483 17.964
39.5304 17.9442
39.5778 17.8958
39.6253 17.8247
39.6726 17.7204
39.7201 17.7644
39.7675 17.7146
39.815 17.6056
39.8624 17.5555
39.9099 17.47
39.9575 17.4168
40.0049 17.3769
40.0525 17.2387
40.0999 17.2704
40.1474 17.2185
40.1949 17.1851
40.2425 17.0853
40.2899 17.0517
40.3375 17.0421
40.385 16.9384
40.4326 16.9179
40.48 16.7854
40.5277 16.8251
40.5752 16.7277
40.6228 16.666
40.6703 16.6346
40.718 16.6346
40.7655 16.5185
40.8132 16.4075
40.8607 16.475
40.9084 16.3459
40.9559 16.3341
41.0036 16.2571
41.0512 16.2393
41.0989 16.1757
41.1465 16.0852
41.1942 16.0404
41.242 15.9677
41.2896 15.9655
41.3373 15.8895
41.3849 15.8392
41.4327 15.8131
41.4803 15.6832
41.5281 15.649
41.5758 15.6207
41.6236 15.5619
41.6712 15.5204
41.7191 15.4718
41.7667 15.3909
41.8146 15.3778
41.8622 15.2392
41.9101 15.257
41.9578 15.1646
42.0057 15.1366
42.0534 15.0926
42.1013 15.0929
42.149 15.0297
42.1969 14.9805
42.2446 14.9267
42.2925 14.8382
42.3403 14.818
42.3882 14.808
42.436 14.7658
42.4839 14.667
42.5319 14.6392
42.5797 14.5607
42.6277 14.4908
42.6755 14.4385
42.7235 14.3893
42.7713 14.3702
42.8193 14.3157
42.8671 14.2485
42.9152 14.2269
42.963 14.1774
43.0111 14.1401
43.0589 14.0701
43.107 14.0031
43.1549 13.9633
43.2029 13.9165
43.2508 13.8992
43.2989 13.8812
43.3468 13.7765
43.3949 13.6554
43.4429 13.6666
43.491 13.6195
43.5389 13.5749
43.5871 13.567
43.635 13.4912
43.6832 13.4422
43.7312 13.4008
43.7793 13.345
43.8273 13.324
43.8755 13.2702
43.9237 13.2443
43.9717 13.1914
44.0199 13.0925
44.068 13.1191
44.1162 13.0347
44.1642 12.9884
44.2125 12.9699
44.2606 12.9683
44.3088 12.8693
44.3569 12.8253
44.4052 12.7466
44.4533 12.7694
44.5016 12.6689
44.5497 12.6081
44.598 12.6502
44.6461 12.5419
44.6945 12.4894
44.7426 12.4527
44.791 12.4064
44.8391 12.375
44.8875 12.3499
44.9357 12.2987
44.984 12.2545
45.0322 12.1585
45.0806 12.1762
45.1288 12.1271
45.1773 12.0777
45.2257 12.0026
45.2739 12.0241
45.3224 11.9071
45.3706 11.9272
45.4191 11.824
45.4673 11.8531
45.5158 11.764
45.5641 11.7207
45.6126 11.7161
45.6609 11.6667
45.7094 11.5905
45.7577 11.6145
45.8063 11.5026
45.8546 11.4989
45.9031 11.4445
45.9515 11.401
46.0001 11.3532
46.0484 11.3256
46.097 11.2598
46.1454 11.2366
46.194 11.22
46.2424 11.1718
46.291 11.1505
46.3395 11.0657
46.3881 10.9986
46.4365 10.9742
46.4852 10.9339
46.5337 10.9175
46.5823 10.9321
46.631 10.8983
46.6795 10.7612
46.7282 10.7818
46.7767 10.7266
46.8254 10.6957
46.8739 10.6391
46.9226 10.6073
46.9712 10.5717
47.0199 10.5161
47.0685 10.4625
47.1173 10.4592
47.1658 10.4461
47.2146 10.3636
47.2632 10.3459
47.312 10.3171
47.3606 10.2886
47.4095 10.1999
47.4581 10.1959
47.5069 10.1372
47.5556 10.1083
47.6044 10.0882
47.6531 10.0356
47.702 10.0173
47.7507 9.92862
47.7996 9.93238
47.8483 9.87206
47.8972 9.85537
47.9461 9.84049
47.9948 9.74853
48.0438 9.74713
48.0925 9.70867
48.1415 9.70626
48.1902 9.65471
48.2392 9.60973
48.288 9.56237
48.337 9.56271
48.3858 9.50591
48.4348 9.4693
48.4837 9.48715
48.5327 9.40224
48.5815 9.39673
48.6306 9.3594
48.6795 9.27473
48.7285 9.24851
48.7774 9.2408
48.8265 9.18875
48.8754 9.14576
48.9245 9.11691
48.9734 9.08287
49.0226 9.07824
49.0715 9.03336
49.1206 8.99379
49.1696 8.96743
49.2188 8.90617
49.2679 8.88238
49.3169 8.80716
49.3661 8.82086
49.4151 8.80373
49.4643 8.75125
49.5134 8.71931
49.5626 8.65963
49.6117 8.67065
49.6609 8.62247
49.71 8.54846
49.7592 8.5457
49.8083 8.50575
49.8576 8.50857
49.9067 8.43552
49.956 8.42585
50.0052 8.36686
50.0545 8.37673
50.1036 8.31837
50.153 8.31632
50.2022 8.30734
50.2515 8.24049
50.3007 8.18031
50.3501 8.14627
50.3993 8.1413
50.4487 8.12915
50.498 8.05815
50.5474 8.0241
50.5966 7.97851
50.6461 7.97942
50.6955 7.95888
50.7448 7.93222
50.7943 7.85632
50.8436 7.85032
50.8931 7.81248
50.9424 7.80695
50.9919 7.75581
51.0413 7.7208
51.0908 7.72382
51.1402 7.70191
51.1897 7.65258
51.2391 7.6176
51.2887 7.59194
51.3381 7.53843
51.3877 7.54243
51.4371 7.46278
51.4867 7.44284
51.5362 7.45894
51.5858 7.40644
51.6353 7.36682
51.6849 7.31419
51.7344 7.29171
51.7841 7.28129
51.8336 7.25963
51.8833 7.22468
51.9328 7.15752
51.9826 7.14102
52.0323 7.12305
52.0818 7.10081
52.1316 7.06242
52.1812 7.04404
52.231 6.99154
52.2806 6.99397
52.3304 6.92764
52.38 6.93896
52.4298 6.84795
52.4794 6.82545
52.5293 6.88158
52.5789 6.76738
52.6288 6.80829
52.6785 6.76288
52.7284 6.74134
52.7781 6.68696
52.828 6.66443
52.8777 6.68044
52.9276 6.59437
52.9774 6.58408
53.0273 6.59629
53.0771 6.57042
53.1271 6.5167
53.1769 6.46564
53.2269 6.47037
53.2767 6.4634
53.3267 6.39282
53.3765 6.37858
53.4266 6.32678
53.4766 6.30824
53.5265 6.33943
53.5765 6.26657
53.6264 6.23073
53.6765 6.21034
53.7264 6.17503
53.7765 6.16518
53.8265 6.11065
53.8766 6.10328
53.9266 6.06032
53.9767 6.05675
54.0267 6.0353
54.0769 6.00406
54.1269 5.9376
54.1771 5.92037
54.2271 5.89295
54.2773 5.87441
54.3274 5.81042
54.3776 5.79808
54.4277 5.84002
54.478 5.7323
54.528 5.69091
54.5783 5.69475
54.6285 5.62945
54.6788 5.60582
54.7289 5.57004
54.7792 5.47802
54.8296 5.41155
54.8798 5.43656
54.9301 5.43324
54.9803 5.40516
55.0307 5.2913
55.0809 5.25352
55.1314 5.2767
55.1816 5.20669
55.232 5.12216
55.2823 5.11927
55.3328 5.05898
55.383 4.99207
55.4335 4.93605
55.4838 4.94973
55.5344 4.87984
55.5847 4.82482
55.6352 4.83904
55.6856 4.7433
55.7361 4.72979