File: XRD/Ni3Fe_FD0058.xy
TT I
1.27165 32.2801
1.31627 31.1013
1.36089 30.0035
1.40551 28.2662
1.45013 26.9696
1.49476 25.9115
1.53938 25.1265
1.584 23.6462
1.62863 22.9408
1.67325 23.0477
1.71787 21.8963
1.7625 21.314
1.80712 20.592
1.85174 20.2924
1.89636 20.2734
1.94099 20.8732
1.98562 20.4418
2.03025 20.4414
2.07487 18.7256
2.11949 20.627
2.16411 20.156
2.20874 20.0947
2.25338 20.2249
2.298 21.1077
2.34263 20.5772
2.38725 21.3671
2.43188 20.9194
2.4765 21.3566
2.52115 21.3964
2.56577 23.1417
2.6104 23.7969
2.65503 24.0012
2.69965 26.0837
2.7443 26.8709
2.78893 29.6506
2.83356 31.8717
2.87818 35.9448
2.92281 40.6823
2.96744 47.0235
3.01209 55.0646
3.05672 63.8401
3.10135 72.5859
3.14599 76.2524
3.19062 73.8778
3.23527 64.8418
3.2799 54.2337
3.32454 45.1035
3.36917 38.2876
3.4138 34.0164
3.45844 30.2313
3.50309 29.1027
3.54773 27.3309
3.59237 27.083
3.637 26.3852
3.68164 25.6512
3.7263 25.8891
3.77094 25.8923
3.81558 25.3528
3.86022 26.139
3.90486 26.5535
3.9495 26.7752
3.99416 27.6475
4.0388 28.1517
4.08344 28.9222
4.12809 29.6721
4.17273 30.9089
4.21738 32.6719
4.26204 34.3281
4.30669 37.5169
4.35133 41.4445
4.39598 39.7764
4.44063 38.0999
4.4853 37.7715
4.52995 39.0588
4.5746 39.9692
4.61925 41.8131
4.6639 43.6284
4.70855 45.9338
4.75322 48.4868
4.79788 51.3729
4.84253 56.0432
4.88719 61.701
4.93184 69.566
4.97652 83.9789
5.02118 105.946
5.06583 122.531
5.11049 144.019
5.15515 191.675
5.19981 328.205
5.24449 764.856
5.28916 1754.42
5.33382 4191.94
5.37848 2919.77
5.42315 729.443
5.46783 290.0
5.5125 189.687
5.55716 149.245
5.60183 126.087
5.6465 116.024
5.69117 110.691
5.73586 103.966
5.78053 101.177
5.8252 102.41
5.86988 108.495
5.91455 121.413
5.95924 145.281
6.00392 205.787
6.0486 349.813
6.09328 598.101
6.13795 1089.21
6.18263 1053.7
6.22733 452.849
6.27201 206.258
6.3167 125.677
6.36138 90.5795
6.40606 73.1427
6.45075 64.3614
6.49545 58.0279
6.54014 53.7978
6.58483 50.2918
6.62952 47.8915
6.67421 46.1028
6.71892 44.3928
6.76361 43.7075
6.8083 42.4711
6.853 41.8269
6.89769 41.3638
6.94239 41.4977
6.98711 41.6755
7.03181 42.667
7.07651 45.0666
7.12121 46.2217
7.16591 43.4494
7.21063 40.9377
7.25533 40.2522
7.30004 39.5756
7.34475 39.9576
7.38945 40.1804
7.43416 40.5992
7.47889 44.0465
7.5236 63.6088
7.56831 179.912
7.61303 160.619
7.65774 60.5878
7.70247 44.0597
7.74719 40.7527
7.79191 39.5169
7.83663 39.1106
7.88135 39.5809
7.92607 39.4163
7.97081 40.0931
8.01553 40.8284
8.06026 41.4875
8.10498 42.4776
8.14971 43.5778
8.19446 44.807
8.23919 47.0974
8.28392 50.542
8.32865 53.4747
8.37339 56.9044
8.41812 60.8303
8.46288 68.8715
8.50761 87.0035
8.55235 132.769
8.59709 193.094
8.64183 293.311
8.68658 614.117
8.73134 705.132
8.77609 325.201
8.82083 153.671
8.86558 101.262
8.91033 83.1141
8.9551 74.6929
8.99985 69.8761
9.04461 67.2535
9.08936 66.0889
9.13412 66.305
9.17888 70.7617
9.22365 99.1248
9.26841 277.18
9.31318 309.571
9.35794 111.194
9.4027 70.234
9.44749 62.7178
9.49226 60.0784
9.53703 58.566
9.5818 58.5121
9.62657 58.6775
9.67134 58.5215
9.71614 59.9393
9.76091 61.2934
9.80569 62.6281
9.85047 65.1736
9.89525 69.5301
9.94005 75.9651
9.98484 90.311
10.0296 127.543
10.0744 172.4
10.1192 218.905
10.164 389.058
10.2088 702.141
10.2536 559.803
10.2984 241.791
10.3432 135.489
10.388 97.0514
10.4328 85.0398
10.4776 86.5868
10.5224 93.9941
10.5672 101.328
10.612 139.335
10.6568 235.663
10.7017 258.578
10.7465 181.759
10.7913 92.5028
10.8361 63.7231
10.8809 55.8776
10.9257 52.2806
10.9706 50.6448
11.0154 48.5806
11.0602 46.897
11.105 45.9963
11.1499 44.9401
11.1947 44.8922
11.2395 44.3549
11.2844 43.808
11.3292 42.8235
11.374 41.8844
11.4189 41.4994
11.4637 41.1235
11.5086 40.6057
11.5534 40.2748
11.5983 40.2487
11.6431 40.1255
11.688 40.0237
11.7328 40.0172
11.7777 40.4203
11.8225 40.7784
11.8674 42.0492
11.9122 46.1864
11.9571 72.362
12.002 116.838
12.0468 85.5374
12.0917 53.254
12.1366 49.8167
12.1814 51.3231
12.2263 55.8264
12.2712 68.5339
12.3161 86.7103
12.3609 81.3033
12.4058 61.3002
12.4507 49.9705
12.4956 45.2054
12.5405 42.8463
12.5853 41.6244
12.6302 40.8626
12.6751 40.499
12.72 40.8392
12.7649 40.9371
12.8098 41.3166
12.8547 41.7736
12.8996 42.3664
12.9445 43.4654
12.9894 44.1772
13.0343 45.9119
13.0792 49.7106
13.1242 60.2363
13.1691 68.6586
13.214 67.5288
13.2589 69.8533
13.3038 74.4128
13.3487 91.9155
13.3937 138.439
13.4386 188.599
13.4835 158.768
13.5285 105.132
13.5734 85.7117
13.6183 79.4043
13.6633 80.4634
13.7082 98.859
13.7531 145.742
13.7981 177.934
13.843 127.023
13.888 78.8891
13.9329 60.9824
13.9779 54.5093
14.0228 51.258
14.0678 49.9802
14.1127 51.7717
14.1577 69.1943
14.2027 103.406
14.2476 88.2439
14.2926 55.3044
14.3376 47.0407
14.3825 44.5878
14.4275 43.4309
14.4725 43.0138
14.5175 42.6213
14.5624 42.2229
14.6074 42.1219
14.6524 42.2029
14.6974 42.5513
14.7424 43.1597
14.7874 44.0609
14.8324 46.7586
14.8774 50.1968
14.9224 52.1158
14.9674 54.2718
15.0124 61.7409
15.0574 81.5428
15.1024 105.76
15.1474 99.6662
15.1924 74.9778
15.2374 57.2759
15.2824 48.4641
15.3274 45.1232
15.3725 43.3903
15.4175 42.686
15.4625 41.9501
15.5076 41.5185
15.5526 41.5425
15.5976 41.3604
15.6426 41.3765
15.6877 42.4251
15.7327 44.1522
15.7778 46.8474
15.8228 48.5081
15.8679 50.1914
15.9129 54.693
15.958 67.3518
16.003 89.4085
16.0481 101.28
16.0931 90.4524
16.1382 74.1178
16.1833 55.219
16.2283 44.4
16.2734 40.5988
16.3185 38.5566
16.3636 37.5263
16.4086 36.6759
16.4537 35.9465
16.4988 35.4086
16.5439 35.3263
16.589 35.0771
16.6341 34.7378
16.6792 34.5596
16.7243 34.6295
16.7694 34.4718
16.8145 34.2599
16.8596 34.6423
16.9047 35.3301
16.9498 38.7932
16.9949 42.9885
17.04 41.2262
17.0851 36.6448
17.1302 35.5062
17.1754 35.8929
17.2205 36.3388
17.2656 36.4017
17.3108 37.2174
17.3559 38.5203
17.401 41.9599
17.4462 46.8155
17.4913 47.0294
17.5365 42.4028
17.5815 38.9542
17.6268 37.6599
17.6718 37.1361
17.7171 37.6047
17.7622 38.9397
17.8074 43.3754
17.8525 45.0459
17.8977 42.1726
17.9428 41.5029
17.9881 42.53
18.0331 43.6012
18.0784 44.1482
18.1237 46.7301
18.1688 52.4142
18.214 64.9372
18.2591 78.7433
18.3044 76.4391
18.3495 61.6802
18.3948 52.5239
18.4399 51.7552
18.4852 56.8128
18.5303 62.4884
18.5756 59.3978
18.6207 52.9665
18.666 47.1858
18.7112 41.8076
18.7565 39.2323
18.8016 38.0596
18.8469 37.4175
18.892 36.9852
18.9374 36.6762
18.9825 36.1875
19.0278 36.0346
19.073 35.8938
19.1183 35.708
19.1635 35.8056
19.2088 36.3628
19.254 36.9799
19.2993 37.7669
19.3447 41.944
19.3898 47.7217
19.4352 48.0034
19.4804 44.8147
19.5257 44.6811
19.5709 43.4629
19.6163 40.0188
19.6615 37.1043
19.7068 35.3448
19.752 34.4774
19.7974 34.112
19.8426 33.804
19.888 33.6209
19.9332 33.8115
19.9786 34.0183
20.0238 33.8583
20.0692 34.0864
20.1144 34.8052
20.1598 36.2235
20.205 38.6547
20.2504 41.6245
20.2957 41.771
20.3411 39.0614
20.3863 37.2821
20.4318 37.8165
20.477 39.5061
20.5224 39.8265
20.5677 37.4622
20.6131 34.7143
20.6586 33.1412
20.7038 32.4758
20.7493 32.2978
20.7945 33.4053
20.84 35.2586
20.8853 34.9188
20.9307 32.5976
20.976 31.3111
21.0215 30.8467
21.0668 30.7341
21.1122 30.6261
21.1575 30.4556
21.203 30.307
21.2483 30.4762
21.2938 30.7399
21.3391 30.8988
21.3846 31.6486
21.4299 32.2388
21.4754 32.1428
21.5207 31.8306
21.5662 31.6264
21.6116 30.9509
21.6571 30.7934
21.7024 31.0519
21.7479 31.2244
21.7933 31.5766
21.8388 31.5769
21.8843 32.1292
21.9297 32.573
21.9752 33.9382
22.0206 36.3073
22.0661 38.7236
22.1115 39.92
22.157 39.2041
22.2024 38.4124
22.248 37.6133
22.2933 36.5776
22.3389 35.4936
22.3843 33.8754
22.4299 32.4291
22.4753 31.6836
22.5208 31.1849
22.5662 31.0104
22.6118 31.0058
22.6572 30.6894
22.7028 30.8115
22.7483 30.9036
22.7939 31.3705
22.8393 32.1473
22.8849 32.7077
22.9303 32.0888
22.9759 31.8381
23.0214 32.066
23.067 33.1199
23.1126 34.9655
23.1581 36.578
23.2037 36.1075
23.2492 34.0935
23.2948 32.4988
23.3403 31.8872
23.3859 31.8843
23.4314 32.4485
23.477 33.4438
23.5225 33.7407
23.5682 32.8495
23.6137 32.352
23.6593 32.665
23.7048 33.9006
23.7505 35.7568
23.796 36.762
23.8417 35.1352
23.8872 32.7416
23.9329 31.0965
23.9784 30.2711
24.0241 29.807
24.0697 29.6952
24.1154 29.4382
24.1609 29.28
24.2066 28.6946
24.2522 28.4878
24.2979 27.9966
24.3434 27.9918
24.3892 27.8003
24.4349 27.8011
24.4805 27.5186
24.5262 27.577
24.5718 27.4034
24.6175 27.5579
24.6631 28.0136
24.7089 28.2819
24.7545 28.5416
24.8002 28.0734
24.8458 27.5425
24.8916 27.0473
24.9372 27.0031
24.983 27.0299
25.0286 26.9959
25.0744 27.0561
25.12 26.8856
25.1658 27.0417
25.2114 27.1953
25.2572 27.5816
25.3029 28.0271
25.3487 28.5141
25.3943 28.3725
25.4402 28.1796
25.4858 28.3161
25.5316 28.7122
25.5773 28.7503
25.6231 28.261
25.669 27.2544
25.7147 26.8391
25.7605 26.4647
25.8062 26.4683
25.8521 26.7952
25.8977 26.8494
25.9436 26.6563
25.9893 26.2461
26.0352 26.1162
26.0809 25.9147
26.1268 25.9327
26.1725 26.0415
26.2184 26.3693
26.2641 26.5906
26.31 26.8571
26.3557 26.8081
26.4017 26.4397
26.4474 26.1891
26.4933 25.9661
26.5391 25.8973
26.585 25.8279
26.6308 25.8398
26.6767 25.8833
26.7225 26.0378
26.7684 26.5102
26.8142 26.9668
26.8601 27.4318
26.9059 27.5152
26.9519 27.1943
26.9979 27.3811
27.0437 27.1206
27.0896 26.6368
27.1354 25.9624
27.1814 25.5451
27.2272 25.3368
27.2732 25.2353
27.3191 25.0332
27.3651 25.0378
27.4109 24.8972
27.4569 24.8297
27.5027 24.8457
27.5488 24.964
27.5946 24.8663
27.6407 24.9086
27.6865 24.9215
27.7326 24.9705
27.7784 24.983
27.8245 24.9074
27.8703 24.715
27.9164 24.7184
27.9623 24.5362
28.0084 24.7146
28.0543 24.9944
28.1003 25.0112
28.1462 25.0254
28.1923 25.1704
28.2384 25.1673
28.2843 25.4955
28.3304 25.4376
28.3764 25.0936
28.4225 24.9057
28.4684 24.7306
28.5145 24.4659
28.5605 24.1333
28.6066 24.0019
28.6526 23.7614
28.6987 23.6209
28.7447 23.342
28.7908 23.1506
28.8368 23.0482
28.8829 22.9177
28.9289 22.8947
28.9751 22.9004
29.0211 22.7966
29.0673 22.8253
29.1133 22.9286
29.1595 22.913
29.2055 22.7542
29.2517 22.454
29.2977 22.4182
29.3439 22.1648
29.3899 22.2597
29.4361 22.1156
29.4824 22.0502
29.5284 22.1133
29.5746 22.084
29.6207 22.0895
29.6669 22.0543
29.713 22.0177
29.7593 21.708
29.8053 21.5844
29.8516 21.5386
29.8977 21.5386
29.9439 21.33
29.99 21.3798
30.0363 21.2788
30.0824 21.3902
30.1287 21.4092
30.1748 21.4225
30.2211 21.2568
30.2673 21.0282
30.3136 21.0471
30.3597 21.0455
30.406 21.1246
30.4522 21.0361
30.4985 21.0312
30.5447 21.0496
30.591 20.9415
30.6372 20.9023
30.6835 20.8346
30.7297 20.8141
30.7761 20.8592
30.8224 20.8244
30.8686 21.0191
30.915 21.1055
30.9612 21.1231
31.0076 21.107
31.0538 20.9909
31.1002 20.9338
31.1464 20.8647
31.1928 20.8381
31.2391 20.6587
31.2855 20.5056
31.3317 20.2902
31.3781 20.3338
31.4244 20.2553
31.4708 20.2107
31.5171 20.1336
31.5636 20.2388
31.6098 20.2391
31.6563 20.2098
31.7026 20.2545
31.7491 20.2379
31.7953 20.244
31.8418 20.0527
31.8881 19.9823
31.9346 19.8799
31.9809 19.7941
32.0275 19.7245
32.074 19.8037
32.1203 19.7876
32.1668 19.8105
32.2132 19.7687
32.2597 19.7359
32.306 19.6744
32.3526 19.4964
32.399 19.4429
32.4455 19.3099
32.4919 19.2591
32.5385 19.1417
32.5848 18.9916
32.6314 19.0111
32.6778 18.8956
32.7244 18.8323
32.7708 18.7147
32.8174 18.7597
32.8638 18.6392
32.9104 18.6276
32.9569 18.7084
33.0035 18.5902
33.0499 18.5533
33.0966 18.4533
33.143 18.4696
33.1897 18.325
33.2361 18.2939
33.2828 18.3363
33.3293 18.2391
33.3759 18.1902
33.4226 18.2306
33.4691 18.1195
33.5158 18.1719
33.5623 18.0943
33.609 18.025
33.6555 17.9624
33.7022 17.7476
33.7487 17.6722
33.7954 17.7429
33.842 17.5755
33.8887 17.5477
33.9353 17.5577
33.982 17.5269
34.0286 17.4064
34.0753 17.3771
34.1219 17.2862
34.1687 17.3138
34.2152 17.2912
34.262 17.1409
34.3086 16.998
34.3554 17.0616
34.402 16.9207
34.4488 16.8759
34.4954 16.8171
34.5422 16.8487
34.5889 16.8108
34.6357 16.7264
34.6825 16.7241
34.7292 16.5813
34.776 16.5849
34.8227 16.5343
34.8695 16.433
34.9162 16.4733
34.9631 16.2976
35.0098 16.3275
35.0566 16.2375
35.1033 16.215
35.1502 16.1412
35.1969 16.2359
35.2438 16.1323
35.2906 16.0912
35.3375 16.0614
35.3842 15.9926
35.4311 15.9158
35.4779 15.9737
35.5248 15.9107
35.5716 15.8661
35.6185 15.8723
35.6653 15.9085
35.7123 15.9057
35.759 15.8576
35.806 15.7793
35.8528 15.7633
35.8998 15.7113
35.9468 15.5805
35.9936 15.5043
36.0406 15.499
36.0874 15.3553
36.1345 15.377
36.1813 15.3636
36.2283 15.2737
36.2752 15.1961
36.3222 15.2158
36.3691 15.191
36.4161 15.1337
36.463 15.173
36.5101 15.1423
36.557 15.0454
36.6041 14.9722
36.651 14.9821
36.6981 14.9562
36.745 14.8327
36.7921 14.8235
36.839 14.7814
36.8861 14.7666
36.9331 14.7058
36.9802 14.6816
37.0272 14.5743
37.0743 14.5514
37.1213 14.5176
37.1684 14.4243
37.2154 14.444
37.2626 14.3525
37.3098 14.3296
37.3568 14.2183
37.404 14.2018
37.451 14.2059
37.4982 14.1108
37.5452 14.0416
37.5924 14.0368
37.6395 14.0954
37.6867 13.9539
37.7337 13.864
37.781 13.8675
37.8281 13.8473
37.8753 13.8156
37.9224 13.7906
37.9697 13.7176
38.0168 13.6542
38.064 13.6237
38.1111 13.5879
38.1584 13.5395
38.2056 13.5468
38.2529 13.4707
38.3 13.4019
38.3473 13.3675
38.3945 13.3303
38.4418 13.3045
38.489 13.2416
38.5363 13.2133
38.5837 13.1995
38.6309 13.1304
38.6782 13.0496
38.7254 13.0365
38.7728 13.0262
38.82 13.0035
38.8674 12.933
38.9146 12.8944
38.9621 12.9078
39.0093 12.8439
39.0567 12.7764
39.104 12.7565
39.1514 12.6772
39.1987 12.7024
39.2461 12.6703
39.2934 12.639
39.3409 12.5428
39.3882 12.4685
39.4356 12.4876
39.483 12.4599
39.5304 12.3534
39.5778 12.4131
39.6253 12.3576
39.6726 12.2756
39.7201 12.2653
39.7675 12.188
39.815 12.2158
39.8624 12.122
39.9099 12.0889
39.9575 12.0354
40.0049 12.041
40.0525 11.9926
40.0999 11.9849
40.1474 11.9263
40.1949 11.9338
40.2425 11.8277
40.2899 11.8623
40.3375 11.7735
40.385 11.7586
40.4326 11.662
40.48 11.6538
40.5277 11.6677
40.5752 11.6232
40.6228 11.6038
40.6703 11.543
40.718 11.5195
40.7655 11.4749
40.8132 11.4109
40.8607 11.402
40.9084 11.3694
40.9559 11.332
41.0036 11.3434
41.0512 11.2866
41.0989 11.2798
41.1465 11.1866
41.1942 11.2277
41.242 11.1021
41.2896 11.0836
41.3373 11.0714
41.3849 11.0238
41.4327 10.9854
41.4803 10.9407
41.5281 10.895
41.5758 10.8533
41.6236 10.8446
41.6712 10.8483
41.7191 10.759
41.7667 10.7004
41.8146 10.719
41.8622 10.7277
41.9101 10.6862
41.9578 10.6025
42.0057 10.576
42.0534 10.5899
42.1013 10.5649
42.149 10.5053
42.1969 10.4744
42.2446 10.3886
42.2925 10.4086
42.3403 10.3738
42.3882 10.3204
42.436 10.3106
42.4839 10.2269
42.5319 10.173
42.5797 10.1483
42.6277 10.1284
42.6755 10.0852
42.7235 10.0901
42.7713 10.0217
42.8193 10.0272
42.8671 9.98569
42.9152 9.97053
42.963 9.89071
43.0111 9.87514
43.0589 9.85987
43.107 9.74856
43.1549 9.73548
43.2029 9.72356
43.2508 9.72606
43.2989 9.65778
43.3468 9.63679
43.3949 9.60479
43.4429 9.63067
43.491 9.5497
43.5389 9.56446
43.5871 9.5026
43.635 9.44452
43.6832 9.43114
43.7312 9.40178
43.7793 9.35446
43.8273 9.31017
43.8755 9.31749
43.9237 9.29399
43.9717 9.25402
44.0199 9.22108
44.068 9.2236
44.1162 9.12233
44.1642 9.15675
44.2125 9.13286
44.2606 9.09353
44.3088 9.0357
44.3569 9.01685
44.4052 8.9555
44.4533 8.90139
44.5016 8.91178
44.5497 8.92509
44.598 8.86028
44.6461 8.84718
44.6945 8.808
44.7426 8.76385
44.791 8.75456
44.8391 8.72989
44.8875 8.69041
44.9357 8.68117
44.984 8.64162
45.0322 8.59531
45.0806 8.56088
45.1288 8.56688
45.1773 8.51485
45.2257 8.52028
45.2739 8.43327
45.3224 8.42438
45.3706 8.42628
45.4191 8.3346
45.4673 8.35204
45.5158 8.33181
45.5641 8.26274
45.6126 8.24968
45.6609 8.16501
45.7094 8.19497
45.7577 8.16501
45.8063 8.13971
45.8546 8.12309
45.9031 8.0802
45.9515 8.02674
46.0001 8.01752
46.0484 7.98121
46.097 7.9573
46.1454 7.90988
46.194 7.94147
46.2424 7.87898
46.291 7.87618
46.3395 7.84853
46.3881 7.82405
46.4365 7.81824
46.4852 7.73713
46.5337 7.72795
46.5823 7.71347
46.631 7.68917
46.6795 7.66309
46.7282 7.60793
46.7767 7.60523
46.8254 7.56807
46.8739 7.51703
46.9226 7.508
46.9712 7.46259
47.0199 7.44367
47.0685 7.43601
47.1173 7.40806
47.1658 7.35067
47.2146 7.35675
47.2632 7.32612
47.312 7.30461
47.3606 7.24665
47.4095 7.24973
47.4581 7.22942
47.5069 7.16733
47.5556 7.14575
47.6044 7.13091
47.6531 7.1003
47.702 7.06455
47.7507 7.05394
47.7996 7.00568
47.8483 7.03239
47.8972 7.01219
47.9461 6.97869
47.9948 6.92644
48.0438 6.9099
48.0925 6.8932
48.1415 6.87805
48.1902 6.82454
48.2392 6.83512
48.288 6.8218
48.337 6.79586
48.3858 6.73781
48.4348 6.72689
48.4837 6.71827
48.5327 6.69212
48.5815 6.64721
48.6306 6.68664
48.6795 6.62012
48.7285 6.57194
48.7774 6.53727
48.8265 6.52677
48.8754 6.49414
48.9245 6.47919
48.9734 6.4682
49.0226 6.44374
49.0715 6.40495
49.1206 6.39911
49.1696 6.35951
49.2188 6.36344
49.2679 6.32022
49.3169 6.28811
49.3661 6.28087
49.4151 6.24531
49.4643 6.21347
49.5134 6.22276
49.5626 6.1733
49.6117 6.19093
49.6609 6.15972
49.71 6.07156
49.7592 6.13277
49.8083 6.07031
49.8576 6.05727
49.9067 6.02154
49.956 6.02955
50.0052 6.00264
50.0545 6.00695
50.1036 5.957
50.153 5.93658
50.2022 5.90442
50.2515 5.87846
50.3007 5.83539
50.3501 5.84156
50.3993 5.78826
50.4487 5.78983
50.498 5.7856
50.5474 5.75353
50.5966 5.75866
50.6461 5.73103
50.6955 5.72235
50.7448 5.69242
50.7943 5.6806
50.8436 5.66802
50.8931 5.60225
50.9424 5.6045
50.9919 5.60698
51.0413 5.5702
51.0908 5.52962
51.1402 5.49359
51.1897 5.48007
51.2391 5.50383
51.2887 5.4436
51.3381 5.41417
51.3877 5.45247
51.4371 5.36902
51.4867 5.35764
51.5362 5.32429
51.5858 5.31288
51.6353 5.28801
51.6849 5.23929
51.7344 5.25913
51.7841 5.27116
51.8336 5.21387
51.8833 5.20407
51.9328 5.15791
51.9826 5.16151
52.0323 5.12149
52.0818 5.10345
52.1316 5.07814
52.1812 5.09718
52.231 5.08149
52.2806 5.01172
52.3304 5.03055
52.38 4.98763
52.4298 4.95795
52.4794 4.95774
52.5293 4.92191
52.5789 4.94528
52.6288 4.90822
52.6785 4.89744
52.7284 4.8754
52.7781 4.85412
52.828 4.8376
52.8777 4.78735
52.9276 4.78729
52.9774 4.7784
53.0273 4.7671
53.0771 4.74091
53.1271 4.73609
53.1769 4.66896
53.2269 4.70709
53.2767 4.64227
53.3267 4.62007
53.3765 4.61906
53.4266 4.60925
53.4766 4.56191
53.5265 4.53239
53.5765 4.51172
53.6264 4.53592
53.6765 4.48599
53.7264 4.44709
53.7765 4.48659
53.8265 4.42874
53.8766 4.46209
53.9266 4.36841
53.9767 4.37624
54.0267 4.33738
54.0769 4.33326
54.1269 4.29986
54.1771 4.25917
54.2271 4.24753
54.2773 4.19595
54.3274 4.23487
54.3776 4.17755
54.4277 4.14873
54.478 4.09404
54.528 4.06611
54.5783 4.02185
54.6285 3.99607
54.6788 4.00721
54.7289 3.92883
54.7792 3.9338
54.8296 3.86291
54.8798 3.83571
54.9301 3.85933
54.9803 3.83324
55.0307 3.77775
55.0809 3.74738
55.1314 3.68225
55.1816 3.65192
55.232 3.61873
55.2823 3.60172
55.3328 3.55401
55.383 3.48913
55.4335 3.51386
55.4838 3.41258
55.5344 3.43205
55.5847 3.43569
55.6352 3.41302
55.6856 3.36499
55.7361 3.33292