File: XRD/Ni3Fe_FD0821.xy
TT I
1.27165 7.21663
1.31627 6.80859
1.36089 6.28131
1.40551 5.19927
1.45013 6.21827
1.49476 6.05756
1.53938 5.51634
1.584 5.50805
1.62863 5.1082
1.67325 4.84474
1.71787 4.51896
1.7625 4.59195
1.80712 4.46099
1.85174 4.78665
1.89636 4.39845
1.94099 4.94379
1.98562 4.33082
2.03025 4.67091
2.07487 4.40357
2.11949 5.24514
2.16411 4.70559
2.20874 8.18855
2.25338 10.7658
2.298 5.51593
2.34263 4.86241
2.38725 6.43348
2.43188 6.07436
2.4765 6.65515
2.52115 7.07419
2.56577 7.64044
2.6104 8.34648
2.65503 7.76898
2.69965 8.28211
2.7443 8.42327
2.78893 7.95169
2.83356 8.0108
2.87818 8.58763
2.92281 8.93195
2.96744 9.78649
3.01209 10.3007
3.05672 10.2729
3.10135 12.1679
3.14599 13.0946
3.19062 14.4038
3.23527 14.8547
3.2799 15.469
3.32454 16.5837
3.36917 17.6575
3.4138 18.7707
3.45844 19.4141
3.50309 20.1817
3.54773 21.0312
3.59237 23.0486
3.637 47.0222
3.68164 35.4767
3.7263 25.1655
3.77094 25.5548
3.81558 26.585
3.86022 27.4561
3.90486 28.7067
3.9495 29.4449
3.99416 30.1065
4.0388 31.5141
4.08344 33.198
4.12809 33.925
4.17273 35.3883
4.21738 39.1984
4.26204 112.665
4.30669 99.7643
4.35133 43.9193
4.39598 43.0655
4.44063 47.49
4.4853 52.9216
4.52995 56.9758
4.5746 57.9075
4.61925 53.2758
4.6639 55.3182
4.70855 57.9888
4.75322 61.319
4.79788 68.5598
4.84253 68.2944
4.88719 75.3717
4.93184 76.4026
4.97652 80.2051
5.02118 86.581
5.06583 94.2721
5.11049 105.568
5.15515 155.737
5.19981 401.964
5.24449 2882.19
5.28916 12421.5
5.33382 2461.85
5.37848 193.474
5.42315 129.642
5.46783 119.977
5.5125 112.834
5.55716 101.564
5.60183 97.5999
5.6465 95.6294
5.69117 93.8154
5.73586 92.0003
5.78053 98.6905
5.8252 98.2938
5.86988 101.636
5.91455 94.5492
5.95924 103.886
6.00392 241.632
6.0486 967.739
6.09328 4584.63
6.13795 3001.13
6.18263 205.184
6.22733 89.2391
6.27201 79.3252
6.3167 83.0393
6.36138 73.56
6.40606 69.3463
6.45075 69.956
6.49545 64.666
6.54014 63.1267
6.58483 62.4709
6.62952 62.4015
6.67421 71.5899
6.71892 85.8929
6.76361 61.3668
6.8083 59.3741
6.853 59.932
6.89769 56.3988
6.94239 55.4979
6.98711 55.0836
7.03181 55.4568
7.07651 54.0693
7.12121 53.9204
7.16591 55.831
7.21063 55.2704
7.25533 59.2581
7.30004 94.8909
7.34475 65.9414
7.38945 54.1321
7.43416 52.9925
7.47889 53.1927
7.5236 53.7277
7.56831 54.6052
7.61303 54.7155
7.65774 55.4534
7.70247 56.585
7.74719 55.832
7.79191 55.9465
7.83663 56.0039
7.88135 57.2036
7.92607 57.9202
7.97081 59.0793
8.01553 60.4689
8.06026 62.3064
8.10498 63.8174
8.14971 70.656
8.19446 70.4013
8.23919 68.975
8.28392 71.3058
8.32865 73.3437
8.37339 78.2794
8.41812 83.0977
8.46288 101.43
8.50761 177.976
8.55235 382.143
8.59709 1221.2
8.64183 2203.8
8.68658 839.656
8.73134 146.013
8.77609 96.9661
8.82083 91.788
8.86558 92.3006
8.91033 91.9986
8.9551 88.9611
8.99985 84.5003
9.04461 83.3956
9.08936 84.0291
9.13412 82.1952
9.17888 81.4678
9.22365 81.4384
9.26841 81.5847
9.31318 84.2993
9.35794 86.6168
9.4027 86.1709
9.44749 84.6453
9.49226 84.1672
9.53703 85.4105
9.5818 89.2163
9.62657 94.2266
9.67134 94.8585
9.71614 92.2755
9.76091 94.3639
9.80569 98.9941
9.85047 101.07
9.89525 110.645
9.94005 126.111
9.98484 189.766
10.0296 343.498
10.0744 839.471
10.1192 1830.9
10.164 1512.4
10.2088 347.441
10.2536 120.184
10.2984 108.356
10.3432 107.021
10.388 104.245
10.4328 121.267
10.4776 162.587
10.5224 296.09
10.5672 539.389
10.612 490.404
10.6568 183.897
10.7017 93.8129
10.7465 85.3145
10.7913 82.3376
10.8361 80.1809
10.8809 78.3416
10.9257 77.2918
10.9706 77.6095
11.0154 74.844
11.0602 72.1421
11.105 70.7226
11.1499 71.7089
11.1947 73.254
11.2395 69.0581
11.2844 67.9841
11.3292 66.0567
11.374 65.0998
11.4189 65.0825
11.4637 64.474
11.5086 64.0633
11.5534 64.7787
11.5983 63.5376
11.6431 62.7475
11.688 62.3068
11.7328 61.8843
11.7777 62.3118
11.8225 62.1493
11.8674 61.7032
11.9122 62.2291
11.9571 62.3895
12.002 64.0922
12.0468 68.2135
12.0917 77.9112
12.1366 103.064
12.1814 160.639
12.2263 214.945
12.2712 162.25
12.3161 86.3703
12.3609 65.9641
12.4058 63.2042
12.4507 63.2647
12.4956 64.1464
12.5405 64.5553
12.5853 64.6106
12.6302 67.2251
12.6751 69.4681
12.72 67.4011
12.7649 67.0506
12.8098 67.7611
12.8547 69.3167
12.8996 70.5365
12.9445 72.3998
12.9894 74.2788
13.0343 75.7244
13.0792 80.1794
13.1242 91.9865
13.1691 111.291
13.214 149.387
13.2589 249.393
13.3038 392.82
13.3487 412.392
13.3937 233.997
13.4386 117.782
13.4835 105.936
13.5285 120.321
13.5734 161.852
13.6183 259.198
13.6633 365.221
13.7082 328.018
13.7531 169.563
13.7981 93.2809
13.843 80.819
13.888 78.7772
13.9329 76.4574
13.9779 75.0516
14.0228 73.6835
14.0678 72.3176
14.1127 71.7081
14.1577 70.9692
14.2027 70.5705
14.2476 69.9239
14.2926 69.7122
14.3376 69.704
14.3825 69.2149
14.4275 68.2053
14.4725 67.9534
14.5175 68.3354
14.5624 68.4362
14.6074 68.9652
14.6524 69.5699
14.6974 69.8885
14.7424 73.3394
14.7874 78.9847
14.8324 88.7722
14.8774 111.769
14.9224 160.237
14.9674 218.771
15.0124 219.382
15.0574 139.872
15.1024 85.7139
15.1474 71.0075
15.1924 69.4571
15.2374 68.9056
15.2824 67.7288
15.3274 66.8652
15.3725 66.0706
15.4175 65.5688
15.4625 65.3451
15.5076 65.121
15.5526 65.1791
15.5976 65.2688
15.6426 67.7083
15.6877 72.4154
15.7327 79.5607
15.7778 95.768
15.8228 130.105
15.8679 177.051
15.9129 197.439
15.958 146.536
16.003 88.5776
16.0481 65.6425
16.0931 62.3926
16.1382 60.8589
16.1833 59.5733
16.2283 58.0852
16.2734 57.457
16.3185 57.2219
16.3636 57.0227
16.4086 56.0442
16.4537 55.3652
16.4988 54.5566
16.5439 54.8933
16.589 54.4259
16.6341 54.3451
16.6792 53.8871
16.7243 54.3276
16.7694 54.1868
16.8145 54.1508
16.8596 54.4532
16.9047 54.8639
16.9498 55.1426
16.9949 54.8996
17.04 55.6605
17.0851 56.7675
17.1302 58.3399
17.1754 61.0825
17.2205 66.9499
17.2656 75.1216
17.3108 84.1288
17.3559 80.8727
17.401 68.6646
17.4462 60.7051
17.4913 58.6684
17.5365 58.5469
17.5815 58.5657
17.6268 59.0786
17.6718 59.6821
17.7171 60.0475
17.7622 60.8424
17.8074 62.0961
17.8525 64.6029
17.8977 67.9745
17.9428 73.2683
17.9881 82.9365
18.0331 101.873
18.0784 125.658
18.1237 141.586
18.1688 126.49
18.214 98.8301
18.2591 84.9321
18.3044 91.1817
18.3495 101.79
18.3948 104.919
18.4399 91.858
18.4852 73.9658
18.5303 64.2055
18.5756 61.2788
18.6207 60.781
18.666 59.6632
18.7112 59.1703
18.7565 58.3946
18.8016 57.9801
18.8469 57.6127
18.892 57.1525
18.9374 56.7576
18.9825 56.3797
19.0278 56.1136
19.073 56.5121
19.1183 56.6752
19.1635 57.0274
19.2088 58.753
19.254 61.8927
19.2993 66.724
19.3447 72.6918
19.3898 75.6727
19.4352 69.9256
19.4804 61.0228
19.5257 55.4042
19.5709 53.4997
19.6163 53.2321
19.6615 53.081
19.7068 52.7589
19.752 52.6279
19.7974 53.2189
19.8426 53.8587
19.888 54.2017
19.9332 55.7541
19.9786 58.5087
20.0238 62.78
20.0692 67.8409
20.1144 69.676
20.1598 66.9955
20.205 62.2252
20.2504 61.6251
20.2957 64.0914
20.3411 65.5551
20.3863 62.722
20.4318 56.6316
20.477 52.3964
20.5224 50.4296
20.5677 50.0701
20.6131 49.7733
20.6586 49.044
20.7038 48.9513
20.7493 48.4503
20.7945 48.4148
20.84 48.2507
20.8853 48.2679
20.9307 48.1942
20.976 48.3511
21.0215 48.0737
21.0668 48.5308
21.1122 49.0441
21.1575 49.7448
21.203 50.3312
21.2483 51.0097
21.2938 50.9998
21.3391 49.3015
21.3846 48.3308
21.4299 47.88
21.4754 47.9216
21.5207 48.1847
21.5662 48.575
21.6116 48.8182
21.6571 49.3758
21.7024 50.4477
21.7479 52.53
21.7933 55.1823
21.8388 58.9679
21.8843 62.8853
21.9297 64.1048
21.9752 61.6818
22.0206 58.0742
22.0661 55.7724
22.1115 55.6627
22.157 55.3761
22.2024 53.2454
22.248 50.4959
22.2933 49.2952
22.3389 48.4828
22.3843 48.3378
22.4299 48.116
22.4753 48.1605
22.5208 48.0636
22.5662 48.0525
22.6118 48.2386
22.6572 48.4413
22.7028 48.9603
22.7483 49.147
22.7939 50.1604
22.8393 51.5686
22.8849 53.862
22.9303 56.1833
22.9759 57.5156
23.0214 56.4226
23.067 53.418
23.1126 50.356
23.1581 48.6412
23.2037 48.1854
23.2492 48.3538
23.2948 48.3998
23.3403 48.592
23.3859 49.3417
23.4314 50.5099
23.477 52.4769
23.5225 54.9874
23.5682 57.1463
23.6137 57.3938
23.6593 54.3327
23.7048 50.2913
23.7505 47.3295
23.796 46.035
23.8417 45.5348
23.8872 45.0154
23.9329 44.8021
23.9784 44.3712
24.0241 44.0683
24.0697 43.9929
24.1154 43.7172
24.1609 43.4406
24.2066 43.3071
24.2522 43.2845
24.2979 42.9296
24.3434 42.8468
24.3892 42.6226
24.4349 42.5588
24.4805 42.5919
24.5262 42.5876
24.5718 42.5946
24.6175 42.4944
24.6631 42.2369
24.7089 41.8771
24.7545 41.9142
24.8002 41.8411
24.8458 41.6844
24.8916 41.6957
24.9372 41.8216
24.983 42.1715
25.0286 42.4278
25.0744 43.07
25.12 43.4099
25.1658 44.0577
25.2114 44.2532
25.2572 44.3871
25.3029 44.3375
25.3487 44.4906
25.3943 44.0754
25.4402 42.7556
25.4858 41.7687
25.5316 40.9945
25.5773 40.5392
25.6231 40.4562
25.669 40.1309
25.7147 40.1672
25.7605 40.0048
25.8062 39.9232
25.8521 40.2565
25.8977 40.1445
25.9436 40.4823
25.9893 40.6833
26.0352 41.1278
26.0809 41.2357
26.1268 41.2431
26.1725 40.815
26.2184 40.2198
26.2641 39.8589
26.31 39.6066
26.3557 39.7521
26.4017 39.7726
26.4474 40.0516
26.4933 40.4345
26.5391 40.7912
26.585 41.441
26.6308 41.714
26.6767 41.8062
26.7225 41.5226
26.7684 40.9325
26.8142 40.4698
26.8601 40.1784
26.9059 39.5216
26.9519 39.0837
26.9979 38.8622
27.0437 38.3714
27.0896 38.2734
27.1354 38.3759
27.1814 38.2744
27.2272 38.1536
27.2732 38.2061
27.3191 37.959
27.3651 38.0586
27.4109 38.0542
27.4569 38.0472
27.5027 38.2546
27.5488 38.2058
27.5946 38.0286
27.6407 37.7529
27.6865 37.6358
27.7326 37.388
27.7784 37.5374
27.8245 37.4553
27.8703 37.6187
27.9164 37.9521
27.9623 38.0532
28.0084 38.5172
28.0543 38.9385
28.1003 38.6309
28.1462 38.3789
28.1923 38.1302
28.2384 37.5489
28.2843 37.0908
28.3304 36.7497
28.3764 36.1565
28.4225 35.9707
28.4684 35.95
28.5145 35.5901
28.5605 35.5083
28.6066 35.2962
28.6526 35.153
28.6987 35.0576
28.7447 35.0596
28.7908 35.0325
28.8368 35.1137
28.8829 35.0812
28.9289 35.0145
28.9751 34.6905
29.0211 34.6212
29.0673 34.3291
29.1133 34.1128
29.1595 34.0362
29.2055 33.9632
29.2517 33.9562
29.2977 33.9767
29.3439 34.0087
29.3899 33.9619
29.4361 33.7496
29.4824 33.571
29.5284 33.3241
29.5746 33.0681
29.6207 32.8062
29.6669 32.7026
29.713 32.66
29.7593 32.4217
29.8053 32.5382
29.8516 32.4619
29.8977 32.355
29.9439 32.2431
29.99 32.1256
30.0363 32.0718
30.0824 32.3141
30.1287 32.0506
30.1748 32.1584
30.2211 32.1134
30.2673 32.0011
30.3136 32.0719
30.3597 31.922
30.406 31.8515
30.4522 31.6567
30.4985 31.7453
30.5447 31.8026
30.591 31.8178
30.6372 31.9135
30.6835 31.8719
30.7297 31.98
30.7761 31.8363
30.8224 31.7013
30.8686 31.451
30.915 31.2451
30.9612 31.164
31.0076 30.935
31.0538 30.8364
31.1002 30.7573
31.1464 30.6016
31.1928 30.5636
31.2391 30.5861
31.2855 30.5626
31.3317 30.5137
31.3781 30.6053
31.4244 30.5061
31.4708 30.6219
31.5171 30.592
31.5636 30.4099
31.6098 30.1581
31.6563 30.0571
31.7026 29.9516
31.7491 29.8479
31.7953 29.8308
31.8418 29.8124
31.8881 29.8124
31.9346 29.742
31.9809 29.6809
32.0275 29.5302
32.074 29.5216
32.1203 29.3607
32.1668 29.1801
32.2132 28.9984
32.2597 28.8764
32.306 28.8971
32.3526 28.69
32.399 28.6485
32.4455 28.4582
32.4919 28.3926
32.5385 28.3065
32.5848 28.2029
32.6314 28.232
32.6778 28.152
32.7244 27.9465
32.7708 27.8064
32.8174 27.8778
32.8638 27.6764
32.9104 27.7346
32.9569 27.7696
33.0035 27.5375
33.0499 27.5647
33.0966 27.5006
33.143 27.4787
33.1897 27.3912
33.2361 27.3896
33.2828 27.3
33.3293 27.1249
33.3759 27.0476
33.4226 26.9983
33.4691 26.8223
33.5158 26.6745
33.5623 26.6022
33.609 26.4678
33.6555 26.4114
33.7022 26.2654
33.7487 26.1851
33.7954 26.2065
33.842 26.1233
33.8887 26.0897
33.9353 25.9876
33.982 25.8096
34.0286 25.7704
34.0753 25.6813
34.1219 25.5491
34.1687 25.5428
34.2152 25.4832
34.262 25.3738
34.3086 25.3301
34.3554 25.2942
34.402 25.1083
34.4488 25.0251
34.4954 25.0046
34.5422 24.8956
34.5889 24.7268
34.6357 24.742
34.6825 24.6352
34.7292 24.6448
34.776 24.4223
34.8227 24.4025
34.8695 24.4129
34.9162 24.4019
34.9631 24.2051
35.0098 24.1629
35.0566 24.1047
35.1033 24.0371
35.1502 24.0605
35.1969 23.9437
35.2438 23.9443
35.2906 23.8
35.3375 23.7857
35.3842 23.8157
35.4311 23.719
35.4779 23.6917
35.5248 23.6217
35.5716 23.496
35.6185 23.4234
35.6653 23.3303
35.7123 23.3057
35.759 23.2258
35.806 23.0317
35.8528 23.0292
35.8998 23.0225
35.9468 22.8537
35.9936 22.8921
36.0406 22.7852
36.0874 22.7673
36.1345 22.6765
36.1813 22.5525
36.2283 22.4518
36.2752 22.3304
36.3222 22.4472
36.3691 22.2896
36.4161 22.2305
36.463 22.2138
36.5101 22.1671
36.557 22.1753
36.6041 21.899
36.651 21.9855
36.6981 21.8445
36.745 21.7908
36.7921 21.746
36.839 21.6704
36.8861 21.4967
36.9331 21.5398
36.9802 21.474
37.0272 21.3342
37.0743 21.2681
37.1213 21.19
37.1684 21.2369
37.2154 21.0955
37.2626 21.0339
37.3098 20.9579
37.3568 20.8765
37.404 20.9134
37.451 20.7779
37.4982 20.6825
37.5452 20.608
37.5924 20.6121
37.6395 20.6125
37.6867 20.487
37.7337 20.4349
37.781 20.3166
37.8281 20.2602
37.8753 20.1782
37.9224 20.0961
37.9697 20.0026
38.0168 19.9722
38.064 19.9342
38.1111 19.8601
38.1584 19.8349
38.2056 19.7093
38.2529 19.665
38.3 19.5808
38.3473 19.6021
38.3945 19.4522
38.4418 19.3515
38.489 19.3596
38.5363 19.3653
38.5837 19.2044
38.6309 19.167
38.6782 19.1267
38.7254 19.0223
38.7728 19.0244
38.82 18.9171
38.8674 18.8366
38.9146 18.8416
38.9621 18.6455
39.0093 18.7442
39.0567 18.6767
39.104 18.6276
39.1514 18.4646
39.1987 18.4574
39.2461 18.5138
39.2934 18.3694
39.3409 18.2161
39.3882 18.1938
39.4356 18.157
39.483 18.1923
39.5304 18.0611
39.5778 18.0371
39.6253 17.9278
39.6726 17.9125
39.7201 17.9447
39.7675 17.7749
39.815 17.7285
39.8624 17.6823
39.9099 17.6397
39.9575 17.6247
40.0049 17.5878
40.0525 17.4146
40.0999 17.453
40.1474 17.3247
40.1949 17.2513
40.2425 17.2088
40.2899 17.1682
40.3375 17.1143
40.385 17.0348
40.4326 17.0391
40.48 16.9032
40.5277 16.8995
40.5752 16.8408
40.6228 16.7191
40.6703 16.7855
40.718 16.7301
40.7655 16.6647
40.8132 16.5485
40.8607 16.555
40.9084 16.5756
40.9559 16.4034
41.0036 16.4277
41.0512 16.2812
41.0989 16.2931
41.1465 16.1888
41.1942 16.2107
41.242 16.0915
41.2896 16.0386
41.3373 15.9735
41.3849 15.9484
41.4327 15.896
41.4803 15.7664
41.5281 15.7843
41.5758 15.7417
41.6236 15.6878
41.6712 15.5415
41.7191 15.568
41.7667 15.5144
41.8146 15.4478
41.8622 15.3943
41.9101 15.4369
41.9578 15.2696
42.0057 15.2683
42.0534 15.2126
42.1013 15.1652
42.149 15.1562
42.1969 15.0472
42.2446 15.0275
42.2925 14.9679
42.3403 14.8533
42.3882 14.8394
42.436 14.8134
42.4839 14.7297
42.5319 14.7046
42.5797 14.6199
42.6277 14.5997
42.6755 14.558
42.7235 14.4503
42.7713 14.4903
42.8193 14.3482
42.8671 14.3509
42.9152 14.3248
42.963 14.3156
43.0111 14.1901
43.0589 14.1379
43.107 14.0652
43.1549 14.0968
43.2029 13.9728
43.2508 13.9959
43.2989 13.8817
43.3468 13.8952
43.3949 13.8557
43.4429 13.8036
43.491 13.7141
43.5389 13.6803
43.5871 13.6553
43.635 13.5609
43.6832 13.5541
43.7312 13.4891
43.7793 13.4712
43.8273 13.3898
43.8755 13.3651
43.9237 13.32
43.9717 13.3196
44.0199 13.1685
44.068 13.1912
44.1162 13.0832
44.1642 13.1135
44.2125 13.0636
44.2606 13.0105
44.3088 12.9684
44.3569 12.8883
44.4052 12.8826
44.4533 12.8157
44.5016 12.7317
44.5497 12.7254
44.598 12.6886
44.6461 12.6506
44.6945 12.6257
44.7426 12.5263
44.791 12.4849
44.8391 12.4596
44.8875 12.465
44.9357 12.3951
44.984 12.3881
45.0322 12.2653
45.0806 12.2755
45.1288 12.2269
45.1773 12.169
45.2257 12.123
45.2739 12.0818
45.3224 12.0299
45.3706 12.0197
45.4191 11.9225
45.4673 11.8926
45.5158 11.8734
45.5641 11.7991
45.6126 11.7957
45.6609 11.7483
45.7094 11.728
45.7577 11.6651
45.8063 11.5962
45.8546 11.5868
45.9031 11.5198
45.9515 11.5004
46.0001 11.4396
46.0484 11.3909
46.097 11.3566
46.1454 11.3174
46.194 11.2721
46.2424 11.2488
46.291 11.2249
46.3395 11.128
46.3881 11.0939
46.4365 11.0954
46.4852 11.0199
46.5337 10.9942
46.5823 11.0182
46.631 10.9202
46.6795 10.8947
46.7282 10.8418
46.7767 10.7805
46.8254 10.7035
46.8739 10.7114
46.9226 10.6958
46.9712 10.642
47.0199 10.5885
47.0685 10.552
47.1173 10.5183
47.1658 10.4255
47.2146 10.4482
47.2632 10.3849
47.312 10.3639
47.3606 10.3012
47.4095 10.27
47.4581 10.2369
47.5069 10.1763
47.5556 10.1402
47.6044 10.1004
47.6531 10.083
47.702 9.97784
47.7507 10.0445
47.7996 9.97301
47.8483 9.96483
47.8972 9.93105
47.9461 9.90437
47.9948 9.83671
48.0438 9.79785
48.0925 9.77501
48.1415 9.76236
48.1902 9.66409
48.2392 9.73386
48.288 9.63965
48.337 9.57104
48.3858 9.56476
48.4348 9.5317
48.4837 9.50693
48.5327 9.4591
48.5815 9.43386
48.6306 9.40491
48.6795 9.35654
48.7285 9.29907
48.7774 9.29197
48.8265 9.28614
48.8754 9.23557
48.9245 9.18245
48.9734 9.16216
49.0226 9.15288
49.0715 9.05412
49.1206 9.01111
49.1696 8.99039
49.2188 8.98109
49.2679 8.92375
49.3169 8.90859
49.3661 8.84482
49.4151 8.80092
49.4643 8.79836
49.5134 8.77792
49.5626 8.72816
49.6117 8.68035
49.6609 8.65291
49.71 8.61662
49.7592 8.5993
49.8083 8.59321
49.8576 8.55723
49.9067 8.45516
49.956 8.49259
50.0052 8.44609
50.0545 8.4309
50.1036 8.36323
50.153 8.37218
50.2022 8.30559
50.2515 8.28449
50.3007 8.24041
50.3501 8.21188
50.3993 8.19386
50.4487 8.17298
50.498 8.11471
50.5474 8.09581
50.5966 8.05891
50.6461 8.02225
50.6955 8.00463
50.7448 7.9754
50.7943 7.91348
50.8436 7.882
50.8931 7.86952
50.9424 7.83415
50.9919 7.81432
51.0413 7.80103
51.0908 7.747
51.1402 7.73303
51.1897 7.68255
51.2391 7.67689
51.2887 7.58066
51.3381 7.58245
51.3877 7.57018
51.4371 7.53747
51.4867 7.4737
51.5362 7.48881
51.5858 7.47163
51.6353 7.39885
51.6849 7.34105
51.7344 7.3304
51.7841 7.32679
51.8336 7.24987
51.8833 7.26017
51.9328 7.20892
51.9826 7.17654
52.0323 7.16183
52.0818 7.14115
52.1316 7.07356
52.1812 7.08593
52.231 7.04837
52.2806 7.00187
52.3304 6.96808
52.38 6.97575
52.4298 6.93747
52.4794 6.89567
52.5293 6.8344
52.5789 6.81487
52.6288 6.84439
52.6785 6.7741
52.7284 6.75094
52.7781 6.75815
52.828 6.67603
52.8777 6.68595
52.9276 6.67085
52.9774 6.6621
53.0273 6.63972
53.0771 6.58495
53.1271 6.55457
53.1769 6.48864
53.2269 6.47653
53.2767 6.4328
53.3267 6.46366
53.3765 6.41216
53.4266 6.38087
53.4766 6.31331
53.5265 6.29321
53.5765 6.26005
53.6264 6.24585
53.6765 6.22476
53.7264 6.19337
53.7765 6.22159
53.8265 6.13952
53.8766 6.11686
53.9266 6.08479
53.9767 6.10378
54.0267 6.0829
54.0769 6.01356
54.1269 5.99894
54.1771 5.94448
54.2271 5.94034
54.2773 5.91864
54.3274 5.84676
54.3776 5.78426
54.4277 5.86466
54.478 5.76009
54.528 5.76094
54.5783 5.70319
54.6285 5.65059
54.6788 5.62026
54.7289 5.57831
54.7792 5.55064
54.8296 5.47386
54.8798 5.4788
54.9301 5.40285
54.9803 5.34674
55.0307 5.39923
55.0809 5.27652
55.1314 5.29264
55.1816 5.22057
55.232 5.16765
55.2823 5.15457
55.3328 5.11876
55.383 4.98474
55.4335 5.01323
55.4838 4.94575
55.5344 4.92281
55.5847 4.8689
55.6352 4.87884
55.6856 4.75417
55.7361 4.78514