File: XRD/Ni3Fe_FD0578.xy
TT I
1.27165 7.75906
1.31627 6.51387
1.36089 6.82311
1.40551 6.089
1.45013 5.91751
1.49476 5.60985
1.53938 5.54822
1.584 5.08739
1.62863 5.30076
1.67325 5.04934
1.71787 4.48351
1.7625 4.90913
1.80712 5.34718
1.85174 5.08494
1.89636 4.25318
1.94099 4.69646
1.98562 4.50805
2.03025 4.51552
2.07487 4.20018
2.11949 4.90537
2.16411 4.80462
2.20874 9.37798
2.25338 13.5975
2.298 5.96949
2.34263 5.2419
2.38725 5.27364
2.43188 5.03155
2.4765 6.18237
2.52115 7.05797
2.56577 6.74306
2.6104 7.64107
2.65503 7.28527
2.69965 8.29885
2.7443 8.25766
2.78893 8.10844
2.83356 8.66966
2.87818 8.11462
2.92281 8.81675
2.96744 9.15932
3.01209 10.614
3.05672 10.9131
3.10135 12.28
3.14599 12.6566
3.19062 14.3627
3.23527 14.5263
3.2799 15.7734
3.32454 15.9758
3.36917 17.5181
3.4138 18.9699
3.45844 19.8252
3.50309 20.7523
3.54773 21.2963
3.59237 23.2195
3.637 57.1826
3.68164 40.9481
3.7263 25.6536
3.77094 26.595
3.81558 27.0003
3.86022 27.6381
3.90486 28.4832
3.9495 29.5532
3.99416 30.1994
4.0388 31.591
4.08344 33.2125
4.12809 34.2416
4.17273 37.0154
4.21738 40.4436
4.26204 146.463
4.30669 125.657
4.35133 45.3957
4.39598 43.8052
4.44063 49.7645
4.4853 56.804
4.52995 52.4704
4.5746 54.0834
4.61925 53.978
4.6639 56.4646
4.70855 58.4861
4.75322 62.0123
4.79788 66.4006
4.84253 69.1218
4.88719 73.725
4.93184 76.9014
4.97652 82.4872
5.02118 88.9475
5.06583 97.4073
5.11049 109.119
5.15515 163.741
5.19981 468.488
5.24449 3219.81
5.28916 12252.8
5.33382 2783.67
5.37848 198.04
5.42315 131.917
5.46783 117.645
5.5125 109.925
5.55716 104.088
5.60183 99.2439
5.6465 97.7142
5.69117 95.4936
5.73586 93.6936
5.78053 95.8485
5.8252 95.7068
5.86988 96.6503
5.91455 97.2629
5.95924 109.434
6.00392 268.884
6.0486 1109.66
6.09328 4437.04
6.13795 3328.95
6.18263 242.815
6.22733 93.7261
6.27201 82.582
6.3167 88.6262
6.36138 76.2909
6.40606 69.6466
6.45075 68.2399
6.49545 65.6344
6.54014 64.1827
6.58483 63.1647
6.62952 63.0315
6.67421 78.2133
6.71892 102.302
6.76361 63.8064
6.8083 59.3257
6.853 58.9873
6.89769 57.2069
6.94239 57.0356
6.98711 56.1398
7.03181 55.9241
7.07651 55.4609
7.12121 55.0571
7.16591 55.643
7.21063 54.936
7.25533 63.3491
7.30004 117.334
7.34475 72.9956
7.38945 55.5401
7.43416 54.3187
7.47889 54.2151
7.5236 54.7748
7.56831 55.3686
7.61303 56.023
7.65774 56.7461
7.70247 56.8437
7.74719 56.5219
7.79191 57.1139
7.83663 56.9383
7.88135 58.1493
7.92607 58.9068
7.97081 60.426
8.01553 61.0042
8.06026 62.945
8.10498 64.2661
8.14971 71.1711
8.19446 70.9021
8.23919 70.3363
8.28392 72.2591
8.32865 74.9971
8.37339 79.6492
8.41812 85.584
8.46288 107.697
8.50761 195.388
8.55235 439.307
8.59709 1241.57
8.64183 2194.53
8.68658 924.522
8.73134 158.433
8.77609 99.3379
8.82083 93.2881
8.86558 91.7029
8.91033 90.6439
8.9551 89.6167
8.99985 85.8559
9.04461 84.3
9.08936 84.2125
9.13412 82.9971
9.17888 82.7035
9.22365 83.198
9.26841 82.9024
9.31318 84.2278
9.35794 85.2337
9.4027 84.9558
9.44749 84.8368
9.49226 85.386
9.53703 86.3975
9.5818 89.0648
9.62657 93.1239
9.67134 95.8955
9.71614 93.7356
9.76091 95.9785
9.80569 98.7714
9.85047 101.409
9.89525 115.853
9.94005 132.761
9.98484 208.887
10.0296 382.752
10.0744 864.702
10.1192 1714.33
10.164 1513.65
10.2088 367.085
10.2536 125.059
10.2984 112.028
10.3432 110.242
10.388 106.453
10.4328 127.453
10.4776 172.155
10.5224 300.101
10.5672 522.018
10.612 494.754
10.6568 191.082
10.7017 95.6174
10.7465 86.7692
10.7913 83.8304
10.8361 81.5306
10.8809 79.4358
10.9257 78.2981
10.9706 78.3743
11.0154 74.9483
11.0602 73.0919
11.105 71.9971
11.1499 73.6377
11.1947 76.5789
11.2395 71.6474
11.2844 69.3279
11.3292 67.4994
11.374 66.4554
11.4189 65.9954
11.4637 64.9642
11.5086 65.1336
11.5534 66.4225
11.5983 64.8725
11.6431 64.1358
11.688 63.3681
11.7328 63.3237
11.7777 62.9746
11.8225 63.107
11.8674 62.9326
11.9122 63.1872
11.9571 63.5827
12.002 64.9636
12.0468 70.7625
12.0917 81.7689
12.1366 106.316
12.1814 156.388
12.2263 201.341
12.2712 161.341
12.3161 89.34
12.3609 68.2337
12.4058 64.7666
12.4507 64.5756
12.4956 64.9356
12.5405 65.3559
12.5853 65.8305
12.6302 69.7615
12.6751 72.5933
12.72 68.8827
12.7649 68.3008
12.8098 69.0637
12.8547 70.3382
12.8996 71.558
12.9445 73.1966
12.9894 74.9879
13.0343 76.7778
13.0792 81.3514
13.1242 95.1314
13.1691 117.797
13.214 158.278
13.2589 252.739
13.3038 376.114
13.3487 421.669
13.3937 248.911
13.4386 121.368
13.4835 110.607
13.5285 126.684
13.5734 168.141
13.6183 255.952
13.6633 350.329
13.7082 331.091
13.7531 181.005
13.7981 96.4964
13.843 82.2166
13.888 80.2818
13.9329 77.795
13.9779 76.2964
14.0228 74.8288
14.0678 73.7158
14.1127 72.9368
14.1577 72.4806
14.2027 72.0234
14.2476 70.9839
14.2926 70.6332
14.3376 71.1554
14.3825 70.3602
14.4275 69.6912
14.4725 69.1799
14.5175 69.3257
14.5624 69.5043
14.6074 71.0311
14.6524 71.31
14.6974 71.2247
14.7424 74.8055
14.7874 82.0987
14.8324 93.1569
14.8774 116.592
14.9224 158.826
14.9674 209.898
15.0124 215.892
15.0574 143.348
15.1024 88.7667
15.1474 72.4569
15.1924 70.595
15.2374 70.419
15.2824 69.5216
15.3274 68.011
15.3725 67.1825
15.4175 66.7417
15.4625 66.3737
15.5076 66.5256
15.5526 66.4253
15.5976 66.6438
15.6426 69.2028
15.6877 75.0433
15.7327 82.5532
15.7778 99.2507
15.8228 131.526
15.8679 172.761
15.9129 193.097
15.958 149.998
16.003 93.2284
16.0481 67.0889
16.0931 63.7479
16.1382 61.8381
16.1833 60.7398
16.2283 59.1295
16.2734 58.5494
16.3185 58.3623
16.3636 58.4
16.4086 57.5025
16.4537 56.5882
16.4988 55.6533
16.5439 55.7292
16.589 55.4463
16.6341 55.2425
16.6792 54.7832
16.7243 55.1179
16.7694 55.2266
16.8145 54.982
16.8596 55.3832
16.9047 56.2728
16.9498 56.4518
16.9949 55.8738
17.04 56.8674
17.0851 57.831
17.1302 59.4653
17.1754 62.8162
17.2205 68.1952
17.2656 75.2515
17.3108 82.2798
17.3559 81.5139
17.401 70.68
17.4462 61.9892
17.4913 59.4963
17.5365 59.5403
17.5815 59.6302
17.6268 60.1322
17.6718 60.8547
17.7171 61.2073
17.7622 61.8161
17.8074 63.13
17.8525 66.354
17.8977 69.9625
17.9428 75.8228
17.9881 85.4573
18.0331 102.861
18.0784 123.706
18.1237 141.912
18.1688 131.583
18.214 102.819
18.2591 87.4427
18.3044 92.0643
18.3495 101.325
18.3948 106.046
18.4399 95.0639
18.4852 76.4274
18.5303 65.6531
18.5756 62.3381
18.6207 61.6383
18.666 60.7741
18.7112 59.8275
18.7565 59.3876
18.8016 59.2938
18.8469 58.5612
18.892 58.1387
18.9374 57.7732
18.9825 57.2711
19.0278 57.2867
19.073 57.6175
19.1183 57.8446
19.1635 58.5327
19.2088 60.0919
19.254 62.8974
19.2993 67.5132
19.3447 72.8352
19.3898 76.0067
19.4352 71.8538
19.4804 62.9586
19.5257 56.7031
19.5709 54.4863
19.6163 54.2839
19.6615 53.923
19.7068 53.714
19.752 53.8352
19.7974 54.2235
19.8426 55.0769
19.888 55.6654
19.9332 56.9734
19.9786 59.8538
20.0238 63.6146
20.0692 67.7304
20.1144 70.1128
20.1598 68.1681
20.205 63.7727
20.2504 62.8596
20.2957 64.2242
20.3411 65.6507
20.3863 64.0082
20.4318 58.1669
20.477 53.4635
20.5224 51.6526
20.5677 51.0112
20.6131 50.5909
20.6586 49.9531
20.7038 49.8624
20.7493 49.2491
20.7945 49.3036
20.84 49.2357
20.8853 48.9153
20.9307 49.0333
20.976 49.1019
21.0215 48.9442
21.0668 49.5339
21.1122 49.8118
21.1575 50.4359
21.203 51.2044
21.2483 51.5098
21.2938 51.7536
21.3391 50.3572
21.3846 49.2308
21.4299 48.8008
21.4754 48.5337
21.5207 48.913
21.5662 49.2792
21.6116 50.1067
21.6571 50.3763
21.7024 51.3534
21.7479 53.3819
21.7933 56.3143
21.8388 59.86
21.8843 63.4092
21.9297 65.0371
21.9752 63.2035
22.0206 59.6214
22.0661 56.7679
22.1115 56.2638
22.157 56.211
22.2024 54.384
22.248 51.6957
22.2933 50.167
22.3389 49.2909
22.3843 49.2876
22.4299 49.141
22.4753 49.2339
22.5208 48.9249
22.5662 48.8747
22.6118 49.081
22.6572 49.2978
22.7028 49.8079
22.7483 50.1936
22.7939 51.0942
22.8393 52.6095
22.8849 54.6677
22.9303 56.5934
22.9759 58.2123
23.0214 57.3247
23.067 54.3812
23.1126 51.1151
23.1581 49.3856
23.2037 49.2229
23.2492 49.2995
23.2948 49.2132
23.3403 49.6946
23.3859 50.3422
23.4314 51.3724
23.477 53.2331
23.5225 55.3194
23.5682 57.4164
23.6137 58.0856
23.6593 55.5631
23.7048 51.6439
23.7505 48.1916
23.796 46.8771
23.8417 46.2977
23.8872 45.7802
23.9329 45.6117
23.9784 45.2048
24.0241 45.014
24.0697 44.8262
24.1154 44.1077
24.1609 44.1372
24.2066 44.1924
24.2522 43.9309
24.2979 43.7459
24.3434 43.6291
24.3892 43.4071
24.4349 43.4878
24.4805 43.1487
24.5262 43.4953
24.5718 43.2573
24.6175 43.2283
24.6631 43.0946
24.7089 42.9158
24.7545 42.6944
24.8002 42.4549
24.8458 42.5217
24.8916 42.4012
24.9372 42.5013
24.983 42.9788
25.0286 43.4292
25.0744 43.7316
25.12 44.0752
25.1658 44.6221
25.2114 44.9783
25.2572 45.0389
25.3029 45.0872
25.3487 44.9134
25.3943 44.7154
25.4402 43.7399
25.4858 42.5952
25.5316 41.6737
25.5773 41.0294
25.6231 41.1525
25.669 40.7459
25.7147 40.8535
25.7605 40.7849
25.8062 40.7588
25.8521 40.9182
25.8977 40.984
25.9436 41.0992
25.9893 41.1318
26.0352 41.6967
26.0809 41.8224
26.1268 42.015
26.1725 41.6726
26.2184 41.1389
26.2641 40.5528
26.31 40.3398
26.3557 40.4063
26.4017 40.4403
26.4474 40.874
26.4933 40.9355
26.5391 41.4434
26.585 42.064
26.6308 42.3526
26.6767 42.3961
26.7225 42.1726
26.7684 41.695
26.8142 41.1611
26.8601 40.7475
26.9059 40.2911
26.9519 39.6586
26.9979 39.3419
27.0437 39.1552
27.0896 39.0268
27.1354 39.0697
27.1814 38.8544
27.2272 38.8347
27.2732 38.6266
27.3191 38.5734
27.3651 38.7622
27.4109 38.6107
27.4569 38.777
27.5027 38.7752
27.5488 38.795
27.5946 38.7676
27.6407 38.2934
27.6865 38.3096
27.7326 38.0419
27.7784 38.0662
27.8245 38.102
27.8703 38.3164
27.9164 38.683
27.9623 38.789
28.0084 38.9265
28.0543 39.4396
28.1003 39.2813
28.1462 39.058
28.1923 38.7097
28.2384 38.0983
28.2843 37.704
28.3304 37.3712
28.3764 36.8952
28.4225 36.6031
28.4684 36.5144
28.5145 36.202
28.5605 36.2188
28.6066 35.8993
28.6526 35.9631
28.6987 35.7434
28.7447 35.7495
28.7908 35.6887
28.8368 35.6168
28.8829 35.6519
28.9289 35.53
28.9751 35.3879
29.0211 35.1311
29.0673 34.8467
29.1133 34.7465
29.1595 34.5499
29.2055 34.4742
29.2517 34.5801
29.2977 34.4973
29.3439 34.4759
29.3899 34.4528
29.4361 34.4322
29.4824 34.1069
29.5284 33.9124
29.5746 33.5315
29.6207 33.2435
29.6669 33.2039
29.713 33.245
29.7593 33.0737
29.8053 33.0104
29.8516 32.9684
29.8977 32.897
29.9439 32.8807
29.99 32.6815
30.0363 32.6817
30.0824 32.7404
30.1287 32.6723
30.1748 32.6558
30.2211 32.5986
30.2673 32.4643
30.3136 32.587
30.3597 32.4236
30.406 32.363
30.4522 32.3662
30.4985 32.293
30.5447 32.3816
30.591 32.4015
30.6372 32.381
30.6835 32.4379
30.7297 32.4391
30.7761 32.2892
30.8224 32.1346
30.8686 31.9547
30.915 31.8043
30.9612 31.7768
31.0076 31.4767
31.0538 31.4579
31.1002 31.2553
31.1464 31.1942
31.1928 31.1668
31.2391 31.1542
31.2855 31.1213
31.3317 31.0556
31.3781 31.2451
31.4244 31.1211
31.4708 31.0632
31.5171 31.1302
31.5636 30.9671
31.6098 30.6755
31.6563 30.5828
31.7026 30.4192
31.7491 30.3668
31.7953 30.3469
31.8418 30.3042
31.8881 30.3201
31.9346 30.3594
31.9809 30.2967
32.0275 30.095
32.074 29.9968
32.1203 29.8614
32.1668 29.7408
32.2132 29.6132
32.2597 29.4523
32.306 29.4015
32.3526 29.0741
32.399 29.0433
32.4455 29.0168
32.4919 28.8047
32.5385 28.8104
32.5848 28.5853
32.6314 28.71
32.6778 28.669
32.7244 28.4014
32.7708 28.2152
32.8174 28.3633
32.8638 28.2113
32.9104 28.1854
32.9569 28.1882
33.0035 28.0044
33.0499 28.2
33.0966 28.0049
33.143 27.9606
33.1897 27.9211
33.2361 27.795
33.2828 27.7807
33.3293 27.6106
33.3759 27.5427
33.4226 27.3986
33.4691 27.2278
33.5158 27.1649
33.5623 27.0835
33.609 26.8678
33.6555 26.7971
33.7022 26.7302
33.7487 26.7605
33.7954 26.6352
33.842 26.5283
33.8887 26.4958
33.9353 26.3829
33.982 26.2987
34.0286 26.194
34.0753 26.1146
34.1219 26.0727
34.1687 25.9865
34.2152 25.9383
34.262 25.8607
34.3086 25.8268
34.3554 25.6633
34.402 25.536
34.4488 25.4513
34.4954 25.3662
34.5422 25.3108
34.5889 25.2001
34.6357 25.1607
34.6825 25.0726
34.7292 25.0179
34.776 24.861
34.8227 24.8161
34.8695 24.8511
34.9162 24.7837
34.9631 24.673
35.0098 24.6742
35.0566 24.5266
35.1033 24.5149
35.1502 24.4144
35.1969 24.3582
35.2438 24.3424
35.2906 24.2523
35.3375 24.1714
35.3842 24.1699
35.4311 24.0671
35.4779 24.0985
35.5248 24.0789
35.5716 23.9593
35.6185 23.812
35.6653 23.7738
35.7123 23.6742
35.759 23.5748
35.806 23.4901
35.8528 23.4127
35.8998 23.3412
35.9468 23.2846
35.9936 23.3281
36.0406 23.1823
36.0874 23.1638
36.1345 23.0842
36.1813 23.0086
36.2283 22.8465
36.2752 22.7486
36.3222 22.7993
36.3691 22.7042
36.4161 22.6457
36.463 22.6052
36.5101 22.6178
36.557 22.5131
36.6041 22.3282
36.651 22.2915
36.6981 22.3052
36.745 22.2136
36.7921 22.0818
36.839 22.0456
36.8861 21.8789
36.9331 21.8943
36.9802 21.8329
37.0272 21.7874
37.0743 21.6515
37.1213 21.5624
37.1684 21.5616
37.2154 21.5216
37.2626 21.3732
37.3098 21.308
37.3568 21.2782
37.404 21.2373
37.451 21.1184
37.4982 21.0817
37.5452 21.0015
37.5924 20.797
37.6395 20.9986
37.6867 20.8438
37.7337 20.7084
37.781 20.6658
37.8281 20.6813
37.8753 20.5162
37.9224 20.5075
37.9697 20.4784
38.0168 20.3259
38.064 20.2269
38.1111 20.2727
38.1584 20.1963
38.2056 20.0899
38.2529 20.0746
38.3 19.9586
38.3473 19.9774
38.3945 19.8153
38.4418 19.7408
38.489 19.7086
38.5363 19.6433
38.5837 19.6082
38.6309 19.505
38.6782 19.4403
38.7254 19.356
38.7728 19.299
38.82 19.2949
38.8674 19.1868
38.9146 19.1228
38.9621 19.0497
39.0093 19.0165
39.0567 19.0005
39.104 18.9231
39.1514 18.7779
39.1987 18.7613
39.2461 18.7551
39.2934 18.6823
39.3409 18.5218
39.3882 18.5512
39.4356 18.482
39.483 18.3793
39.5304 18.3189
39.5778 18.2561
39.6253 18.2283
39.6726 18.1676
39.7201 18.2156
39.7675 18.0821
39.815 18.0437
39.8624 17.9939
39.9099 17.9553
39.9575 17.8219
40.0049 17.8079
40.0525 17.7493
40.0999 17.6933
40.1474 17.6461
40.1949 17.575
40.2425 17.4934
40.2899 17.5056
40.3375 17.3862
40.385 17.3024
40.4326 17.3192
40.48 17.2838
40.5277 17.202
40.5752 17.1171
40.6228 17.0563
40.6703 17.0428
40.718 16.95
40.7655 16.9539
40.8132 16.8331
40.8607 16.8295
40.9084 16.7549
40.9559 16.6485
41.0036 16.7153
41.0512 16.5773
41.0989 16.5709
41.1465 16.5117
41.1942 16.4721
41.242 16.2992
41.2896 16.3207
41.3373 16.2118
41.3849 16.2063
41.4327 16.1283
41.4803 16.113
41.5281 16.0067
41.5758 16.0109
41.6236 15.87
41.6712 15.8357
41.7191 15.8101
41.7667 15.7265
41.8146 15.7183
41.8622 15.7087
41.9101 15.6151
41.9578 15.4915
42.0057 15.4791
42.0534 15.4606
42.1013 15.4315
42.149 15.3486
42.1969 15.2492
42.2446 15.3129
42.2925 15.2141
42.3403 15.1102
42.3882 15.1164
42.436 15.0353
42.4839 15.0041
42.5319 14.9937
42.5797 14.9075
42.6277 14.8565
42.6755 14.8019
42.7235 14.7092
42.7713 14.6667
42.8193 14.6392
42.8671 14.6262
42.9152 14.5877
42.963 14.4662
43.0111 14.4331
43.0589 14.3595
43.107 14.3294
43.1549 14.319
43.2029 14.2138
43.2508 14.2341
43.2989 14.1337
43.3468 14.096
43.3949 14.0311
43.4429 14.0069
43.491 13.9654
43.5389 13.9115
43.5871 13.8866
43.635 13.777
43.6832 13.7708
43.7312 13.7299
43.7793 13.6577
43.8273 13.6048
43.8755 13.5884
43.9237 13.5339
43.9717 13.4694
44.0199 13.4391
44.068 13.4124
44.1162 13.3441
44.1642 13.3445
44.2125 13.2366
44.2606 13.2142
44.3088 13.1692
44.3569 13.1274
44.4052 13.0852
44.4533 13.0302
44.5016 12.9521
44.5497 12.9869
44.598 12.9157
44.6461 12.7665
44.6945 12.823
44.7426 12.7555
44.791 12.6585
44.8391 12.6276
44.8875 12.5696
44.9357 12.596
44.984 12.5422
45.0322 12.4309
45.0806 12.4364
45.1288 12.4051
45.1773 12.3332
45.2257 12.345
45.2739 12.2609
45.3224 12.2181
45.3706 12.1994
45.4191 12.1331
45.4673 12.0765
45.5158 12.1075
45.5641 12.0016
45.6126 11.9592
45.6609 11.8966
45.7094 11.8914
45.7577 11.8279
45.8063 11.7791
45.8546 11.7204
45.9031 11.6859
45.9515 11.676
46.0001 11.6502
46.0484 11.6245
46.097 11.5606
46.1454 11.5245
46.194 11.4312
46.2424 11.4191
46.291 11.3757
46.3395 11.3498
46.3881 11.276
46.4365 11.2854
46.4852 11.2273
46.5337 11.1869
46.5823 11.1377
46.631 11.108
46.6795 11.0661
46.7282 11.0131
46.7767 10.9625
46.8254 10.9302
46.8739 10.8962
46.9226 10.8166
46.9712 10.8467
47.0199 10.7876
47.0685 10.7264
47.1173 10.6828
47.1658 10.6352
47.2146 10.6036
47.2632 10.5552
47.312 10.5411
47.3606 10.5172
47.4095 10.4337
47.4581 10.4458
47.5069 10.3731
47.5556 10.3553
47.6044 10.2937
47.6531 10.2782
47.702 10.2042
47.7507 10.2036
47.7996 10.1158
47.8483 10.1265
47.8972 10.1
47.9461 10.0332
47.9948 9.99652
48.0438 9.97742
48.0925 9.92884
48.1415 9.86042
48.1902 9.85016
48.2392 9.82328
48.288 9.7702
48.337 9.74088
48.3858 9.69059
48.4348 9.6688
48.4837 9.68918
48.5327 9.64562
48.5815 9.59492
48.6306 9.57205
48.6795 9.5118
48.7285 9.45957
48.7774 9.44954
48.8265 9.38885
48.8754 9.35332
48.9245 9.32487
48.9734 9.29748
49.0226 9.2501
49.0715 9.22615
49.1206 9.17498
49.1696 9.16408
49.2188 9.11972
49.2679 9.07128
49.3169 9.04083
49.3661 8.99864
49.4151 8.96117
49.4643 9.0072
49.5134 8.8967
49.5626 8.85718
49.6117 8.8161
49.6609 8.80265
49.71 8.76597
49.7592 8.75358
49.8083 8.69831
49.8576 8.687
49.9067 8.63675
49.956 8.60639
50.0052 8.5879
50.0545 8.52688
50.1036 8.48445
50.153 8.48055
50.2022 8.45403
50.2515 8.41274
50.3007 8.3532
50.3501 8.33164
50.3993 8.30862
50.4487 8.29298
50.498 8.22111
50.5474 8.22709
50.5966 8.15726
50.6461 8.15924
50.6955 8.11271
50.7448 8.1154
50.7943 8.03531
50.8436 8.03009
50.8931 8.00118
50.9424 7.95762
50.9919 7.93539
51.0413 7.90378
51.0908 7.86919
51.1402 7.85962
51.1897 7.79679
51.2391 7.78361
51.2887 7.74441
51.3381 7.69694
51.3877 7.70467
51.4371 7.65654
51.4867 7.62072
51.5362 7.59314
51.5858 7.57147
51.6353 7.55101
51.6849 7.48989
51.7344 7.43577
51.7841 7.48263
51.8336 7.3945
51.8833 7.37449
51.9328 7.31147
51.9826 7.33726
52.0323 7.26736
52.0818 7.2667
52.1316 7.20951
52.1812 7.19149
52.231 7.16464
52.2806 7.18125
52.3304 7.10265
52.38 7.08266
52.4298 7.0502
52.4794 6.99147
52.5293 6.95175
52.5789 6.95973
52.6288 6.9435
52.6785 6.90241
52.7284 6.85411
52.7781 6.82756
52.828 6.79543
52.8777 6.78842
52.9276 6.76494
52.9774 6.73368
53.0273 6.69795
53.0771 6.65588
53.1271 6.62298
53.1769 6.60591
53.2269 6.57176
53.2767 6.56782
53.3267 6.52856
53.3765 6.5209
53.4266 6.49598
53.4766 6.40611
53.5265 6.42762
53.5765 6.41309
53.6264 6.36313
53.6765 6.34736
53.7264 6.2663
53.7765 6.28932
53.8265 6.27408
53.8766 6.21201
53.9266 6.18106
53.9767 6.16725
54.0267 6.15291
54.0769 6.08182
54.1269 6.04734
54.1771 6.03668
54.2271 6.05112
54.2773 5.95534
54.3274 5.99147
54.3776 5.93305
54.4277 5.89767
54.478 5.90114
54.528 5.84223
54.5783 5.76016
54.6285 5.77549
54.6788 5.745
54.7289 5.65811
54.7792 5.62947
54.8296 5.64316
54.8798 5.54812
54.9301 5.53346
54.9803 5.47684
55.0307 5.49522
55.0809 5.40399
55.1314 5.3724
55.1816 5.3065
55.232 5.23169
55.2823 5.2306
55.3328 5.18901
55.383 5.10115
55.4335 5.11483
55.4838 5.01211
55.5344 4.99856
55.5847 4.94614
55.6352 4.95157
55.6856 4.89538
55.7361 4.85036