File: XRD/Ni3Fe_FD0462.xy
TT I
1.27165 7.52836
1.31627 7.37024
1.36089 7.05724
1.40551 6.02808
1.45013 6.38389
1.49476 6.16966
1.53938 5.72331
1.584 5.71735
1.62863 5.90178
1.67325 5.41392
1.71787 5.35231
1.7625 5.03156
1.80712 5.26021
1.85174 4.47069
1.89636 5.23393
1.94099 5.15015
1.98562 4.64662
2.03025 4.44338
2.07487 4.73057
2.11949 4.93822
2.16411 5.0951
2.20874 10.0728
2.25338 14.573
2.298 5.61195
2.34263 5.74303
2.38725 5.39717
2.43188 5.43508
2.4765 6.07848
2.52115 6.85976
2.56577 7.55877
2.6104 7.98355
2.65503 7.70005
2.69965 7.8222
2.7443 7.94914
2.78893 7.95804
2.83356 8.26013
2.87818 9.13214
2.92281 9.1532
2.96744 9.77915
3.01209 10.6768
3.05672 11.4098
3.10135 12.1723
3.14599 13.2535
3.19062 14.4205
3.23527 15.279
3.2799 15.7953
3.32454 16.8945
3.36917 18.0638
3.4138 19.2509
3.45844 19.3584
3.50309 20.9989
3.54773 21.9731
3.59237 23.4438
3.637 60.9965
3.68164 42.3111
3.7263 25.5606
3.77094 25.9625
3.81558 26.9993
3.86022 27.9742
3.90486 29.3218
3.9495 30.0756
3.99416 31.18
4.0388 32.0909
4.08344 33.9864
4.12809 34.7349
4.17273 36.6917
4.21738 40.786
4.26204 154.054
4.30669 131.567
4.35133 45.6692
4.39598 44.5473
4.44063 50.3045
4.4853 57.3122
4.52995 52.3985
4.5746 53.6492
4.61925 54.4766
4.6639 56.518
4.70855 59.0904
4.75322 62.4689
4.79788 66.4961
4.84253 68.9426
4.88719 74.2069
4.93184 77.4428
4.97652 83.1129
5.02118 89.853
5.06583 98.3951
5.11049 112.171
5.15515 167.793
5.19981 523.668
5.24449 3484.7
5.28916 11873.1
5.33382 2955.6
5.37848 206.002
5.42315 134.845
5.46783 118.511
5.5125 110.096
5.55716 105.081
5.60183 100.455
5.6465 99.1426
5.69117 96.7294
5.73586 95.1378
5.78053 96.3618
5.8252 95.8094
5.86988 97.1529
5.91455 98.6741
5.95924 111.855
6.00392 289.671
6.0486 1191.96
6.09328 4229.66
6.13795 3304.54
6.18263 260.356
6.22733 96.1894
6.27201 83.5811
6.3167 90.5871
6.36138 77.254
6.40606 70.3124
6.45075 68.9736
6.49545 66.2326
6.54014 64.6574
6.58483 63.2865
6.62952 63.1861
6.67421 78.6283
6.71892 104.176
6.76361 64.2845
6.8083 59.2276
6.853 58.8742
6.89769 57.5969
6.94239 57.0065
6.98711 56.2285
7.03181 56.1055
7.07651 55.9713
7.12121 55.641
7.16591 55.8019
7.21063 55.5672
7.25533 63.6856
7.30004 118.697
7.34475 74.9738
7.38945 56.1191
7.43416 55.0791
7.47889 54.9257
7.5236 54.7926
7.56831 55.8038
7.61303 57.0792
7.65774 57.0894
7.70247 57.0091
7.74719 56.9696
7.79191 57.418
7.83663 57.5195
7.88135 58.9011
7.92607 59.3011
7.97081 60.736
8.01553 61.845
8.06026 63.442
8.10498 64.7326
8.14971 71.5745
8.19446 71.7446
8.23919 70.5787
8.28392 73.6954
8.32865 75.9043
8.37339 80.2946
8.41812 86.9513
8.46288 110.429
8.50761 208.752
8.55235 466.147
8.59709 1217.17
8.64183 2128.1
8.68658 1004.62
8.73134 170.787
8.77609 101.84
8.82083 94.4076
8.86558 92.0754
8.91033 91.4574
8.9551 90.9579
8.99985 86.5906
9.04461 85.0004
9.08936 84.631
9.13412 83.5511
9.17888 83.3896
9.22365 83.8861
9.26841 83.4672
9.31318 84.7965
9.35794 85.1124
9.4027 85.2452
9.44749 85.7502
9.49226 86.1442
9.53703 87.0766
9.5818 89.425
9.62657 93.0849
9.67134 96.703
9.71614 94.4987
9.76091 96.0093
9.80569 99.2467
9.85047 102.433
9.89525 117.637
9.94005 135.138
9.98484 220.466
10.0296 410.273
10.0744 880.099
10.1192 1710.94
10.164 1626.61
10.2088 411.758
10.2536 130.596
10.2984 113.336
10.3432 112.302
10.388 108.334
10.4328 131.484
10.4776 178.974
10.5224 300.115
10.5672 491.067
10.612 493.59
10.6568 205.358
10.7017 97.8504
10.7465 88.0055
10.7913 84.5187
10.8361 82.369
10.8809 80.2881
10.9257 78.8657
10.9706 78.8708
11.0154 75.7685
11.0602 74.0953
11.105 72.6901
11.1499 74.587
11.1947 77.7399
11.2395 72.3769
11.2844 70.2057
11.3292 68.198
11.374 67.029
11.4189 66.4074
11.4637 65.9533
11.5086 65.7201
11.5534 67.0256
11.5983 65.3819
11.6431 64.4904
11.688 63.827
11.7328 63.9084
11.7777 63.8144
11.8225 63.326
11.8674 63.2181
11.9122 63.9265
11.9571 64.1929
12.002 65.5579
12.0468 72.2733
12.0917 84.3664
12.1366 109.57
12.1814 155.669
12.2263 202.439
12.2712 170.833
12.3161 92.4902
12.3609 69.654
12.4058 65.4698
12.4507 65.3493
12.4956 65.473
12.5405 65.6956
12.5853 66.0508
12.6302 70.4144
12.6751 73.7007
12.72 69.7512
12.7649 68.7807
12.8098 69.5699
12.8547 70.6544
12.8996 72.1979
12.9445 73.7384
12.9894 75.7006
13.0343 77.726
13.0792 82.0474
13.1242 96.9927
13.1691 122.346
13.214 162.791
13.2589 250.522
13.3038 367.397
13.3487 419.129
13.3937 261.208
13.4386 124.838
13.4835 113.806
13.5285 131.0
13.5734 171.317
13.6183 253.374
13.6633 340.597
13.7082 339.602
13.7531 188.339
13.7981 97.3654
13.843 83.0886
13.888 80.9933
13.9329 78.2116
13.9779 77.1368
14.0228 75.8945
14.0678 74.4917
14.1127 73.756
14.1577 73.1923
14.2027 72.3544
14.2476 71.5088
14.2926 71.3163
14.3376 71.9842
14.3825 70.9876
14.4275 70.2022
14.4725 69.7457
14.5175 70.2328
14.5624 70.3123
14.6074 71.4909
14.6524 72.2376
14.6974 71.9573
14.7424 75.8221
14.7874 83.9215
14.8324 95.4516
14.8774 118.042
14.9224 157.461
14.9674 203.48
15.0124 215.646
15.0574 148.203
15.1024 90.8309
15.1474 73.3696
15.1924 71.3196
15.2374 71.2177
15.2824 70.3451
15.3274 68.8811
15.3725 67.8997
15.4175 67.5502
15.4625 67.2097
15.5076 67.2502
15.5526 67.1479
15.5976 67.2622
15.6426 69.8149
15.6877 76.6004
15.7327 84.9057
15.7778 100.734
15.8228 130.804
15.8679 168.18
15.9129 191.551
15.958 155.303
16.003 96.1346
16.0481 68.5817
16.0931 64.5297
16.1382 62.917
16.1833 61.3039
16.2283 59.8689
16.2734 59.1631
16.3185 59.0339
16.3636 59.1154
16.4086 57.909
16.4537 56.9037
16.4988 56.4916
16.5439 56.3979
16.589 55.996
16.6341 55.7806
16.6792 55.3542
16.7243 55.7997
16.7694 55.8399
16.8145 55.5556
16.8596 55.9013
16.9047 56.7035
16.9498 57.008
16.9949 56.4025
17.04 57.0678
17.0851 58.6127
17.1302 60.215
17.1754 63.4389
17.2205 68.4433
17.2656 75.65
17.3108 82.0091
17.3559 82.5991
17.401 71.8921
17.4462 62.8826
17.4913 60.0919
17.5365 60.1263
17.5815 60.0978
17.6268 60.7005
17.6718 61.4907
17.7171 61.9007
17.7622 62.6031
17.8074 63.8158
17.8525 67.1046
17.8977 71.4154
17.9428 77.0924
17.9881 86.6422
18.0331 102.988
18.0784 121.89
18.1237 139.666
18.1688 133.473
18.214 105.989
18.2591 89.0837
18.3044 91.9692
18.3495 100.524
18.3948 106.62
18.4399 97.0678
18.4852 77.9659
18.5303 66.7618
18.5756 63.1537
18.6207 62.2547
18.666 61.3306
18.7112 60.651
18.7565 59.841
18.8016 59.6068
18.8469 59.0655
18.892 58.8955
18.9374 58.2884
18.9825 57.8462
19.0278 57.6651
19.073 58.1672
19.1183 58.736
19.1635 59.4073
19.2088 60.9182
19.254 63.9411
19.2993 67.7245
19.3447 72.8402
19.3898 76.4932
19.4352 73.1463
19.4804 64.1447
19.5257 57.2867
19.5709 55.3057
19.6163 54.8848
19.6615 54.7384
19.7068 54.4539
19.752 54.2867
19.7974 54.9676
19.8426 55.7073
19.888 56.4039
19.9332 57.7658
19.9786 60.4018
20.0238 63.7485
20.0692 67.7253
20.1144 70.4675
20.1598 69.2442
20.205 64.3762
20.2504 62.9931
20.2957 64.46
20.3411 66.2036
20.3863 64.4159
20.4318 58.9533
20.477 54.2822
20.5224 52.1683
20.5677 51.5271
20.6131 51.1276
20.6586 50.4562
20.7038 50.3326
20.7493 49.9853
20.7945 49.7789
20.84 49.6379
20.8853 49.5685
20.9307 49.3729
20.976 49.6795
21.0215 49.6572
21.0668 49.9382
21.1122 50.492
21.1575 50.9846
21.203 51.3676
21.2483 52.1239
21.2938 52.3448
21.3391 50.8473
21.3846 49.5588
21.4299 49.2795
21.4754 49.2549
21.5207 49.5122
21.5662 49.887
21.6116 50.476
21.6571 51.2721
21.7024 52.1577
21.7479 53.9836
21.7933 56.8176
21.8388 59.8502
21.8843 63.331
21.9297 65.4866
21.9752 64.3881
22.0206 60.314
22.0661 57.2472
22.1115 56.7613
22.157 56.5828
22.2024 55.1481
22.248 52.1518
22.2933 50.5532
22.3389 49.8249
22.3843 49.6758
22.4299 49.426
22.4753 49.5662
22.5208 49.3327
22.5662 49.3906
22.6118 49.5556
22.6572 49.7298
22.7028 50.4425
22.7483 50.6414
22.7939 51.5869
22.8393 53.0889
22.8849 54.9552
22.9303 56.6697
22.9759 58.428
23.0214 57.981
23.067 55.2787
23.1126 51.7596
23.1581 49.9536
23.2037 49.7702
23.2492 50.0166
23.2948 49.954
23.3403 50.1656
23.3859 50.7833
23.4314 51.8813
23.477 53.7857
23.5225 55.3922
23.5682 57.4618
23.6137 58.4781
23.6593 56.4594
23.7048 52.4293
23.7505 48.8518
23.796 47.1941
23.8417 46.8839
23.8872 46.3329
23.9329 45.9009
23.9784 45.6781
24.0241 45.418
24.0697 45.152
24.1154 44.8446
24.1609 44.6609
24.2066 44.4865
24.2522 44.4263
24.2979 44.1243
24.3434 44.2188
24.3892 43.8103
24.4349 43.8241
24.4805 43.5679
24.5262 43.7878
24.5718 43.5316
24.6175 43.6159
24.6631 43.436
24.7089 43.2634
24.7545 43.1252
24.8002 43.2145
24.8458 42.9918
24.8916 42.9299
24.9372 43.0387
24.983 43.4965
25.0286 43.6697
25.0744 44.1572
25.12 44.6038
25.1658 45.1323
25.2114 45.464
25.2572 45.4825
25.3029 45.4961
25.3487 45.6328
25.3943 45.2337
25.4402 44.0861
25.4858 42.9977
25.5316 42.1707
25.5773 41.6312
25.6231 41.6244
25.669 41.3201
25.7147 41.3063
25.7605 41.1783
25.8062 41.1611
25.8521 41.3368
25.8977 41.3613
25.9436 41.61
25.9893 41.682
26.0352 42.1957
26.0809 42.2032
26.1268 42.3392
26.1725 42.0516
26.2184 41.3964
26.2641 41.0355
26.31 40.7703
26.3557 40.9332
26.4017 40.8412
26.4474 41.1606
26.4933 41.6323
26.5391 41.9957
26.585 42.3554
26.6308 42.874
26.6767 42.8134
26.7225 42.6271
26.7684 42.1624
26.8142 41.3911
26.8601 41.0795
26.9059 40.6421
26.9519 40.1584
26.9979 39.8979
27.0437 39.6017
27.0896 39.5695
27.1354 39.408
27.1814 39.2904
27.2272 39.1751
27.2732 39.3244
27.3191 39.0661
27.3651 39.0509
27.4109 39.0792
27.4569 39.0035
27.5027 39.1615
27.5488 39.2575
27.5946 39.036
27.6407 38.9078
27.6865 38.6883
27.7326 38.4169
27.7784 38.5331
27.8245 38.6434
27.8703 38.712
27.9164 38.9501
27.9623 39.0276
28.0084 39.3759
28.0543 39.7469
28.1003 39.6509
28.1462 39.5229
28.1923 38.9041
28.2384 38.4352
28.2843 38.2298
28.3304 37.7164
28.3764 37.2718
28.4225 37.0237
28.4684 36.9674
28.5145 36.6049
28.5605 36.4415
28.6066 36.2922
28.6526 36.2683
28.6987 36.1408
28.7447 36.1803
28.7908 36.0227
28.8368 35.9564
28.8829 35.9709
28.9289 35.9157
28.9751 35.7375
29.0211 35.4895
29.0673 35.2947
29.1133 35.2851
29.1595 34.9933
29.2055 34.9199
29.2517 34.9668
29.2977 34.8094
29.3439 34.8588
29.3899 34.8521
29.4361 34.7258
29.4824 34.5422
29.5284 34.2865
29.5746 33.9832
29.6207 33.6154
29.6669 33.6951
29.713 33.5438
29.7593 33.3856
29.8053 33.4121
29.8516 33.2884
29.8977 33.2761
29.9439 33.0745
29.99 33.1211
30.0363 33.1017
30.0824 33.0263
30.1287 32.8957
30.1748 32.9406
30.2211 32.8819
30.2673 32.8808
30.3136 32.939
30.3597 32.809
30.406 32.6929
30.4522 32.5875
30.4985 32.5937
30.5447 32.7245
30.591 32.7528
30.6372 32.7916
30.6835 32.6416
30.7297 32.7939
30.7761 32.6673
30.8224 32.5315
30.8686 32.4558
30.915 32.215
30.9612 32.068
31.0076 31.7981
31.0538 31.6959
31.1002 31.6485
31.1464 31.4846
31.1928 31.4705
31.2391 31.4825
31.2855 31.4402
31.3317 31.2916
31.3781 31.3826
31.4244 31.3924
31.4708 31.3541
31.5171 31.3138
31.5636 31.2642
31.6098 30.9672
31.6563 30.8601
31.7026 30.7518
31.7491 30.6605
31.7953 30.7416
31.8418 30.6064
31.8881 30.6582
31.9346 30.5345
31.9809 30.4372
32.0275 30.3589
32.074 30.3416
32.1203 30.0571
32.1668 30.0063
32.2132 29.8988
32.2597 29.703
32.306 29.6086
32.3526 29.3737
32.399 29.39
32.4455 29.3092
32.4919 29.1617
32.5385 29.1387
32.5848 28.9604
32.6314 28.9554
32.6778 28.8807
32.7244 28.6946
32.7708 28.5738
32.8174 28.67
32.8638 28.467
32.9104 28.4685
32.9569 28.4483
33.0035 28.256
33.0499 28.3469
33.0966 28.2626
33.143 28.248
33.1897 28.1494
33.2361 28.0919
33.2828 27.976
33.3293 27.8554
33.3759 27.8498
33.4226 27.5916
33.4691 27.5371
33.5158 27.3938
33.5623 27.364
33.609 27.2257
33.6555 27.0744
33.7022 27.1425
33.7487 26.9254
33.7954 26.8975
33.842 26.8166
33.8887 26.8208
33.9353 26.6388
33.982 26.5862
34.0286 26.5296
34.0753 26.4607
34.1219 26.2997
34.1687 26.2242
34.2152 26.1883
34.262 26.0814
34.3086 25.9808
34.3554 25.9662
34.402 25.8064
34.4488 25.6939
34.4954 25.7494
34.5422 25.6096
34.5889 25.4532
34.6357 25.3335
34.6825 25.2859
34.7292 25.1961
34.776 25.1285
34.8227 25.1347
34.8695 24.9793
34.9162 24.9093
34.9631 24.895
35.0098 24.8787
35.0566 24.7873
35.1033 24.7292
35.1502 24.679
35.1969 24.5916
35.2438 24.5635
35.2906 24.4545
35.3375 24.4178
35.3842 24.4059
35.4311 24.3304
35.4779 24.3362
35.5248 24.2928
35.5716 24.2203
35.6185 24.0338
35.6653 24.0532
35.7123 23.8683
35.759 23.8668
35.806 23.7673
35.8528 23.6125
35.8998 23.5296
35.9468 23.5333
35.9936 23.4027
36.0406 23.4037
36.0874 23.3972
36.1345 23.2765
36.1813 23.1792
36.2283 23.023
36.2752 22.9806
36.3222 22.9986
36.3691 22.9434
36.4161 22.8397
36.463 22.8318
36.5101 22.8061
36.557 22.7585
36.6041 22.5404
36.651 22.5324
36.6981 22.5142
36.745 22.3795
36.7921 22.311
36.839 22.155
36.8861 22.1655
36.9331 22.0573
36.9802 22.0003
37.0272 21.9982
37.0743 21.8336
37.1213 21.8225
37.1684 21.709
37.2154 21.6601
37.2626 21.5817
37.3098 21.5522
37.3568 21.4843
37.404 21.4345
37.451 21.3074
37.4982 21.269
37.5452 21.1706
37.5924 21.1385
37.6395 21.2019
37.6867 21.053
37.7337 20.924
37.781 20.8098
37.8281 20.8697
37.8753 20.7261
37.9224 20.6571
37.9697 20.6167
38.0168 20.5504
38.064 20.4584
38.1111 20.4304
38.1584 20.3031
38.2056 20.2423
38.2529 20.2465
38.3 20.1277
38.3473 20.1401
38.3945 19.9399
38.4418 20.0259
38.489 19.9076
38.5363 19.8072
38.5837 19.738
38.6309 19.683
38.6782 19.6012
38.7254 19.5859
38.7728 19.5362
38.82 19.459
38.8674 19.3909
38.9146 19.2838
38.9621 19.2797
39.0093 19.2151
39.0567 19.202
39.104 19.0425
39.1514 18.9801
39.1987 18.9359
39.2461 18.9104
39.2934 18.9231
39.3409 18.7407
39.3882 18.7136
39.4356 18.5993
39.483 18.6331
39.5304 18.5797
39.5778 18.4338
39.6253 18.4489
39.6726 18.366
39.7201 18.3062
39.7675 18.2895
39.815 18.2145
39.8624 18.1121
39.9099 18.0794
39.9575 17.9895
40.0049 17.9875
40.0525 17.9042
40.0999 17.8311
40.1474 17.8013
40.1949 17.7641
40.2425 17.679
40.2899 17.6166
40.3375 17.5026
40.385 17.5334
40.4326 17.4504
40.48 17.3875
40.5277 17.3662
40.5752 17.3244
40.6228 17.1825
40.6703 17.1828
40.718 17.1753
40.7655 17.1101
40.8132 17.0078
40.8607 16.9663
40.9084 16.9636
40.9559 16.8601
41.0036 16.895
41.0512 16.725
41.0989 16.6705
41.1465 16.6544
41.1942 16.6163
41.242 16.4577
41.2896 16.3948
41.3373 16.4497
41.3849 16.3703
41.4327 16.2867
41.4803 16.212
41.5281 16.1917
41.5758 16.1624
41.6236 16.0671
41.6712 15.9973
41.7191 15.9554
41.7667 15.9147
41.8146 15.8952
41.8622 15.825
41.9101 15.7943
41.9578 15.6451
42.0057 15.624
42.0534 15.6245
42.1013 15.5498
42.149 15.4932
42.1969 15.4591
42.2446 15.3981
42.2925 15.2858
42.3403 15.2862
42.3882 15.2907
42.436 15.1875
42.4839 15.1302
42.5319 15.0892
42.5797 15.0549
42.6277 14.9957
42.6755 14.9762
42.7235 14.8679
42.7713 14.8138
42.8193 14.8319
42.8671 14.7081
42.9152 14.6762
42.963 14.6171
43.0111 14.5801
43.0589 14.5539
43.107 14.4723
43.1549 14.4197
43.2029 14.3584
43.2508 14.3301
43.2989 14.325
43.3468 14.2352
43.3949 14.2485
43.4429 14.166
43.491 14.0752
43.5389 14.0379
43.5871 13.9855
43.635 13.8978
43.6832 13.9232
43.7312 13.839
43.7793 13.7938
43.8273 13.7515
43.8755 13.7018
43.9237 13.6867
43.9717 13.6091
44.0199 13.5543
44.068 13.5152
44.1162 13.4628
44.1642 13.4811
44.2125 13.421
44.2606 13.3576
44.3088 13.33
44.3569 13.2149
44.4052 13.2048
44.4533 13.137
44.5016 13.0823
44.5497 13.0414
44.598 13.023
44.6461 12.9779
44.6945 12.9371
44.7426 12.8567
44.791 12.853
44.8391 12.7654
44.8875 12.7755
44.9357 12.6793
44.984 12.6051
45.0322 12.5937
45.0806 12.542
45.1288 12.5
45.1773 12.466
45.2257 12.41
45.2739 12.4322
45.3224 12.328
45.3706 12.2761
45.4191 12.2571
45.4673 12.1935
45.5158 12.2063
45.5641 12.1444
45.6126 12.0702
45.6609 12.0092
45.7094 11.9929
45.7577 11.945
45.8063 11.8998
45.8546 11.8509
45.9031 11.8394
45.9515 11.7867
46.0001 11.7327
46.0484 11.7004
46.097 11.668
46.1454 11.6327
46.194 11.5975
46.2424 11.5092
46.291 11.4849
46.3395 11.4895
46.3881 11.4187
46.4365 11.3711
46.4852 11.3465
46.5337 11.2798
46.5823 11.2149
46.631 11.1735
46.6795 11.1738
46.7282 11.1141
46.7767 11.0781
46.8254 11.0509
46.8739 10.9617
46.9226 10.902
46.9712 10.9
47.0199 10.8899
47.0685 10.82
47.1173 10.7738
47.1658 10.7512
47.2146 10.7013
47.2632 10.6363
47.312 10.597
47.3606 10.5987
47.4095 10.5079
47.4581 10.5361
47.5069 10.4858
47.5556 10.4575
47.6044 10.3953
47.6531 10.3608
47.702 10.311
47.7507 10.2702
47.7996 10.2616
47.8483 10.2218
47.8972 10.1637
47.9461 10.1306
47.9948 10.0844
48.0438 10.0619
48.0925 10.014
48.1415 9.99624
48.1902 9.94601
48.2392 9.9377
48.288 9.90422
48.337 9.8406
48.3858 9.80742
48.4348 9.77819
48.4837 9.76412
48.5327 9.72534
48.5815 9.68164
48.6306 9.64722
48.6795 9.59279
48.7285 9.56563
48.7774 9.53704
48.8265 9.49354
48.8754 9.47726
48.9245 9.44
48.9734 9.38142
49.0226 9.37474
49.0715 9.33261
49.1206 9.28402
49.1696 9.25704
49.2188 9.24686
49.2679 9.1906
49.3169 9.09285
49.3661 9.10612
49.4151 9.05034
49.4643 9.07299
49.5134 8.99438
49.5626 8.96533
49.6117 8.9035
49.6609 8.88699
49.71 8.85432
49.7592 8.83703
49.8083 8.81067
49.8576 8.73925
49.9067 8.72768
49.956 8.71008
50.0052 8.66874
50.0545 8.63405
50.1036 8.58536
50.153 8.56573
50.2022 8.51911
50.2515 8.50681
50.3007 8.42889
50.3501 8.42048
50.3993 8.41287
50.4487 8.39055
50.498 8.36384
50.5474 8.2843
50.5966 8.24215
50.6461 8.2246
50.6955 8.20629
50.7448 8.18902
50.7943 8.1407
50.8436 8.12398
50.8931 8.09895
50.9424 8.04756
50.9919 8.00824
51.0413 7.98643
51.0908 7.94835
51.1402 7.91039
51.1897 7.9138
51.2391 7.83396
51.2887 7.85316
51.3381 7.76665
51.3877 7.78707
51.4371 7.76235
51.4867 7.68933
51.5362 7.6556
51.5858 7.63079
51.6353 7.60003
51.6849 7.57264
51.7344 7.53739
51.7841 7.51498
51.8336 7.46819
51.8833 7.46081
51.9328 7.4156
51.9826 7.32928
52.0323 7.35867
52.0818 7.35758
52.1316 7.27739
52.1812 7.28298
52.231 7.21791
52.2806 7.2025
52.3304 7.15617
52.38 7.12171
52.4298 7.09897
52.4794 7.09033
52.5293 7.02678
52.5789 7.03713
52.6288 6.97978
52.6785 6.93989
52.7284 6.94857
52.7781 6.9415
52.828 6.86157
52.8777 6.83561
52.9276 6.82927
52.9774 6.80638
53.0273 6.78228
53.0771 6.75945
53.1271 6.74426
53.1769 6.6948
53.2269 6.66742
53.2767 6.6181
53.3267 6.5903
53.3765 6.56275
53.4266 6.53806
53.4766 6.48699
53.5265 6.52422
53.5765 6.45181
53.6264 6.38978
53.6765 6.39917
53.7264 6.31143
53.7765 6.29695
53.8265 6.33643
53.8766 6.30292
53.9266 6.25848
53.9767 6.22334
54.0267 6.20216
54.0769 6.17439
54.1269 6.13567
54.1771 6.12874
54.2271 6.1248
54.2773 6.0236
54.3274 6.00546
54.3776 6.03585
54.4277 5.96107
54.478 5.95383
54.528 5.87065
54.5783 5.83273
54.6285 5.7905
54.6788 5.75431
54.7289 5.71904
54.7792 5.7072
54.8296 5.57806
54.8798 5.57037
54.9301 5.52905
54.9803 5.53571
55.0307 5.5112
55.0809 5.4317
55.1314 5.45471
55.1816 5.38778
55.232 5.30159
55.2823 5.28779
55.3328 5.21659
55.383 5.17718
55.4335 5.14505
55.4838 5.14158
55.5344 5.06131
55.5847 5.05515
55.6352 4.97381
55.6856 4.93296
55.7361 4.8909