File: XRD/Ni3Fe_FD0139.xy
TT I
1.27165 8.02093
1.31627 7.26936
1.36089 7.63425
1.40551 6.68087
1.45013 6.45159
1.49476 6.653
1.53938 6.54066
1.584 5.28455
1.62863 5.96575
1.67325 5.85361
1.71787 6.16252
1.7625 5.41009
1.80712 5.594
1.85174 4.96621
1.89636 5.18214
1.94099 5.05414
1.98562 5.05038
2.03025 4.92755
2.07487 4.81491
2.11949 5.18957
2.16411 4.70602
2.20874 4.55392
2.25338 4.67977
2.298 4.60509
2.34263 5.09928
2.38725 3.97693
2.43188 4.53965
2.4765 3.83589
2.52115 4.51798
2.56577 4.69328
2.6104 5.02304
2.65503 4.91194
2.69965 5.74195
2.7443 5.95096
2.78893 6.57762
2.83356 7.16633
2.87818 7.71861
2.92281 8.78168
2.96744 9.33475
3.01209 9.84855
3.05672 10.9736
3.10135 12.7019
3.14599 13.0883
3.19062 14.4014
3.23527 14.7582
3.2799 15.6638
3.32454 16.8722
3.36917 18.0213
3.4138 18.6173
3.45844 19.4576
3.50309 20.7435
3.54773 20.8989
3.59237 21.7788
3.637 22.7163
3.68164 22.8315
3.7263 24.0619
3.77094 24.8785
3.81558 25.5662
3.86022 26.449
3.90486 27.7423
3.9495 28.6919
3.99416 29.3369
4.0388 30.2752
4.08344 32.0604
4.12809 32.5966
4.17273 33.7234
4.21738 35.4368
4.26204 36.0238
4.30669 37.4953
4.35133 38.9618
4.39598 40.6913
4.44063 43.0072
4.4853 44.3926
4.52995 46.7736
4.5746 49.042
4.61925 51.1457
4.6639 53.5221
4.70855 56.0417
4.75322 59.2507
4.79788 62.3619
4.84253 65.8888
4.88719 69.6458
4.93184 74.9166
4.97652 82.1736
5.02118 90.3604
5.06583 100.802
5.11049 117.683
5.15515 156.343
5.19981 557.373
5.24449 3760.34
5.28916 8077.76
5.33382 6427.17
5.37848 475.863
5.42315 165.444
5.46783 128.272
5.5125 114.017
5.55716 107.924
5.60183 101.069
5.6465 98.8268
5.69117 97.4359
5.73586 95.1538
5.78053 95.0344
5.8252 95.4227
5.86988 98.431
5.91455 105.696
5.95924 124.942
6.00392 291.419
6.0486 1386.47
6.09328 2648.49
6.13795 3993.0
6.18263 726.157
6.22733 124.772
6.27201 89.7021
6.3167 78.0397
6.36138 72.7653
6.40606 68.0901
6.45075 66.4178
6.49545 63.9048
6.54014 61.8412
6.58483 60.6522
6.62952 59.4443
6.67421 57.8734
6.71892 57.1556
6.76361 56.1125
6.8083 55.1441
6.853 54.5076
6.89769 54.1772
6.94239 54.0203
6.98711 53.2393
7.03181 52.7708
7.07651 52.517
7.12121 52.4701
7.16591 51.9829
7.21063 52.0914
7.25533 51.6824
7.30004 51.5594
7.34475 51.738
7.38945 51.9569
7.43416 51.532
7.47889 51.7614
7.5236 55.7435
7.56831 64.3792
7.61303 55.2875
7.65774 52.9451
7.70247 53.6029
7.74719 53.8535
7.79191 54.6222
7.83663 54.6859
7.88135 55.7418
7.92607 56.5731
7.97081 57.9238
8.01553 58.5867
8.06026 60.3793
8.10498 61.8428
8.14971 63.5409
8.19446 64.8422
8.23919 67.6323
8.28392 70.4785
8.32865 72.9492
8.37339 77.8358
8.41812 83.4462
8.46288 95.4241
8.50761 172.872
8.55235 605.503
8.59709 864.298
8.64183 1440.8
8.68658 1683.92
8.73134 461.232
8.77609 118.099
8.82083 97.3486
8.86558 91.0368
8.91033 87.5874
8.9551 84.4422
8.99985 83.4649
9.04461 82.2753
9.08936 81.3779
9.13412 80.9472
9.17888 80.9507
9.22365 86.9006
9.26841 98.8772
9.31318 86.7302
9.35794 82.0343
9.4027 81.6307
9.44749 82.2896
9.49226 82.8464
9.53703 83.8428
9.5818 85.6543
9.62657 86.2651
9.67134 88.1711
9.71614 90.3554
9.76091 92.3857
9.80569 94.7496
9.85047 98.191
9.89525 103.359
9.94005 113.428
9.98484 185.826
10.0296 547.959
10.0744 727.666
10.1192 993.007
10.164 1636.46
10.2088 1014.13
10.2536 224.661
10.2984 116.741
10.3432 107.955
10.388 104.329
10.4328 120.904
10.4776 215.859
10.5224 258.995
10.5672 320.12
10.612 484.836
10.6568 381.439
10.7017 137.851
10.7465 90.4173
10.7913 83.499
10.8361 80.1049
10.8809 77.8248
10.9257 75.397
10.9706 73.9378
11.0154 72.3507
11.0602 70.8657
11.105 69.8311
11.1499 68.0966
11.1947 67.347
11.2395 66.2671
11.2844 65.587
11.3292 65.1309
11.374 64.0595
11.4189 63.7699
11.4637 62.8467
11.5086 62.2445
11.5534 61.907
11.5983 61.7285
11.6431 61.6564
11.688 61.2837
11.7328 61.2444
11.7777 60.6776
11.8225 61.0163
11.8674 60.7552
11.9122 62.1967
11.9571 65.9887
12.002 65.2597
12.0468 67.4995
12.0917 90.1595
12.1366 107.409
12.1814 115.526
12.2263 146.913
12.2712 191.839
12.3161 141.884
12.3609 75.089
12.4058 63.87
12.4507 62.6569
12.4956 62.734
12.5405 62.8271
12.5853 63.3215
12.6302 63.3117
12.6751 63.9755
12.72 64.8847
12.7649 65.8021
12.8098 66.4379
12.8547 67.6608
12.8996 69.3903
12.9445 70.783
12.9894 72.6026
13.0343 74.6122
13.0792 78.8957
13.1242 85.9797
13.1691 132.803
13.214 187.124
13.2589 201.64
13.3038 237.95
13.3487 341.45
13.3937 386.984
13.4386 218.917
13.4835 121.058
13.5285 154.336
13.5734 182.17
13.6183 188.467
13.6633 230.356
13.7082 323.071
13.7531 307.733
13.7981 157.76
13.843 88.3024
13.888 80.3162
13.9329 77.2185
13.9779 75.4063
14.0228 74.0927
14.0678 72.5486
14.1127 72.3959
14.1577 74.0587
14.2027 72.6227
14.2476 70.2116
14.2926 69.0325
14.3376 68.5326
14.3825 68.2717
14.4275 67.8022
14.4725 67.9652
14.5175 67.9122
14.5624 67.8439
14.6074 68.0968
14.6524 68.6926
14.6974 69.3817
14.7424 70.8211
14.7874 79.9995
14.8324 106.991
14.8774 120.871
14.9224 125.002
14.9674 144.377
15.0124 186.948
15.0574 204.825
15.1024 140.88
15.1474 82.5906
15.1924 71.2016
15.2374 68.5506
15.2824 67.6278
15.3274 66.5985
15.3725 66.0676
15.4175 65.8864
15.4625 65.2779
15.5076 64.9415
15.5526 65.1622
15.5976 65.1031
15.6426 66.0765
15.6877 73.3311
15.7327 95.0486
15.7778 107.565
15.8228 109.578
15.8679 121.315
15.9129 150.698
15.958 183.477
16.003 154.212
16.0481 89.9727
16.0931 66.4395
16.1382 61.4694
16.1833 60.0902
16.2283 58.3872
16.2734 57.7107
16.3185 56.9772
16.3636 56.5055
16.4086 55.6529
16.4537 55.3146
16.4988 54.8158
16.5439 54.6338
16.589 54.569
16.6341 54.1156
16.6792 53.8426
16.7243 53.8939
16.7694 53.8908
16.8145 53.818
16.8596 53.8709
16.9047 54.2187
16.9498 54.9186
16.9949 54.5168
17.04 54.9886
17.0851 56.4742
17.1302 60.7348
17.1754 64.1559
17.2205 64.6911
17.2656 66.3759
17.3108 71.4265
17.3559 78.1396
17.401 80.9029
17.4462 71.2753
17.4913 61.3765
17.5365 58.9006
17.5815 58.6472
17.6268 59.1431
17.6718 59.5417
17.7171 60.0795
17.7622 61.0619
17.8074 61.864
17.8525 63.2943
17.8977 71.6774
17.9428 83.5045
17.9881 88.1657
18.0331 89.9136
18.0784 96.2347
18.1237 112.237
18.1688 138.93
18.214 143.334
18.2591 112.204
18.3044 87.9379
18.3495 85.7263
18.3948 93.7016
18.4399 102.455
18.4852 95.8303
18.5303 76.9243
18.5756 64.804
18.6207 61.9589
18.666 60.4965
18.7112 59.7468
18.7565 58.7514
18.8016 58.6348
18.8469 57.9117
18.892 57.5841
18.9374 57.0546
18.9825 56.7604
19.0278 56.5995
19.073 56.4658
19.1183 56.9933
19.1635 59.4747
19.2088 61.5212
19.254 62.1614
19.2993 62.5716
19.3447 64.6812
19.3898 68.3715
19.4352 73.4974
19.4804 72.5664
19.5257 64.403
19.5709 56.3694
19.6163 54.0158
19.6615 53.7096
19.7068 53.3509
19.752 52.724
19.7974 53.1189
19.8426 54.3758
19.888 56.6091
19.9332 58.0591
19.9786 58.333
20.0238 58.6777
20.0692 61.2863
20.1144 66.4795
20.1598 71.7351
20.205 70.7948
20.2504 65.2208
20.2957 60.7536
20.3411 61.1486
20.3863 64.0978
20.4318 64.3324
20.477 59.2111
20.5224 53.4453
20.5677 51.0306
20.6131 50.1505
20.6586 49.7134
20.7038 49.3881
20.7493 49.078
20.7945 49.0647
20.84 48.9148
20.8853 48.4768
20.9307 48.4766
20.976 48.8647
21.0215 48.7536
21.0668 49.1003
21.1122 49.4199
21.1575 49.1508
21.203 49.3577
21.2483 49.8728
21.2938 51.1176
21.3391 51.0967
21.3846 50.3629
21.4299 49.2708
21.4754 48.4522
21.5207 48.4482
21.5662 48.8938
21.6116 49.0742
21.6571 51.048
21.7024 52.8105
21.7479 53.8838
21.7933 53.8506
21.8388 55.4199
21.8843 58.0636
21.9297 61.4614
21.9752 65.2391
22.0206 65.4753
22.0661 60.7414
22.1115 56.2004
22.157 55.0548
22.2024 56.1429
22.248 55.0987
22.2933 52.509
22.3389 49.9234
22.3843 49.0225
22.4299 48.519
22.4753 48.5008
22.5208 48.5225
22.5662 48.3781
22.6118 48.5594
22.6572 48.8527
22.7028 50.2035
22.7483 51.1273
22.7939 51.5901
22.8393 51.8917
22.8849 52.3631
22.9303 53.0744
22.9759 54.5353
23.0214 56.6957
23.067 58.1696
23.1126 55.9973
23.1581 52.3118
23.2037 49.8996
23.2492 49.2605
23.2948 49.5759
23.3403 50.8415
23.3859 51.6164
23.4314 51.6392
23.477 51.5524
23.5225 52.0036
23.5682 53.2052
23.6137 55.2803
23.6593 57.3605
23.7048 57.0997
23.7505 53.5869
23.796 49.14
23.8417 46.7964
23.8872 45.8725
23.9329 45.4231
23.9784 44.9548
24.0241 44.6942
24.0697 44.4108
24.1154 44.1673
24.1609 44.0027
24.2066 43.8023
24.2522 43.7192
24.2979 43.5131
24.3434 43.3904
24.3892 43.0875
24.4349 43.1103
24.4805 42.6379
24.5262 42.9586
24.5718 42.7984
24.6175 42.7515
24.6631 42.9566
24.7089 42.7287
24.7545 42.5805
24.8002 42.2811
24.8458 42.3287
24.8916 42.3832
24.9372 42.5392
24.983 42.5186
25.0286 42.7825
25.0744 43.3078
25.12 43.6302
25.1658 44.1218
25.2114 44.3521
25.2572 44.8448
25.3029 44.7257
25.3487 44.5236
25.3943 44.5684
25.4402 44.8836
25.4858 44.3774
25.5316 43.1778
25.5773 41.7659
25.6231 41.368
25.669 40.6233
25.7147 40.6251
25.7605 40.5015
25.8062 40.9278
25.8521 40.9683
25.8977 40.7965
25.9436 40.7688
25.9893 40.7353
26.0352 41.0862
26.0809 41.0284
26.1268 41.4975
26.1725 41.781
26.2184 41.8193
26.2641 41.2768
26.31 40.9134
26.3557 40.7426
26.4017 40.6298
26.4474 40.8374
26.4933 40.8733
26.5391 41.0309
26.585 41.3132
26.6308 41.5803
26.6767 41.7822
26.7225 42.5371
26.7684 42.573
26.8142 42.028
26.8601 41.1352
26.9059 40.6224
26.9519 40.2566
26.9979 39.9452
27.0437 39.3724
27.0896 39.056
27.1354 39.0446
27.1814 38.9424
27.2272 38.7535
27.2732 38.745
27.3191 38.4965
27.3651 38.6055
27.4109 38.4802
27.4569 38.4828
27.5027 38.5198
27.5488 38.6118
27.5946 38.4988
27.6407 38.6485
27.6865 38.7081
27.7326 38.4222
27.7784 38.3029
27.8245 38.046
27.8703 38.3143
27.9164 38.4
27.9623 38.3496
28.0084 38.5303
28.0543 38.7173
28.1003 39.0603
28.1462 39.2665
28.1923 39.3385
28.2384 38.604
28.2843 38.315
28.3304 37.8787
28.3764 37.4965
28.4225 37.043
28.4684 36.6986
28.5145 36.2522
28.5605 35.9985
28.6066 35.9977
28.6526 35.7733
28.6987 35.8293
28.7447 35.5834
28.7908 35.4479
28.8368 35.3982
28.8829 35.3525
28.9289 35.4519
28.9751 35.194
29.0211 35.1963
29.0673 35.05
29.1133 34.9704
29.1595 34.7105
29.2055 34.4908
29.2517 34.37
29.2977 34.2518
29.3439 34.1711
29.3899 34.1878
29.4361 34.056
29.4824 34.126
29.5284 34.0678
29.5746 33.8212
29.6207 33.5294
29.6669 33.2541
29.713 33.1003
29.7593 32.9435
29.8053 32.9493
29.8516 32.766
29.8977 32.8656
29.9439 32.6882
29.99 32.7272
30.0363 32.5397
30.0824 32.5806
30.1287 32.461
30.1748 32.4527
30.2211 32.469
30.2673 32.3317
30.3136 32.5693
30.3597 32.5339
30.406 32.4308
30.4522 32.3175
30.4985 32.2042
30.5447 32.1882
30.591 32.2103
30.6372 32.1734
30.6835 32.1573
30.7297 32.2201
30.7761 32.3164
30.8224 32.3783
30.8686 32.2075
30.915 31.9348
30.9612 31.863
31.0076 31.6186
31.0538 31.3121
31.1002 31.3571
31.1464 31.1922
31.1928 31.1824
31.2391 31.2003
31.2855 31.1066
31.3317 30.9122
31.3781 30.9333
31.4244 30.8246
31.4708 30.8205
31.5171 30.8205
31.5636 31.0378
31.6098 30.9477
31.6563 30.7784
31.7026 30.5044
31.7491 30.4102
31.7953 30.3061
31.8418 30.3456
31.8881 30.2676
31.9346 30.1505
31.9809 30.1197
32.0275 30.0627
32.074 30.1038
32.1203 29.9686
32.1668 29.7794
32.2132 29.6028
32.2597 29.5532
32.306 29.4212
32.3526 29.0985
32.399 29.0735
32.4455 28.9654
32.4919 28.8532
32.5385 28.8113
32.5848 28.6549
32.6314 28.5597
32.6778 28.6076
32.7244 28.3676
32.7708 28.1826
32.8174 28.2545
32.8638 28.1191
32.9104 28.2836
32.9569 28.1921
33.0035 27.999
33.0499 27.9777
33.0966 27.9085
33.143 27.7837
33.1897 27.7237
33.2361 27.6113
33.2828 27.6539
33.3293 27.5985
33.3759 27.5429
33.4226 27.4549
33.4691 27.3661
33.5158 27.2679
33.5623 27.0933
33.609 26.8262
33.6555 26.6551
33.7022 26.7177
33.7487 26.5531
33.7954 26.5941
33.842 26.4261
33.8887 26.383
33.9353 26.3732
33.982 26.2593
34.0286 26.1204
34.0753 26.1772
34.1219 26.0175
34.1687 25.9938
34.2152 25.8283
34.262 25.7512
34.3086 25.6017
34.3554 25.7146
34.402 25.5397
34.4488 25.4171
34.4954 25.2549
34.5422 25.2401
34.5889 25.152
34.6357 25.0542
34.6825 25.0051
34.7292 24.9792
34.776 24.8012
34.8227 24.747
34.8695 24.7485
34.9162 24.6634
34.9631 24.6358
35.0098 24.548
35.0566 24.4037
35.1033 24.3426
35.1502 24.3955
35.1969 24.2962
35.2438 24.2346
35.2906 24.2044
35.3375 24.0884
35.3842 24.0316
35.4311 23.9901
35.4779 23.9247
35.5248 23.9705
35.5716 23.942
35.6185 23.782
35.6653 23.7567
35.7123 23.6693
35.759 23.6096
35.806 23.4346
35.8528 23.2287
35.8998 23.3114
35.9468 23.2432
35.9936 23.2146
36.0406 23.0564
36.0874 23.0691
36.1345 23.076
36.1813 22.9161
36.2283 22.8318
36.2752 22.7888
36.3222 22.6691
36.3691 22.7145
36.4161 22.4974
36.463 22.58
36.5101 22.528
36.557 22.4446
36.6041 22.2834
36.651 22.2874
36.6981 22.2307
36.745 22.1634
36.7921 22.1544
36.839 22.0406
36.8861 21.9646
36.9331 21.8108
36.9802 21.7377
37.0272 21.6344
37.0743 21.6744
37.1213 21.5443
37.1684 21.5192
37.2154 21.402
37.2626 21.3335
37.3098 21.2533
37.3568 21.2044
37.404 21.2111
37.451 21.0856
37.4982 20.9637
37.5452 20.8769
37.5924 20.8917
37.6395 20.9122
37.6867 20.8773
37.7337 20.6859
37.781 20.5605
37.8281 20.5993
37.8753 20.4455
37.9224 20.3891
37.9697 20.3187
38.0168 20.3075
38.064 20.1867
38.1111 20.1801
38.1584 20.1473
38.2056 19.987
38.2529 19.9626
38.3 19.8677
38.3473 19.8779
38.3945 19.7379
38.4418 19.7079
38.489 19.6749
38.5363 19.5444
38.5837 19.47
38.6309 19.4894
38.6782 19.3711
38.7254 19.3614
38.7728 19.2949
38.82 19.1757
38.8674 19.1823
38.9146 19.0872
38.9621 19.0404
39.0093 19.0236
39.0567 18.9154
39.104 18.8014
39.1514 18.777
39.1987 18.6802
39.2461 18.6416
39.2934 18.6481
39.3409 18.6143
39.3882 18.4126
39.4356 18.4255
39.483 18.3512
39.5304 18.314
39.5778 18.2803
39.6253 18.1956
39.6726 18.1068
39.7201 18.081
39.7675 18.003
39.815 17.9388
39.8624 17.9008
39.9099 17.8845
39.9575 17.8232
40.0049 17.7785
40.0525 17.7315
40.0999 17.6532
40.1474 17.5898
40.1949 17.5442
40.2425 17.5165
40.2899 17.3978
40.3375 17.3369
40.385 17.2737
40.4326 17.2109
40.48 17.2003
40.5277 17.1629
40.5752 17.0626
40.6228 17.0292
40.6703 16.9659
40.718 16.8965
40.7655 16.9036
40.8132 16.7839
40.8607 16.8287
40.9084 16.7425
40.9559 16.7008
41.0036 16.594
41.0512 16.5692
41.0989 16.4976
41.1465 16.4096
41.1942 16.3927
41.242 16.3113
41.2896 16.2947
41.3373 16.2474
41.3849 16.1926
41.4327 16.0347
41.4803 16.0574
41.5281 15.9981
41.5758 15.9583
41.6236 15.8267
41.6712 15.8188
41.7191 15.7845
41.7667 15.762
41.8146 15.7122
41.8622 15.6105
41.9101 15.5281
41.9578 15.4852
42.0057 15.4549
42.0534 15.4736
42.1013 15.3936
42.149 15.343
42.1969 15.2311
42.2446 15.2118
42.2925 15.1703
42.3403 15.1292
42.3882 15.0573
42.436 15.0747
42.4839 14.9203
42.5319 14.9266
42.5797 14.8922
42.6277 14.7845
42.6755 14.7992
42.7235 14.6629
42.7713 14.6893
42.8193 14.5561
42.8671 14.5448
42.9152 14.4992
42.963 14.4785
43.0111 14.4039
43.0589 14.2925
43.107 14.3121
43.1549 14.288
43.2029 14.214
43.2508 14.2045
43.2989 14.0855
43.3468 14.0412
43.3949 14.0393
43.4429 13.963
43.491 13.916
43.5389 13.8588
43.5871 13.8684
43.635 13.7678
43.6832 13.7021
43.7312 13.6567
43.7793 13.6072
43.8273 13.594
43.8755 13.5162
43.9237 13.501
43.9717 13.4703
44.0199 13.4018
44.068 13.3767
44.1162 13.3255
44.1642 13.2832
44.2125 13.2614
44.2606 13.1637
44.3088 13.0784
44.3569 13.0948
44.4052 13.0523
44.4533 12.9735
44.5016 12.9282
44.5497 12.8858
44.598 12.8659
44.6461 12.8107
44.6945 12.7475
44.7426 12.7428
44.791 12.6691
44.8391 12.6366
44.8875 12.5796
44.9357 12.5791
44.984 12.5079
45.0322 12.4757
45.0806 12.4029
45.1288 12.3365
45.1773 12.2944
45.2257 12.2871
45.2739 12.2353
45.3224 12.1915
45.3706 12.1133
45.4191 12.1098
45.4673 12.046
45.5158 11.9761
45.5641 11.986
45.6126 11.9391
45.6609 11.8886
45.7094 11.8134
45.7577 11.8353
45.8063 11.7017
45.8546 11.7246
45.9031 11.6616
45.9515 11.6328
46.0001 11.6112
46.0484 11.5521
46.097 11.542
46.1454 11.495
46.194 11.4204
46.2424 11.3321
46.291 11.3418
46.3395 11.3279
46.3881 11.3224
46.4365 11.2773
46.4852 11.2047
46.5337 11.144
46.5823 11.1124
46.631 11.0693
46.6795 11.0331
46.7282 11.0008
46.7767 10.9493
46.8254 10.8831
46.8739 10.8107
46.9226 10.8269
46.9712 10.7603
47.0199 10.7327
47.0685 10.6586
47.1173 10.6371
47.1658 10.636
47.2146 10.564
47.2632 10.5433
47.312 10.5348
47.3606 10.462
47.4095 10.4047
47.4581 10.3895
47.5069 10.3744
47.5556 10.2993
47.6044 10.2672
47.6531 10.2445
47.702 10.2018
47.7507 10.1422
47.7996 10.0984
47.8483 10.0631
47.8972 10.0667
47.9461 10.0146
47.9948 9.97521
48.0438 9.91474
48.0925 9.90931
48.1415 9.84958
48.1902 9.81188
48.2392 9.7921
48.288 9.75706
48.337 9.73823
48.3858 9.6749
48.4348 9.68531
48.4837 9.6765
48.5327 9.59552
48.5815 9.53644
48.6306 9.50973
48.6795 9.49725
48.7285 9.46639
48.7774 9.39474
48.8265 9.39861
48.8754 9.33543
48.9245 9.3221
48.9734 9.28164
49.0226 9.24552
49.0715 9.23787
49.1206 9.16329
49.1696 9.12333
49.2188 9.11805
49.2679 9.09585
49.3169 9.00907
49.3661 8.9813
49.4151 8.96723
49.4643 8.96491
49.5134 8.88364
49.5626 8.84335
49.6117 8.8298
49.6609 8.81759
49.71 8.75555
49.7592 8.696
49.8083 8.69451
49.8576 8.68273
49.9067 8.62092
49.956 8.60807
50.0052 8.55272
50.0545 8.57195
50.1036 8.48851
50.153 8.48648
50.2022 8.44877
50.2515 8.41304
50.3007 8.37175
50.3501 8.33999
50.3993 8.29117
50.4487 8.26521
50.498 8.20802
50.5474 8.21114
50.5966 8.13339
50.6461 8.13267
50.6955 8.12016
50.7448 8.05963
50.7943 8.07979
50.8436 8.02807
50.8931 7.99328
50.9424 7.98392
50.9919 7.90638
51.0413 7.90083
51.0908 7.84934
51.1402 7.8561
51.1897 7.79245
51.2391 7.78183
51.2887 7.71758
51.3381 7.66707
51.3877 7.67062
51.4371 7.63802
51.4867 7.58492
51.5362 7.61171
51.5858 7.54994
51.6353 7.51483
51.6849 7.49229
51.7344 7.43907
51.7841 7.45706
51.8336 7.38346
51.8833 7.37895
51.9328 7.32297
51.9826 7.24785
52.0323 7.26289
52.0818 7.24934
52.1316 7.18158
52.1812 7.18291
52.231 7.15641
52.2806 7.06192
52.3304 7.11864
52.38 7.03563
52.4298 7.01118
52.4794 7.00724
52.5293 6.97313
52.5789 7.01118
52.6288 6.94725
52.6785 6.85878
52.7284 6.86096
52.7781 6.86842
52.828 6.81225
52.8777 6.79137
52.9276 6.71258
52.9774 6.726
53.0273 6.70868
53.0771 6.67567
53.1271 6.6333
53.1769 6.60072
53.2269 6.5949
53.2767 6.57926
53.3267 6.54216
53.3765 6.52028
53.4266 6.46458
53.4766 6.4397
53.5265 6.40119
53.5765 6.41197
53.6264 6.37432
53.6765 6.32751
53.7264 6.29263
53.7765 6.27758
53.8265 6.23222
53.8766 6.22164
53.9266 6.20387
53.9767 6.14406
54.0267 6.12966
54.0769 6.08741
54.1269 6.07689
54.1771 6.02143
54.2271 6.06521
54.2773 5.92674
54.3274 5.92527
54.3776 5.86926
54.4277 5.85215
54.478 5.80583
54.528 5.77929
54.5783 5.72726
54.6285 5.69809
54.6788 5.62632
54.7289 5.6112
54.7792 5.56341
54.8296 5.45485
54.8798 5.47541
54.9301 5.47136
54.9803 5.40733
55.0307 5.35603
55.0809 5.30718
55.1314 5.28118
55.1816 5.2127
55.232 5.17057
55.2823 5.11208
55.3328 5.07066
55.383 4.99805
55.4335 4.96581
55.4838 4.95976
55.5344 4.8543
55.5847 4.85209
55.6352 4.82012
55.6856 4.8196
55.7361 4.74766