File: XRD/Ni3Fe_FD1052.xy
TT I
1.27165 7.08817
1.31627 6.58423
1.36089 5.87898
1.40551 5.79561
1.45013 6.21974
1.49476 5.56849
1.53938 5.32384
1.584 4.66517
1.62863 4.83626
1.67325 5.03268
1.71787 4.72544
1.7625 4.11484
1.80712 4.65567
1.85174 4.03177
1.89636 3.69759
1.94099 4.39961
1.98562 4.20929
2.03025 3.86344
2.07487 3.87553
2.11949 4.30054
2.16411 3.75856
2.20874 4.86777
2.25338 5.97691
2.298 4.66697
2.34263 5.14231
2.38725 6.06419
2.43188 6.40717
2.4765 6.63681
2.52115 7.25487
2.56577 8.09433
2.6104 8.87622
2.65503 8.16231
2.69965 8.3879
2.7443 8.52358
2.78893 8.49705
2.83356 8.50274
2.87818 9.0626
2.92281 9.2553
2.96744 9.06617
3.01209 10.0745
3.05672 11.2718
3.10135 12.2149
3.14599 12.6978
3.19062 13.8337
3.23527 14.4558
3.2799 15.2383
3.32454 16.1503
3.36917 17.0974
3.4138 18.3108
3.45844 18.924
3.50309 19.2965
3.54773 20.2734
3.59237 20.9802
3.637 27.8474
3.68164 26.5954
3.7263 24.3781
3.77094 24.3846
3.81558 25.3568
3.86022 25.7601
3.90486 27.5145
3.9495 28.1837
3.99416 29.7903
4.0388 30.7056
4.08344 31.5422
4.12809 32.717
4.17273 33.5499
4.21738 35.4297
4.26204 52.7948
4.30669 56.6944
4.35133 40.5911
4.39598 40.8682
4.44063 43.2823
4.4853 46.3464
4.52995 46.8222
4.5746 48.5131
4.61925 50.7725
4.6639 52.5952
4.70855 55.4693
4.75322 58.475
4.79788 60.891
4.84253 64.2146
4.88719 68.0283
4.93184 71.4073
4.97652 76.3996
5.02118 82.6621
5.06583 89.6547
5.11049 97.6543
5.15515 118.016
5.19981 233.194
5.24449 2505.1
5.28916 13530.5
5.33382 3267.35
5.37848 211.477
5.42315 123.3
5.46783 108.289
5.5125 100.898
5.55716 97.4341
5.60183 92.835
5.6465 91.6464
5.69117 89.8277
5.73586 87.4421
5.78053 87.1554
5.8252 86.2336
5.86988 87.0244
5.91455 88.9303
5.95924 94.9457
6.00392 164.133
6.0486 896.001
6.09328 4566.78
6.13795 3606.33
6.18263 239.429
6.22733 86.968
6.27201 76.0629
6.3167 73.3537
6.36138 69.044
6.40606 64.5895
6.45075 63.1708
6.49545 61.5451
6.54014 59.8485
6.58483 58.8531
6.62952 58.1415
6.67421 58.8521
6.71892 64.1256
6.76361 56.6667
6.8083 54.4737
6.853 53.667
6.89769 53.0713
6.94239 53.167
6.98711 52.5552
7.03181 52.0915
7.07651 52.1955
7.12121 51.8601
7.16591 51.9674
7.21063 50.8402
7.25533 52.0623
7.30004 61.7782
7.34475 55.5334
7.38945 51.3513
7.43416 51.3844
7.47889 51.5822
7.5236 59.1584
7.56831 74.1623
7.61303 57.1942
7.65774 52.6736
7.70247 53.2467
7.74719 52.9455
7.79191 53.9815
7.83663 53.8677
7.88135 54.8086
7.92607 55.6716
7.97081 56.3564
8.01553 57.4776
8.06026 59.1905
8.10498 60.3307
8.14971 62.3217
8.19446 63.923
8.23919 65.5607
8.28392 67.9303
8.32865 70.4652
8.37339 73.8684
8.41812 77.9629
8.46288 86.6487
8.50761 128.925
8.55235 372.712
8.59709 1092.04
8.64183 2267.43
8.68658 1094.24
8.73134 175.735
8.77609 94.8402
8.82083 88.0919
8.86558 85.3647
8.91033 83.8289
8.9551 82.2106
8.99985 80.797
9.04461 80.266
9.08936 79.4982
9.13412 78.9845
9.17888 79.6506
9.22365 91.3175
9.26841 114.06
9.31318 89.33
9.35794 80.2647
9.4027 79.7829
9.44749 80.2833
9.49226 81.18
9.53703 81.9112
9.5818 82.9394
9.62657 84.4441
9.67134 86.3579
9.71614 87.5702
9.76091 89.4429
9.80569 91.8826
9.85047 93.4508
9.89525 98.8032
9.94005 105.938
9.98484 147.939
10.0296 350.282
10.0744 776.552
10.1192 1756.24
10.164 1676.68
10.2088 438.822
10.2536 125.124
10.2984 103.152
10.3432 101.007
10.388 97.9924
10.4328 107.737
10.4776 161.752
10.5224 271.217
10.5672 505.63
10.612 564.803
10.6568 230.602
10.7017 104.204
10.7465 86.446
10.7913 80.2855
10.8361 77.7895
10.8809 75.4774
10.9257 73.4087
10.9706 72.4493
11.0154 70.9134
11.0602 69.2788
11.105 68.1268
11.1499 67.1438
11.1947 67.2102
11.2395 65.8287
11.2844 64.9695
11.3292 63.9891
11.374 62.9712
11.4189 62.5353
11.4637 62.0147
11.5086 61.1132
11.5534 61.4069
11.5983 60.9296
11.6431 60.6111
11.688 60.129
11.7328 59.7902
11.7777 59.7944
11.8225 59.4973
11.8674 59.9355
11.9122 62.1894
11.9571 68.3687
12.002 66.8139
12.0468 64.4989
12.0917 76.8696
12.1366 99.0639
12.1814 146.391
12.2263 203.938
12.2712 174.513
12.3161 99.3004
12.3609 64.8344
12.4058 61.1141
12.4507 61.3871
12.4956 61.2546
12.5405 61.4188
12.5853 61.8665
12.6302 62.6567
12.6751 64.0499
12.72 63.8821
12.7649 64.6073
12.8098 65.4873
12.8547 66.4857
12.8996 67.8592
12.9445 69.0948
12.9894 70.9628
13.0343 72.4636
13.0792 76.9236
13.1242 82.751
13.1691 107.886
13.214 148.134
13.2589 228.905
13.3038 365.542
13.3487 443.997
13.3937 279.906
13.4386 127.666
13.4835 99.1595
13.5285 120.336
13.5734 156.879
13.6183 236.871
13.6633 357.626
13.7082 359.433
13.7531 205.503
13.7981 100.42
13.843 79.4912
13.888 76.7608
13.9329 74.465
13.9779 73.5643
14.0228 72.0915
14.0678 70.7736
14.1127 71.7062
14.1577 75.6412
14.2027 73.7154
14.2476 68.7423
14.2926 67.3376
14.3376 67.263
14.3825 66.9403
14.4275 66.2661
14.4725 66.1232
14.5175 66.6756
14.5624 66.4164
14.6074 66.8725
14.6524 67.2588
14.6974 67.5391
14.7424 68.51
14.7874 74.4494
14.8324 88.9382
14.8774 110.177
14.9224 148.292
14.9674 208.267
15.0124 228.271
15.0574 160.108
15.1024 93.7606
15.1474 70.9256
15.1924 67.8091
15.2374 66.4407
15.2824 65.7597
15.3274 64.6503
15.3725 64.3423
15.4175 64.1325
15.4625 63.6483
15.5076 63.3882
15.5526 63.5673
15.5976 63.3805
15.6426 63.9988
15.6877 68.605
15.7327 79.6414
15.7778 94.4468
15.8228 122.234
15.8679 169.382
15.9129 202.463
15.958 168.32
16.003 103.591
16.0481 69.0686
16.0931 62.7868
16.1382 59.9042
16.1833 58.1975
16.2283 57.1065
16.2734 56.3298
16.3185 55.5753
16.3636 55.2194
16.4086 54.5208
16.4537 54.0371
16.4988 53.5549
16.5439 53.5589
16.589 53.2282
16.6341 52.9676
16.6792 52.5942
16.7243 52.8042
16.7694 52.6835
16.8145 52.63
16.8596 52.8499
16.9047 53.682
16.9498 54.3723
16.9949 53.8764
17.04 53.7102
17.0851 54.5581
17.1302 57.0228
17.1754 60.4207
17.2205 64.826
17.2656 72.5849
17.3108 81.5188
17.3559 82.7939
17.401 71.7999
17.4462 61.222
17.4913 57.482
17.5365 57.2369
17.5815 57.2089
17.6268 57.5413
17.6718 57.9033
17.7171 58.7119
17.7622 60.1936
17.8074 61.0238
17.8525 61.8433
17.8977 66.6956
17.9428 73.222
17.9881 82.0939
18.0331 98.0127
18.0784 121.526
18.1237 141.844
18.1688 137.063
18.214 108.829
18.2591 88.3527
18.3044 88.8542
18.3495 99.4994
18.3948 107.434
18.4399 98.5175
18.4852 79.0616
18.5303 65.7758
18.5756 61.4611
18.6207 60.1546
18.666 58.8811
18.7112 58.202
18.7565 57.4248
18.8016 57.1404
18.8469 56.4753
18.892 55.9267
18.9374 55.688
18.9825 55.1668
19.0278 55.0113
19.073 54.8926
19.1183 55.2818
19.1635 56.5592
19.2088 58.1818
19.254 60.7156
19.2993 65.5943
19.3447 71.9206
19.3898 76.2846
19.4352 72.5346
19.4804 63.4017
19.5257 56.2132
19.5709 52.9949
19.6163 52.4502
19.6615 52.1258
19.7068 51.8403
19.752 51.8069
19.7974 51.9533
19.8426 52.5856
19.888 53.5981
19.9332 55.167
19.9786 57.476
20.0238 61.002
20.0692 66.5823
20.1144 70.6238
20.1598 69.0936
20.205 64.0309
20.2504 61.6583
20.2957 63.5385
20.3411 65.7512
20.3863 64.1233
20.4318 58.1829
20.477 52.8664
20.5224 50.0058
20.5677 49.2904
20.6131 48.8876
20.6586 48.3737
20.7038 48.2211
20.7493 48.0637
20.7945 48.0707
20.84 47.9515
20.8853 47.5953
20.9307 47.2222
20.976 47.3722
21.0215 47.2519
21.0668 47.7437
21.1122 48.3168
21.1575 48.7
21.203 49.5403
21.2483 50.3675
21.2938 50.6927
21.3391 49.3533
21.3846 47.9506
21.4299 47.2664
21.4754 47.2474
21.5207 47.4358
21.5662 47.539
21.6116 47.8582
21.6571 48.8937
21.7024 50.1542
21.7479 51.8505
21.7933 54.141
21.8388 58.0026
21.8843 62.6577
21.9297 65.3107
21.9752 63.7452
22.0206 60.023
22.0661 56.3426
22.1115 55.9545
22.157 56.129
22.2024 54.0807
22.248 51.1364
22.2933 49.0174
22.3389 48.1027
22.3843 47.7602
22.4299 47.6097
22.4753 47.5714
22.5208 47.4643
22.5662 47.324
22.6118 47.6285
22.6572 47.5813
22.7028 48.3765
22.7483 49.2036
22.7939 49.8537
22.8393 51.1186
22.8849 53.3211
22.9303 55.6729
22.9759 57.6671
23.0214 57.4757
23.067 54.6482
23.1126 50.9988
23.1581 48.5676
23.2037 47.8335
23.2492 47.6924
23.2948 47.8081
23.3403 48.5462
23.3859 49.3819
23.4314 50.3658
23.477 51.9269
23.5225 54.4859
23.5682 57.1008
23.6137 58.5539
23.6593 56.2913
23.7048 52.1855
23.7505 48.2064
23.796 46.0575
23.8417 45.1615
23.8872 44.7953
23.9329 44.3337
23.9784 44.0321
24.0241 43.6763
24.0697 43.5341
24.1154 43.1994
24.1609 42.9835
24.2066 42.858
24.2522 42.7648
24.2979 42.3801
24.3434 42.2646
24.3892 42.0717
24.4349 42.1869
24.4805 41.9994
24.5262 41.9946
24.5718 42.1218
24.6175 42.0063
24.6631 41.9429
24.7089 41.7085
24.7545 41.6148
24.8002 41.3093
24.8458 41.2831
24.8916 41.1606
24.9372 41.403
24.983 41.6769
25.0286 42.0975
25.0744 42.5092
25.12 43.1761
25.1658 43.7565
25.2114 44.1387
25.2572 44.3753
25.3029 44.5331
25.3487 44.734
25.3943 44.4351
25.4402 43.2048
25.4858 41.9875
25.5316 40.7507
25.5773 40.2425
25.6231 39.9952
25.669 39.5409
25.7147 39.7238
25.7605 39.4752
25.8062 39.8112
25.8521 39.908
25.8977 39.8821
25.9436 39.9212
25.9893 40.1168
26.0352 40.8044
26.0809 41.0107
26.1268 41.2909
26.1725 40.8819
26.2184 40.244
26.2641 39.7631
26.31 39.3842
26.3557 39.3952
26.4017 39.4767
26.4474 39.739
26.4933 39.9925
26.5391 40.5147
26.585 41.1338
26.6308 41.8095
26.6767 41.887
26.7225 41.8088
26.7684 41.295
26.8142 40.5294
26.8601 40.0406
26.9059 39.594
26.9519 39.0854
26.9979 38.6732
27.0437 38.4315
27.0896 38.1025
27.1354 38.0764
27.1814 37.9304
27.2272 37.7847
27.2732 37.9596
27.3191 37.6393
27.3651 37.7765
27.4109 37.7863
27.4569 37.9035
27.5027 37.9554
27.5488 37.9569
27.5946 37.8896
27.6407 37.6467
27.6865 37.4153
27.7326 37.2251
27.7784 37.3568
27.8245 37.2409
27.8703 37.4687
27.9164 37.6598
27.9623 37.9131
28.0084 38.3282
28.0543 38.8957
28.1003 38.9057
28.1462 38.6132
28.1923 38.1589
28.2384 37.7033
28.2843 37.313
28.3304 36.7389
28.3764 36.2813
28.4225 35.8042
28.4684 35.5824
28.5145 35.3616
28.5605 35.264
28.6066 35.1249
28.6526 35.0247
28.6987 34.9477
28.7447 34.7815
28.7908 34.7896
28.8368 34.8177
28.8829 34.8316
28.9289 34.7298
28.9751 34.557
29.0211 34.4059
29.0673 34.0287
29.1133 33.9412
29.1595 33.8912
29.2055 33.6719
29.2517 33.7489
29.2977 33.6503
29.3439 33.5615
29.3899 33.6918
29.4361 33.6711
29.4824 33.5137
29.5284 33.3185
29.5746 32.8507
29.6207 32.5732
29.6669 32.4716
29.713 32.3277
29.7593 32.2429
29.8053 32.2246
29.8516 32.1854
29.8977 32.1731
29.9439 32.0002
29.99 31.9439
30.0363 31.9425
30.0824 31.9665
30.1287 31.9735
30.1748 31.9601
30.2211 31.9386
30.2673 31.7089
30.3136 31.7975
30.3597 31.6567
30.406 31.6557
30.4522 31.588
30.4985 31.5495
30.5447 31.8177
30.591 31.6605
30.6372 31.7013
30.6835 31.7361
30.7297 31.8829
30.7761 31.7742
30.8224 31.5321
30.8686 31.4513
30.915 31.1982
30.9612 30.9959
31.0076 30.8315
31.0538 30.735
31.1002 30.6884
31.1464 30.4946
31.1928 30.369
31.2391 30.4695
31.2855 30.4083
31.3317 30.3697
31.3781 30.4466
31.4244 30.3859
31.4708 30.3618
31.5171 30.3725
31.5636 30.4424
31.6098 30.1599
31.6563 29.9639
31.7026 29.8964
31.7491 29.7391
31.7953 29.6608
31.8418 29.7589
31.8881 29.7834
31.9346 29.678
31.9809 29.718
32.0275 29.7084
32.074 29.3959
32.1203 29.3277
32.1668 29.0645
32.2132 28.9984
32.2597 28.8925
32.306 28.6625
32.3526 28.6043
32.399 28.4859
32.4455 28.3104
32.4919 28.223
32.5385 28.2304
32.5848 28.0403
32.6314 28.0309
32.6778 27.9259
32.7244 27.8647
32.7708 27.6692
32.8174 27.6795
32.8638 27.5898
32.9104 27.6106
32.9569 27.654
33.0035 27.3768
33.0499 27.4111
33.0966 27.4461
33.143 27.398
33.1897 27.3178
33.2361 27.2428
33.2828 27.3204
33.3293 27.0229
33.3759 26.975
33.4226 26.815
33.4691 26.7463
33.5158 26.6341
33.5623 26.5646
33.609 26.2875
33.6555 26.214
33.7022 26.1883
33.7487 26.1049
33.7954 26.0717
33.842 25.9448
33.8887 25.9011
33.9353 25.92
33.982 25.7243
34.0286 25.6013
34.0753 25.5776
34.1219 25.5485
34.1687 25.4197
34.2152 25.382
34.262 25.2321
34.3086 25.1516
34.3554 25.135
34.402 25.0358
34.4488 24.9776
34.4954 24.9668
34.5422 24.7804
34.5889 24.6214
34.6357 24.5757
34.6825 24.5155
34.7292 24.3981
34.776 24.3713
34.8227 24.2637
34.8695 24.2431
34.9162 24.2748
34.9631 24.0992
35.0098 24.0797
35.0566 23.9806
35.1033 23.963
35.1502 23.9439
35.1969 23.8231
35.2438 23.7822
35.2906 23.7421
35.3375 23.706
35.3842 23.6167
35.4311 23.7351
35.4779 23.5718
35.5248 23.5871
35.5716 23.5206
35.6185 23.452
35.6653 23.2668
35.7123 23.2234
35.759 23.0965
35.806 23.0502
35.8528 23.0672
35.8998 22.8516
35.9468 22.7681
35.9936 22.7537
36.0406 22.6827
36.0874 22.6334
36.1345 22.6254
36.1813 22.4926
36.2283 22.3714
36.2752 22.3163
36.3222 22.3663
36.3691 22.2652
36.4161 22.0628
36.463 22.2051
36.5101 22.1135
36.557 22.0132
36.6041 21.8888
36.651 21.8474
36.6981 21.8292
36.745 21.716
36.7921 21.6657
36.839 21.5532
36.8861 21.54
36.9331 21.4805
36.9802 21.2878
37.0272 21.2808
37.0743 21.1601
37.1213 21.171
37.1684 21.1311
37.2154 20.9893
37.2626 20.9558
37.3098 20.9408
37.3568 20.7676
37.404 20.8013
37.451 20.6787
37.4982 20.541
37.5452 20.4776
37.5924 20.477
37.6395 20.4952
37.6867 20.442
37.7337 20.2883
37.781 20.2135
37.8281 20.1725
37.8753 20.0751
37.9224 20.0134
37.9697 19.9751
38.0168 19.8602
38.064 19.8242
38.1111 19.8081
38.1584 19.7151
38.2056 19.6151
38.2529 19.6081
38.3 19.5298
38.3473 19.5914
38.3945 19.3986
38.4418 19.372
38.489 19.3135
38.5363 19.219
38.5837 19.1885
38.6309 19.1078
38.6782 19.0113
38.7254 18.9567
38.7728 18.9119
38.82 18.8603
38.8674 18.7642
38.9146 18.7632
38.9621 18.6467
39.0093 18.6547
39.0567 18.6269
39.104 18.5224
39.1514 18.4399
39.1987 18.4173
39.2461 18.3505
39.2934 18.3241
39.3409 18.1486
39.3882 18.0856
39.4356 18.0658
39.483 18.0167
39.5304 17.9986
39.5778 17.9314
39.6253 17.8363
39.6726 17.8629
39.7201 17.8258
39.7675 17.7306
39.815 17.666
39.8624 17.5657
39.9099 17.5006
39.9575 17.4766
40.0049 17.3999
40.0525 17.3562
40.0999 17.3852
40.1474 17.2977
40.1949 17.2064
40.2425 17.1246
40.2899 17.1018
40.3375 17.0154
40.385 17.0583
40.4326 16.9329
40.48 16.8844
40.5277 16.8359
40.5752 16.7732
40.6228 16.7608
40.6703 16.7018
40.718 16.5922
40.7655 16.5575
40.8132 16.505
40.8607 16.5152
40.9084 16.4065
40.9559 16.3211
41.0036 16.3336
41.0512 16.2179
41.0989 16.2467
41.1465 16.1562
41.1942 16.1029
41.242 15.9941
41.2896 15.9721
41.3373 15.8903
41.3849 15.8826
41.4327 15.8345
41.4803 15.7444
41.5281 15.7425
41.5758 15.6724
41.6236 15.6001
41.6712 15.5713
41.7191 15.5018
41.7667 15.4819
41.8146 15.4222
41.8622 15.3722
41.9101 15.2962
41.9578 15.2723
42.0057 15.205
42.0534 15.1642
42.1013 15.1439
42.149 14.9922
42.1969 14.9707
42.2446 14.9485
42.2925 14.9656
42.3403 14.8678
42.3882 14.7694
42.436 14.7872
42.4839 14.6355
42.5319 14.6537
42.5797 14.5919
42.6277 14.6054
42.6755 14.5345
42.7235 14.4448
42.7713 14.4117
42.8193 14.3763
42.8671 14.2999
42.9152 14.2356
42.963 14.2285
43.0111 14.1709
43.0589 14.0741
43.107 14.0851
43.1549 14.0796
43.2029 13.9212
43.2508 13.9131
43.2989 13.8683
43.3468 13.7919
43.3949 13.73
43.4429 13.7616
43.491 13.6665
43.5389 13.6345
43.5871 13.5373
43.635 13.5208
43.6832 13.4629
43.7312 13.4723
43.7793 13.3775
43.8273 13.3529
43.8755 13.3367
43.9237 13.2848
43.9717 13.2485
44.0199 13.1908
44.068 13.1359
44.1162 13.0582
44.1642 13.0398
44.2125 13.0036
44.2606 12.8878
44.3088 12.8761
44.3569 12.8709
44.4052 12.8057
44.4533 12.757
44.5016 12.7211
44.5497 12.6495
44.598 12.6581
44.6461 12.5554
44.6945 12.5305
44.7426 12.4668
44.791 12.4319
44.8391 12.3958
44.8875 12.3654
44.9357 12.3322
44.984 12.2986
45.0322 12.2373
45.0806 12.1301
45.1288 12.1503
45.1773 12.0939
45.2257 12.049
45.2739 11.985
45.3224 11.9519
45.3706 11.9889
45.4191 11.907
45.4673 11.8246
45.5158 11.7934
45.5641 11.7457
45.6126 11.7543
45.6609 11.647
45.7094 11.6125
45.7577 11.6178
45.8063 11.5182
45.8546 11.538
45.9031 11.463
45.9515 11.4074
46.0001 11.4288
46.0484 11.3702
46.097 11.341
46.1454 11.298
46.194 11.2497
46.2424 11.2299
46.291 11.1538
46.3395 11.0985
46.3881 11.0507
46.4365 11.0412
46.4852 10.9512
46.5337 10.9256
46.5823 10.9466
46.631 10.8475
46.6795 10.8525
46.7282 10.8256
46.7767 10.7776
46.8254 10.6964
46.8739 10.649
46.9226 10.5769
46.9712 10.5638
47.0199 10.544
47.0685 10.5089
47.1173 10.4699
47.1658 10.4232
47.2146 10.4009
47.2632 10.2997
47.312 10.3533
47.3606 10.2703
47.4095 10.2021
47.4581 10.2287
47.5069 10.1513
47.5556 10.1171
47.6044 10.0923
47.6531 10.0244
47.702 9.99274
47.7507 9.98931
47.7996 9.9374
47.8483 9.90435
47.8972 9.88188
47.9461 9.84665
47.9948 9.72655
48.0438 9.76979
48.0925 9.74247
48.1415 9.71779
48.1902 9.63773
48.2392 9.64478
48.288 9.58599
48.337 9.56155
48.3858 9.50809
48.4348 9.44934
48.4837 9.46036
48.5327 9.41643
48.5815 9.37355
48.6306 9.36326
48.6795 9.30141
48.7285 9.25995
48.7774 9.27746
48.8265 9.28514
48.8754 9.18805
48.9245 9.14016
48.9734 9.10789
49.0226 9.09095
49.0715 9.03454
49.1206 9.01139
49.1696 8.95146
49.2188 8.93933
49.2679 8.84702
49.3169 8.8763
49.3661 8.82329
49.4151 8.78724
49.4643 8.75691
49.5134 8.68882
49.5626 8.65496
49.6117 8.65782
49.6609 8.61432
49.71 8.57055
49.7592 8.56323
49.8083 8.5217
49.8576 8.50108
49.9067 8.45519
49.956 8.44035
50.0052 8.39164
50.0545 8.36575
50.1036 8.33377
50.153 8.30619
50.2022 8.26918
50.2515 8.2169
50.3007 8.16736
50.3501 8.15675
50.3993 8.1452
50.4487 8.09092
50.498 8.09967
50.5474 8.04676
50.5966 8.04332
50.6461 7.95512
50.6955 7.97875
50.7448 7.95111
50.7943 7.92366
50.8436 7.8485
50.8931 7.82323
50.9424 7.77722
50.9919 7.76622
51.0413 7.76574
51.0908 7.71218
51.1402 7.72285
51.1897 7.68352
51.2391 7.62773
51.2887 7.55072
51.3381 7.54348
51.3877 7.55184
51.4371 7.47582
51.4867 7.45414
51.5362 7.45439
51.5858 7.41115
51.6353 7.36178
51.6849 7.37225
51.7344 7.30856
51.7841 7.29605
51.8336 7.25655
51.8833 7.20012
51.9328 7.17533
51.9826 7.18479
52.0323 7.11985
52.0818 7.13202
52.1316 7.07751
52.1812 7.05059
52.231 7.03005
52.2806 6.97603
52.3304 6.9633
52.38 6.90442
52.4298 6.89301
52.4794 6.87076
52.5293 6.82969
52.5789 6.84143
52.6288 6.80813
52.6785 6.74425
52.7284 6.72822
52.7781 6.71114
52.828 6.67775
52.8777 6.63705
52.9276 6.61117
52.9774 6.58895
53.0273 6.57103
53.0771 6.55484
53.1271 6.55144
53.1769 6.4873
53.2269 6.43333
53.2767 6.42709
53.3267 6.40173
53.3765 6.37468
53.4266 6.33482
53.4766 6.35705
53.5265 6.27501
53.5765 6.24952
53.6264 6.21914
53.6765 6.19786
53.7264 6.2132
53.7765 6.13838
53.8265 6.11508
53.8766 6.10136
53.9266 6.09968
53.9767 6.04712
54.0267 6.02748
54.0769 6.03558
54.1269 5.94213
54.1771 5.89624
54.2271 5.87912
54.2773 5.83661
54.3274 5.85096
54.3776 5.82243
54.4277 5.76897
54.478 5.77896
54.528 5.73764
54.5783 5.67591
54.6285 5.65589
54.6788 5.61604
54.7289 5.53819
54.7792 5.52658
54.8296 5.47261
54.8798 5.40014
54.9301 5.40501
54.9803 5.42814
55.0307 5.41201
55.0809 5.31111
55.1314 5.2268
55.1816 5.22712
55.232 5.15713
55.2823 5.15548
55.3328 5.07474
55.383 5.03405
55.4335 4.97641
55.4838 4.93142
55.5344 4.89941
55.5847 4.83642
55.6352 4.81828
55.6856 4.81341
55.7361 4.75464