File: XRD/Ni3Fe_FD0078.xy
TT I
1.27165 11.2789
1.31627 10.2329
1.36089 9.13214
1.40551 8.66871
1.45013 8.86396
1.49476 8.19519
1.53938 8.80896
1.584 7.94735
1.62863 7.41135
1.67325 7.21273
1.71787 6.9343
1.7625 7.13731
1.80712 7.36777
1.85174 6.9269
1.89636 7.094
1.94099 7.21509
1.98562 6.73147
2.03025 6.47776
2.07487 6.59995
2.11949 7.15803
2.16411 5.89851
2.20874 5.96512
2.25338 5.9352
2.298 5.87948
2.34263 5.52302
2.38725 5.63947
2.43188 5.57881
2.4765 5.76738
2.52115 5.13607
2.56577 5.01112
2.6104 6.1133
2.65503 5.84575
2.69965 6.045
2.7443 6.64192
2.78893 6.99914
2.83356 7.37677
2.87818 8.85747
2.92281 9.15459
2.96744 10.5758
3.01209 11.3983
3.05672 12.0806
3.10135 13.3126
3.14599 13.5627
3.19062 15.0869
3.23527 15.509
3.2799 16.1538
3.32454 16.8728
3.36917 17.9347
3.4138 18.9058
3.45844 19.097
3.50309 20.3642
3.54773 20.8174
3.59237 21.7355
3.637 22.0421
3.68164 23.1386
3.7263 23.5647
3.77094 24.3473
3.81558 25.1974
3.86022 25.4367
3.90486 26.8484
3.9495 27.7686
3.99416 28.7319
4.0388 29.7197
4.08344 31.0523
4.12809 31.4247
4.17273 32.6352
4.21738 34.4835
4.26204 35.332
4.30669 36.3936
4.35133 38.948
4.39598 39.8482
4.44063 41.8068
4.4853 42.9983
4.52995 45.4269
4.5746 47.2059
4.61925 49.714
4.6639 52.305
4.70855 55.1534
4.75322 57.7732
4.79788 61.6127
4.84253 65.3578
4.88719 70.2565
4.93184 76.7738
4.97652 86.4557
5.02118 99.861
5.06583 114.623
5.11049 139.045
5.15515 202.304
5.19981 734.097
5.24449 3007.3
5.28916 4124.46
5.33382 8225.22
5.37848 1537.07
5.42315 290.213
5.46783 169.675
5.5125 136.77
5.55716 121.925
5.60183 111.803
5.6465 107.194
5.69117 104.819
5.73586 101.374
5.78053 102.127
5.8252 103.552
5.86988 110.123
5.91455 123.609
5.95924 158.471
6.00392 374.056
6.0486 1173.76
6.09328 1289.43
6.13795 3206.7
6.18263 1382.72
6.22733 218.75
6.27201 114.354
6.3167 88.376
6.36138 77.0429
6.40606 69.8317
6.45075 66.3218
6.49545 63.2744
6.54014 60.6546
6.58483 58.993
6.62952 57.6413
6.67421 56.1427
6.71892 54.5693
6.76361 53.6601
6.8083 52.886
6.853 52.0383
6.89769 52.0189
6.94239 51.2491
6.98711 50.5566
7.03181 50.633
7.07651 50.4558
7.12121 49.7594
7.16591 49.3471
7.21063 49.289
7.25533 49.1706
7.30004 48.9866
7.34475 49.7431
7.38945 50.2272
7.43416 50.1947
7.47889 52.1503
7.5236 76.8642
7.56831 155.457
7.61303 90.5675
7.65774 55.1462
7.70247 52.2803
7.74719 51.7425
7.79191 52.1114
7.83663 52.1405
7.88135 52.9198
7.92607 53.8838
7.97081 54.6507
8.01553 55.8054
8.06026 56.7614
8.10498 58.1196
8.14971 59.7987
8.19446 61.4833
8.23919 64.2693
8.28392 67.5052
8.32865 70.102
8.37339 75.9605
8.41812 82.8423
8.46288 100.441
8.50761 194.362
8.55235 564.007
8.59709 506.33
8.64183 631.256
8.68658 1693.0
8.73134 853.33
8.77609 167.751
8.82083 107.639
8.86558 93.5234
8.91033 87.1194
8.9551 83.4836
8.99985 82.0145
9.04461 81.1236
9.08936 80.0099
9.13412 80.5167
9.17888 83.8334
9.22365 123.196
9.26841 249.91
9.31318 164.377
9.35794 89.0015
9.4027 80.7768
9.44749 80.0933
9.49226 79.7109
9.53703 80.1713
9.5818 81.059
9.62657 82.1277
9.67134 83.3908
9.71614 85.4666
9.76091 87.2597
9.80569 90.1804
9.85047 94.4731
9.89525 101.25
9.94005 116.939
9.98484 202.631
10.0296 519.897
10.0744 492.614
10.1192 393.229
10.164 1044.67
10.2088 1463.05
10.2536 437.202
10.2984 137.864
10.3432 111.594
10.388 104.811
10.4328 122.853
10.4776 209.178
10.5224 196.218
10.5672 159.702
10.612 304.865
10.6568 488.61
10.7017 244.569
10.7465 120.453
10.7913 85.2352
10.8361 77.597
10.8809 74.1031
10.9257 71.3332
10.9706 69.9027
11.0154 68.2573
11.0602 66.8232
11.105 65.587
11.1499 64.1135
11.1947 63.0502
11.2395 62.5696
11.2844 61.574
11.3292 60.8359
11.374 60.1375
11.4189 59.5493
11.4637 59.2442
11.5086 58.4923
11.5534 57.9109
11.5983 57.9399
11.6431 58.0202
11.688 57.4332
11.7328 57.4782
11.7777 57.4222
11.8225 57.608
11.8674 58.7214
11.9122 64.7261
11.9571 92.4384
12.002 96.5177
12.0468 76.2838
12.0917 87.5839
12.1366 93.5496
12.1814 81.3723
12.2263 86.5143
12.2712 144.447
12.3161 173.133
12.3609 95.9749
12.4058 64.545
12.4507 60.3368
12.4956 59.1462
12.5405 58.8735
12.5853 59.1186
12.6302 59.1433
12.6751 59.7281
12.72 60.2299
12.7649 61.0784
12.8098 61.7924
12.8547 62.777
12.8996 64.2212
12.9445 65.5173
12.9894 67.7411
13.0343 70.0303
13.0792 77.2251
13.1242 91.1656
13.1691 132.903
13.214 171.632
13.2589 142.307
13.3038 126.105
13.3487 182.375
13.3937 357.593
13.4386 321.777
13.4835 155.705
13.5285 155.171
13.5734 161.847
13.6183 126.489
13.6633 121.451
13.7082 198.226
13.7531 337.098
13.7981 242.316
13.843 104.023
13.888 79.3403
13.9329 74.2205
13.9779 72.3069
14.0228 70.741
14.0678 69.6229
14.1127 73.4784
14.1577 93.1827
14.2027 95.2624
14.2476 76.6761
14.2926 67.0946
14.3376 65.096
14.3825 64.2719
14.4275 63.9083
14.4725 63.4714
14.5175 63.5793
14.5624 63.4645
14.6074 63.8114
14.6524 64.1462
14.6974 64.8198
14.7424 66.8887
14.7874 76.7386
14.8324 101.275
14.8774 105.167
14.9224 89.6246
14.9674 86.8025
15.0124 112.641
15.0574 188.446
15.1024 188.665
15.1474 104.744
15.1924 73.2103
15.2374 66.288
15.2824 63.703
15.3274 62.4371
15.3725 61.8306
15.4175 61.3229
15.4625 60.737
15.5076 60.7968
15.5526 60.7698
15.5976 60.9932
15.6426 62.5638
15.6877 70.4899
15.7327 90.1102
15.7778 96.0086
15.8228 82.763
15.8679 76.7284
15.9129 87.724
15.958 142.137
16.003 183.666
16.0481 129.555
16.0931 81.3562
16.1382 66.1807
16.1833 59.2023
16.2283 55.7565
16.2734 54.59
16.3185 53.6773
16.3636 53.0401
16.4086 52.2574
16.4537 51.5542
16.4988 51.2617
16.5439 51.1045
16.589 50.591
16.6341 50.5584
16.6792 50.1266
16.7243 50.2079
16.7694 50.0638
16.8145 50.1521
16.8596 50.3223
16.9047 51.924
16.9498 54.6947
16.9949 54.6247
17.04 52.964
17.0851 53.0552
17.1302 56.6939
17.1754 59.1019
17.2205 57.0854
17.2656 55.2361
17.3108 56.5809
17.3559 61.7485
17.401 74.9576
17.4462 76.4183
17.4913 62.8557
17.5365 55.9301
17.5815 54.709
17.6268 54.71
17.6718 55.004
17.7171 55.7254
17.7622 58.6436
17.8074 60.3743
17.8525 61.2888
17.8977 67.8706
17.9428 78.4757
17.9881 78.3113
18.0331 71.5013
18.0784 68.794
18.1237 75.2422
18.1688 101.295
18.214 141.833
18.2591 131.574
18.3044 88.0949
18.3495 69.8667
18.3948 70.3657
18.4399 83.9419
18.4852 99.8012
18.5303 88.5963
18.5756 68.8845
18.6207 61.1525
18.666 58.1446
18.7112 56.2625
18.7565 55.1537
18.8016 54.6798
18.8469 54.1662
18.892 53.8799
18.9374 53.2382
18.9825 52.8666
19.0278 52.7176
19.073 52.7093
19.1183 53.3185
19.1635 55.5087
19.2088 57.4004
19.254 56.5716
19.2993 56.4656
19.3447 58.4211
19.3898 59.7903
19.4352 62.8234
19.4804 70.0233
19.5257 68.4832
19.5709 57.8814
19.6163 51.798
19.6615 50.1533
19.7068 49.5463
19.752 49.3403
19.7974 49.4383
19.8426 50.8156
19.888 52.6716
19.9332 53.7094
19.9786 52.4012
20.0238 51.1338
20.0692 51.9961
20.1144 54.8507
20.1598 60.5371
20.205 66.5035
20.2504 64.575
20.2957 56.2696
20.3411 52.0676
20.3863 53.9334
20.4318 60.0733
20.477 60.9302
20.5224 53.9492
20.5677 48.5532
20.6131 47.0571
20.6586 46.4124
20.7038 46.1386
20.7493 46.3307
20.7945 47.0663
20.84 47.1008
20.8853 46.1908
20.9307 45.1961
20.976 45.3018
21.0215 45.436
21.0668 45.6654
21.1122 45.5029
21.1575 44.9486
21.203 44.7733
21.2483 44.975
21.2938 45.7808
21.3391 47.0305
21.3846 47.8163
21.4299 46.8271
21.4754 45.4222
21.5207 45.318
21.5662 45.2911
21.6116 45.7125
21.6571 47.3635
21.7024 49.0362
21.7479 49.2263
21.7933 47.9912
21.8388 47.7601
21.8843 48.7771
21.9297 50.3286
21.9752 54.3715
22.0206 60.6264
22.0661 60.7944
22.1115 54.9794
22.157 50.641
22.2024 51.3588
22.248 52.8507
22.2933 51.779
22.3389 48.3653
22.3843 46.0782
22.4299 45.3686
22.4753 45.2021
22.5208 45.0655
22.5662 45.0205
22.6118 45.2303
22.6572 45.3685
22.7028 46.5504
22.7483 47.7157
22.7939 48.0842
22.8393 47.3781
22.8849 46.6141
22.9303 46.2836
22.9759 46.531
23.0214 48.07
23.067 52.1483
23.1126 55.2203
23.1581 52.6898
23.2037 48.2703
23.2492 46.1428
23.2948 46.4276
23.3403 47.3705
23.3859 48.3299
23.4314 47.9278
23.477 46.9491
23.5225 46.1356
23.5682 45.6132
23.6137 46.3738
23.6593 49.089
23.7048 53.8042
23.7505 54.5623
23.796 49.6356
23.8417 45.1164
23.8872 43.0784
23.9329 42.5919
23.9784 42.1252
24.0241 41.8839
24.0697 41.7573
24.1154 41.1997
24.1609 41.0698
24.2066 40.8326
24.2522 40.5825
24.2979 40.3666
24.3434 40.3051
24.3892 40.202
24.4349 39.998
24.4805 39.7466
24.5262 39.6556
24.5718 39.5723
24.6175 39.7905
24.6631 40.1152
24.7089 40.204
24.7545 39.939
24.8002 39.5579
24.8458 39.3874
24.8916 39.3354
24.9372 39.4946
24.983 39.4605
25.0286 39.4193
25.0744 39.906
25.12 39.9149
25.1658 39.873
25.2114 39.8372
25.2572 40.4115
25.3029 41.0597
25.3487 40.8259
25.3943 40.2463
25.4402 40.6592
25.4858 41.9497
25.5316 41.6653
25.5773 39.8848
25.6231 38.6355
25.669 38.1223
25.7147 37.9577
25.7605 37.7749
25.8062 38.0838
25.8521 38.1634
25.8977 37.9235
25.9436 37.9444
25.9893 37.3483
26.0352 37.512
26.0809 37.3368
26.1268 37.5645
26.1725 37.8697
26.2184 38.8683
26.2641 39.18
26.31 38.6549
26.3557 37.9859
26.4017 37.812
26.4474 37.6449
26.4933 37.4011
26.5391 37.4575
26.585 37.41
26.6308 37.368
26.6767 37.5793
26.7225 38.1649
26.7684 39.1119
26.8142 39.4401
26.8601 38.7948
26.9059 38.0496
26.9519 37.8409
26.9979 37.7946
27.0437 37.2305
27.0896 36.4965
27.1354 36.3445
27.1814 36.1182
27.2272 36.0205
27.2732 36.0746
27.3191 35.7934
27.3651 35.7758
27.4109 35.5805
27.4569 35.5622
27.5027 35.6223
27.5488 35.489
27.5946 35.5077
27.6407 35.6981
27.6865 36.0424
27.7326 35.9352
27.7784 35.912
27.8245 35.4563
27.8703 35.4416
27.9164 35.3605
27.9623 35.0774
28.0084 35.2693
28.0543 35.2678
28.1003 35.1896
28.1462 35.6398
28.1923 36.1918
28.2384 36.2039
28.2843 35.7593
28.3304 35.3474
28.3764 35.1036
28.4225 34.9041
28.4684 34.4717
28.5145 33.8848
28.5605 33.5208
28.6066 33.3711
28.6526 33.2786
28.6987 33.2405
28.7447 33.0112
28.7908 32.7321
28.8368 32.7073
28.8829 32.6434
28.9289 32.6322
28.9751 32.429
29.0211 32.5811
29.0673 32.6977
29.1133 32.6011
29.1595 32.3071
29.2055 32.038
29.2517 31.7619
29.2977 31.7
29.3439 31.4696
29.3899 31.4147
29.4361 31.4873
29.4824 31.4672
29.5284 31.4881
29.5746 31.576
29.6207 31.357
29.6669 31.0374
29.713 30.7692
29.7593 30.5312
29.8053 30.5214
29.8516 30.4418
29.8977 30.4582
29.9439 30.2586
29.99 30.212
30.0363 30.0984
30.0824 30.1101
30.1287 30.027
30.1748 29.8978
30.2211 29.9459
30.2673 29.7221
30.3136 29.9097
30.3597 30.0296
30.406 30.1195
30.4522 29.9462
30.4985 29.7346
30.5447 29.7043
30.591 29.5494
30.6372 29.5604
30.6835 29.3672
30.7297 29.4513
30.7761 29.5178
30.8224 29.7032
30.8686 29.9088
30.915 29.7562
30.9612 29.6063
31.0076 29.3519
31.0538 29.2209
31.1002 29.1459
31.1464 28.9628
31.1928 28.8119
31.2391 28.8194
31.2855 28.6586
31.3317 28.4916
31.3781 28.4595
31.4244 28.4324
31.4708 28.3661
31.5171 28.3501
31.5636 28.5469
31.6098 28.4411
31.6563 28.5659
31.7026 28.4258
31.7491 28.1211
31.7953 28.065
31.8418 27.9346
31.8881 27.8132
31.9346 27.7144
31.9809 27.6456
32.0275 27.6452
32.074 27.7402
32.1203 27.7794
32.1668 27.6673
32.2132 27.496
32.2597 27.4409
32.306 27.3534
32.3526 27.047
32.399 26.9142
32.4455 26.7856
32.4919 26.6438
32.5385 26.6973
32.5848 26.3715
32.6314 26.3902
32.6778 26.3853
32.7244 26.2607
32.7708 26.1983
32.8174 26.1452
32.8638 25.9336
32.9104 26.0998
32.9569 26.047
33.0035 25.925
33.0499 25.8351
33.0966 25.6732
33.143 25.6447
33.1897 25.496
33.2361 25.4108
33.2828 25.4987
33.3293 25.3213
33.3759 25.397
33.4226 25.4395
33.4691 25.3474
33.5158 25.297
33.5623 25.1113
33.609 24.851
33.6555 24.7459
33.7022 24.5933
33.7487 24.5631
33.7954 24.5011
33.842 24.434
33.8887 24.3731
33.9353 24.3025
33.982 24.2355
34.0286 24.1472
34.0753 24.1259
34.1219 24.0381
34.1687 24.0098
34.2152 23.8638
34.262 23.7412
34.3086 23.5669
34.3554 23.5211
34.402 23.4782
34.4488 23.3661
34.4954 23.4226
34.5422 23.4411
34.5889 23.3232
34.6357 23.0894
34.6825 23.0341
34.7292 22.9778
34.776 22.9576
34.8227 22.8632
34.8695 22.8467
34.9162 22.7308
34.9631 22.6151
35.0098 22.6327
35.0566 22.6202
35.1033 22.5069
35.1502 22.5419
35.1969 22.3872
35.2438 22.4452
35.2906 22.2891
35.3375 22.242
35.3842 22.194
35.4311 22.173
35.4779 22.0562
35.5248 21.964
35.5716 21.9779
35.6185 21.9149
35.6653 21.9967
35.7123 21.8933
35.759 21.7928
35.806 21.6576
35.8528 21.5044
35.8998 21.5133
35.9468 21.4132
35.9936 21.3855
36.0406 21.2743
36.0874 21.2675
36.1345 21.1349
36.1813 21.0938
36.2283 21.058
36.2752 20.939
36.3222 20.9532
36.3691 20.9221
36.4161 20.7657
36.463 20.7164
36.5101 20.7652
36.557 20.6259
36.6041 20.4946
36.651 20.5088
36.6981 20.4515
36.745 20.4272
36.7921 20.3856
36.839 20.3183
36.8861 20.2661
36.9331 20.1347
36.9802 20.0812
37.0272 20.0351
37.0743 19.9662
37.1213 19.856
37.1684 19.8946
37.2154 19.7307
37.2626 19.6157
37.3098 19.6559
37.3568 19.5662
37.404 19.5433
37.451 19.4446
37.4982 19.4603
37.5452 19.2935
37.5924 19.2234
37.6395 19.276
37.6867 19.1835
37.7337 19.1185
37.781 18.9649
37.8281 19.035
37.8753 18.9144
37.9224 18.8719
37.9697 18.8028
38.0168 18.7612
38.064 18.7085
38.1111 18.6618
38.1584 18.5707
38.2056 18.5188
38.2529 18.4304
38.3 18.3266
38.3473 18.3003
38.3945 18.2412
38.4418 18.2628
38.489 18.1052
38.5363 18.1265
38.5837 18.045
38.6309 17.9878
38.6782 17.8784
38.7254 17.8429
38.7728 17.7842
38.82 17.7853
38.8674 17.6514
38.9146 17.5957
38.9621 17.5474
39.0093 17.5978
39.0567 17.4907
39.104 17.427
39.1514 17.3947
39.1987 17.3056
39.2461 17.2288
39.2934 17.2051
39.3409 17.1731
39.3882 16.999
39.4356 17.0008
39.483 16.9798
39.5304 16.9001
39.5778 16.9023
39.6253 16.8943
39.6726 16.7659
39.7201 16.7308
39.7675 16.676
39.815 16.6249
39.8624 16.5366
39.9099 16.5479
39.9575 16.3855
40.0049 16.4051
40.0525 16.3906
40.0999 16.3448
40.1474 16.2362
40.1949 16.1719
40.2425 16.1222
40.2899 16.1009
40.3375 16.0687
40.385 16.0008
40.4326 15.9275
40.48 15.8913
40.5277 15.8604
40.5752 15.8199
40.6228 15.7766
40.6703 15.6799
40.718 15.681
40.7655 15.6471
40.8132 15.5431
40.8607 15.5449
40.9084 15.4963
40.9559 15.4168
41.0036 15.4185
41.0512 15.2891
41.0989 15.3039
41.1465 15.2153
41.1942 15.2035
41.242 15.1238
41.2896 15.053
41.3373 14.9891
41.3849 14.9766
41.4327 14.9373
41.4803 14.8201
41.5281 14.8265
41.5758 14.6734
41.6236 14.6596
41.6712 14.6677
41.7191 14.6095
41.7667 14.5496
41.8146 14.5773
41.8622 14.4687
41.9101 14.4265
41.9578 14.3444
42.0057 14.3306
42.0534 14.2595
42.1013 14.2129
42.149 14.1335
42.1969 14.109
42.2446 14.0921
42.2925 14.0479
42.3403 13.9534
42.3882 13.9305
42.436 13.9156
42.4839 13.8126
42.5319 13.767
42.5797 13.7648
42.6277 13.7238
42.6755 13.6629
42.7235 13.6136
42.7713 13.5461
42.8193 13.5191
42.8671 13.4966
42.9152 13.4511
42.963 13.3547
43.0111 13.3426
43.0589 13.2716
43.107 13.2575
43.1549 13.1909
43.2029 13.1242
43.2508 13.1099
43.2989 13.0419
43.3468 12.9805
43.3949 12.994
43.4429 12.9241
43.491 12.9228
43.5389 12.8486
43.5871 12.8171
43.635 12.7594
43.6832 12.6807
43.7312 12.6626
43.7793 12.6447
43.8273 12.5597
43.8755 12.5607
43.9237 12.5263
43.9717 12.4333
44.0199 12.4175
44.068 12.4297
44.1162 12.3424
44.1642 12.3346
44.2125 12.2535
44.2606 12.1921
44.3088 12.1447
44.3569 12.1241
44.4052 12.068
44.4533 12.0396
44.5016 11.939
44.5497 11.9645
44.598 11.8645
44.6461 11.875
44.6945 11.781
44.7426 11.7699
44.791 11.7513
44.8391 11.7018
44.8875 11.6851
44.9357 11.5847
44.984 11.5763
45.0322 11.5083
45.0806 11.4661
45.1288 11.4854
45.1773 11.4062
45.2257 11.4389
45.2739 11.3057
45.3224 11.2771
45.3706 11.2561
45.4191 11.2263
45.4673 11.2234
45.5158 11.1746
45.5641 11.1331
45.6126 11.0396
45.6609 11.0411
45.7094 10.9475
45.7577 10.9387
45.8063 10.8954
45.8546 10.8936
45.9031 10.8438
45.9515 10.7976
46.0001 10.7638
46.0484 10.7418
46.097 10.6541
46.1454 10.6164
46.194 10.6706
46.2424 10.5506
46.291 10.503
46.3395 10.4775
46.3881 10.4511
46.4365 10.4369
46.4852 10.4013
46.5337 10.3379
46.5823 10.308
46.631 10.258
46.6795 10.2349
46.7282 10.2323
46.7767 10.1421
46.8254 10.1171
46.8739 10.0588
46.9226 10.017
46.9712 9.97952
47.0199 9.92088
47.0685 9.90673
47.1173 9.87577
47.1658 9.8264
47.2146 9.78244
47.2632 9.77944
47.312 9.74976
47.3606 9.7132
47.4095 9.64718
47.4581 9.63311
47.5069 9.60923
47.5556 9.59596
47.6044 9.51266
47.6531 9.49285
47.702 9.44351
47.7507 9.42353
47.7996 9.39091
47.8483 9.3748
47.8972 9.34663
47.9461 9.3016
47.9948 9.26669
48.0438 9.23028
48.0925 9.19825
48.1415 9.1533
48.1902 9.13036
48.2392 9.10617
48.288 9.07697
48.337 9.05855
48.3858 8.97661
48.4348 8.9711
48.4837 8.98886
48.5327 8.87301
48.5815 8.84978
48.6306 8.87111
48.6795 8.81374
48.7285 8.76559
48.7774 8.73684
48.8265 8.74945
48.8754 8.68217
48.9245 8.6305
48.9734 8.61058
49.0226 8.60556
49.0715 8.5434
49.1206 8.50836
49.1696 8.48898
49.2188 8.45445
49.2679 8.41831
49.3169 8.3741
49.3661 8.36304
49.4151 8.34781
49.4643 8.33148
49.5134 8.28872
49.5626 8.21488
49.6117 8.20981
49.6609 8.17901
49.71 8.13497
49.7592 8.13521
49.8083 8.10434
49.8576 8.05658
49.9067 7.98488
49.956 8.02086
50.0052 7.95618
50.0545 7.94847
50.1036 7.93263
50.153 7.86146
50.2022 7.86229
50.2515 7.83796
50.3007 7.78169
50.3501 7.73298
50.3993 7.72215
50.4487 7.70093
50.498 7.67179
50.5474 7.64124
50.5966 7.54263
50.6461 7.56939
50.6955 7.55965
50.7448 7.53547
50.7943 7.49457
50.8436 7.4998
50.8931 7.4355
50.9424 7.38697
50.9919 7.37427
51.0413 7.3333
51.0908 7.31136
51.1402 7.30386
51.1897 7.25581
51.2391 7.20985
51.2887 7.21128
51.3381 7.19008
51.3877 7.14433
51.4371 7.07867
51.4867 7.08339
51.5362 7.06301
51.5858 7.04618
51.6353 7.00781
51.6849 6.96183
51.7344 6.96575
51.7841 6.95433
51.8336 6.84736
51.8833 6.82924
51.9328 6.84362
51.9826 6.79095
52.0323 6.79227
52.0818 6.71238
52.1316 6.68986
52.1812 6.67527
52.231 6.65097
52.2806 6.6206
52.3304 6.61254
52.38 6.5433
52.4298 6.544
52.4794 6.54105
52.5293 6.48108
52.5789 6.47966
52.6288 6.407
52.6785 6.40995
52.7284 6.37968
52.7781 6.35216
52.828 6.32738
52.8777 6.26879
52.9276 6.28614
52.9774 6.2411
53.0273 6.24091
53.0771 6.21028
53.1271 6.20762
53.1769 6.14473
53.2269 6.11903
53.2767 6.09866
53.3267 6.07263
53.3765 6.05749
53.4266 6.00015
53.4766 5.98142
53.5265 5.93744
53.5765 5.91412
53.6264 5.86277
53.6765 5.89569
53.7264 5.86719
53.7765 5.86087
53.8265 5.79216
53.8766 5.74372
53.9266 5.74621
53.9767 5.71681
54.0267 5.70373
54.0769 5.66675
54.1269 5.60855
54.1771 5.55853
54.2271 5.57553
54.2773 5.51485
54.3274 5.50705
54.3776 5.41025
54.4277 5.40511
54.478 5.3876
54.528 5.34157
54.5783 5.31353
54.6285 5.22024
54.6788 5.18297
54.7289 5.14736
54.7792 5.13348
54.8296 5.03314
54.8798 5.03769
54.9301 4.96443
54.9803 4.9291
55.0307 4.93092
55.0809 4.88908
55.1314 4.82389
55.1816 4.80684
55.232 4.75056
55.2823 4.74004
55.3328 4.63809
55.383 4.57624
55.4335 4.56928
55.4838 4.56836
55.5344 4.46526
55.5847 4.48207
55.6352 4.44727
55.6856 4.44858
55.7361 4.44136