File: XRD/Ni3Fe_FD0432.xy
TT I
1.27165 7.39732
1.31627 6.98147
1.36089 7.26317
1.40551 6.20827
1.45013 6.3288
1.49476 6.10891
1.53938 6.18889
1.584 5.39531
1.62863 5.14842
1.67325 5.05808
1.71787 5.41826
1.7625 4.94299
1.80712 5.3725
1.85174 5.26683
1.89636 5.02014
1.94099 4.82764
1.98562 5.03135
2.03025 4.60097
2.07487 4.85105
2.11949 5.01575
2.16411 5.13409
2.20874 14.0319
2.25338 22.0642
2.298 5.41055
2.34263 5.33087
2.38725 5.53067
2.43188 6.23937
2.4765 6.44557
2.52115 6.43023
2.56577 6.77353
2.6104 8.22793
2.65503 7.18801
2.69965 7.27146
2.7443 7.66793
2.78893 7.74133
2.83356 8.54114
2.87818 8.72303
2.92281 9.50795
2.96744 9.46174
3.01209 10.3339
3.05672 10.7839
3.10135 12.2915
3.14599 12.9032
3.19062 14.5405
3.23527 14.9967
3.2799 15.7129
3.32454 16.9958
3.36917 18.3315
3.4138 19.1244
3.45844 19.9872
3.50309 21.7388
3.54773 22.3968
3.59237 24.7043
3.637 92.8672
3.68164 58.4031
3.7263 26.5134
3.77094 26.7458
3.81558 26.984
3.86022 27.7683
3.90486 29.0698
3.9495 30.3463
3.99416 31.3888
4.0388 32.8053
4.08344 34.0308
4.12809 35.4799
4.17273 37.3578
4.21738 43.3088
4.26204 246.495
4.30669 214.346
4.35133 49.2884
4.39598 44.9009
4.44063 54.5369
4.4853 66.086
4.52995 51.0935
4.5746 51.9346
4.61925 54.0916
4.6639 56.4309
4.70855 59.0302
4.75322 62.185
4.79788 64.5038
4.84253 68.1184
4.88719 72.9467
4.93184 76.1816
4.97652 82.5483
5.02118 89.0628
5.06583 97.567
5.11049 111.154
5.15515 184.076
5.19981 430.69
5.24449 3143.67
5.28916 11616.4
5.33382 3187.89
5.37848 207.609
5.42315 134.441
5.46783 116.378
5.5125 108.174
5.55716 104.088
5.60183 100.401
5.6465 98.2962
5.69117 96.1066
5.73586 94.2122
5.78053 93.4478
5.8252 93.5373
5.86988 94.6587
5.91455 97.4625
5.95924 107.735
6.00392 241.895
6.0486 1076.63
6.09328 4169.26
6.13795 3495.59
6.18263 277.129
6.22733 97.6631
6.27201 84.9046
6.3167 103.573
6.36138 81.7192
6.40606 69.9704
6.45075 68.7454
6.49545 66.25
6.54014 64.7885
6.58483 63.7228
6.62952 63.727
6.67421 93.9517
6.71892 143.758
6.76361 69.7023
6.8083 59.6763
6.853 58.3876
6.89769 58.0139
6.94239 57.2731
6.98711 56.4109
7.03181 56.4798
7.07651 56.2159
7.12121 56.2894
7.16591 56.4439
7.21063 56.4125
7.25533 70.9677
7.30004 176.952
7.34475 92.2989
7.38945 57.3284
7.43416 55.2509
7.47889 54.9629
7.5236 55.6268
7.56831 56.1846
7.61303 58.1072
7.65774 58.3376
7.70247 56.9592
7.74719 56.8872
7.79191 57.4916
7.83663 57.846
7.88135 58.7469
7.92607 59.6511
7.97081 60.9218
8.01553 61.886
8.06026 63.1973
8.10498 65.0799
8.14971 74.1542
8.19446 73.1869
8.23919 70.9274
8.28392 73.0476
8.32865 75.0084
8.37339 79.7663
8.41812 87.1537
8.46288 117.164
8.50761 179.649
8.55235 427.716
8.59709 1179.54
8.64183 2156.34
8.68658 1033.87
8.73134 178.863
8.77609 102.133
8.82083 94.6074
8.86558 91.2445
8.91033 91.2424
8.9551 92.9958
8.99985 86.3817
9.04461 84.767
9.08936 83.9158
9.13412 83.0507
9.17888 82.9075
9.22365 84.1011
9.26841 83.2763
9.31318 83.8704
9.35794 83.968
9.4027 84.7183
9.44749 84.9167
9.49226 85.7737
9.53703 86.5013
9.5818 88.6786
9.62657 93.4425
9.67134 100.108
9.71614 95.4976
9.76091 95.6194
9.80569 98.1406
9.85047 102.01
9.89525 126.015
9.94005 140.18
9.98484 192.249
10.0296 374.352
10.0744 823.509
10.1192 1694.34
10.164 1674.28
10.2088 440.413
10.2536 133.65
10.2984 115.297
10.3432 116.976
10.388 106.936
10.4328 122.958
10.4776 169.629
10.5224 283.748
10.5672 503.629
10.612 506.4
10.6568 214.834
10.7017 98.5037
10.7465 87.8171
10.7913 84.4185
10.8361 82.3316
10.8809 80.2813
10.9257 79.5264
10.9706 80.1115
11.0154 76.1989
11.0602 73.6253
11.105 73.0981
11.1499 77.0316
11.1947 84.1929
11.2395 75.8494
11.2844 71.2368
11.3292 68.4258
11.374 67.1665
11.4189 66.7256
11.4637 65.8826
11.5086 66.392
11.5534 69.4293
11.5983 66.6771
11.6431 64.5584
11.688 63.9131
11.7328 63.9132
11.7777 63.8712
11.8225 63.2563
11.8674 63.2611
11.9122 64.0917
11.9571 64.1587
12.002 64.8093
12.0468 69.7219
12.0917 82.0143
12.1366 105.563
12.1814 152.837
12.2263 205.316
12.2712 170.834
12.3161 98.7998
12.3609 71.7618
12.4058 65.7778
12.4507 65.3039
12.4956 65.514
12.5405 65.6418
12.5853 66.7219
12.6302 74.1775
12.6751 79.806
12.72 71.3722
12.7649 68.9188
12.8098 69.5304
12.8547 70.7898
12.8996 72.1031
12.9445 73.2256
12.9894 75.3355
13.0343 77.0414
13.0792 80.5272
13.1242 91.0329
13.1691 117.462
13.214 155.824
13.2589 238.836
13.3038 362.204
13.3487 426.537
13.3937 276.368
13.4386 130.04
13.4835 109.531
13.5285 126.295
13.5734 163.37
13.6183 244.587
13.6633 342.433
13.7082 351.488
13.7531 199.115
13.7981 100.205
13.843 83.2648
13.888 81.036
13.9329 78.3507
13.9779 77.1561
14.0228 75.3494
14.0678 74.1356
14.1127 74.1009
14.1577 73.5663
14.2027 72.6926
14.2476 71.7075
14.2926 71.7517
14.3376 72.8147
14.3825 71.5392
14.4275 69.8939
14.4725 69.9114
14.5175 70.1999
14.5624 70.4229
14.6074 72.3851
14.6524 72.9107
14.6974 71.76
14.7424 73.4028
14.7874 81.1636
14.8324 92.544
14.8774 113.603
14.9224 152.967
14.9674 203.408
15.0124 220.685
15.0574 155.88
15.1024 94.0483
15.1474 73.7443
15.1924 71.646
15.2374 71.961
15.2824 71.4054
15.3274 69.2039
15.3725 67.8549
15.4175 67.3442
15.4625 67.4019
15.5076 67.2433
15.5526 67.2732
15.5976 67.0236
15.6426 68.2263
15.6877 74.407
15.7327 82.9141
15.7778 97.876
15.8228 126.18
15.8679 166.634
15.9129 192.805
15.958 160.399
16.003 98.378
16.0481 69.4121
16.0931 65.6553
16.1382 63.9729
16.1833 61.7348
16.2283 59.8339
16.2734 59.5395
16.3185 59.67
16.3636 60.503
16.4086 58.8422
16.4537 57.2417
16.4988 56.4935
16.5439 56.5689
16.589 56.0192
16.6341 55.8585
16.6792 55.4365
16.7243 55.9135
16.7694 55.8208
16.8145 55.7422
16.8596 56.1044
16.9047 57.9118
16.9498 57.8303
16.9949 56.6324
17.04 56.8958
17.0851 58.3092
17.1302 59.9865
17.1754 63.2427
17.2205 68.0083
17.2656 74.4535
17.3108 82.1291
17.3559 83.3882
17.401 72.7107
17.4462 63.0135
17.4913 60.1773
17.5365 60.0869
17.5815 60.4356
17.6268 60.6352
17.6718 61.2717
17.7171 62.035
17.7622 62.4863
17.8074 63.0837
17.8525 65.7011
17.8977 70.1697
17.9428 76.0193
17.9881 84.5428
18.0331 100.413
18.0784 120.344
18.1237 139.812
18.1688 133.87
18.214 107.471
18.2591 88.5706
18.3044 91.0185
18.3495 100.22
18.3948 107.191
18.4399 99.0872
18.4852 79.0439
18.5303 67.2061
18.5756 63.3117
18.6207 62.3762
18.666 61.5167
18.7112 60.634
18.7565 59.8924
18.8016 59.7802
18.8469 59.0979
18.892 58.716
18.9374 58.2911
18.9825 58.0326
19.0278 57.9884
19.073 58.0705
19.1183 58.4251
19.1635 59.4691
19.2088 60.7864
19.254 63.3301
19.2993 67.3418
19.3447 73.2389
19.3898 77.8164
19.4352 74.268
19.4804 64.781
19.5257 57.7683
19.5709 55.1002
19.6163 54.7848
19.6615 54.7634
19.7068 54.1146
19.752 54.2499
19.7974 54.7044
19.8426 55.6921
19.888 56.141
19.9332 57.6054
19.9786 59.6754
20.0238 63.3388
20.0692 67.8439
20.1144 70.9161
20.1598 69.9483
20.205 64.865
20.2504 62.8983
20.2957 64.5237
20.3411 66.7928
20.3863 65.5535
20.4318 59.809
20.477 54.7006
20.5224 52.4815
20.5677 51.9353
20.6131 51.1207
20.6586 50.6322
20.7038 50.4247
20.7493 49.9582
20.7945 50.01
20.84 49.6651
20.8853 49.7032
20.9307 49.3918
20.976 49.6404
21.0215 49.6424
21.0668 50.0229
21.1122 50.2286
21.1575 50.9771
21.203 51.7608
21.2483 52.1308
21.2938 52.4522
21.3391 51.0562
21.3846 49.8086
21.4299 49.2764
21.4754 49.2367
21.5207 49.41
21.5662 49.8695
21.6116 50.2333
21.6571 51.0026
21.7024 52.007
21.7479 53.651
21.7933 56.2451
21.8388 59.7759
21.8843 63.519
21.9297 65.6335
21.9752 64.8778
22.0206 60.8676
22.0661 57.489
22.1115 56.861
22.157 57.1292
22.2024 55.5063
22.248 52.6702
22.2933 50.8675
22.3389 50.1076
22.3843 50.0368
22.4299 49.8342
22.4753 49.9905
22.5208 49.499
22.5662 49.1995
22.6118 49.5708
22.6572 49.7863
22.7028 50.2245
22.7483 50.8158
22.7939 51.2647
22.8393 52.841
22.8849 54.9176
22.9303 56.7846
22.9759 58.7963
23.0214 58.4352
23.067 55.7623
23.1126 52.1197
23.1581 50.146
23.2037 49.5979
23.2492 49.7563
23.2948 49.8124
23.3403 50.3134
23.3859 50.8829
23.4314 51.8799
23.477 53.2873
23.5225 55.3887
23.5682 57.6829
23.6137 58.8792
23.6593 57.0285
23.7048 53.0642
23.7505 49.2976
23.796 47.589
23.8417 46.6461
23.8872 46.4553
23.9329 46.0932
23.9784 45.7527
24.0241 45.5112
24.0697 45.1942
24.1154 44.8026
24.1609 44.8518
24.2066 44.6541
24.2522 44.5481
24.2979 44.1594
24.3434 44.1625
24.3892 43.9851
24.4349 43.9229
24.4805 43.6928
24.5262 43.9705
24.5718 43.844
24.6175 43.6248
24.6631 43.5416
24.7089 43.4124
24.7545 43.1931
24.8002 43.0832
24.8458 43.1026
24.8916 42.9788
24.9372 43.0923
24.983 43.2234
25.0286 43.6132
25.0744 44.1459
25.12 44.6182
25.1658 45.2464
25.2114 45.3512
25.2572 45.5411
25.3029 45.5779
25.3487 45.7886
25.3943 45.5005
25.4402 44.4291
25.4858 43.4225
25.5316 42.211
25.5773 41.8698
25.6231 41.6844
25.669 41.2183
25.7147 41.2833
25.7605 41.2387
25.8062 41.2876
25.8521 41.4331
25.8977 41.3815
25.9436 41.5934
25.9893 41.8014
26.0352 42.1621
26.0809 42.3105
26.1268 42.5007
26.1725 42.0962
26.2184 41.655
26.2641 41.0246
26.31 40.8955
26.3557 40.8393
26.4017 40.8738
26.4474 41.1891
26.4933 41.5437
26.5391 42.0985
26.585 42.4582
26.6308 42.7503
26.6767 42.8673
26.7225 42.778
26.7684 42.3084
26.8142 41.5223
26.8601 41.2605
26.9059 40.7625
26.9519 40.1439
26.9979 39.9255
27.0437 39.679
27.0896 39.4913
27.1354 39.4817
27.1814 39.3282
27.2272 39.2793
27.2732 39.2893
27.3191 39.1192
27.3651 39.265
27.4109 39.2624
27.4569 39.2286
27.5027 39.1317
27.5488 39.2784
27.5946 39.0806
27.6407 38.8878
27.6865 38.792
27.7326 38.5409
27.7784 38.5396
27.8245 38.6453
27.8703 38.7447
27.9164 38.9708
27.9623 39.0263
28.0084 39.2553
28.0543 39.7683
28.1003 39.7943
28.1462 39.5748
28.1923 39.1127
28.2384 38.5952
28.2843 38.3807
28.3304 37.8962
28.3764 37.3887
28.4225 37.052
28.4684 36.9045
28.5145 36.6857
28.5605 36.571
28.6066 36.3981
28.6526 36.3494
28.6987 36.2744
28.7447 36.0963
28.7908 36.0864
28.8368 36.0886
28.8829 36.14
28.9289 36.026
28.9751 35.7224
29.0211 35.6195
29.0673 35.3425
29.1133 35.1506
29.1595 35.1943
29.2055 34.9851
29.2517 35.0011
29.2977 34.9956
29.3439 34.9689
29.3899 34.9266
29.4361 34.7493
29.4824 34.5776
29.5284 34.3635
29.5746 33.9964
29.6207 33.7506
29.6669 33.6785
29.713 33.5284
29.7593 33.4411
29.8053 33.5111
29.8516 33.3793
29.8977 33.3774
29.9439 33.2253
29.99 33.1386
30.0363 33.0963
30.0824 33.2237
30.1287 33.0209
30.1748 32.9333
30.2211 33.0273
30.2673 32.8366
30.3136 32.9152
30.3597 32.8823
30.406 32.711
30.4522 32.723
30.4985 32.6641
30.5447 32.703
30.591 32.7419
30.6372 32.706
30.6835 32.7089
30.7297 32.9032
30.7761 32.8491
30.8224 32.4909
30.8686 32.5838
30.915 32.1513
30.9612 32.0433
31.0076 31.773
31.0538 31.7061
31.1002 31.7133
31.1464 31.4735
31.1928 31.5629
31.2391 31.5659
31.2855 31.3514
31.3317 31.4469
31.3781 31.4438
31.4244 31.3695
31.4708 31.3828
31.5171 31.4218
31.5636 31.357
31.6098 31.1593
31.6563 30.8777
31.7026 30.7916
31.7491 30.689
31.7953 30.7308
31.8418 30.7519
31.8881 30.6114
31.9346 30.6172
31.9809 30.6082
32.0275 30.5743
32.074 30.3673
32.1203 30.147
32.1668 30.1072
32.2132 29.959
32.2597 29.7877
32.306 29.7201
32.3526 29.5071
32.399 29.5121
32.4455 29.2588
32.4919 29.2602
32.5385 29.1701
32.5848 28.9531
32.6314 29.1273
32.6778 28.935
32.7244 28.7942
32.7708 28.6672
32.8174 28.692
32.8638 28.4769
32.9104 28.5831
32.9569 28.4688
33.0035 28.3635
33.0499 28.3886
33.0966 28.3132
33.143 28.3333
33.1897 28.2475
33.2361 28.1439
33.2828 28.095
33.3293 27.9273
33.3759 27.8963
33.4226 27.6971
33.4691 27.5915
33.5158 27.5815
33.5623 27.3761
33.609 27.2516
33.6555 27.1825
33.7022 27.1295
33.7487 27.0301
33.7954 26.961
33.842 26.8555
33.8887 26.8492
33.9353 26.7078
33.982 26.5561
34.0286 26.5907
34.0753 26.4045
34.1219 26.4011
34.1687 26.3445
34.2152 26.3082
34.262 26.1759
34.3086 26.0071
34.3554 25.9118
34.402 25.8536
34.4488 25.7343
34.4954 25.7126
34.5422 25.6353
34.5889 25.5869
34.6357 25.4479
34.6825 25.4491
34.7292 25.3143
34.776 25.2512
34.8227 25.1962
34.8695 25.0327
34.9162 25.0928
34.9631 24.9421
35.0098 24.8995
35.0566 24.8151
35.1033 24.6887
35.1502 24.7146
35.1969 24.6596
35.2438 24.6194
35.2906 24.5498
35.3375 24.4771
35.3842 24.4221
35.4311 24.4635
35.4779 24.3921
35.5248 24.4659
35.5716 24.1802
35.6185 24.1564
35.6653 24.0255
35.7123 23.8803
35.759 23.9451
35.806 23.7296
35.8528 23.6172
35.8998 23.6475
35.9468 23.5856
35.9936 23.487
36.0406 23.4159
36.0874 23.4546
36.1345 23.3751
36.1813 23.2331
36.2283 23.1319
36.2752 22.963
36.3222 23.1344
36.3691 22.9378
36.4161 22.8274
36.463 22.7847
36.5101 22.8011
36.557 22.7063
36.6041 22.604
36.651 22.5714
36.6981 22.5727
36.745 22.4983
36.7921 22.3741
36.839 22.2197
36.8861 22.2568
36.9331 22.1855
36.9802 22.0916
37.0272 21.9774
37.0743 21.9017
37.1213 21.9078
37.1684 21.7763
37.2154 21.703
37.2626 21.6356
37.3098 21.5745
37.3568 21.5046
37.404 21.5193
37.451 21.3227
37.4982 21.3176
37.5452 21.2107
37.5924 21.2033
37.6395 21.1959
37.6867 21.1645
37.7337 20.9788
37.781 20.9808
37.8281 20.8909
37.8753 20.7643
37.9224 20.7126
37.9697 20.6286
38.0168 20.5296
38.064 20.5353
38.1111 20.4868
38.1584 20.4234
38.2056 20.3894
38.2529 20.237
38.3 20.2143
38.3473 20.1798
38.3945 20.071
38.4418 20.0244
38.489 19.9948
38.5363 19.9156
38.5837 19.8303
38.6309 19.8108
38.6782 19.6798
38.7254 19.6155
38.7728 19.585
38.82 19.4403
38.8674 19.4128
38.9146 19.3909
38.9621 19.3238
39.0093 19.2901
39.0567 19.254
39.104 19.1907
39.1514 19.0156
39.1987 18.9711
39.2461 18.9462
39.2934 18.9197
39.3409 18.7551
39.3882 18.749
39.4356 18.7056
39.483 18.6544
39.5304 18.6122
39.5778 18.4894
39.6253 18.5199
39.6726 18.4348
39.7201 18.3237
39.7675 18.3531
39.815 18.2627
39.8624 18.1911
39.9099 18.1835
39.9575 18.0823
40.0049 18.0295
40.0525 17.9457
40.0999 17.951
40.1474 17.8218
40.1949 17.7671
40.2425 17.7449
40.2899 17.7266
40.3375 17.5966
40.385 17.5429
40.4326 17.4807
40.48 17.4558
40.5277 17.4326
40.5752 17.3308
40.6228 17.2685
40.6703 17.1689
40.718 17.1793
40.7655 17.1799
40.8132 17.0444
40.8607 17.1038
40.9084 16.9645
40.9559 16.9123
41.0036 16.8628
41.0512 16.8256
41.0989 16.7502
41.1465 16.671
41.1942 16.6371
41.242 16.5434
41.2896 16.5252
41.3373 16.4789
41.3849 16.4145
41.4327 16.3749
41.4803 16.2511
41.5281 16.2519
41.5758 16.1661
41.6236 16.1122
41.6712 16.0788
41.7191 16.1075
41.7667 15.9807
41.8146 15.9964
41.8622 15.9145
41.9101 15.8499
41.9578 15.687
42.0057 15.6804
42.0534 15.6675
42.1013 15.6236
42.149 15.5195
42.1969 15.4667
42.2446 15.4447
42.2925 15.4222
42.3403 15.3565
42.3882 15.3467
42.436 15.289
42.4839 15.1231
42.5319 15.1434
42.5797 15.0988
42.6277 15.0594
42.6755 15.0025
42.7235 14.9593
42.7713 14.8202
42.8193 14.8086
42.8671 14.7676
42.9152 14.6656
42.963 14.6885
43.0111 14.62
43.0589 14.5685
43.107 14.5575
43.1549 14.5121
43.2029 14.4225
43.2508 14.3747
43.2989 14.3466
43.3468 14.3188
43.3949 14.1883
43.4429 14.1893
43.491 14.1971
43.5389 14.095
43.5871 14.0182
43.635 13.9574
43.6832 13.9454
43.7312 13.899
43.7793 13.8435
43.8273 13.7602
43.8755 13.6971
43.9237 13.6917
43.9717 13.6353
44.0199 13.598
44.068 13.6345
44.1162 13.4898
44.1642 13.5157
44.2125 13.4721
44.2606 13.3792
44.3088 13.3278
44.3569 13.2949
44.4052 13.2519
44.4533 13.1514
44.5016 13.1118
44.5497 13.121
44.598 13.0311
44.6461 12.9826
44.6945 12.9713
44.7426 12.8996
44.791 12.8619
44.8391 12.8133
44.8875 12.7937
44.9357 12.7556
44.984 12.6842
45.0322 12.6532
45.0806 12.6441
45.1288 12.5396
45.1773 12.5021
45.2257 12.4546
45.2739 12.4148
45.3224 12.3997
45.3706 12.3486
45.4191 12.2849
45.4673 12.2607
45.5158 12.2177
45.5641 12.1462
45.6126 12.1598
45.6609 12.0694
45.7094 12.0279
45.7577 11.9863
45.8063 11.9231
45.8546 11.9453
45.9031 11.8952
45.9515 11.8097
46.0001 11.7812
46.0484 11.7625
46.097 11.7049
46.1454 11.6529
46.194 11.642
46.2424 11.5367
46.291 11.504
46.3395 11.4617
46.3881 11.4117
46.4365 11.4231
46.4852 11.355
46.5337 11.2988
46.5823 11.3136
46.631 11.2471
46.6795 11.1302
46.7282 11.1472
46.7767 11.1252
46.8254 11.0548
46.8739 11.0168
46.9226 10.9869
46.9712 10.9442
47.0199 10.8993
47.0685 10.8498
47.1173 10.87
47.1658 10.8024
47.2146 10.7692
47.2632 10.6528
47.312 10.6363
47.3606 10.5911
47.4095 10.5219
47.4581 10.5601
47.5069 10.5389
47.5556 10.4664
47.6044 10.4222
47.6531 10.423
47.702 10.3457
47.7507 10.2765
47.7996 10.2791
47.8483 10.2575
47.8972 10.2096
47.9461 10.1622
47.9948 10.1024
48.0438 10.1073
48.0925 10.0809
48.1415 10.0467
48.1902 9.96605
48.2392 9.95615
48.288 9.93267
48.337 9.87215
48.3858 9.85431
48.4348 9.7965
48.4837 9.78385
48.5327 9.72533
48.5815 9.70289
48.6306 9.6709
48.6795 9.62942
48.7285 9.59937
48.7774 9.52246
48.8265 9.54131
48.8754 9.46291
48.9245 9.46992
48.9734 9.40974
49.0226 9.39092
49.0715 9.36001
49.1206 9.32188
49.1696 9.26196
49.2188 9.25684
49.2679 9.18424
49.3169 9.11668
49.3661 9.12576
49.4151 9.10112
49.4643 9.09505
49.5134 9.03919
49.5626 8.9855
49.6117 8.96267
49.6609 8.95312
49.71 8.87771
49.7592 8.84814
49.8083 8.78001
49.8576 8.80444
49.9067 8.73954
49.956 8.72995
50.0052 8.69809
50.0545 8.67758
50.1036 8.62803
50.153 8.58554
50.2022 8.57253
50.2515 8.49997
50.3007 8.50083
50.3501 8.43591
50.3993 8.40135
50.4487 8.42258
50.498 8.38155
50.5474 8.35633
50.5966 8.292
50.6461 8.23247
50.6955 8.21533
50.7448 8.17755
50.7943 8.16383
50.8436 8.19266
50.8931 8.09214
50.9424 8.09631
50.9919 8.03922
51.0413 8.01721
51.0908 8.01432
51.1402 7.92472
51.1897 7.93066
51.2391 7.90197
51.2887 7.85507
51.3381 7.8075
51.3877 7.77923
51.4371 7.7532
51.4867 7.72178
51.5362 7.68147
51.5858 7.6642
51.6353 7.6067
51.6849 7.58521
51.7344 7.56586
51.7841 7.56477
51.8336 7.47964
51.8833 7.48281
51.9328 7.4631
51.9826 7.41151
52.0323 7.34018
52.0818 7.35327
52.1316 7.30398
52.1812 7.25705
52.231 7.26371
52.2806 7.23482
52.3304 7.21389
52.38 7.1788
52.4298 7.14032
52.4794 7.11671
52.5293 7.06635
52.5789 7.07144
52.6288 7.02989
52.6785 6.95076
52.7284 6.93105
52.7781 6.97587
52.828 6.91667
52.8777 6.87115
52.9276 6.82958
52.9774 6.78273
53.0273 6.80505
53.0771 6.76771
53.1271 6.78937
53.1769 6.69132
53.2269 6.65734
53.2767 6.64498
53.3267 6.60908
53.3765 6.60667
53.4266 6.57084
53.4766 6.5247
53.5265 6.50728
53.5765 6.4685
53.6264 6.4717
53.6765 6.41497
53.7264 6.3754
53.7765 6.34394
53.8265 6.33427
53.8766 6.35552
53.9266 6.25619
53.9767 6.25246
54.0267 6.22036
54.0769 6.18641
54.1269 6.1535
54.1771 6.15142
54.2271 6.11334
54.2773 6.08493
54.3274 6.07157
54.3776 6.02397
54.4277 5.99753
54.478 5.93909
54.528 5.91469
54.5783 5.90606
54.6285 5.81538
54.6788 5.78816
54.7289 5.80431
54.7792 5.70696
54.8296 5.65065
54.8798 5.59905
54.9301 5.56259
54.9803 5.55739
55.0307 5.53311
55.0809 5.44401
55.1314 5.50494
55.1816 5.38437
55.232 5.37689
55.2823 5.30063
55.3328 5.23378
55.383 5.16488
55.4335 5.11811
55.4838 5.07852
55.5344 5.05293
55.5847 4.97661
55.6352 4.97112
55.6856 4.93632
55.7361 4.8999