File: XRD/Ni3Fe_FD0907.xy
TT I
1.27165 7.15098
1.31627 6.37107
1.36089 7.01682
1.40551 6.51206
1.45013 6.28056
1.49476 5.98451
1.53938 6.16117
1.584 5.45722
1.62863 5.23964
1.67325 4.53255
1.71787 5.02043
1.7625 4.7594
1.80712 4.75593
1.85174 4.74698
1.89636 4.68651
1.94099 4.79534
1.98562 4.704
2.03025 4.35562
2.07487 3.85425
2.11949 4.48776
2.16411 4.61217
2.20874 11.3205
2.25338 14.7581
2.298 5.90063
2.34263 5.69457
2.38725 6.15881
2.43188 5.90271
2.4765 7.09835
2.52115 6.96416
2.56577 8.77366
2.6104 8.45716
2.65503 8.3963
2.69965 8.58946
2.7443 8.13591
2.78893 8.41249
2.83356 8.35965
2.87818 9.49058
2.92281 9.09785
2.96744 9.31413
3.01209 10.3461
3.05672 10.9666
3.10135 12.172
3.14599 12.9024
3.19062 14.4447
3.23527 15.1045
3.2799 15.6456
3.32454 16.292
3.36917 18.0124
3.4138 18.8796
3.45844 19.2545
3.50309 20.3458
3.54773 21.4719
3.59237 23.1308
3.637 64.2923
3.68164 43.7768
3.7263 25.5794
3.77094 25.4188
3.81558 26.9132
3.86022 27.2876
3.90486 28.8624
3.9495 28.8046
3.99416 30.3605
4.0388 31.2355
4.08344 33.0241
4.12809 33.7774
4.17273 35.5833
4.21738 40.4386
4.26204 161.943
4.30669 141.836
4.35133 45.2809
4.39598 43.5143
4.44063 49.6897
4.4853 57.2047
4.52995 51.927
4.5746 53.2259
4.61925 52.7434
4.6639 54.5537
4.70855 57.0106
4.75322 60.4548
4.79788 64.4492
4.84253 66.9077
4.88719 71.9357
4.93184 74.6615
4.97652 79.423
5.02118 85.6837
5.06583 92.8313
5.11049 103.326
5.15515 154.568
5.19981 342.982
5.24449 2693.59
5.28916 13672.1
5.33382 2616.15
5.37848 175.651
5.42315 124.752
5.46783 113.271
5.5125 106.693
5.55716 100.258
5.60183 95.8493
5.6465 94.919
5.69117 92.974
5.73586 91.0062
5.78053 92.7217
5.8252 92.0357
5.86988 94.2916
5.91455 92.8398
5.95924 101.343
6.00392 209.608
6.0486 913.393
6.09328 4570.52
6.13795 3018.85
6.18263 194.403
6.22733 87.9428
6.27201 79.0754
6.3167 88.6225
6.36138 75.3864
6.40606 68.0623
6.45075 67.0296
6.49545 64.1191
6.54014 62.3569
6.58483 62.0409
6.62952 61.5949
6.67421 79.525
6.71892 106.945
6.76361 63.4457
6.8083 57.8401
6.853 57.6827
6.89769 56.0546
6.94239 55.2645
6.98711 54.7743
7.03181 54.6294
7.07651 54.2748
7.12121 54.0739
7.16591 54.566
7.21063 54.5208
7.25533 63.522
7.30004 123.98
7.34475 74.956
7.38945 54.6782
7.43416 53.0951
7.47889 53.0963
7.5236 53.7634
7.56831 54.0221
7.61303 55.4102
7.65774 55.4621
7.70247 55.3251
7.74719 55.387
7.79191 55.5529
7.83663 55.7626
7.88135 56.8313
7.92607 57.8702
7.97081 58.6635
8.01553 59.5102
8.06026 61.3244
8.10498 62.9391
8.14971 70.1721
8.19446 69.7494
8.23919 68.466
8.28392 70.5798
8.32865 72.8917
8.37339 77.0108
8.41812 83.0713
8.46288 103.634
8.50761 164.98
8.55235 364.295
8.59709 1192.4
8.64183 2283.93
8.68658 838.478
8.73134 141.98
8.77609 95.8301
8.82083 90.1009
8.86558 89.1173
8.91033 89.0428
8.9551 88.1202
8.99985 84.1389
9.04461 81.9867
9.08936 81.7922
9.13412 80.9825
9.17888 80.662
9.22365 81.1089
9.26841 80.6982
9.31318 82.288
9.35794 83.157
9.4027 83.2231
9.44749 83.0749
9.49226 83.387
9.53703 84.2076
9.5818 86.3134
9.62657 91.3399
9.67134 94.3203
9.71614 91.5627
9.76091 92.6749
9.80569 96.3033
9.85047 98.5668
9.89525 114.422
9.94005 127.148
9.98484 178.044
10.0296 326.404
10.0744 816.492
10.1192 1848.81
10.164 1488.54
10.2088 331.316
10.2536 118.48
10.2984 107.803
10.3432 108.264
10.388 102.365
10.4328 117.381
10.4776 156.872
10.5224 287.486
10.5672 542.05
10.612 489.586
10.6568 180.557
10.7017 92.3272
10.7465 84.783
10.7913 81.4623
10.8361 79.4742
10.8809 77.3165
10.9257 76.6214
10.9706 76.5333
11.0154 73.2616
11.0602 71.3537
11.105 70.4083
11.1499 72.5578
11.1947 75.9693
11.2395 70.6969
11.2844 68.0256
11.3292 65.701
11.374 64.5832
11.4189 64.2324
11.4637 63.8938
11.5086 63.6709
11.5534 65.1293
11.5983 63.5422
11.6431 62.4864
11.688 61.7068
11.7328 61.9103
11.7777 61.5926
11.8225 61.5329
11.8674 61.3272
11.9122 61.6983
11.9571 61.801
12.002 62.8278
12.0468 66.7446
12.0917 76.9347
12.1366 101.137
12.1814 157.006
12.2263 218.183
12.2712 154.907
12.3161 85.812
12.3609 66.5701
12.4058 62.9161
12.4507 63.0538
12.4956 63.4019
12.5405 63.5868
12.5853 63.8314
12.6302 68.7068
12.6751 72.1326
12.72 67.3638
12.7649 66.4055
12.8098 67.1199
12.8547 68.664
12.8996 69.8527
12.9445 71.3019
12.9894 72.8079
13.0343 74.5362
13.0792 78.2049
13.1242 88.2384
13.1691 108.91
13.214 144.497
13.2589 242.195
13.3038 390.549
13.3487 425.247
13.3937 232.076
13.4386 113.98
13.4835 103.4
13.5285 117.246
13.5734 155.823
13.6183 257.297
13.6633 374.862
13.7082 332.482
13.7531 167.121
13.7981 91.3893
13.843 79.8261
13.888 77.875
13.9329 75.6091
13.9779 74.4661
14.0228 72.7707
14.0678 71.6653
14.1127 71.2371
14.1577 70.6812
14.2027 69.929
14.2476 68.8373
14.2926 68.708
14.3376 69.4134
14.3825 68.6127
14.4275 67.7055
14.4725 67.4155
14.5175 67.6791
14.5624 67.7461
14.6074 69.1823
14.6524 69.3768
14.6974 69.3751
14.7424 71.2189
14.7874 77.7555
14.8324 86.9613
14.8774 109.484
14.9224 157.023
14.9674 217.845
15.0124 214.371
15.0574 138.81
15.1024 84.1128
15.1474 70.4506
15.1924 68.7459
15.2374 68.8785
15.2824 67.7961
15.3274 66.3922
15.3725 65.3686
15.4175 65.1286
15.4625 64.6252
15.5076 64.8268
15.5526 64.8512
15.5976 64.9501
15.6426 66.0208
15.6877 71.1305
15.7327 77.9469
15.7778 92.8731
15.8228 128.013
15.8679 176.152
15.9129 194.195
15.958 146.001
16.003 87.8933
16.0481 64.6994
16.0931 62.093
16.1382 60.5779
16.1833 59.1574
16.2283 57.5973
16.2734 57.1918
16.3185 57.1072
16.3636 57.2214
16.4086 56.1478
16.4537 54.9316
16.4988 54.3314
16.5439 54.1932
16.589 54.0028
16.6341 53.7981
16.6792 53.2194
16.7243 53.8137
16.7694 53.705
16.8145 53.6324
16.8596 53.9338
16.9047 54.8093
16.9498 55.0347
16.9949 54.429
17.04 54.8547
17.0851 55.822
17.1302 57.4218
17.1754 60.4843
17.2205 65.6869
17.2656 74.6086
17.3108 83.3932
17.3559 80.1801
17.401 67.5197
17.4462 59.7831
17.4913 57.7919
17.5365 58.0038
17.5815 58.0788
17.6268 58.4813
17.6718 59.1866
17.7171 59.7351
17.7622 60.1066
17.8074 60.9226
17.8525 63.5723
17.8977 67.1153
17.9428 72.0614
17.9881 81.3005
18.0331 100.323
18.0784 125.097
18.1237 139.682
18.1688 124.877
18.214 96.4435
18.2591 83.4298
18.3044 90.5417
18.3495 102.19
18.3948 105.615
18.4399 91.2533
18.4852 73.2042
18.5303 63.9104
18.5756 60.5674
18.6207 60.0327
18.666 59.3038
18.7112 58.5936
18.7565 57.9929
18.8016 57.6699
18.8469 56.747
18.892 56.4575
18.9374 56.2096
18.9825 55.9557
19.0278 55.7325
19.073 55.7382
19.1183 56.3459
19.1635 56.7206
19.2088 58.1089
19.254 61.0031
19.2993 66.2287
19.3447 72.1243
19.3898 74.7616
19.4352 69.2236
19.4804 60.6478
19.5257 54.9084
19.5709 53.0982
19.6163 52.8271
19.6615 52.7965
19.7068 52.3729
19.752 52.2579
19.7974 52.5477
19.8426 53.5305
19.888 53.6702
19.9332 55.2133
19.9786 58.0921
20.0238 62.2274
20.0692 67.4132
20.1144 69.4378
20.1598 66.3318
20.205 61.6086
20.2504 61.2351
20.2957 63.967
20.3411 65.495
20.3863 62.635
20.4318 56.4768
20.477 51.8056
20.5224 50.4225
20.5677 49.8805
20.6131 49.2337
20.6586 48.7612
20.7038 48.6017
20.7493 48.1866
20.7945 48.3521
20.84 47.9665
20.8853 47.6965
20.9307 47.6323
20.976 47.765
21.0215 47.4667
21.0668 48.1012
21.1122 48.6121
21.1575 49.2555
21.203 50.114
21.2483 50.6278
21.2938 50.2011
21.3391 48.9647
21.3846 47.8192
21.4299 47.3876
21.4754 47.4652
21.5207 47.6585
21.5662 48.0412
21.6116 48.5754
21.6571 49.0207
21.7024 49.9453
21.7479 51.7149
21.7933 54.7177
21.8388 59.1029
21.8843 63.0903
21.9297 64.2186
21.9752 61.3661
22.0206 57.4946
22.0661 55.4588
22.1115 55.7109
22.157 54.8402
22.2024 52.6343
22.248 50.0868
22.2933 48.6616
22.3389 48.1809
22.3843 47.9232
22.4299 47.9393
22.4753 47.9246
22.5208 47.563
22.5662 47.6581
22.6118 47.8064
22.6572 48.0671
22.7028 48.3099
22.7483 48.6916
22.7939 49.4829
22.8393 51.2183
22.8849 53.4922
22.9303 55.9987
22.9759 57.4427
23.0214 56.1062
23.067 52.9535
23.1126 49.6096
23.1581 48.1717
23.2037 47.8241
23.2492 48.1165
23.2948 47.7675
23.3403 48.1988
23.3859 48.7383
23.4314 49.9765
23.477 52.0766
23.5225 54.4686
23.5682 56.9221
23.6137 57.2681
23.6593 54.0582
23.7048 49.8659
23.7505 46.8381
23.796 45.6877
23.8417 45.1902
23.8872 44.7673
23.9329 44.3828
23.9784 44.0836
24.0241 43.8677
24.0697 43.7085
24.1154 43.2443
24.1609 43.1415
24.2066 42.926
24.2522 42.9007
24.2979 42.688
24.3434 42.4251
24.3892 42.2477
24.4349 42.169
24.4805 42.2571
24.5262 42.3305
24.5718 42.1294
24.6175 42.1729
24.6631 42.0483
24.7089 41.7149
24.7545 41.6014
24.8002 41.4348
24.8458 41.4564
24.8916 41.3329
24.9372 41.4967
24.983 41.8459
25.0286 42.2119
25.0744 42.6444
25.12 43.1208
25.1658 43.7575
25.2114 43.9108
25.2572 44.0266
25.3029 44.1219
25.3487 44.3129
25.3943 43.6641
25.4402 42.5245
25.4858 41.3795
25.5316 40.575
25.5773 40.1722
25.6231 40.112
25.669 39.7367
25.7147 39.7857
25.7605 39.7339
25.8062 39.656
25.8521 39.8122
25.8977 39.7036
25.9436 40.0801
25.9893 40.2682
26.0352 40.8442
26.0809 40.8764
26.1268 41.0053
26.1725 40.5517
26.2184 39.9751
26.2641 39.4097
26.31 39.3459
26.3557 39.4218
26.4017 39.3942
26.4474 39.7692
26.4933 40.0246
26.5391 40.4624
26.585 41.0957
26.6308 41.5523
26.6767 41.4881
26.7225 41.1913
26.7684 40.7097
26.8142 40.1442
26.8601 39.6969
26.9059 39.2292
26.9519 38.6356
26.9979 38.3517
27.0437 38.14
27.0896 37.9789
27.1354 38.1911
27.1814 37.9472
27.2272 37.9451
27.2732 37.7494
27.3191 37.6042
27.3651 37.8843
27.4109 37.7248
27.4569 37.8833
27.5027 37.968
27.5488 38.0297
27.5946 37.7366
27.6407 37.5323
27.6865 37.4697
27.7326 37.1784
27.7784 37.1498
27.8245 37.1581
27.8703 37.3404
27.9164 37.6457
27.9623 37.7881
28.0084 38.309
28.0543 38.5415
28.1003 38.3964
28.1462 37.9439
28.1923 37.9156
28.2384 37.1863
28.2843 36.9263
28.3304 36.405
28.3764 35.9361
28.4225 35.6819
28.4684 35.5853
28.5145 35.161
28.5605 35.1491
28.6066 35.0231
28.6526 35.0493
28.6987 34.9803
28.7447 34.9355
28.7908 34.7828
28.8368 34.7959
28.8829 34.8525
28.9289 34.6306
28.9751 34.5407
29.0211 34.3339
29.0673 33.9495
29.1133 33.9358
29.1595 33.8583
29.2055 33.733
29.2517 33.6974
29.2977 33.665
29.3439 33.7318
29.3899 33.5629
29.4361 33.6531
29.4824 33.3422
29.5284 33.1572
29.5746 32.8007
29.6207 32.5247
29.6669 32.5394
29.713 32.3323
29.7593 32.3494
29.8053 32.3763
29.8516 32.157
29.8977 32.0675
29.9439 32.0334
29.99 31.9562
30.0363 31.8347
30.0824 32.1346
30.1287 31.7925
30.1748 31.8648
30.2211 31.8433
30.2673 31.6542
30.3136 31.7656
30.3597 31.5952
30.406 31.62
30.4522 31.4531
30.4985 31.4837
30.5447 31.5928
30.591 31.5692
30.6372 31.6813
30.6835 31.7737
30.7297 31.7205
30.7761 31.5567
30.8224 31.3995
30.8686 31.2608
30.915 30.97
30.9612 30.8803
31.0076 30.7687
31.0538 30.6373
31.1002 30.5819
31.1464 30.4221
31.1928 30.3383
31.2391 30.4532
31.2855 30.3368
31.3317 30.3846
31.3781 30.5162
31.4244 30.4154
31.4708 30.3323
31.5171 30.3647
31.5636 30.2063
31.6098 30.0008
31.6563 29.9251
31.7026 29.6635
31.7491 29.5119
31.7953 29.6413
31.8418 29.6485
31.8881 29.6405
31.9346 29.5428
31.9809 29.5062
32.0275 29.3229
32.074 29.2102
32.1203 29.1325
32.1668 28.9887
32.2132 28.7919
32.2597 28.7247
32.306 28.5958
32.3526 28.5334
32.399 28.4013
32.4455 28.2314
32.4919 28.1378
32.5385 28.0041
32.5848 28.0015
32.6314 27.9975
32.6778 27.9025
32.7244 27.7552
32.7708 27.6602
32.8174 27.647
32.8638 27.5898
32.9104 27.5656
32.9569 27.4873
33.0035 27.4378
33.0499 27.4116
33.0966 27.2955
33.143 27.3567
33.1897 27.2907
33.2361 27.0724
33.2828 27.1484
33.3293 26.9213
33.3759 26.8602
33.4226 26.792
33.4691 26.6653
33.5158 26.5446
33.5623 26.4223
33.609 26.2647
33.6555 26.2759
33.7022 26.1876
33.7487 26.0109
33.7954 25.9863
33.842 25.9323
33.8887 25.881
33.9353 25.8317
33.982 25.6628
34.0286 25.4874
34.0753 25.4868
34.1219 25.5282
34.1687 25.3689
34.2152 25.3031
34.262 25.2255
34.3086 25.0901
34.3554 25.0922
34.402 24.925
34.4488 24.875
34.4954 24.7735
34.5422 24.6804
34.5889 24.5872
34.6357 24.5552
34.6825 24.4874
34.7292 24.4453
34.776 24.3117
34.8227 24.2773
34.8695 24.3145
34.9162 24.1949
34.9631 24.0283
35.0098 24.0715
35.0566 23.9356
35.1033 23.8771
35.1502 23.8501
35.1969 23.6793
35.2438 23.7477
35.2906 23.6667
35.3375 23.6232
35.3842 23.5184
35.4311 23.551
35.4779 23.59
35.5248 23.4631
35.5716 23.4341
35.6185 23.2981
35.6653 23.2134
35.7123 23.0871
35.759 23.0795
35.806 22.9714
35.8528 22.8218
35.8998 22.8446
35.9468 22.7245
35.9936 22.7316
36.0406 22.6289
36.0874 22.67
36.1345 22.5345
36.1813 22.4379
36.2283 22.3293
36.2752 22.3183
36.3222 22.2484
36.3691 22.216
36.4161 22.0207
36.463 22.1008
36.5101 22.0357
36.557 21.9704
36.6041 21.8038
36.651 21.763
36.6981 21.7793
36.745 21.6505
36.7921 21.6085
36.839 21.4525
36.8861 21.3654
36.9331 21.3064
36.9802 21.3106
37.0272 21.259
37.0743 21.0901
37.1213 21.0634
37.1684 20.9889
37.2154 21.0172
37.2626 20.9004
37.3098 20.8893
37.3568 20.7408
37.404 20.7197
37.451 20.5963
37.4982 20.5764
37.5452 20.3888
37.5924 20.435
37.6395 20.5003
37.6867 20.3673
37.7337 20.2399
37.781 20.1545
37.8281 20.1337
37.8753 20.0399
37.9224 19.9707
37.9697 19.8641
38.0168 19.7727
38.064 19.8219
38.1111 19.7574
38.1584 19.6739
38.2056 19.5834
38.2529 19.5685
38.3 19.4859
38.3473 19.4462
38.3945 19.3081
38.4418 19.3445
38.489 19.2673
38.5363 19.1784
38.5837 19.1317
38.6309 19.0702
38.6782 18.9662
38.7254 18.9445
38.7728 18.8289
38.82 18.7729
38.8674 18.7655
38.9146 18.7067
38.9621 18.6159
39.0093 18.6111
39.0567 18.5374
39.104 18.4445
39.1514 18.3032
39.1987 18.3041
39.2461 18.3027
39.2934 18.2095
39.3409 18.202
39.3882 18.0589
39.4356 18.0797
39.483 18.012
39.5304 17.9182
39.5778 17.9025
39.6253 17.8401
39.6726 17.7416
39.7201 17.7153
39.7675 17.7098
39.815 17.6638
39.8624 17.5542
39.9099 17.5313
39.9575 17.3646
40.0049 17.3124
40.0525 17.3348
40.0999 17.3074
40.1474 17.1748
40.1949 17.1573
40.2425 17.0347
40.2899 17.083
40.3375 17.033
40.385 16.9338
40.4326 16.8746
40.48 16.8516
40.5277 16.798
40.5752 16.6989
40.6228 16.7004
40.6703 16.6564
40.718 16.6131
40.7655 16.5261
40.8132 16.4565
40.8607 16.4754
40.9084 16.3585
40.9559 16.3149
41.0036 16.2952
41.0512 16.1772
41.0989 16.1529
41.1465 16.1518
41.1942 16.0453
41.242 15.9409
41.2896 15.9669
41.3373 15.8557
41.3849 15.8054
41.4327 15.7712
41.4803 15.675
41.5281 15.7317
41.5758 15.6689
41.6236 15.499
41.6712 15.4736
41.7191 15.39
41.7667 15.4924
41.8146 15.4022
41.8622 15.3022
41.9101 15.2975
41.9578 15.1958
42.0057 15.1999
42.0534 15.0775
42.1013 15.0699
42.149 15.0563
42.1969 14.9456
42.2446 14.8798
42.2925 14.8671
42.3403 14.797
42.3882 14.7939
42.436 14.7489
42.4839 14.6652
42.5319 14.5696
42.5797 14.5818
42.6277 14.5356
42.6755 14.4494
42.7235 14.42
42.7713 14.3953
42.8193 14.2836
42.8671 14.3291
42.9152 14.2494
42.963 14.1767
43.0111 14.1793
43.0589 14.0919
43.107 14.0135
43.1549 13.9933
43.2029 13.9603
43.2508 13.8895
43.2989 13.8324
43.3468 13.788
43.3949 13.7303
43.4429 13.704
43.491 13.6118
43.5389 13.6014
43.5871 13.5694
43.635 13.5151
43.6832 13.4991
43.7312 13.4354
43.7793 13.3621
43.8273 13.31
43.8755 13.2736
43.9237 13.2177
43.9717 13.209
44.0199 13.1045
44.068 13.1109
44.1162 13.0744
44.1642 13.035
44.2125 12.9447
44.2606 12.9389
44.3088 12.8911
44.3569 12.8711
44.4052 12.8013
44.4533 12.724
44.5016 12.6858
44.5497 12.6603
44.598 12.5658
44.6461 12.5455
44.6945 12.4958
44.7426 12.4599
44.791 12.4301
44.8391 12.3713
44.8875 12.3608
44.9357 12.3085
44.984 12.2294
45.0322 12.1733
45.0806 12.1325
45.1288 12.151
45.1773 12.0445
45.2257 12.0323
45.2739 12.0002
45.3224 11.9207
45.3706 11.8986
45.4191 11.8213
45.4673 11.8346
45.5158 11.7741
45.5641 11.7198
45.6126 11.729
45.6609 11.6026
45.7094 11.5851
45.7577 11.5635
45.8063 11.5093
45.8546 11.4718
45.9031 11.4639
45.9515 11.3927
46.0001 11.3662
46.0484 11.3592
46.097 11.3198
46.1454 11.2313
46.194 11.221
46.2424 11.1851
46.291 11.1092
46.3395 11.0899
46.3881 11.0661
46.4365 11.0428
46.4852 10.9455
46.5337 10.9458
46.5823 10.9302
46.631 10.8047
46.6795 10.8179
46.7282 10.7653
46.7767 10.7505
46.8254 10.6335
46.8739 10.6377
46.9226 10.6133
46.9712 10.5718
47.0199 10.5208
47.0685 10.5024
47.1173 10.4712
47.1658 10.4014
47.2146 10.3858
47.2632 10.3392
47.312 10.2791
47.3606 10.2565
47.4095 10.2208
47.4581 10.2099
47.5069 10.1521
47.5556 10.1275
47.6044 10.0646
47.6531 10.0354
47.702 9.98305
47.7507 9.98968
47.7996 9.93059
47.8483 9.91386
47.8972 9.85539
47.9461 9.79966
47.9948 9.7442
48.0438 9.69903
48.0925 9.69623
48.1415 9.65642
48.1902 9.65139
48.2392 9.60927
48.288 9.58547
48.337 9.53799
48.3858 9.49152
48.4348 9.47257
48.4837 9.41067
48.5327 9.38383
48.5815 9.32229
48.6306 9.33402
48.6795 9.29623
48.7285 9.23428
48.7774 9.2296
48.8265 9.239
48.8754 9.15386
48.9245 9.1226
48.9734 9.08
49.0226 9.09691
49.0715 8.99835
49.1206 8.99646
49.1696 8.95741
49.2188 8.92038
49.2679 8.86731
49.3169 8.81287
49.3661 8.81402
49.4151 8.80173
49.4643 8.77199
49.5134 8.74755
49.5626 8.65043
49.6117 8.62185
49.6609 8.61333
49.71 8.53387
49.7592 8.55426
49.8083 8.51592
49.8576 8.50329
49.9067 8.4418
49.956 8.43059
50.0052 8.37323
50.0545 8.34321
50.1036 8.3354
50.153 8.29542
50.2022 8.24186
50.2515 8.2262
50.3007 8.17737
50.3501 8.16352
50.3993 8.12063
50.4487 8.06927
50.498 8.08217
50.5474 8.02544
50.5966 8.01262
50.6461 7.96401
50.6955 7.94683
50.7448 7.88554
50.7943 7.88605
50.8436 7.87676
50.8931 7.82646
50.9424 7.81376
50.9919 7.74415
51.0413 7.74618
51.0908 7.72767
51.1402 7.65173
51.1897 7.64173
51.2391 7.65779
51.2887 7.59592
51.3381 7.52833
51.3877 7.53656
51.4371 7.47345
51.4867 7.45559
51.5362 7.44632
51.5858 7.4034
51.6353 7.37317
51.6849 7.31989
51.7344 7.31691
51.7841 7.25501
51.8336 7.23593
51.8833 7.21314
51.9328 7.20836
51.9826 7.15713
52.0323 7.14507
52.0818 7.1085
52.1316 7.0535
52.1812 7.00927
52.231 7.02539
52.2806 6.96259
52.3304 6.92503
52.38 6.91939
52.4298 6.89845
52.4794 6.84799
52.5293 6.82431
52.5789 6.81011
52.6288 6.77337
52.6785 6.76918
52.7284 6.74501
52.7781 6.70518
52.828 6.66072
52.8777 6.60515
52.9276 6.58949
52.9774 6.61737
53.0273 6.522
53.0771 6.55142
53.1271 6.50394
53.1769 6.48125
53.2269 6.47213
53.2767 6.41722
53.3267 6.39793
53.3765 6.35795
53.4266 6.36299
53.4766 6.33146
53.5265 6.27565
53.5765 6.26239
53.6264 6.23473
53.6765 6.20396
53.7264 6.16019
53.7765 6.16411
53.8265 6.13238
53.8766 6.0999
53.9266 6.09071
53.9767 6.0673
54.0267 5.95611
54.0769 6.02057
54.1269 5.95658
54.1771 5.89405
54.2271 5.92179
54.2773 5.83405
54.3274 5.88569
54.3776 5.79132
54.4277 5.72824
54.478 5.73234
54.528 5.71899
54.5783 5.67076
54.6285 5.6608
54.6788 5.61139
54.7289 5.54545
54.7792 5.53451
54.8296 5.4503
54.8798 5.47167
54.9301 5.37958
54.9803 5.37025
55.0307 5.33919
55.0809 5.28564
55.1314 5.25192
55.1816 5.19995
55.232 5.14018
55.2823 5.12121
55.3328 5.09235
55.383 5.03257
55.4335 4.9759
55.4838 4.89631
55.5344 4.93082
55.5847 4.87718
55.6352 4.82974
55.6856 4.72682
55.7361 4.76141