File: XRD/Ni3Fe_FD0285.xy
TT I
1.27165 7.51039
1.31627 7.07892
1.36089 7.13039
1.40551 6.82858
1.45013 6.2635
1.49476 6.63922
1.53938 6.38924
1.584 5.80656
1.62863 5.26311
1.67325 5.70367
1.71787 5.86956
1.7625 5.19761
1.80712 5.35887
1.85174 5.25735
1.89636 4.55641
1.94099 5.17279
1.98562 5.29393
2.03025 4.86369
2.07487 4.67877
2.11949 5.26016
2.16411 5.05692
2.20874 15.9453
2.25338 26.4712
2.298 5.5361
2.34263 4.01553
2.38725 4.97281
2.43188 4.8966
2.4765 5.50673
2.52115 5.58867
2.56577 5.8878
2.6104 6.97192
2.65503 6.44255
2.69965 6.70205
2.7443 7.02269
2.78893 7.57102
2.83356 7.91952
2.87818 8.26972
2.92281 9.21681
2.96744 9.4295
3.01209 10.6615
3.05672 10.8842
3.10135 12.9192
3.14599 13.3101
3.19062 14.2554
3.23527 15.0422
3.2799 15.7431
3.32454 17.0057
3.36917 17.5707
3.4138 19.1504
3.45844 20.2548
3.50309 21.1512
3.54773 22.3238
3.59237 24.9074
3.637 106.608
3.68164 66.1845
3.7263 27.5046
3.77094 26.9419
3.81558 27.6056
3.86022 28.1271
3.90486 29.5547
3.9495 30.7173
3.99416 31.8043
4.0388 33.3814
4.08344 34.9491
4.12809 36.0678
4.17273 38.4445
4.21738 45.7787
4.26204 286.202
4.30669 255.113
4.35133 51.9542
4.39598 46.4157
4.44063 57.4436
4.4853 70.8732
4.52995 53.5467
4.5746 53.4183
4.61925 55.271
4.6639 57.3979
4.70855 60.5445
4.75322 63.209
4.79788 66.7012
4.84253 69.9044
4.88719 74.7654
4.93184 78.703
4.97652 84.5571
5.02118 92.0037
5.06583 100.916
5.11049 115.756
5.15515 205.084
5.19981 513.875
5.24449 3208.0
5.28916 11067.3
5.33382 4166.37
5.37848 260.605
5.42315 147.998
5.46783 125.119
5.5125 114.088
5.55716 108.433
5.60183 103.821
5.6465 102.202
5.69117 99.4015
5.73586 97.5869
5.78053 97.8003
5.8252 97.2968
5.86988 98.6338
5.91455 101.231
5.95924 113.465
6.00392 265.029
6.0486 1105.04
6.09328 3694.22
6.13795 3712.06
6.18263 384.756
6.22733 107.526
6.27201 89.8098
6.3167 111.896
6.36138 86.1952
6.40606 73.0649
6.45075 70.6336
6.49545 68.5159
6.54014 66.6943
6.58483 66.1067
6.62952 65.6424
6.67421 101.342
6.71892 164.063
6.76361 72.9996
6.8083 61.5903
6.853 60.3595
6.89769 59.0411
6.94239 58.7971
6.98711 57.9833
7.03181 58.0092
7.07651 57.4266
7.12121 57.3641
7.16591 58.3239
7.21063 58.0898
7.25533 74.9373
7.30004 207.444
7.34475 101.604
7.38945 59.2588
7.43416 57.0871
7.47889 56.3464
7.5236 56.6828
7.56831 57.5364
7.61303 59.5739
7.65774 60.1
7.70247 58.7435
7.74719 58.6416
7.79191 58.7265
7.83663 59.2562
7.88135 60.079
7.92607 61.0533
7.97081 62.3101
8.01553 63.2735
8.06026 64.7162
8.10498 66.551
8.14971 78.0224
8.19446 76.5174
8.23919 72.6879
8.28392 74.8769
8.32865 77.0105
8.37339 81.9639
8.41812 90.3549
8.46288 125.847
8.50761 193.013
8.55235 453.526
8.59709 1039.06
8.64183 2055.43
8.68658 1271.84
8.73134 233.082
8.77609 109.398
8.82083 98.7152
8.86558 94.6222
8.91033 95.2127
8.9551 96.6856
8.99985 89.614
9.04461 87.1444
9.08936 86.4779
9.13412 85.5053
9.17888 85.2162
9.22365 85.9972
9.26841 85.5247
9.31318 86.3628
9.35794 86.338
9.4027 87.1095
9.44749 87.411
9.49226 88.0637
9.53703 88.8506
9.5818 91.3233
9.62657 96.3843
9.67134 104.393
9.71614 97.9704
9.76091 97.6912
9.80569 100.837
9.85047 104.685
9.89525 132.702
9.94005 149.432
9.98484 202.308
10.0296 399.758
10.0744 739.846
10.1192 1504.35
10.164 1775.04
10.2088 600.984
10.2536 151.607
10.2984 122.108
10.3432 122.985
10.388 110.847
10.4328 128.706
10.4776 177.154
10.5224 262.391
10.5672 456.621
10.612 551.879
10.6568 262.227
10.7017 107.999
10.7465 91.5698
10.7913 87.1857
10.8361 84.878
10.8809 82.7926
10.9257 82.1994
10.9706 83.3957
11.0154 78.4269
11.0602 75.9475
11.105 74.715
11.1499 79.9543
11.1947 89.606
11.2395 78.3459
11.2844 73.8624
11.3292 70.0611
11.374 69.0295
11.4189 68.6724
11.4637 67.8625
11.5086 67.911
11.5534 71.8781
11.5983 68.9965
11.6431 66.5302
11.688 65.6486
11.7328 65.5381
11.7777 65.5652
11.8225 65.3752
11.8674 65.0498
11.9122 65.4043
11.9571 65.64
12.002 66.2321
12.0468 71.5978
12.0917 85.1748
12.1366 103.878
12.1814 139.988
12.2263 201.047
12.2712 191.801
12.3161 115.647
12.3609 76.8066
12.4058 67.9258
12.4507 66.9985
12.4956 67.1998
12.5405 67.63
12.5853 68.1975
12.6302 77.2941
12.6751 84.2683
12.72 73.5462
12.7649 70.8198
12.8098 71.3144
12.8547 72.3339
12.8996 73.8884
12.9445 75.2836
12.9894 76.9239
13.0343 78.8834
13.0792 82.3324
13.1242 93.3222
13.1691 123.191
13.214 157.402
13.2589 218.299
13.3038 328.32
13.3487 433.704
13.3937 321.361
13.4386 150.342
13.4835 115.086
13.5285 132.603
13.5734 160.499
13.6183 220.811
13.6633 317.587
13.7082 365.643
13.7531 235.484
13.7981 112.401
13.843 86.6324
13.888 83.2387
13.9329 80.3293
13.9779 79.0653
14.0228 77.3825
14.0678 76.096
14.1127 75.5812
14.1577 75.5893
14.2027 74.5694
14.2476 73.4087
14.2926 73.7606
14.3376 74.911
14.3825 73.2604
14.4275 71.5956
14.4725 71.403
14.5175 71.5051
14.5624 71.754
14.6074 74.2939
14.6524 74.9224
14.6974 73.4539
14.7424 75.4457
14.7874 83.5015
14.8324 95.9703
14.8774 111.837
14.9224 140.722
14.9674 189.797
15.0124 223.17
15.0574 174.481
15.1024 104.466
15.1474 77.0789
15.1924 73.9904
15.2374 74.8696
15.2824 73.8011
15.3274 71.3316
15.3725 69.7871
15.4175 69.0703
15.4625 68.8246
15.5076 69.1797
15.5526 69.0297
15.5976 68.5444
15.6426 70.0347
15.6877 76.7426
15.7327 86.1726
15.7778 97.3455
15.8228 117.734
15.8679 154.682
15.9129 191.748
15.958 175.624
16.003 115.796
16.0481 74.5901
16.0931 68.2737
16.1382 66.064
16.1833 63.472
16.2283 61.5631
16.2734 60.9959
16.3185 61.2055
16.3636 62.3154
16.4086 60.4239
16.4537 58.7207
16.4988 58.091
16.5439 57.6908
16.589 57.5186
16.6341 57.383
16.6792 56.7833
16.7243 57.1913
16.7694 57.2892
16.8145 57.1928
16.8596 57.7339
16.9047 59.3702
16.9498 59.6553
16.9949 58.2213
17.04 58.0662
17.0851 59.335
17.1302 61.533
17.1754 64.4834
17.2205 67.6393
17.2656 73.4949
17.3108 82.0598
17.3559 85.8656
17.401 77.4864
17.4462 66.4402
17.4913 61.8786
17.5365 61.4755
17.5815 61.5857
17.6268 61.8447
17.6718 63.0334
17.7171 63.2676
17.7622 63.8169
17.8074 64.4631
17.8525 67.1359
17.8977 72.1241
17.9428 78.2187
17.9881 84.3513
18.0331 96.0422
18.0784 114.82
18.1237 137.376
18.1688 142.254
18.214 117.63
18.2591 93.0626
18.3044 89.6434
18.3495 97.8737
18.3948 108.135
18.4399 104.403
18.4852 85.375
18.5303 70.6078
18.5756 65.1751
18.6207 64.0193
18.666 62.9201
18.7112 62.3618
18.7565 61.6317
18.8016 61.0514
18.8469 60.5775
18.892 60.0649
18.9374 59.6842
18.9825 59.258
19.0278 59.2688
19.073 59.4861
19.1183 59.9269
19.1635 61.1638
19.2088 62.2123
19.254 63.6181
19.2993 66.8395
19.3447 72.4432
19.3898 78.0542
19.4352 77.1595
19.4804 68.9449
19.5257 60.6113
19.5709 56.7813
19.6163 56.2402
19.6615 55.8629
19.7068 55.5866
19.752 55.3585
19.7974 56.0597
19.8426 56.8663
19.888 57.715
19.9332 58.5786
19.9786 60.1813
20.0238 62.762
20.0692 67.3694
20.1144 71.5764
20.1598 72.6037
20.205 67.3576
20.2504 63.9645
20.2957 64.4645
20.3411 66.9789
20.3863 67.7294
20.4318 62.7203
20.477 57.2334
20.5224 54.272
20.5677 53.3319
20.6131 52.6004
20.6586 51.728
20.7038 51.6474
20.7493 51.1811
20.7945 51.0269
20.84 50.7375
20.8853 50.5617
20.9307 50.4185
20.976 50.7951
21.0215 50.5904
21.0668 51.0717
21.1122 51.4836
21.1575 51.8063
21.203 52.2996
21.2483 53.0891
21.2938 53.7059
21.3391 52.3597
21.3846 51.4471
21.4299 50.5266
21.4754 50.3966
21.5207 50.6779
21.5662 50.8348
21.6116 51.2756
21.6571 52.0774
21.7024 53.1825
21.7479 54.5007
21.7933 56.2324
21.8388 59.3864
21.8843 63.2374
21.9297 66.3734
21.9752 66.9556
22.0206 63.4098
22.0661 58.9356
22.1115 57.6479
22.157 58.0135
22.2024 57.1947
22.248 54.4836
22.2933 52.2529
22.3389 51.2967
22.3843 51.1719
22.4299 51.0363
22.4753 51.1609
22.5208 50.6185
22.5662 50.5275
22.6118 50.6458
22.6572 50.9801
22.7028 51.3761
22.7483 51.9086
22.7939 52.2852
22.8393 53.337
22.8849 54.8444
22.9303 56.8129
22.9759 59.0667
23.0214 59.8782
23.067 57.9657
23.1126 54.2031
23.1581 51.8849
23.2037 50.8148
23.2492 50.902
23.2948 50.9794
23.3403 51.347
23.3859 51.8758
23.4314 52.4363
23.477 53.7267
23.5225 55.315
23.5682 57.7849
23.6137 59.6806
23.6593 59.0449
23.7048 55.427
23.7505 51.2645
23.796 48.8544
23.8417 47.9918
23.8872 47.347
23.9329 47.0985
23.9784 46.8871
24.0241 46.57
24.0697 46.3703
24.1154 46.0417
24.1609 45.7666
24.2066 45.5804
24.2522 45.5927
24.2979 45.2123
24.3434 45.0702
24.3892 44.9137
24.4349 44.9612
24.4805 44.6693
24.5262 44.858
24.5718 44.7694
24.6175 44.6763
24.6631 44.464
24.7089 44.414
24.7545 44.1718
24.8002 44.0116
24.8458 43.9283
24.8916 43.8481
24.9372 43.7985
24.983 44.1682
25.0286 44.524
25.0744 44.8694
25.12 45.2676
25.1658 45.8937
25.2114 46.2567
25.2572 46.3856
25.3029 46.3246
25.3487 46.5384
25.3943 46.4712
25.4402 45.7024
25.4858 44.634
25.5316 43.5691
25.5773 42.7726
25.6231 42.444
25.669 42.2372
25.7147 42.234
25.7605 42.2672
25.8062 42.2339
25.8521 42.3695
25.8977 42.3017
25.9436 42.4546
25.9893 42.5841
26.0352 42.8494
26.0809 42.9152
26.1268 43.2793
26.1725 43.235
26.2184 42.7983
26.2641 42.0581
26.31 41.7991
26.3557 41.6837
26.4017 41.718
26.4474 41.9302
26.4933 42.1588
26.5391 42.5638
26.585 43.0943
26.6308 43.3825
26.6767 43.5887
26.7225 43.7056
26.7684 43.1676
26.8142 42.5502
26.8601 42.1088
26.9059 41.721
26.9519 41.2382
26.9979 40.8649
27.0437 40.4815
27.0896 40.4434
27.1354 40.2358
27.1814 40.1953
27.2272 40.1273
27.2732 40.1588
27.3191 39.843
27.3651 39.854
27.4109 39.7219
27.4569 39.8782
27.5027 39.965
27.5488 40.1269
27.5946 39.904
27.6407 39.8618
27.6865 39.5317
27.7326 39.3567
27.7784 39.3149
27.8245 39.4085
27.8703 39.5504
27.9164 39.7435
27.9623 39.815
28.0084 40.056
28.0543 40.4184
28.1003 40.4571
28.1462 40.3497
28.1923 40.0991
28.2384 39.5905
28.2843 39.1543
28.3304 38.8503
28.3764 38.3143
28.4225 37.944
28.4684 37.6916
28.5145 37.3767
28.5605 37.2702
28.6066 37.0444
28.6526 37.0628
28.6987 37.0316
28.7447 36.9255
28.7908 36.8764
28.8368 36.901
28.8829 36.7699
28.9289 36.6583
28.9751 36.638
29.0211 36.362
29.0673 36.1672
29.1133 36.0073
29.1595 35.8457
29.2055 35.6503
29.2517 35.6701
29.2977 35.5538
29.3439 35.6114
29.3899 35.5079
29.4361 35.4889
29.4824 35.3979
29.5284 35.4047
29.5746 34.9155
29.6207 34.6565
29.6669 34.4223
29.713 34.4251
29.7593 34.2235
29.8053 34.2376
29.8516 34.0419
29.8977 34.0393
29.9439 33.9484
29.99 33.8736
30.0363 33.7233
30.0824 33.7927
30.1287 33.5881
30.1748 33.7697
30.2211 33.7475
30.2673 33.5484
30.3136 33.7271
30.3597 33.4907
30.406 33.4859
30.4522 33.4567
30.4985 33.3044
30.5447 33.5183
30.591 33.2703
30.6372 33.2718
30.6835 33.3729
30.7297 33.4352
30.7761 33.5393
30.8224 33.3007
30.8686 33.1409
30.915 32.8992
30.9612 32.7686
31.0076 32.565
31.0538 32.4785
31.1002 32.4422
31.1464 32.2435
31.1928 32.158
31.2391 32.2634
31.2855 31.9777
31.3317 32.0896
31.3781 32.1509
31.4244 32.0097
31.4708 31.9469
31.5171 32.0232
31.5636 32.0593
31.6098 31.8393
31.6563 31.6801
31.7026 31.5024
31.7491 31.2655
31.7953 31.3586
31.8418 31.2758
31.8881 31.3104
31.9346 31.2453
31.9809 31.2558
32.0275 31.2168
32.074 31.1154
32.1203 30.8697
32.1668 30.7238
32.2132 30.5825
32.2597 30.3848
32.306 30.4223
32.3526 30.217
32.399 30.156
32.4455 29.9806
32.4919 29.8546
32.5385 29.8452
32.5848 29.6985
32.6314 29.6423
32.6778 29.7019
32.7244 29.3816
32.7708 29.2339
32.8174 29.323
32.8638 29.2066
32.9104 29.2317
32.9569 29.1541
33.0035 28.9941
33.0499 28.9843
33.0966 28.903
33.143 28.882
33.1897 28.7954
33.2361 28.7781
33.2828 28.7148
33.3293 28.5537
33.3759 28.4637
33.4226 28.3444
33.4691 28.0741
33.5158 28.1598
33.5623 28.0291
33.609 27.8011
33.6555 27.7118
33.7022 27.645
33.7487 27.5379
33.7954 27.5516
33.842 27.4857
33.8887 27.377
33.9353 27.2808
33.982 27.1942
34.0286 27.1437
34.0753 27.0717
34.1219 26.905
34.1687 26.9297
34.2152 26.7513
34.262 26.6784
34.3086 26.5099
34.3554 26.5194
34.402 26.4637
34.4488 26.301
34.4954 26.2793
34.5422 26.1131
34.5889 26.0794
34.6357 26.0342
34.6825 25.9117
34.7292 25.7836
34.776 25.7766
34.8227 25.7536
34.8695 25.5663
34.9162 25.5326
34.9631 25.5299
35.0098 25.4302
35.0566 25.378
35.1033 25.2233
35.1502 25.2006
35.1969 25.1011
35.2438 25.1193
35.2906 25.027
35.3375 25.0593
35.3842 24.9445
35.4311 24.8856
35.4779 24.9212
35.5248 24.7781
35.5716 24.7451
35.6185 24.5992
35.6653 24.5704
35.7123 24.4799
35.759 24.382
35.806 24.2949
35.8528 24.2058
35.8998 24.1288
35.9468 24.0602
35.9936 24.03
36.0406 23.9553
36.0874 23.9799
36.1345 23.795
36.1813 23.7449
36.2283 23.6723
36.2752 23.4245
36.3222 23.5898
36.3691 23.5045
36.4161 23.3178
36.463 23.3665
36.5101 23.3523
36.557 23.1783
36.6041 23.1234
36.651 23.0914
36.6981 22.9892
36.745 22.8887
36.7921 22.8522
36.839 22.8346
36.8861 22.6538
36.9331 22.6558
36.9802 22.6035
37.0272 22.4821
37.0743 22.3485
37.1213 22.3047
37.1684 22.3094
37.2154 22.2196
37.2626 22.0809
37.3098 22.1133
37.3568 22.0288
37.404 22.0088
37.451 21.8876
37.4982 21.774
37.5452 21.7044
37.5924 21.6712
37.6395 21.6616
37.6867 21.5294
37.7337 21.3885
37.781 21.4256
37.8281 21.3502
37.8753 21.1851
37.9224 21.1128
37.9697 21.0923
38.0168 21.0404
38.064 20.9816
38.1111 20.9338
38.1584 20.881
38.2056 20.7349
38.2529 20.7325
38.3 20.6076
38.3473 20.6109
38.3945 20.5484
38.4418 20.4607
38.489 20.3497
38.5363 20.3475
38.5837 20.2718
38.6309 20.1614
38.6782 20.1712
38.7254 20.0869
38.7728 20.0155
38.82 19.88
38.8674 19.8838
38.9146 19.7767
38.9621 19.7035
39.0093 19.7017
39.0567 19.6531
39.104 19.6204
39.1514 19.4915
39.1987 19.4816
39.2461 19.3944
39.2934 19.267
39.3409 19.213
39.3882 19.1412
39.4356 19.0959
39.483 19.0631
39.5304 18.9958
39.5778 18.957
39.6253 18.9338
39.6726 18.8327
39.7201 18.7559
39.7675 18.7219
39.815 18.6698
39.8624 18.6259
39.9099 18.575
39.9575 18.4841
40.0049 18.5048
40.0525 18.4136
40.0999 18.3004
40.1474 18.2719
40.1949 18.1313
40.2425 18.0687
40.2899 18.085
40.3375 17.9845
40.385 18.0027
40.4326 17.8896
40.48 17.8075
40.5277 17.8102
40.5752 17.7628
40.6228 17.6178
40.6703 17.6227
40.718 17.623
40.7655 17.59
40.8132 17.4704
40.8607 17.4051
40.9084 17.3892
40.9559 17.2772
41.0036 17.2447
41.0512 17.1764
41.0989 17.1304
41.1465 17.0212
41.1942 17.011
41.242 16.9207
41.2896 16.908
41.3373 16.8358
41.3849 16.8256
41.4327 16.7005
41.4803 16.6636
41.5281 16.5844
41.5758 16.5634
41.6236 16.4114
41.6712 16.4485
41.7191 16.3592
41.7667 16.3215
41.8146 16.2709
41.8622 16.2046
41.9101 16.153
41.9578 16.1082
42.0057 16.0485
42.0534 16.0321
42.1013 15.9904
42.149 15.8444
42.1969 15.838
42.2446 15.8387
42.2925 15.7489
42.3403 15.6826
42.3882 15.6259
42.436 15.6329
42.4839 15.503
42.5319 15.528
42.5797 15.4236
42.6277 15.4097
42.6755 15.3193
42.7235 15.2239
42.7713 15.214
42.8193 15.1873
42.8671 15.1223
42.9152 15.0435
42.963 15.0167
43.0111 14.9307
43.0589 14.902
43.107 14.8338
43.1549 14.7556
43.2029 14.7141
43.2508 14.7171
43.2989 14.6303
43.3468 14.5959
43.3949 14.5462
43.4429 14.5215
43.491 14.4238
43.5389 14.418
43.5871 14.3741
43.635 14.3055
43.6832 14.2693
43.7312 14.1763
43.7793 14.1698
43.8273 14.0962
43.8755 14.0279
43.9237 13.9635
43.9717 13.912
44.0199 13.9046
44.068 13.8404
44.1162 13.8418
44.1642 13.7659
44.2125 13.7043
44.2606 13.6849
44.3088 13.6372
44.3569 13.5934
44.4052 13.549
44.4533 13.4512
44.5016 13.4314
44.5497 13.4311
44.598 13.3357
44.6461 13.2737
44.6945 13.2387
44.7426 13.2195
44.791 13.1077
44.8391 13.1185
44.8875 13.0636
44.9357 13.0366
44.984 13.003
45.0322 12.9405
45.0806 12.8766
45.1288 12.8446
45.1773 12.7575
45.2257 12.6995
45.2739 12.7021
45.3224 12.6524
45.3706 12.6111
45.4191 12.578
45.4673 12.4742
45.5158 12.5058
45.5641 12.4533
45.6126 12.3982
45.6609 12.3472
45.7094 12.2832
45.7577 12.2356
45.8063 12.2
45.8546 12.1736
45.9031 12.1153
45.9515 12.0888
46.0001 11.9948
46.0484 11.9936
46.097 11.992
46.1454 11.9048
46.194 11.8807
46.2424 11.8188
46.291 11.7753
46.3395 11.7738
46.3881 11.6562
46.4365 11.6593
46.4852 11.6233
46.5337 11.5157
46.5823 11.56
46.631 11.4623
46.6795 11.4287
46.7282 11.4117
46.7767 11.3232
46.8254 11.2995
46.8739 11.2406
46.9226 11.2057
46.9712 11.1807
47.0199 11.1159
47.0685 11.0873
47.1173 11.0462
47.1658 11.0387
47.2146 10.9862
47.2632 10.9133
47.312 10.8912
47.3606 10.8117
47.4095 10.7915
47.4581 10.8023
47.5069 10.693
47.5556 10.72
47.6044 10.6886
47.6531 10.5995
47.702 10.5406
47.7507 10.5896
47.7996 10.4561
47.8483 10.4585
47.8972 10.4169
47.9461 10.3731
47.9948 10.339
48.0438 10.2887
48.0925 10.2388
48.1415 10.2642
48.1902 10.1915
48.2392 10.1996
48.288 10.1415
48.337 10.0875
48.3858 10.0557
48.4348 10.0664
48.4837 10.0358
48.5327 9.91789
48.5815 9.92173
48.6306 9.89368
48.6795 9.86054
48.7285 9.7742
48.7774 9.76833
48.8265 9.72742
48.8754 9.69122
48.9245 9.66553
48.9734 9.64681
49.0226 9.63154
49.0715 9.57421
49.1206 9.51139
49.1696 9.45941
49.2188 9.4016
49.2679 9.38037
49.3169 9.36696
49.3661 9.33996
49.4151 9.29284
49.4643 9.24367
49.5134 9.24728
49.5626 9.16786
49.6117 9.16928
49.6609 9.15208
49.71 9.07371
49.7592 9.09
49.8083 9.01074
49.8576 8.96868
49.9067 8.92253
49.956 8.94321
50.0052 8.86753
50.0545 8.8771
50.1036 8.7868
50.153 8.79072
50.2022 8.73858
50.2515 8.70196
50.3007 8.6567
50.3501 8.6517
50.3993 8.57794
50.4487 8.59784
50.498 8.53483
50.5474 8.54675
50.5966 8.49899
50.6461 8.44979
50.6955 8.40055
50.7448 8.39267
50.7943 8.37705
50.8436 8.30052
50.8931 8.28833
50.9424 8.2246
50.9919 8.19655
51.0413 8.20121
51.0908 8.15153
51.1402 8.11197
51.1897 8.11326
51.2391 8.04403
51.2887 8.01921
51.3381 7.97063
51.3877 7.95139
51.4371 7.89373
51.4867 7.88758
51.5362 7.81476
51.5858 7.79791
51.6353 7.78226
51.6849 7.74961
51.7344 7.71661
51.7841 7.73683
51.8336 7.68133
51.8833 7.64164
51.9328 7.56607
51.9826 7.53771
52.0323 7.5341
52.0818 7.47789
52.1316 7.45915
52.1812 7.45759
52.231 7.43353
52.2806 7.36916
52.3304 7.33927
52.38 7.33213
52.4298 7.30455
52.4794 7.27374
52.5293 7.25214
52.5789 7.2031
52.6288 7.19636
52.6785 7.11452
52.7284 7.1423
52.7781 7.06071
52.828 7.10005
52.8777 6.99454
52.9276 6.94286
52.9774 6.95432
53.0273 6.94841
53.0771 6.87469
53.1271 6.88894
53.1769 6.8336
53.2269 6.80173
53.2767 6.77621
53.3267 6.74717
53.3765 6.72798
53.4266 6.70144
53.4766 6.6846
53.5265 6.64669
53.5765 6.58382
53.6264 6.58227
53.6765 6.56304
53.7264 6.53175
53.7765 6.50948
53.8265 6.48629
53.8766 6.44895
53.9266 6.40591
53.9767 6.38647
54.0267 6.36758
54.0769 6.34063
54.1269 6.3246
54.1771 6.23317
54.2271 6.22991
54.2773 6.18622
54.3274 6.16428
54.3776 6.15145
54.4277 6.1041
54.478 6.05765
54.528 5.99926
54.5783 5.99639
54.6285 5.87328
54.6788 5.91232
54.7289 5.86797
54.7792 5.82369
54.8296 5.76779
54.8798 5.74741
54.9301 5.65281
54.9803 5.62874
55.0307 5.63311
55.0809 5.58405
55.1314 5.55569
55.1816 5.52387
55.232 5.4714
55.2823 5.40588
55.3328 5.35429
55.383 5.31341
55.4335 5.23723
55.4838 5.15331
55.5344 5.13783
55.5847 5.10883
55.6352 5.08431
55.6856 5.07879
55.7361 4.98777