File: XRD/Ni3Fe_FD0407.xy
TT I
1.27165 7.34821
1.31627 6.67642
1.36089 6.41391
1.40551 6.34503
1.45013 6.46871
1.49476 6.48755
1.53938 6.01674
1.584 5.35224
1.62863 5.207
1.67325 5.4237
1.71787 4.83155
1.7625 4.58816
1.80712 5.05565
1.85174 5.22904
1.89636 4.2958
1.94099 4.83999
1.98562 5.35899
2.03025 4.99439
2.07487 4.48686
2.11949 4.77772
2.16411 5.46292
2.20874 16.0989
2.25338 27.5864
2.298 5.83742
2.34263 5.66552
2.38725 5.67312
2.43188 5.42023
2.4765 6.5049
2.52115 6.31825
2.56577 7.85305
2.6104 7.02256
2.65503 6.82103
2.69965 7.36092
2.7443 7.73095
2.78893 7.66693
2.83356 8.01813
2.87818 8.84955
2.92281 8.50813
2.96744 9.61139
3.01209 10.2424
3.05672 11.0833
3.10135 12.6537
3.14599 12.9719
3.19062 14.0481
3.23527 14.6487
3.2799 15.638
3.32454 16.9385
3.36917 18.1866
3.4138 19.3395
3.45844 20.1703
3.50309 21.5594
3.54773 22.1552
3.59237 25.1324
3.637 110.868
3.68164 69.4047
3.7263 26.5373
3.77094 26.6024
3.81558 27.318
3.86022 27.9514
3.90486 29.4022
3.9495 30.3732
3.99416 31.9279
4.0388 33.1112
4.08344 34.7047
4.12809 35.5979
4.17273 37.9796
4.21738 45.4225
4.26204 302.483
4.30669 266.625
4.35133 51.3469
4.39598 45.9726
4.44063 56.7991
4.4853 71.3221
4.52995 51.835
4.5746 52.3051
4.61925 53.8914
4.6639 56.0035
4.70855 59.3326
4.75322 62.4377
4.79788 64.9013
4.84253 68.1452
4.88719 73.0343
4.93184 76.0691
4.97652 81.8448
5.02118 88.505
5.06583 97.2628
5.11049 110.242
5.15515 197.757
5.19981 427.218
5.24449 2930.99
5.28916 11504.1
5.33382 3615.88
5.37848 224.927
5.42315 138.435
5.46783 119.01
5.5125 109.689
5.55716 104.898
5.60183 100.781
5.6465 99.2575
5.69117 96.5828
5.73586 94.4468
5.78053 94.2028
5.8252 93.9424
5.86988 94.7921
5.91455 97.295
5.95924 106.821
6.00392 230.95
6.0486 1034.57
6.09328 3913.16
6.13795 3436.77
6.18263 304.978
6.22733 100.44
6.27201 87.3455
6.3167 112.708
6.36138 85.4123
6.40606 71.2976
6.45075 68.9725
6.49545 66.9866
6.54014 65.4198
6.58483 64.4864
6.62952 64.7417
6.67421 102.656
6.71892 168.771
6.76361 72.9323
6.8083 59.9265
6.853 58.9142
6.89769 58.4558
6.94239 58.1121
6.98711 57.2761
7.03181 56.8026
7.07651 56.3534
7.12121 56.6405
7.16591 56.979
7.21063 57.2462
7.25533 75.4187
7.30004 215.286
7.34475 103.753
7.38945 58.717
7.43416 56.1668
7.47889 56.0311
7.5236 56.0091
7.56831 56.7468
7.61303 58.7767
7.65774 59.0246
7.70247 57.5974
7.74719 56.9199
7.79191 57.7988
7.83663 58.3308
7.88135 59.0592
7.92607 59.5371
7.97081 61.3482
8.01553 62.1665
8.06026 63.7991
8.10498 65.4055
8.14971 76.822
8.19446 75.4409
8.23919 70.9697
8.28392 73.2727
8.32865 76.0024
8.37339 80.1014
8.41812 87.5983
8.46288 123.833
8.50761 177.777
8.55235 412.072
8.59709 1086.16
8.64183 2113.39
8.68658 1140.73
8.73134 198.773
8.77609 104.369
8.82083 95.6772
8.86558 92.2916
8.91033 92.2594
8.9551 95.2193
8.99985 87.7673
9.04461 85.1707
9.08936 84.326
9.13412 83.5943
9.17888 83.9801
9.22365 84.8227
9.26841 83.4769
9.31318 84.1547
9.35794 84.4607
9.4027 84.6392
9.44749 85.8044
9.49226 86.1516
9.53703 87.2503
9.5818 89.1962
9.62657 94.7752
9.67134 102.936
9.71614 95.8439
9.76091 95.7023
9.80569 98.5447
9.85047 102.192
9.89525 131.579
9.94005 146.68
9.98484 187.339
10.0296 363.526
10.0744 765.817
10.1192 1590.52
10.164 1747.36
10.2088 512.232
10.2536 141.658
10.2984 119.006
10.3432 120.678
10.388 107.552
10.4328 122.223
10.4776 165.537
10.5224 267.709
10.5672 474.034
10.612 539.831
10.6568 231.584
10.7017 102.973
10.7465 88.818
10.7913 85.16
10.8361 83.2189
10.8809 80.9216
10.9257 80.6967
10.9706 81.6473
11.0154 76.9343
11.0602 74.4091
11.105 73.3128
11.1499 79.1644
11.1947 88.9176
11.2395 77.8963
11.2844 73.0567
11.3292 69.0176
11.374 67.8666
11.4189 67.1042
11.4637 66.3605
11.5086 67.0497
11.5534 71.2085
11.5983 67.7547
11.6431 65.2339
11.688 64.4052
11.7328 64.304
11.7777 64.3705
11.8225 63.6429
11.8674 63.9368
11.9122 64.0602
11.9571 64.174
12.002 64.9324
12.0468 69.4933
12.0917 81.8199
12.1366 102.807
12.1814 143.996
12.2263 200.122
12.2712 183.112
12.3161 108.843
12.3609 74.489
12.4058 66.512
12.4507 65.8804
12.4956 65.833
12.5405 66.0592
12.5853 67.1281
12.6302 76.7112
12.6751 83.7745
12.72 72.5823
12.7649 69.503
12.8098 69.8632
12.8547 71.0838
12.8996 72.745
12.9445 73.4426
12.9894 75.4426
13.0343 77.2031
13.0792 80.7206
13.1242 90.3228
13.1691 116.481
13.214 152.188
13.2589 225.533
13.3038 342.184
13.3487 430.013
13.3937 296.826
13.4386 138.627
13.4835 109.702
13.5285 124.673
13.5734 158.103
13.6183 229.502
13.6633 326.532
13.7082 357.097
13.7531 217.68
13.7981 106.53
13.843 84.3594
13.888 81.4618
13.9329 78.7044
13.9779 77.3849
14.0228 76.0728
14.0678 74.644
14.1127 74.3102
14.1577 74.3671
14.2027 73.1798
14.2476 72.0501
14.2926 72.1327
14.3376 73.6614
14.3825 72.0268
14.4275 70.2228
14.4725 70.139
14.5175 70.2438
14.5624 70.5496
14.6074 72.9943
14.6524 73.9801
14.6974 72.1482
14.7424 73.3811
14.7874 80.615
14.8324 91.7021
14.8774 110.632
14.9224 145.502
14.9674 195.821
15.0124 222.798
15.0574 166.822
15.1024 100.608
15.1474 75.3044
15.1924 72.3141
15.2374 73.6532
15.2824 72.5416
15.3274 70.1331
15.3725 68.5105
15.4175 67.9863
15.4625 67.3731
15.5076 67.9039
15.5526 67.7708
15.5976 67.5391
15.6426 68.1843
15.6877 74.0259
15.7327 82.42
15.7778 95.6968
15.8228 120.81
15.8679 159.841
15.9129 192.846
15.958 171.379
16.003 107.875
16.0481 71.8906
16.0931 67.1559
16.1382 65.0304
16.1833 62.2427
16.2283 60.3625
16.2734 59.9959
16.3185 60.2571
16.3636 61.6228
16.4086 59.7308
16.4537 57.5793
16.4988 56.8028
16.5439 56.7947
16.589 56.5302
16.6341 56.1508
16.6792 55.9894
16.7243 56.1697
16.7694 56.4111
16.8145 56.0145
16.8596 56.4278
16.9047 58.4753
16.9498 58.8839
16.9949 57.3015
17.04 57.1993
17.0851 58.5926
17.1302 60.0707
17.1754 63.0562
17.2205 67.088
17.2656 73.2478
17.3108 81.3086
17.3559 83.3407
17.401 74.3913
17.4462 64.6234
17.4913 60.5707
17.5365 60.3209
17.5815 60.5543
17.6268 60.9365
17.6718 61.9367
17.7171 62.4482
17.7622 62.5793
17.8074 63.2758
17.8525 65.5962
17.8977 70.0019
17.9428 75.6565
17.9881 83.2756
18.0331 97.0362
18.0784 115.803
18.1237 137.272
18.1688 138.021
18.214 111.637
18.2591 89.8807
18.3044 89.6297
18.3495 98.0763
18.3948 107.092
18.4399 101.622
18.4852 82.929
18.5303 68.5002
18.5756 63.842
18.6207 62.7435
18.666 61.938
18.7112 60.9997
18.7565 60.183
18.8016 60.0211
18.8469 59.2417
18.892 58.9233
18.9374 58.6597
18.9825 58.607
19.0278 58.4903
19.073 58.3871
19.1183 58.8481
19.1635 59.6912
19.2088 61.0301
19.254 62.8812
19.2993 66.6203
19.3447 72.3029
19.3898 77.4697
19.4352 75.5526
19.4804 66.6908
19.5257 59.1785
19.5709 55.6456
19.6163 55.1448
19.6615 55.0695
19.7068 54.5663
19.752 54.5002
19.7974 54.7812
19.8426 55.6936
19.888 56.5026
19.9332 57.4802
19.9786 59.3814
20.0238 62.4417
20.0692 67.103
20.1144 70.6511
20.1598 70.5282
20.205 65.8734
20.2504 62.876
20.2957 63.9128
20.3411 66.3086
20.3863 66.0541
20.4318 61.1044
20.477 55.9006
20.5224 53.1952
20.5677 52.2922
20.6131 51.6741
20.6586 50.8267
20.7038 50.8888
20.7493 50.2906
20.7945 50.0494
20.84 50.1117
20.8853 50.0045
20.9307 49.6654
20.976 49.9591
21.0215 49.7562
21.0668 50.1939
21.1122 50.6743
21.1575 51.1765
21.203 51.8546
21.2483 52.5643
21.2938 52.742
21.3391 51.4758
21.3846 50.2254
21.4299 49.563
21.4754 49.4084
21.5207 49.6772
21.5662 49.7993
21.6116 50.3058
21.6571 51.2632
21.7024 51.9883
21.7479 53.6549
21.7933 55.721
21.8388 59.1666
21.8843 62.6719
21.9297 65.5627
21.9752 65.6982
22.0206 61.9159
22.0661 58.1291
22.1115 57.1032
22.157 57.1296
22.2024 56.1177
22.248 53.4229
22.2933 51.4456
22.3389 50.3841
22.3843 50.2492
22.4299 50.4461
22.4753 50.1917
22.5208 49.9608
22.5662 49.6488
22.6118 49.8074
22.6572 49.9611
22.7028 50.4097
22.7483 50.9243
22.7939 51.4259
22.8393 52.7253
22.8849 54.5863
22.9303 56.4715
22.9759 58.4235
23.0214 58.9632
23.067 56.6034
23.1126 53.0658
23.1581 50.6784
23.2037 50.1526
23.2492 50.0488
23.2948 49.9601
23.3403 50.3208
23.3859 50.8977
23.4314 51.6707
23.477 53.1869
23.5225 54.9807
23.5682 57.2446
23.6137 58.9806
23.6593 57.6433
23.7048 53.9733
23.7505 50.0126
23.796 47.9649
23.8417 47.2013
23.8872 46.7102
23.9329 46.217
23.9784 46.1076
24.0241 45.7452
24.0697 45.7116
24.1154 45.2559
24.1609 45.1065
24.2066 44.9132
24.2522 44.7135
24.2979 44.4959
24.3434 44.3461
24.3892 44.2815
24.4349 44.2098
24.4805 43.8872
24.5262 44.1455
24.5718 43.9628
24.6175 43.9261
24.6631 43.864
24.7089 43.6634
24.7545 43.4586
24.8002 43.2953
24.8458 43.3615
24.8916 43.1685
24.9372 43.1739
24.983 43.4747
25.0286 43.7472
25.0744 44.2033
25.12 44.3967
25.1658 45.3408
25.2114 45.7234
25.2572 45.5877
25.3029 45.7036
25.3487 45.9423
25.3943 45.6718
25.4402 44.9424
25.4858 43.7548
25.5316 42.682
25.5773 42.0275
25.6231 41.9452
25.669 41.5802
25.7147 41.4462
25.7605 41.4278
25.8062 41.4904
25.8521 41.7444
25.8977 41.6986
25.9436 41.8431
25.9893 41.827
26.0352 42.2166
26.0809 42.309
26.1268 42.7118
26.1725 42.5056
26.2184 41.9415
26.2641 41.2542
26.31 41.2068
26.3557 41.0598
26.4017 41.1611
26.4474 41.4109
26.4933 41.8036
26.5391 42.0369
26.585 42.4287
26.6308 42.8644
26.6767 43.179
26.7225 43.0798
26.7684 42.5212
26.8142 41.8614
26.8601 41.4839
26.9059 41.1258
26.9519 40.616
26.9979 40.1731
27.0437 39.9191
27.0896 39.697
27.1354 39.6456
27.1814 39.6026
27.2272 39.4922
27.2732 39.4432
27.3191 39.2365
27.3651 39.4528
27.4109 39.3065
27.4569 39.3963
27.5027 39.3429
27.5488 39.4286
27.5946 39.2999
27.6407 39.1508
27.6865 38.9469
27.7326 38.8352
27.7784 38.897
27.8245 38.6095
27.8703 38.9218
27.9164 39.199
27.9623 39.2176
28.0084 39.385
28.0543 39.959
28.1003 39.926
28.1462 39.6797
28.1923 39.4449
28.2384 38.9539
28.2843 38.5624
28.3304 38.1394
28.3764 37.7747
28.4225 37.2804
28.4684 37.225
28.5145 36.6713
28.5605 36.7368
28.6066 36.5859
28.6526 36.4268
28.6987 36.5372
28.7447 36.3972
28.7908 36.3126
28.8368 36.3554
28.8829 36.2519
28.9289 36.2278
28.9751 36.0403
29.0211 35.86
29.0673 35.6555
29.1133 35.3219
29.1595 35.2896
29.2055 35.0705
29.2517 35.0971
29.2977 34.9023
29.3439 35.1139
29.3899 35.0959
29.4361 34.9442
29.4824 34.7929
29.5284 34.5546
29.5746 34.2452
29.6207 34.0215
29.6669 33.9089
29.713 33.8978
29.7593 33.5784
29.8053 33.6608
29.8516 33.5649
29.8977 33.5747
29.9439 33.3267
29.99 33.2865
30.0363 33.196
30.0824 33.3225
30.1287 33.1241
30.1748 33.1868
30.2211 33.1637
30.2673 33.091
30.3136 33.1408
30.3597 32.9761
30.406 32.9869
30.4522 32.8413
30.4985 32.7715
30.5447 32.9952
30.591 32.8576
30.6372 32.9506
30.6835 32.8905
30.7297 32.9341
30.7761 32.9954
30.8224 32.8303
30.8686 32.6857
30.915 32.3851
30.9612 32.3195
31.0076 32.1012
31.0538 31.9754
31.1002 31.9258
31.1464 31.7707
31.1928 31.69
31.2391 31.7353
31.2855 31.6881
31.3317 31.5105
31.3781 31.6304
31.4244 31.6049
31.4708 31.5563
31.5171 31.4915
31.5636 31.5308
31.6098 31.423
31.6563 31.0861
31.7026 30.935
31.7491 30.786
31.7953 30.91
31.8418 30.8858
31.8881 30.8663
31.9346 30.6968
31.9809 30.7756
32.0275 30.6006
32.074 30.5161
32.1203 30.2573
32.1668 30.3133
32.2132 30.0457
32.2597 29.9559
32.306 29.9175
32.3526 29.703
32.399 29.5718
32.4455 29.4446
32.4919 29.4028
32.5385 29.3196
32.5848 29.1397
32.6314 29.1905
32.6778 29.0224
32.7244 28.9259
32.7708 28.8907
32.8174 28.859
32.8638 28.6513
32.9104 28.703
32.9569 28.6516
33.0035 28.5504
33.0499 28.5953
33.0966 28.466
33.143 28.4017
33.1897 28.33
33.2361 28.2937
33.2828 28.1938
33.3293 28.046
33.3759 28.0144
33.4226 27.9184
33.4691 27.7331
33.5158 27.7519
33.5623 27.5919
33.609 27.3932
33.6555 27.3011
33.7022 27.2194
33.7487 27.1387
33.7954 27.1495
33.842 26.9083
33.8887 26.9052
33.9353 26.9182
33.982 26.7214
34.0286 26.6339
34.0753 26.6252
34.1219 26.5187
34.1687 26.4758
34.2152 26.4484
34.262 26.2559
34.3086 26.1536
34.3554 26.1402
34.402 26.0139
34.4488 25.9471
34.4954 25.8559
34.5422 25.7589
34.5889 25.684
34.6357 25.4957
34.6825 25.5627
34.7292 25.3687
34.776 25.3621
34.8227 25.2574
34.8695 25.1567
34.9162 25.1666
34.9631 25.0815
35.0098 25.1177
35.0566 24.8841
35.1033 24.9053
35.1502 24.8553
35.1969 24.7454
35.2438 24.6607
35.2906 24.712
35.3375 24.5171
35.3842 24.5214
35.4311 24.549
35.4779 24.454
35.5248 24.4123
35.5716 24.3419
35.6185 24.1916
35.6653 24.1819
35.7123 24.1
35.759 24.0356
35.806 23.905
35.8528 23.781
35.8998 23.7854
35.9468 23.6995
35.9936 23.6719
36.0406 23.5345
36.0874 23.5349
36.1345 23.4155
36.1813 23.3834
36.2283 23.2367
36.2752 23.0983
36.3222 23.166
36.3691 23.1291
36.4161 23.054
36.463 22.9538
36.5101 22.9611
36.557 22.9052
36.6041 22.728
36.651 22.705
36.6981 22.6199
36.745 22.5797
36.7921 22.465
36.839 22.3853
36.8861 22.3305
36.9331 22.1695
36.9802 22.1813
37.0272 22.0027
37.0743 22.0905
37.1213 21.9467
37.1684 21.9308
37.2154 21.841
37.2626 21.7691
37.3098 21.694
37.3568 21.6404
37.404 21.5772
37.451 21.5387
37.4982 21.4676
37.5452 21.2815
37.5924 21.2745
37.6395 21.3077
37.6867 21.2138
37.7337 21.0763
37.781 20.9872
37.8281 20.9739
37.8753 20.828
37.9224 20.8665
37.9697 20.7467
38.0168 20.6608
38.064 20.6649
38.1111 20.4772
38.1584 20.4537
38.2056 20.4256
38.2529 20.3908
38.3 20.3307
38.3473 20.2749
38.3945 20.082
38.4418 20.1674
38.489 20.0186
38.5363 20.012
38.5837 19.8899
38.6309 19.8391
38.6782 19.8843
38.7254 19.7499
38.7728 19.6689
38.82 19.5608
38.8674 19.5796
38.9146 19.5586
38.9621 19.406
39.0093 19.3258
39.0567 19.3331
39.104 19.2285
39.1514 19.1668
39.1987 19.128
39.2461 19.0878
39.2934 18.9761
39.3409 18.8722
39.3882 18.8202
39.4356 18.803
39.483 18.7186
39.5304 18.6996
39.5778 18.6587
39.6253 18.5336
39.6726 18.5141
39.7201 18.4309
39.7675 18.427
39.815 18.3517
39.8624 18.2486
39.9099 18.2233
39.9575 18.1117
40.0049 18.109
40.0525 18.0829
40.0999 18.0389
40.1474 17.9907
40.1949 17.8962
40.2425 17.8075
40.2899 17.7959
40.3375 17.6623
40.385 17.6021
40.4326 17.6022
40.48 17.5078
40.5277 17.531
40.5752 17.4175
40.6228 17.3123
40.6703 17.3211
40.718 17.2794
40.7655 17.1926
40.8132 17.1047
40.8607 17.0886
40.9084 17.0772
40.9559 16.9943
41.0036 16.9157
41.0512 16.8883
41.0989 16.89
41.1465 16.8056
41.1942 16.703
41.242 16.6192
41.2896 16.5611
41.3373 16.5579
41.3849 16.49
41.4327 16.4575
41.4803 16.3812
41.5281 16.3608
41.5758 16.194
41.6236 16.1623
41.6712 16.1596
41.7191 16.1216
41.7667 16.0298
41.8146 16.0208
41.8622 15.9751
41.9101 15.8702
41.9578 15.7985
42.0057 15.7481
42.0534 15.7439
42.1013 15.7027
42.149 15.6252
42.1969 15.5373
42.2446 15.4955
42.2925 15.5116
42.3403 15.398
42.3882 15.3652
42.436 15.3313
42.4839 15.2837
42.5319 15.256
42.5797 15.1776
42.6277 15.1263
42.6755 15.1147
42.7235 14.9976
42.7713 14.98
42.8193 14.894
42.8671 14.849
42.9152 14.8071
42.963 14.7919
43.0111 14.6694
43.0589 14.6859
43.107 14.5739
43.1549 14.5845
43.2029 14.5502
43.2508 14.5156
43.2989 14.404
43.3468 14.3763
43.3949 14.3537
43.4429 14.2344
43.491 14.2106
43.5389 14.1676
43.5871 14.138
43.635 14.0718
43.6832 14.0288
43.7312 13.9965
43.7793 13.9043
43.8273 13.8296
43.8755 13.8431
43.9237 13.7997
43.9717 13.7394
44.0199 13.6529
44.068 13.6065
44.1162 13.5296
44.1642 13.5356
44.2125 13.5595
44.2606 13.4569
44.3088 13.4281
44.3569 13.3586
44.4052 13.3131
44.4533 13.2253
44.5016 13.2016
44.5497 13.1726
44.598 13.1079
44.6461 13.092
44.6945 13.044
44.7426 12.9871
44.791 12.9359
44.8391 12.875
44.8875 12.8723
44.9357 12.8608
44.984 12.7453
45.0322 12.7492
45.0806 12.6667
45.1288 12.6256
45.1773 12.5844
45.2257 12.5475
45.2739 12.4813
45.3224 12.4449
45.3706 12.4056
45.4191 12.3391
45.4673 12.3315
45.5158 12.282
45.5641 12.2336
45.6126 12.2159
45.6609 12.1106
45.7094 12.0681
45.7577 12.032
45.8063 12.0164
45.8546 11.9843
45.9031 11.8999
45.9515 11.8335
46.0001 11.8534
46.0484 11.7553
46.097 11.7308
46.1454 11.7225
46.194 11.7211
46.2424 11.619
46.291 11.569
46.3395 11.5502
46.3881 11.4762
46.4365 11.4289
46.4852 11.4405
46.5337 11.3555
46.5823 11.3618
46.631 11.3039
46.6795 11.2452
46.7282 11.2257
46.7767 11.1694
46.8254 11.1023
46.8739 11.081
46.9226 11.0255
46.9712 11.009
47.0199 10.9619
47.0685 10.9335
47.1173 10.8645
47.1658 10.8201
47.2146 10.815
47.2632 10.737
47.312 10.7165
47.3606 10.6847
47.4095 10.6212
47.4581 10.6265
47.5069 10.5499
47.5556 10.5262
47.6044 10.4862
47.6531 10.4639
47.702 10.4082
47.7507 10.3568
47.7996 10.321
47.8483 10.3119
47.8972 10.262
47.9461 10.222
47.9948 10.1645
48.0438 10.1167
48.0925 10.1228
48.1415 10.0394
48.1902 10.0395
48.2392 10.0259
48.288 9.96416
48.337 9.9141
48.3858 9.85956
48.4348 9.87009
48.4837 9.87455
48.5327 9.80064
48.5815 9.70802
48.6306 9.71666
48.6795 9.70878
48.7285 9.64678
48.7774 9.6171
48.8265 9.59358
48.8754 9.53311
48.9245 9.53542
48.9734 9.5098
49.0226 9.4684
49.0715 9.39091
49.1206 9.34687
49.1696 9.32981
49.2188 9.30276
49.2679 9.23625
49.3169 9.1906
49.3661 9.15233
49.4151 9.14692
49.4643 9.1187
49.5134 9.10485
49.5626 9.039
49.6117 9.0062
49.6609 8.99439
49.71 8.89404
49.7592 8.90042
49.8083 8.87572
49.8576 8.86685
49.9067 8.77897
49.956 8.75371
50.0052 8.75101
50.0545 8.70215
50.1036 8.67686
50.153 8.64864
50.2022 8.62015
50.2515 8.56975
50.3007 8.55415
50.3501 8.50882
50.3993 8.45497
50.4487 8.44319
50.498 8.42562
50.5474 8.3901
50.5966 8.31744
50.6461 8.32029
50.6955 8.26512
50.7448 8.22397
50.7943 8.1973
50.8436 8.182
50.8931 8.11977
50.9424 8.10124
50.9919 8.09317
51.0413 8.0476
51.0908 8.02251
51.1402 8.00619
51.1897 7.92897
51.2391 7.90774
51.2887 7.86923
51.3381 7.87182
51.3877 7.86615
51.4371 7.80322
51.4867 7.72367
51.5362 7.74284
51.5858 7.71341
51.6353 7.65303
51.6849 7.60217
51.7344 7.59985
51.7841 7.56527
51.8336 7.54801
51.8833 7.52397
51.9328 7.47159
51.9826 7.4162
52.0323 7.42973
52.0818 7.36819
52.1316 7.3463
52.1812 7.3068
52.231 7.26999
52.2806 7.27631
52.3304 7.22396
52.38 7.20665
52.4298 7.1896
52.4794 7.15803
52.5293 7.10046
52.5789 7.05629
52.6288 7.04622
52.6785 7.01318
52.7284 7.00591
52.7781 6.94429
52.828 6.92018
52.8777 6.87297
52.9276 6.86993
52.9774 6.8532
53.0273 6.79852
53.0771 6.8097
53.1271 6.77853
53.1769 6.74079
53.2269 6.72194
53.2767 6.67413
53.3267 6.69058
53.3765 6.62362
53.4266 6.57791
53.4766 6.51513
53.5265 6.52964
53.5765 6.51809
53.6264 6.45176
53.6765 6.45534
53.7264 6.43721
53.7765 6.38897
53.8265 6.37454
53.8766 6.35999
53.9266 6.33628
53.9767 6.2689
54.0267 6.24936
54.0769 6.19682
54.1269 6.18944
54.1771 6.1779
54.2271 6.12453
54.2773 6.08476
54.3274 6.06874
54.3776 6.04021
54.4277 5.99525
54.478 5.92734
54.528 5.91939
54.5783 5.91167
54.6285 5.85057
54.6788 5.78704
54.7289 5.74519
54.7792 5.72963
54.8296 5.67245
54.8798 5.6956
54.9301 5.62551
54.9803 5.56251
55.0307 5.56144
55.0809 5.50858
55.1314 5.48561
55.1816 5.40835
55.232 5.37744
55.2823 5.29439
55.3328 5.27809
55.383 5.23355
55.4335 5.1173
55.4838 5.1639
55.5344 5.12282
55.5847 5.03893
55.6352 5.03129
55.6856 4.93163
55.7361 4.89398