File: XRD/Ni3Fe_FD0303.xy
TT I
1.27165 7.17972
1.31627 6.81455
1.36089 6.84996
1.40551 6.49983
1.45013 6.4874
1.49476 5.74996
1.53938 6.17505
1.584 5.22374
1.62863 6.04478
1.67325 5.50709
1.71787 5.00054
1.7625 5.29794
1.80712 5.23811
1.85174 4.79757
1.89636 4.73183
1.94099 5.44189
1.98562 4.53003
2.03025 4.50705
2.07487 4.99775
2.11949 4.707
2.16411 4.64556
2.20874 18.9562
2.25338 31.8452
2.298 5.75355
2.34263 5.14913
2.38725 5.07564
2.43188 5.56326
2.4765 5.68591
2.52115 5.83031
2.56577 6.18035
2.6104 6.75796
2.65503 7.07396
2.69965 7.41139
2.7443 7.29098
2.78893 7.16212
2.83356 7.98588
2.87818 8.28347
2.92281 8.57757
2.96744 10.0767
3.01209 9.98293
3.05672 10.8693
3.10135 12.2434
3.14599 13.0556
3.19062 14.29
3.23527 15.3063
3.2799 15.7229
3.32454 17.5712
3.36917 18.1259
3.4138 19.358
3.45844 20.0284
3.50309 21.2093
3.54773 22.7707
3.59237 25.5527
3.637 128.123
3.68164 79.2244
3.7263 27.6748
3.77094 26.9313
3.81558 27.3029
3.86022 28.108
3.90486 29.6863
3.9495 30.8186
3.99416 32.0579
4.0388 33.3139
4.08344 34.6549
4.12809 36.7266
4.17273 38.8954
4.21738 46.8967
4.26204 348.791
4.30669 314.859
4.35133 53.6585
4.39598 46.5625
4.44063 59.0394
4.4853 77.1851
4.52995 53.0584
4.5746 53.1898
4.61925 54.7893
4.6639 57.1006
4.70855 59.66
4.75322 62.3216
4.79788 65.6394
4.84253 68.7256
4.88719 73.9461
4.93184 77.4031
4.97652 83.137
5.02118 90.4137
5.06583 98.8602
5.11049 113.808
5.15515 215.435
5.19981 486.547
5.24449 2922.58
5.28916 11047.2
5.33382 4341.5
5.37848 257.748
5.42315 145.34
5.46783 123.302
5.5125 111.946
5.55716 106.919
5.60183 102.391
5.6465 101.409
5.69117 97.9995
5.73586 95.9782
5.78053 96.4814
5.8252 95.9721
5.86988 97.0811
5.91455 99.8838
5.95924 110.557
6.00392 249.234
6.0486 1023.38
6.09328 3641.03
6.13795 3932.5
6.18263 371.338
6.22733 106.55
6.27201 90.002
6.3167 120.296
6.36138 89.4431
6.40606 72.686
6.45075 70.1545
6.49545 68.2266
6.54014 66.5602
6.58483 65.676
6.62952 65.6179
6.67421 109.697
6.71892 192.692
6.76361 76.4448
6.8083 61.62
6.853 60.1305
6.89769 58.8242
6.94239 58.7397
6.98711 57.7461
7.03181 57.4649
7.07651 57.757
7.12121 57.6271
7.16591 58.0718
7.21063 58.4986
7.25533 78.0791
7.30004 245.233
7.34475 115.786
7.38945 59.8196
7.43416 57.178
7.47889 56.5051
7.5236 56.7982
7.56831 57.4781
7.61303 60.3209
7.65774 60.7576
7.70247 58.2028
7.74719 58.128
7.79191 58.7369
7.83663 58.8862
7.88135 59.9333
7.92607 60.6322
7.97081 61.9304
8.01553 62.7337
8.06026 64.1369
8.10498 66.3568
8.14971 79.6083
8.19446 77.7734
8.23919 72.0176
8.28392 73.9113
8.32865 76.6831
8.37339 80.9519
8.41812 89.2547
8.46288 130.652
8.50761 188.504
8.55235 425.233
8.59709 972.762
8.64183 2042.03
8.68658 1279.91
8.73134 226.424
8.77609 108.045
8.82083 97.7077
8.86558 93.7315
8.91033 94.5185
8.9551 98.0679
8.99985 89.2245
9.04461 86.2416
9.08936 85.4072
9.13412 84.5927
9.17888 84.6418
9.22365 85.6417
9.26841 84.6221
9.31318 85.2292
9.35794 85.7885
9.4027 85.7249
9.44749 86.5128
9.49226 86.6727
9.53703 88.4367
9.5818 90.477
9.62657 96.3829
9.67134 105.959
9.71614 97.3874
9.76091 97.1224
9.80569 99.4861
9.85047 103.495
9.89525 136.662
9.94005 156.007
9.98484 195.008
10.0296 370.569
10.0744 695.443
10.1192 1472.92
10.164 1817.92
10.2088 597.2
10.2536 154.457
10.2984 122.681
10.3432 125.969
10.388 110.277
10.4328 125.552
10.4776 169.931
10.5224 250.028
10.5672 445.223
10.612 552.798
10.6568 261.273
10.7017 106.508
10.7465 90.4347
10.7913 86.5855
10.8361 83.7724
10.8809 81.5233
10.9257 81.6784
10.9706 83.8122
11.0154 78.2692
11.0602 75.5412
11.105 74.6116
11.1499 81.0409
11.1947 93.9335
11.2395 80.3204
11.2844 74.5176
11.3292 69.9155
11.374 68.5518
11.4189 68.1849
11.4637 67.1662
11.5086 68.028
11.5534 73.2338
11.5983 69.2073
11.6431 66.0325
11.688 65.2993
11.7328 64.9317
11.7777 65.2904
11.8225 64.5081
11.8674 64.7756
11.9122 64.9858
11.9571 65.079
12.002 65.975
12.0468 70.9033
12.0917 83.5484
12.1366 100.968
12.1814 135.565
12.2263 196.65
12.2712 194.345
12.3161 116.888
12.3609 77.4841
12.4058 67.8885
12.4507 66.8569
12.4956 66.9803
12.5405 66.7778
12.5853 67.8783
12.6302 79.0654
12.6751 88.0642
12.72 74.4885
12.7649 70.335
12.8098 70.6477
12.8547 71.9268
12.8996 73.2588
12.9445 74.2489
12.9894 76.4274
13.0343 78.2989
13.0792 81.3739
13.1242 92.2038
13.1691 120.127
13.214 151.724
13.2589 208.838
13.3038 318.906
13.3487 447.356
13.3937 328.422
13.4386 150.413
13.4835 113.934
13.5285 128.175
13.5734 154.4
13.6183 211.883
13.6633 310.911
13.7082 370.773
13.7531 238.697
13.7981 112.741
13.843 85.9724
13.888 82.6956
13.9329 80.0408
13.9779 78.4534
14.0228 76.8722
14.0678 75.295
14.1127 75.0876
14.1577 75.9055
14.2027 74.3004
14.2476 72.859
14.2926 73.3411
14.3376 75.2883
14.3825 73.3919
14.4275 71.2684
14.4725 70.8029
14.5175 70.9805
14.5624 71.2144
14.6074 74.2552
14.6524 75.3083
14.6974 73.0312
14.7424 74.6259
14.7874 82.1543
14.8324 93.31
14.8774 108.253
14.9224 136.218
14.9674 186.262
15.0124 227.784
15.0574 175.916
15.1024 104.766
15.1474 76.6169
15.1924 73.4464
15.2374 74.8257
15.2824 74.4164
15.3274 71.2235
15.3725 69.1525
15.4175 68.6138
15.4625 68.2229
15.5076 69.1468
15.5526 68.7077
15.5976 68.101
15.6426 69.5755
15.6877 75.4359
15.7327 83.4458
15.7778 94.5433
15.8228 114.387
15.8679 150.718
15.9129 193.857
15.958 181.964
16.003 117.109
16.0481 74.9836
16.0931 68.9266
16.1382 66.4544
16.1833 63.1481
16.2283 61.3261
16.2734 60.6099
16.3185 61.1916
16.3636 62.9427
16.4086 60.9232
16.4537 58.5847
16.4988 57.6758
16.5439 57.4986
16.589 57.2087
16.6341 56.7364
16.6792 56.6029
16.7243 56.8881
16.7694 57.0562
16.8145 56.9799
16.8596 57.3701
16.9047 59.5447
16.9498 60.1789
16.9949 58.3129
17.04 57.7984
17.0851 59.096
17.1302 61.0965
17.1754 63.6355
17.2205 66.9343
17.2656 72.0491
17.3108 81.8421
17.3559 86.0262
17.401 77.5156
17.4462 66.602
17.4913 61.4534
17.5365 61.316
17.5815 61.2868
17.6268 61.758
17.6718 62.4505
17.7171 63.008
17.7622 63.3717
17.8074 63.8989
17.8525 66.2637
17.8977 71.0066
17.9428 76.7167
17.9881 82.5675
18.0331 93.697
18.0784 111.943
18.1237 137.157
18.1688 143.637
18.214 118.418
18.2591 92.3927
18.3044 88.3319
18.3495 96.4042
18.3948 108.56
18.4399 106.125
18.4852 86.1561
18.5303 70.4363
18.5756 65.0072
18.6207 63.6813
18.666 62.9629
18.7112 61.8838
18.7565 61.2092
18.8016 60.7976
18.8469 59.8909
18.892 59.914
18.9374 59.3529
18.9825 59.0961
19.0278 59.0142
19.073 59.0856
19.1183 59.7755
19.1635 61.15
19.2088 61.8586
19.254 63.0464
19.2993 65.7099
19.3447 71.937
19.3898 78.4827
19.4352 77.9
19.4804 69.1
19.5257 60.2698
19.5709 56.5642
19.6163 55.8484
19.6615 55.689
19.7068 55.2215
19.752 55.1107
19.7974 55.5966
19.8426 56.5856
19.888 57.4445
19.9332 58.2512
19.9786 59.6952
20.0238 62.0271
20.0692 66.7727
20.1144 71.203
20.1598 72.1551
20.205 67.4112
20.2504 63.3696
20.2957 63.7679
20.3411 66.7287
20.3863 67.8211
20.4318 62.6201
20.477 56.9835
20.5224 54.2499
20.5677 53.263
20.6131 52.4396
20.6586 51.6239
20.7038 51.3676
20.7493 50.924
20.7945 50.7471
20.84 50.7172
20.8853 50.3426
20.9307 50.3567
20.976 50.6137
21.0215 50.2634
21.0668 50.9982
21.1122 51.1442
21.1575 51.3921
21.203 52.0797
21.2483 52.8478
21.2938 53.3449
21.3391 52.4227
21.3846 51.1831
21.4299 50.3703
21.4754 50.0771
21.5207 50.2318
21.5662 50.3982
21.6116 50.9175
21.6571 51.8604
21.7024 52.6832
21.7479 53.8739
21.7933 55.7202
21.8388 58.5955
21.8843 62.615
21.9297 66.209
21.9752 67.2987
22.0206 63.5717
22.0661 58.7033
22.1115 57.3259
22.157 58.0177
22.2024 57.3183
22.248 54.2557
22.2933 52.3356
22.3389 51.0896
22.3843 51.0972
22.4299 50.6882
22.4753 50.8971
22.5208 50.4198
22.5662 50.267
22.6118 50.3385
22.6572 50.5359
22.7028 51.0688
22.7483 51.5363
22.7939 51.9908
22.8393 53.0125
22.8849 54.3003
22.9303 56.325
22.9759 59.0086
23.0214 60.1969
23.067 58.2747
23.1126 54.2945
23.1581 51.601
23.2037 50.8281
23.2492 50.8327
23.2948 50.6998
23.3403 50.9505
23.3859 51.4284
23.4314 52.0641
23.477 53.2274
23.5225 54.9249
23.5682 57.2835
23.6137 59.6893
23.6593 59.1643
23.7048 55.4012
23.7505 51.211
23.796 48.784
23.8417 47.7575
23.8872 47.3021
23.9329 46.9972
23.9784 46.5556
24.0241 46.3038
24.0697 46.1907
24.1154 45.808
24.1609 45.6621
24.2066 45.5631
24.2522 45.2965
24.2979 44.9413
24.3434 44.979
24.3892 44.8228
24.4349 44.6943
24.4805 44.3168
24.5262 44.4781
24.5718 44.5152
24.6175 44.4612
24.6631 44.539
24.7089 44.1383
24.7545 44.0163
24.8002 43.7695
24.8458 43.7119
24.8916 43.6621
24.9372 43.5662
24.983 44.085
25.0286 44.1461
25.0744 44.571
25.12 44.8911
25.1658 45.6309
25.2114 45.9397
25.2572 46.1569
25.3029 46.1546
25.3487 46.3631
25.3943 46.5169
25.4402 45.6776
25.4858 44.6067
25.5316 43.3347
25.5773 42.5148
25.6231 42.4407
25.669 42.0576
25.7147 42.0498
25.7605 41.8802
25.8062 42.0825
25.8521 42.1181
25.8977 42.0363
25.9436 42.1685
25.9893 42.1462
26.0352 42.5969
26.0809 42.7741
26.1268 43.1165
26.1725 43.1185
26.2184 42.5495
26.2641 41.8713
26.31 41.7232
26.3557 41.6819
26.4017 41.4933
26.4474 41.6606
26.4933 42.0194
26.5391 42.4119
26.585 42.7426
26.6308 43.1429
26.6767 43.5155
26.7225 43.695
26.7684 43.0632
26.8142 42.4783
26.8601 41.9813
26.9059 41.6098
26.9519 41.0788
26.9979 40.6666
27.0437 40.3905
27.0896 40.1012
27.1354 40.1774
27.1814 40.0669
27.2272 39.9227
27.2732 39.7993
27.3191 39.8213
27.3651 39.8787
27.4109 39.7313
27.4569 39.7725
27.5027 39.8407
27.5488 39.9093
27.5946 39.7989
27.6407 39.5255
27.6865 39.4909
27.7326 39.2315
27.7784 39.288
27.8245 39.2491
27.8703 39.2388
27.9164 39.4122
27.9623 39.5874
28.0084 39.7453
28.0543 40.2378
28.1003 40.3516
28.1462 40.2911
28.1923 39.9341
28.2384 39.4865
28.2843 39.1018
28.3304 38.7563
28.3764 38.2349
28.4225 37.8529
28.4684 37.6508
28.5145 37.2975
28.5605 37.0879
28.6066 37.0017
28.6526 37.0027
28.6987 36.8031
28.7447 36.8307
28.7908 36.7425
28.8368 36.7426
28.8829 36.7418
28.9289 36.748
28.9751 36.5189
29.0211 36.2778
29.0673 35.9795
29.1133 35.8064
29.1595 35.6482
29.2055 35.5259
29.2517 35.5167
29.2977 35.5417
29.3439 35.4993
29.3899 35.3611
29.4361 35.4162
29.4824 35.2552
29.5284 35.0993
29.5746 34.6914
29.6207 34.3181
29.6669 34.262
29.713 34.148
29.7593 34.0303
29.8053 34.0391
29.8516 33.9641
29.8977 33.9801
29.9439 33.7642
29.99 33.7313
30.0363 33.6253
30.0824 33.6264
30.1287 33.5509
30.1748 33.5718
30.2211 33.5636
30.2673 33.3944
30.3136 33.5718
30.3597 33.5415
30.406 33.2934
30.4522 33.2134
30.4985 33.1242
30.5447 33.2178
30.591 33.1243
30.6372 33.3917
30.6835 33.1897
30.7297 33.3023
30.7761 33.3796
30.8224 33.1488
30.8686 32.992
30.915 32.8708
30.9612 32.6766
31.0076 32.5307
31.0538 32.1608
31.1002 32.3163
31.1464 31.9988
31.1928 32.0853
31.2391 32.1166
31.2855 31.9752
31.3317 32.0356
31.3781 32.0528
31.4244 31.8192
31.4708 31.8301
31.5171 31.9445
31.5636 31.8627
31.6098 31.6296
31.6563 31.4978
31.7026 31.4303
31.7491 31.1193
31.7953 31.1936
31.8418 31.2184
31.8881 31.196
31.9346 31.1072
31.9809 31.0725
32.0275 30.9309
32.074 30.922
32.1203 30.7061
32.1668 30.6274
32.2132 30.4631
32.2597 30.2514
32.306 30.2104
32.3526 30.0458
32.399 30.0088
32.4455 29.874
32.4919 29.7792
32.5385 29.6737
32.5848 29.5426
32.6314 29.4498
32.6778 29.4768
32.7244 29.316
32.7708 29.2524
32.8174 29.212
32.8638 29.0285
32.9104 29.211
32.9569 29.1171
33.0035 28.9471
33.0499 28.8597
33.0966 28.8665
33.143 28.7704
33.1897 28.643
33.2361 28.5977
33.2828 28.655
33.3293 28.3883
33.3759 28.4466
33.4226 28.3725
33.4691 28.1052
33.5158 28.0609
33.5623 27.8509
33.609 27.8553
33.6555 27.6052
33.7022 27.5133
33.7487 27.4717
33.7954 27.4598
33.842 27.2474
33.8887 27.2088
33.9353 27.3019
33.982 27.085
34.0286 27.0556
34.0753 26.8827
34.1219 26.9124
34.1687 26.8059
34.2152 26.7348
34.262 26.5738
34.3086 26.5842
34.3554 26.4925
34.402 26.3673
34.4488 26.3255
34.4954 26.2125
34.5422 26.1133
34.5889 25.9526
34.6357 25.9093
34.6825 25.91
34.7292 25.7421
34.776 25.6466
34.8227 25.5864
34.8695 25.5353
34.9162 25.4225
34.9631 25.3451
35.0098 25.3365
35.0566 25.1915
35.1033 25.2042
35.1502 25.1278
35.1969 25.0765
35.2438 25.0699
35.2906 24.9829
35.3375 24.8847
35.3842 24.825
35.4311 24.8196
35.4779 24.7933
35.5248 24.7772
35.5716 24.5878
35.6185 24.5689
35.6653 24.4928
35.7123 24.4266
35.759 24.312
35.806 24.1913
35.8528 24.0664
35.8998 24.0736
35.9468 23.9616
35.9936 23.8875
36.0406 23.8472
36.0874 23.7628
36.1345 23.6666
36.1813 23.614
36.2283 23.4849
36.2752 23.5005
36.3222 23.4975
36.3691 23.3747
36.4161 23.2512
36.463 23.2374
36.5101 23.2496
36.557 23.1997
36.6041 23.0181
36.651 22.9906
36.6981 22.9444
36.745 22.9085
36.7921 22.7956
36.839 22.6939
36.8861 22.5718
36.9331 22.5571
36.9802 22.3889
37.0272 22.3855
37.0743 22.3442
37.1213 22.2606
37.1684 22.1839
37.2154 22.0675
37.2626 22.0731
37.3098 22.0334
37.3568 21.9118
37.404 21.8643
37.451 21.7349
37.4982 21.7263
37.5452 21.7003
37.5924 21.5584
37.6395 21.5864
37.6867 21.512
37.7337 21.3634
37.781 21.2697
37.8281 21.2315
37.8753 21.1687
37.9224 21.0442
37.9697 21.0217
38.0168 20.9607
38.064 20.9006
38.1111 20.8777
38.1584 20.6658
38.2056 20.7299
38.2529 20.64
38.3 20.4941
38.3473 20.5663
38.3945 20.4731
38.4418 20.4237
38.489 20.3275
38.5363 20.2293
38.5837 20.236
38.6309 20.1466
38.6782 20.0571
38.7254 19.9922
38.7728 19.8842
38.82 19.8318
38.8674 19.8219
38.9146 19.7109
38.9621 19.6504
39.0093 19.6384
39.0567 19.5334
39.104 19.4762
39.1514 19.3419
39.1987 19.3671
39.2461 19.3416
39.2934 19.305
39.3409 19.1542
39.3882 19.0917
39.4356 19.042
39.483 18.9727
39.5304 18.9401
39.5778 18.8997
39.6253 18.8323
39.6726 18.7674
39.7201 18.7319
39.7675 18.6497
39.815 18.6058
39.8624 18.5356
39.9099 18.5568
39.9575 18.3773
40.0049 18.3195
40.0525 18.3266
40.0999 18.271
40.1474 18.1564
40.1949 18.0598
40.2425 18.0866
40.2899 18.0112
40.3375 17.9444
40.385 17.9085
40.4326 17.8279
40.48 17.744
40.5277 17.6935
40.5752 17.6617
40.6228 17.5617
40.6703 17.5776
40.718 17.5178
40.7655 17.4101
40.8132 17.3559
40.8607 17.3852
40.9084 17.2773
40.9559 17.2083
41.0036 17.1913
41.0512 17.0873
41.0989 17.1143
41.1465 17.002
41.1942 17.0063
41.242 16.816
41.2896 16.8309
41.3373 16.7496
41.3849 16.7018
41.4327 16.6388
41.4803 16.556
41.5281 16.5137
41.5758 16.5172
41.6236 16.358
41.6712 16.316
41.7191 16.3522
41.7667 16.2569
41.8146 16.2595
41.8622 16.1712
41.9101 16.1153
41.9578 16.0267
42.0057 16.0351
42.0534 15.926
42.1013 15.9007
42.149 15.8528
42.1969 15.7969
42.2446 15.7103
42.2925 15.6707
42.3403 15.6339
42.3882 15.5968
42.436 15.5722
42.4839 15.4615
42.5319 15.4216
42.5797 15.3821
42.6277 15.3594
42.6755 15.2757
42.7235 15.1509
42.7713 15.1183
42.8193 15.175
42.8671 15.026
42.9152 15.0167
42.963 14.9494
43.0111 14.9239
43.0589 14.8483
43.107 14.7451
43.1549 14.7626
43.2029 14.6697
43.2508 14.7015
43.2989 14.6084
43.3468 14.5278
43.3949 14.4966
43.4429 14.435
43.491 14.3547
43.5389 14.3644
43.5871 14.2979
43.635 14.237
43.6832 14.1951
43.7312 14.1524
43.7793 14.1003
43.8273 14.0475
43.8755 13.98
43.9237 13.9238
43.9717 13.9049
44.0199 13.8988
44.068 13.8294
44.1162 13.7712
44.1642 13.7339
44.2125 13.6606
44.2606 13.6212
44.3088 13.5607
44.3569 13.5544
44.4052 13.4662
44.4533 13.4668
44.5016 13.3636
44.5497 13.3603
44.598 13.3332
44.6461 13.235
44.6945 13.2079
44.7426 13.1515
44.791 13.0962
44.8391 13.0773
44.8875 13.0127
44.9357 12.9609
44.984 12.883
45.0322 12.8787
45.0806 12.8217
45.1288 12.8036
45.1773 12.751
45.2257 12.7066
45.2739 12.6854
45.3224 12.6495
45.3706 12.5158
45.4191 12.509
45.4673 12.4843
45.5158 12.4511
45.5641 12.3888
45.6126 12.334
45.6609 12.3014
45.7094 12.2664
45.7577 12.186
45.8063 12.1139
45.8546 12.1584
45.9031 12.045
45.9515 12.0128
46.0001 12.0262
46.0484 11.9922
46.097 11.9221
46.1454 11.8055
46.194 11.8406
46.2424 11.7919
46.291 11.7173
46.3395 11.7024
46.3881 11.6313
46.4365 11.6284
46.4852 11.5605
46.5337 11.5199
46.5823 11.5175
46.631 11.4578
46.6795 11.4241
46.7282 11.348
46.7767 11.3214
46.8254 11.2177
46.8739 11.2339
46.9226 11.2087
46.9712 11.1619
47.0199 11.0906
47.0685 11.0811
47.1173 11.0254
47.1658 10.961
47.2146 10.9519
47.2632 10.8553
47.312 10.8363
47.3606 10.8063
47.4095 10.7269
47.4581 10.7853
47.5069 10.7271
47.5556 10.6486
47.6044 10.6022
47.6531 10.5946
47.702 10.5227
47.7507 10.4683
47.7996 10.4638
47.8483 10.4617
47.8972 10.446
47.9461 10.3701
47.9948 10.3238
48.0438 10.2593
48.0925 10.2517
48.1415 10.2316
48.1902 10.1576
48.2392 10.1571
48.288 10.1246
48.337 10.0866
48.3858 9.98821
48.4348 9.97252
48.4837 9.97991
48.5327 9.9268
48.5815 9.87381
48.6306 9.87741
48.6795 9.79333
48.7285 9.74478
48.7774 9.77042
48.8265 9.73407
48.8754 9.65272
48.9245 9.63496
48.9734 9.58
49.0226 9.56064
49.0715 9.53115
49.1206 9.49333
49.1696 9.43217
49.2188 9.39926
49.2679 9.38941
49.3169 9.332
49.3661 9.27617
49.4151 9.24326
49.4643 9.27394
49.5134 9.19572
49.5626 9.13469
49.6117 9.12416
49.6609 9.10392
49.71 9.05029
49.7592 9.01605
49.8083 8.94644
49.8576 8.97655
49.9067 8.92772
49.956 8.88418
50.0052 8.86583
50.0545 8.85062
50.1036 8.76441
50.153 8.7517
50.2022 8.73311
50.2515 8.64858
50.3007 8.64278
50.3501 8.6158
50.3993 8.55749
50.4487 8.53037
50.498 8.5213
50.5474 8.48633
50.5966 8.45325
50.6461 8.42442
50.6955 8.38559
50.7448 8.32752
50.7943 8.3335
50.8436 8.31345
50.8931 8.24529
50.9424 8.22159
50.9919 8.21059
51.0413 8.14115
51.0908 8.11408
51.1402 8.11216
51.1897 8.07749
51.2391 8.01944
51.2887 8.00038
51.3381 7.97161
51.3877 7.92401
51.4371 7.87792
51.4867 7.855
51.5362 7.82057
51.5858 7.84018
51.6353 7.7356
51.6849 7.77042
51.7344 7.71905
51.7841 7.66932
51.8336 7.62996
51.8833 7.59332
51.9328 7.54168
51.9826 7.54763
52.0323 7.49034
52.0818 7.4838
52.1316 7.42656
52.1812 7.41816
52.231 7.4067
52.2806 7.41004
52.3304 7.33974
52.38 7.28549
52.4298 7.2556
52.4794 7.25227
52.5293 7.21761
52.5789 7.20516
52.6288 7.16783
52.6785 7.05937
52.7284 7.10649
52.7781 7.05398
52.828 7.01157
52.8777 6.99951
52.9276 6.96036
52.9774 6.94686
53.0273 6.89738
53.0771 6.89774
53.1271 6.88986
53.1769 6.83389
53.2269 6.81278
53.2767 6.74869
53.3267 6.76646
53.3765 6.70176
53.4266 6.68247
53.4766 6.6351
53.5265 6.63155
53.5765 6.58198
53.6264 6.57011
53.6765 6.61294
53.7264 6.48163
53.7765 6.47155
53.8265 6.46363
53.8766 6.41592
53.9266 6.39296
53.9767 6.33164
54.0267 6.33585
54.0769 6.27988
54.1269 6.29404
54.1771 6.23713
54.2271 6.23407
54.2773 6.19838
54.3274 6.1509
54.3776 6.11334
54.4277 6.05982
54.478 6.0703
54.528 5.97613
54.5783 5.92938
54.6285 5.8998
54.6788 5.94149
54.7289 5.83279
54.7792 5.83001
54.8296 5.72
54.8798 5.70139
54.9301 5.66217
54.9803 5.67145
55.0307 5.58536
55.0809 5.55282
55.1314 5.56261
55.1816 5.46629
55.232 5.44321
55.2823 5.39558
55.3328 5.32639
55.383 5.25159
55.4335 5.19994
55.4838 5.16476
55.5344 5.15607
55.5847 5.13485
55.6352 5.10988
55.6856 5.05191
55.7361 5.01161