File: XRD/Ni3Fe_FD1038.xy
TT I
1.27165 6.85929
1.31627 6.44677
1.36089 6.39941
1.40551 6.26093
1.45013 5.52288
1.49476 5.53676
1.53938 5.3869
1.584 5.15471
1.62863 4.8432
1.67325 4.95481
1.71787 4.29915
1.7625 4.24038
1.80712 4.27057
1.85174 3.77929
1.89636 3.81783
1.94099 4.6313
1.98562 4.49696
2.03025 4.36227
2.07487 3.63463
2.11949 4.80072
2.16411 4.5448
2.20874 5.17297
2.25338 5.68466
2.298 5.02254
2.34263 5.5227
2.38725 5.66463
2.43188 5.84735
2.4765 6.91639
2.52115 7.47724
2.56577 7.96647
2.6104 8.28975
2.65503 8.17009
2.69965 8.51431
2.7443 8.42388
2.78893 8.2691
2.83356 8.59897
2.87818 8.46524
2.92281 8.54781
2.96744 9.77745
3.01209 10.7547
3.05672 11.435
3.10135 12.5789
3.14599 12.8874
3.19062 14.0314
3.23527 15.1321
3.2799 15.4523
3.32454 15.9932
3.36917 16.8859
3.4138 18.0675
3.45844 18.8625
3.50309 19.8053
3.54773 20.2748
3.59237 21.1743
3.637 27.948
3.68164 26.7571
3.7263 23.9267
3.77094 24.4724
3.81558 25.1863
3.86022 25.9571
3.90486 27.5288
3.9495 28.2247
3.99416 28.8274
4.0388 30.2531
4.08344 31.4734
4.12809 32.4053
4.17273 33.5426
4.21738 35.7877
4.26204 52.4959
4.30669 56.8517
4.35133 40.9474
4.39598 41.2327
4.44063 43.0875
4.4853 46.2805
4.52995 46.6839
4.5746 48.794
4.61925 50.7791
4.6639 52.903
4.70855 55.461
4.75322 57.8126
4.79788 61.1847
4.84253 63.8104
4.88719 68.0958
4.93184 71.5557
4.97652 77.174
5.02118 82.614
5.06583 90.1499
5.11049 97.5716
5.15515 117.92
5.19981 231.752
5.24449 2467.86
5.28916 13509.5
5.33382 3276.74
5.37848 216.546
5.42315 124.64
5.46783 108.707
5.5125 101.172
5.55716 97.3105
5.60183 93.4006
5.6465 91.7205
5.69117 89.4214
5.73586 87.8474
5.78053 87.1447
5.8252 86.3152
5.86988 86.8873
5.91455 88.5217
5.95924 94.5938
6.00392 162.425
6.0486 883.237
6.09328 4604.29
6.13795 3555.26
6.18263 239.326
6.22733 87.3868
6.27201 75.6034
6.3167 73.1017
6.36138 68.7193
6.40606 65.0395
6.45075 63.349
6.49545 61.968
6.54014 59.8744
6.58483 58.9237
6.62952 57.7945
6.67421 58.4498
6.71892 64.4068
6.76361 56.7379
6.8083 54.283
6.853 53.9593
6.89769 53.6
6.94239 53.1518
6.98711 52.2781
7.03181 52.0383
7.07651 52.0992
7.12121 51.8325
7.16591 51.1494
7.21063 51.0957
7.25533 51.9747
7.30004 61.9605
7.34475 55.772
7.38945 51.6023
7.43416 51.1142
7.47889 51.5958
7.5236 59.8128
7.56831 76.0788
7.61303 57.1863
7.65774 52.7341
7.70247 52.5785
7.74719 53.0402
7.79191 53.5682
7.83663 53.7515
7.88135 54.9908
7.92607 55.4558
7.97081 56.5648
8.01553 57.6206
8.06026 58.8731
8.10498 60.3291
8.14971 61.9003
8.19446 63.8666
8.23919 65.6446
8.28392 68.0392
8.32865 69.9965
8.37339 73.7473
8.41812 77.7529
8.46288 86.2037
8.50761 127.845
8.55235 365.267
8.59709 1075.38
8.64183 2252.67
8.68658 1098.33
8.73134 174.88
8.77609 94.6219
8.82083 88.3064
8.86558 85.3671
8.91033 83.224
8.9551 82.3627
8.99985 80.6043
9.04461 79.9026
9.08936 79.3003
9.13412 79.1017
9.17888 79.5103
9.22365 93.0194
9.26841 118.413
9.31318 90.5763
9.35794 80.0858
9.4027 80.0861
9.44749 80.3306
9.49226 81.1371
9.53703 81.7343
9.5818 83.2777
9.62657 84.3983
9.67134 86.7238
9.71614 87.7244
9.76091 88.9628
9.80569 91.4728
9.85047 93.5494
9.89525 99.1467
9.94005 105.86
9.98484 146.754
10.0296 343.36
10.0744 767.416
10.1192 1751.85
10.164 1669.94
10.2088 438.334
10.2536 124.8
10.2984 103.084
10.3432 100.392
10.388 97.5716
10.4328 107.435
10.4776 159.286
10.5224 266.598
10.5672 505.374
10.612 548.408
10.6568 223.49
10.7017 105.083
10.7465 86.9047
10.7913 80.1476
10.8361 77.6885
10.8809 75.4334
10.9257 73.1789
10.9706 72.4348
11.0154 70.3815
11.0602 69.3927
11.105 68.2128
11.1499 66.9079
11.1947 67.332
11.2395 65.4145
11.2844 64.7608
11.3292 63.6087
11.374 62.7622
11.4189 62.6402
11.4637 61.766
11.5086 60.7921
11.5534 60.8435
11.5983 60.6797
11.6431 60.4529
11.688 59.8961
11.7328 59.7925
11.7777 59.4322
11.8225 59.4267
11.8674 59.9134
11.9122 62.2279
11.9571 69.2215
12.002 67.2051
12.0468 64.6973
12.0917 76.38
12.1366 98.4405
12.1814 147.159
12.2263 207.149
12.2712 180.033
12.3161 96.7728
12.3609 64.5249
12.4058 60.9455
12.4507 61.0201
12.4956 61.4121
12.5405 61.2787
12.5853 61.9232
12.6302 62.4514
12.6751 64.1552
12.72 64.1611
12.7649 64.5217
12.8098 65.0657
12.8547 66.3401
12.8996 67.5765
12.9445 68.965
12.9894 70.7781
13.0343 72.497
13.0792 76.7741
13.1242 82.6727
13.1691 107.225
13.214 146.142
13.2589 226.496
13.3038 362.949
13.3487 440.949
13.3937 278.235
13.4386 126.795
13.4835 98.573
13.5285 119.077
13.5734 154.958
13.6183 235.39
13.6633 354.697
13.7082 361.463
13.7531 205.713
13.7981 100.225
13.843 79.3259
13.888 76.8957
13.9329 74.5692
13.9779 73.3931
14.0228 71.4618
14.0678 70.5867
14.1127 71.8636
14.1577 75.9515
14.2027 73.929
14.2476 68.7609
14.2926 67.3921
14.3376 67.177
14.3825 66.8309
14.4275 66.3097
14.4725 66.2638
14.5175 66.3492
14.5624 65.9437
14.6074 66.5004
14.6524 66.9501
14.6974 67.3487
14.7424 68.6033
14.7874 74.0826
14.8324 88.098
14.8774 108.71
14.9224 146.923
14.9674 207.69
15.0124 227.884
15.0574 160.479
15.1024 93.3731
15.1474 70.6193
15.1924 67.7818
15.2374 66.4887
15.2824 65.5752
15.3274 64.6936
15.3725 64.2869
15.4175 64.0945
15.4625 63.4301
15.5076 63.1572
15.5526 63.4271
15.5976 62.9967
15.6426 63.7616
15.6877 68.323
15.7327 78.9384
15.7778 93.4578
15.8228 121.441
15.8679 168.506
15.9129 200.661
15.958 167.087
16.003 102.625
16.0481 69.2862
16.0931 62.9267
16.1382 59.7023
16.1833 58.1942
16.2283 56.7868
16.2734 56.209
16.3185 55.4047
16.3636 54.9656
16.4086 54.3732
16.4537 53.9779
16.4988 53.3054
16.5439 53.4142
16.589 53.0342
16.6341 52.6935
16.6792 52.3514
16.7243 52.7261
16.7694 52.5654
16.8145 52.5338
16.8596 52.9641
16.9047 53.5646
16.9498 54.1957
16.9949 53.9365
17.04 53.8243
17.0851 54.704
17.1302 56.8345
17.1754 59.9849
17.2205 64.4707
17.2656 72.1373
17.3108 81.7444
17.3559 82.6232
17.401 71.5366
17.4462 61.314
17.4913 57.402
17.5365 57.0048
17.5815 57.2099
17.6268 57.4141
17.6718 58.0027
17.7171 58.4661
17.7622 59.8054
17.8074 60.8652
17.8525 61.7239
17.8977 66.3545
17.9428 72.7432
17.9881 81.3354
18.0331 97.1102
18.0784 120.975
18.1237 142.062
18.1688 136.884
18.214 108.088
18.2591 87.7984
18.3044 88.5306
18.3495 98.9619
18.3948 106.831
18.4399 97.8926
18.4852 78.8401
18.5303 65.5331
18.5756 61.2314
18.6207 59.881
18.666 58.7159
18.7112 58.0651
18.7565 57.3438
18.8016 56.9176
18.8469 56.308
18.892 56.0473
18.9374 55.4959
18.9825 55.2011
19.0278 54.9136
19.073 54.9049
19.1183 55.1519
19.1635 56.3025
19.2088 57.8723
19.254 60.4289
19.2993 65.3889
19.3447 71.8518
19.3898 76.0122
19.4352 72.2093
19.4804 62.9923
19.5257 55.9182
19.5709 52.907
19.6163 52.3779
19.6615 52.0396
19.7068 51.6425
19.752 51.6136
19.7974 51.8728
19.8426 52.6612
19.888 53.5228
19.9332 54.8314
19.9786 57.3207
20.0238 60.8606
20.0692 66.3995
20.1144 70.1479
20.1598 68.6965
20.205 63.844
20.2504 61.42
20.2957 63.4443
20.3411 65.345
20.3863 63.8064
20.4318 58.0866
20.477 52.6665
20.5224 49.9872
20.5677 49.2436
20.6131 48.6973
20.6586 48.2569
20.7038 48.1684
20.7493 47.8725
20.7945 47.9093
20.84 47.7194
20.8853 47.4052
20.9307 47.1757
20.976 47.3082
21.0215 47.1064
21.0668 47.7037
21.1122 48.0851
21.1575 48.5522
21.203 49.4787
21.2483 50.2761
21.2938 50.6194
21.3391 49.0713
21.3846 47.7772
21.4299 47.2545
21.4754 47.1319
21.5207 47.3097
21.5662 47.4057
21.6116 47.5781
21.6571 48.6137
21.7024 49.8001
21.7479 51.6128
21.7933 53.9697
21.8388 57.7931
21.8843 62.6327
21.9297 65.1302
21.9752 63.8411
22.0206 59.6778
22.0661 56.0893
22.1115 55.6115
22.157 56.0129
22.2024 54.1621
22.248 50.9922
22.2933 49.0844
22.3389 47.938
22.3843 47.6478
22.4299 47.2532
22.4753 47.4515
22.5208 47.1968
22.5662 47.3047
22.6118 47.3951
22.6572 47.5763
22.7028 48.0981
22.7483 48.9046
22.7939 49.6422
22.8393 50.9006
22.8849 53.1851
22.9303 55.7006
22.9759 57.4865
23.0214 57.3638
23.067 54.5137
23.1126 50.8643
23.1581 48.4908
23.2037 47.763
23.2492 47.5807
23.2948 47.7203
23.3403 48.3869
23.3859 49.1517
23.4314 50.1116
23.477 51.9153
23.5225 54.375
23.5682 57.1326
23.6137 58.1961
23.6593 56.207
23.7048 51.924
23.7505 48.0039
23.796 45.8706
23.8417 44.8782
23.8872 44.6518
23.9329 44.1803
23.9784 43.9344
24.0241 43.6216
24.0697 43.3791
24.1154 43.0979
24.1609 42.9186
24.2066 42.7268
24.2522 42.5125
24.2979 42.2559
24.3434 42.1457
24.3892 42.0541
24.4349 42.0222
24.4805 41.8248
24.5262 42.1427
24.5718 41.936
24.6175 41.9644
24.6631 41.8795
24.7089 41.5446
24.7545 41.4316
24.8002 41.1787
24.8458 41.1542
24.8916 41.0325
24.9372 41.3332
24.983 41.4373
25.0286 41.9808
25.0744 42.4285
25.12 43.0869
25.1658 43.7716
25.2114 44.0945
25.2572 44.3521
25.3029 44.3402
25.3487 44.5104
25.3943 44.1885
25.4402 43.0537
25.4858 41.9076
25.5316 40.6907
25.5773 40.0231
25.6231 40.0407
25.669 39.71
25.7147 39.6412
25.7605 39.5018
25.8062 39.5973
25.8521 39.8383
25.8977 39.714
25.9436 40.077
25.9893 40.1978
26.0352 40.6302
26.0809 40.9258
26.1268 41.1351
26.1725 40.81
26.2184 40.2296
26.2641 39.6232
26.31 39.2256
26.3557 39.2518
26.4017 39.2496
26.4474 39.7094
26.4933 39.949
26.5391 40.397
26.585 41.1601
26.6308 41.605
26.6767 41.8521
26.7225 41.6485
26.7684 41.0654
26.8142 40.4359
26.8601 39.8869
26.9059 39.612
26.9519 39.0422
26.9979 38.7955
27.0437 38.1675
27.0896 37.9498
27.1354 38.0044
27.1814 37.8793
27.2272 37.8052
27.2732 37.8012
27.3191 37.6571
27.3651 37.7076
27.4109 37.6125
27.4569 37.8438
27.5027 38.0326
27.5488 37.9984
27.5946 37.7956
27.6407 37.4746
27.6865 37.364
27.7326 37.1839
27.7784 37.2136
27.8245 37.0802
27.8703 37.3205
27.9164 37.6443
27.9623 37.9472
28.0084 38.29
28.0543 38.7473
28.1003 38.7745
28.1462 38.555
28.1923 38.0455
28.2384 37.725
28.2843 37.3003
28.3304 36.7457
28.3764 36.2312
28.4225 35.7693
28.4684 35.5848
28.5145 35.1767
28.5605 35.1964
28.6066 35.0656
28.6526 34.9514
28.6987 34.974
28.7447 34.8055
28.7908 34.8123
28.8368 34.812
28.8829 34.768
28.9289 34.6285
28.9751 34.4131
29.0211 34.3827
29.0673 33.9739
29.1133 33.9288
29.1595 33.7424
29.2055 33.6495
29.2517 33.78
29.2977 33.6811
29.3439 33.5673
29.3899 33.718
29.4361 33.5556
29.4824 33.4107
29.5284 33.1492
29.5746 32.7396
29.6207 32.4957
29.6669 32.39
29.713 32.2606
29.7593 32.2699
29.8053 32.1789
29.8516 31.9714
29.8977 32.1898
29.9439 31.9904
29.99 32.0293
30.0363 31.8218
30.0824 31.884
30.1287 31.7709
30.1748 31.8128
30.2211 31.8216
30.2673 31.6923
30.3136 31.7707
30.3597 31.709
30.406 31.5856
30.4522 31.4779
30.4985 31.3406
30.5447 31.5485
30.591 31.6186
30.6372 31.7024
30.6835 31.6896
30.7297 31.7918
30.7761 31.7311
30.8224 31.6397
30.8686 31.4368
30.915 31.1268
30.9612 30.9709
31.0076 30.7345
31.0538 30.6729
31.1002 30.6697
31.1464 30.4495
31.1928 30.4477
31.2391 30.4836
31.2855 30.2675
31.3317 30.3278
31.3781 30.3823
31.4244 30.283
31.4708 30.4667
31.5171 30.3018
31.5636 30.3153
31.6098 30.0989
31.6563 29.8726
31.7026 29.7221
31.7491 29.6359
31.7953 29.6514
31.8418 29.6598
31.8881 29.6665
31.9346 29.7269
31.9809 29.6893
32.0275 29.4102
32.074 29.3662
32.1203 29.2274
32.1668 29.0169
32.2132 28.9783
32.2597 28.7011
32.306 28.7101
32.3526 28.5303
32.399 28.4306
32.4455 28.284
32.4919 28.1178
32.5385 28.1576
32.5848 27.8668
32.6314 27.9613
32.6778 27.917
32.7244 27.7901
32.7708 27.6629
32.8174 27.6145
32.8638 27.4845
32.9104 27.5832
32.9569 27.4999
33.0035 27.4124
33.0499 27.41
33.0966 27.4291
33.143 27.3857
33.1897 27.2405
33.2361 27.1288
33.2828 27.1938
33.3293 26.9815
33.3759 26.9444
33.4226 26.8068
33.4691 26.5974
33.5158 26.5812
33.5623 26.5141
33.609 26.284
33.6555 26.3364
33.7022 26.0572
33.7487 26.0993
33.7954 25.9151
33.842 25.9307
33.8887 25.8794
33.9353 25.8491
33.982 25.635
34.0286 25.6029
34.0753 25.5319
34.1219 25.4453
34.1687 25.3228
34.2152 25.2866
34.262 25.1455
34.3086 25.1607
34.3554 25.0595
34.402 24.9103
34.4488 24.7567
34.4954 24.7845
34.5422 24.6365
34.5889 24.596
34.6357 24.4123
34.6825 24.4896
34.7292 24.3112
34.776 24.2683
34.8227 24.2182
34.8695 24.1876
34.9162 24.1676
34.9631 24.0626
35.0098 24.0547
35.0566 23.9207
35.1033 23.814
35.1502 23.7754
35.1969 23.8259
35.2438 23.6568
35.2906 23.6623
35.3375 23.6078
35.3842 23.5316
35.4311 23.5853
35.4779 23.6032
35.5248 23.4945
35.5716 23.4919
35.6185 23.3521
35.6653 23.3146
35.7123 23.1354
35.759 23.0896
35.806 22.9671
35.8528 22.8578
35.8998 22.7648
35.9468 22.7584
35.9936 22.7117
36.0406 22.5583
36.0874 22.581
36.1345 22.5172
36.1813 22.4315
36.2283 22.326
36.2752 22.2692
36.3222 22.2729
36.3691 22.1957
36.4161 22.1166
36.463 22.0986
36.5101 22.0027
36.557 22.0204
36.6041 21.7706
36.651 21.8257
36.6981 21.7995
36.745 21.6527
36.7921 21.6161
36.839 21.4991
36.8861 21.4667
36.9331 21.3395
36.9802 21.301
37.0272 21.229
37.0743 21.1785
37.1213 21.0975
37.1684 21.0637
37.2154 20.9807
37.2626 20.8996
37.3098 20.8813
37.3568 20.7697
37.404 20.7393
37.451 20.6441
37.4982 20.6132
37.5452 20.4885
37.5924 20.402
37.6395 20.5026
37.6867 20.2649
37.7337 20.2172
37.781 20.1176
37.8281 20.1825
37.8753 20.0467
37.9224 19.9566
37.9697 19.9522
38.0168 19.8882
38.064 19.732
38.1111 19.6998
38.1584 19.6779
38.2056 19.5698
38.2529 19.5386
38.3 19.4892
38.3473 19.4911
38.3945 19.2762
38.4418 19.3533
38.489 19.3131
38.5363 19.1348
38.5837 19.1191
38.6309 19.0612
38.6782 18.9454
38.7254 18.9039
38.7728 18.92
38.82 18.7812
38.8674 18.7989
38.9146 18.7075
38.9621 18.6712
39.0093 18.5745
39.0567 18.5424
39.104 18.4375
39.1514 18.3965
39.1987 18.3778
39.2461 18.3178
39.2934 18.2253
39.3409 18.071
39.3882 18.0163
39.4356 18.0736
39.483 17.9652
39.5304 17.9204
39.5778 17.9048
39.6253 17.8128
39.6726 17.7764
39.7201 17.7796
39.7675 17.7148
39.815 17.6387
39.8624 17.4911
39.9099 17.539
39.9575 17.4076
40.0049 17.4103
40.0525 17.2984
40.0999 17.291
40.1474 17.2037
40.1949 17.1393
40.2425 17.0989
40.2899 17.0032
40.3375 17.0078
40.385 16.9359
40.4326 16.8502
40.48 16.8905
40.5277 16.8384
40.5752 16.7532
40.6228 16.6785
40.6703 16.646
40.718 16.5928
40.7655 16.5487
40.8132 16.4211
40.8607 16.5097
40.9084 16.4211
40.9559 16.2945
41.0036 16.2685
41.0512 16.2542
41.0989 16.1854
41.1465 16.0621
41.1942 16.0471
41.242 15.9274
41.2896 15.9473
41.3373 15.8607
41.3849 15.8369
41.4327 15.7456
41.4803 15.6943
41.5281 15.6352
41.5758 15.633
41.6236 15.5948
41.6712 15.5228
41.7191 15.4191
41.7667 15.4249
41.8146 15.381
41.8622 15.3152
41.9101 15.2905
41.9578 15.1938
42.0057 15.1796
42.0534 15.0741
42.1013 15.1116
42.149 14.9981
42.1969 14.9778
42.2446 14.8795
42.2925 14.8577
42.3403 14.8268
42.3882 14.768
42.436 14.7099
42.4839 14.6545
42.5319 14.6176
42.5797 14.5409
42.6277 14.4899
42.6755 14.4297
42.7235 14.369
42.7713 14.3492
42.8193 14.2712
42.8671 14.2684
42.9152 14.2622
42.963 14.1716
43.0111 14.1461
43.0589 14.075
43.107 14.0307
43.1549 14.0104
43.2029 13.8837
43.2508 13.866
43.2989 13.8248
43.3468 13.7583
43.3949 13.7495
43.4429 13.7179
43.491 13.6175
43.5389 13.6533
43.5871 13.5409
43.635 13.5048
43.6832 13.5019
43.7312 13.4036
43.7793 13.3235
43.8273 13.3484
43.8755 13.2465
43.9237 13.2288
43.9717 13.2604
44.0199 13.1515
44.068 13.0621
44.1162 13.0049
44.1642 12.9962
44.2125 12.9406
44.2606 12.8467
44.3088 12.8134
44.3569 12.8211
44.4052 12.8
44.4533 12.7083
44.5016 12.6778
44.5497 12.6736
44.598 12.5731
44.6461 12.5122
44.6945 12.4965
44.7426 12.4313
44.791 12.3682
44.8391 12.3705
44.8875 12.3286
44.9357 12.2987
44.984 12.2501
45.0322 12.1924
45.0806 12.1332
45.1288 12.0725
45.1773 12.0462
45.2257 11.9954
45.2739 11.9993
45.3224 11.9357
45.3706 11.9287
45.4191 11.8634
45.4673 11.8437
45.5158 11.7606
45.5641 11.7162
45.6126 11.6844
45.6609 11.6593
45.7094 11.5845
45.7577 11.5571
45.8063 11.5147
45.8546 11.4763
45.9031 11.4413
45.9515 11.3881
46.0001 11.3688
46.0484 11.3284
46.097 11.2743
46.1454 11.2448
46.194 11.1936
46.2424 11.1584
46.291 11.1005
46.3395 11.0598
46.3881 11.008
46.4365 10.988
46.4852 10.9711
46.5337 10.912
46.5823 10.8949
46.631 10.8392
46.6795 10.7975
46.7282 10.7773
46.7767 10.7265
46.8254 10.6986
46.8739 10.6472
46.9226 10.6018
46.9712 10.575
47.0199 10.5404
47.0685 10.4896
47.1173 10.4497
47.1658 10.431
47.2146 10.3838
47.2632 10.3074
47.312 10.2878
47.3606 10.2683
47.4095 10.2228
47.4581 10.1711
47.5069 10.1738
47.5556 10.1099
47.6044 10.0738
47.6531 9.99868
47.702 9.9554
47.7507 9.91949
47.7996 9.9291
47.8483 9.91087
47.8972 9.84954
47.9461 9.80859
47.9948 9.77298
48.0438 9.7492
48.0925 9.70218
48.1415 9.6728
48.1902 9.63584
48.2392 9.61468
48.288 9.57843
48.337 9.53013
48.3858 9.50205
48.4348 9.45964
48.4837 9.42429
48.5327 9.3897
48.5815 9.34471
48.6306 9.32869
48.6795 9.34026
48.7285 9.24198
48.7774 9.22697
48.8265 9.1877
48.8754 9.13491
48.9245 9.09796
48.9734 9.0601
49.0226 9.05193
49.0715 9.01511
49.1206 8.96657
49.1696 8.94629
49.2188 8.8974
49.2679 8.87741
49.3169 8.83143
49.3661 8.79338
49.4151 8.73375
49.4643 8.75875
49.5134 8.73266
49.5626 8.65724
49.6117 8.68171
49.6609 8.61757
49.71 8.56814
49.7592 8.53449
49.8083 8.51612
49.8576 8.4802
49.9067 8.46018
49.956 8.40453
50.0052 8.3527
50.0545 8.36513
50.1036 8.30799
50.153 8.29356
50.2022 8.26628
50.2515 8.1996
50.3007 8.15099
50.3501 8.14307
50.3993 8.13596
50.4487 8.10308
50.498 8.056
50.5474 8.06072
50.5966 8.00834
50.6461 7.9536
50.6955 7.93572
50.7448 7.92767
50.7943 7.89067
50.8436 7.84476
50.8931 7.82589
50.9424 7.80934
50.9919 7.71849
51.0413 7.71251
51.0908 7.70333
51.1402 7.70524
51.1897 7.66295
51.2391 7.62462
51.2887 7.58981
51.3381 7.54178
51.3877 7.55468
51.4371 7.49223
51.4867 7.41047
51.5362 7.38745
51.5858 7.40182
51.6353 7.33671
51.6849 7.33843
51.7344 7.31185
51.7841 7.2922
51.8336 7.22549
51.8833 7.21871
51.9328 7.1258
51.9826 7.15838
52.0323 7.08846
52.0818 7.05327
52.1316 7.05152
52.1812 7.04182
52.231 6.95817
52.2806 6.977
52.3304 6.98147
52.38 6.91542
52.4298 6.88462
52.4794 6.86967
52.5293 6.81048
52.5789 6.82555
52.6288 6.78272
52.6785 6.71602
52.7284 6.69613
52.7781 6.72833
52.828 6.66666
52.8777 6.58581
52.9276 6.57083
52.9774 6.56047
53.0273 6.56166
53.0771 6.53923
53.1271 6.52278
53.1769 6.45187
53.2269 6.41265
53.2767 6.39935
53.3267 6.39554
53.3765 6.3076
53.4266 6.33541
53.4766 6.32202
53.5265 6.22904
53.5765 6.26669
53.6264 6.20081
53.6765 6.21689
53.7264 6.17877
53.7765 6.16523
53.8265 6.09664
53.8766 6.06122
53.9266 6.08166
53.9767 6.04707
54.0267 6.03088
54.0769 5.95144
54.1269 5.98412
54.1771 5.93623
54.2271 5.86041
54.2773 5.84229
54.3274 5.78266
54.3776 5.77882
54.4277 5.77682
54.478 5.71692
54.528 5.69335
54.5783 5.68167
54.6285 5.65163
54.6788 5.56515
54.7289 5.58146
54.7792 5.56864
54.8296 5.48896
54.8798 5.37706
54.9301 5.40555
54.9803 5.34914
55.0307 5.35149
55.0809 5.25689
55.1314 5.23888
55.1816 5.10864
55.232 5.15753
55.2823 5.16525
55.3328 5.06837
55.383 5.01735
55.4335 4.95954
55.4838 4.89178
55.5344 4.84028
55.5847 4.86086
55.6352 4.86459
55.6856 4.79658
55.7361 4.7093