File: XRD/Ni3Fe_FD0693.xy
TT I
1.27165 7.1019
1.31627 6.64805
1.36089 6.39814
1.40551 5.62759
1.45013 5.48228
1.49476 5.77774
1.53938 5.72503
1.584 4.87774
1.62863 4.9383
1.67325 4.53506
1.71787 5.35198
1.7625 4.52517
1.80712 4.73771
1.85174 4.58002
1.89636 5.29595
1.94099 4.52902
1.98562 4.7521
2.03025 4.84365
2.07487 5.16676
2.11949 4.79921
2.16411 4.63753
2.20874 9.52756
2.25338 13.0851
2.298 5.66686
2.34263 5.13117
2.38725 5.52924
2.43188 5.36512
2.4765 7.19061
2.52115 6.47001
2.56577 7.49377
2.6104 7.92058
2.65503 7.45744
2.69965 7.92674
2.7443 8.00037
2.78893 7.6854
2.83356 8.32316
2.87818 8.69966
2.92281 9.09407
2.96744 9.47562
3.01209 10.2802
3.05672 10.8073
3.10135 12.4086
3.14599 12.884
3.19062 14.707
3.23527 15.3865
3.2799 15.2952
3.32454 16.4041
3.36917 17.4257
3.4138 18.4446
3.45844 19.5245
3.50309 20.5407
3.54773 21.3195
3.59237 22.8724
3.637 57.6083
3.68164 40.5285
3.7263 25.2725
3.77094 25.9942
3.81558 26.4784
3.86022 27.2763
3.90486 28.5833
3.9495 29.5124
3.99416 30.5873
4.0388 31.7846
4.08344 33.1471
4.12809 34.4403
4.17273 36.2498
4.21738 39.7385
4.26204 138.985
4.30669 121.066
4.35133 45.1333
4.39598 44.0613
4.44063 49.3962
4.4853 55.9202
4.52995 54.0333
4.5746 55.0302
4.61925 53.4563
4.6639 55.271
4.70855 58.367
4.75322 61.0966
4.79788 66.9312
4.84253 68.0158
4.88719 73.8199
4.93184 76.3465
4.97652 81.1719
5.02118 87.4784
5.06583 95.7276
5.11049 107.439
5.15515 159.284
5.19981 426.961
5.24449 3037.35
5.28916 12714.5
5.33382 2639.72
5.37848 191.683
5.42315 130.455
5.46783 117.338
5.5125 110.008
5.55716 102.379
5.60183 98.2011
5.6465 96.5579
5.69117 94.6858
5.73586 93.0461
5.78053 96.1368
5.8252 95.3707
5.86988 97.9253
5.91455 95.6853
5.95924 105.601
6.00392 249.814
6.0486 1035.23
6.09328 4587.71
6.13795 3124.45
6.18263 216.886
6.22733 91.0225
6.27201 80.9228
6.3167 87.4148
6.36138 75.7183
6.40606 69.5806
6.45075 68.6979
6.49545 65.2426
6.54014 63.3658
6.58483 62.982
6.62952 62.1152
6.67421 76.6422
6.71892 99.6849
6.76361 62.8984
6.8083 58.7622
6.853 58.6506
6.89769 56.6622
6.94239 55.7413
6.98711 55.4088
7.03181 55.5019
7.07651 54.9083
7.12121 54.4799
7.16591 55.7018
7.21063 55.452
7.25533 61.7516
7.30004 112.347
7.34475 71.1835
7.38945 55.2194
7.43416 53.5487
7.47889 53.5732
7.5236 54.4623
7.56831 54.9016
7.61303 55.5437
7.65774 56.2616
7.70247 56.1962
7.74719 56.1097
7.79191 56.2769
7.83663 56.7451
7.88135 57.5461
7.92607 58.5909
7.97081 59.5343
8.01553 60.9119
8.06026 62.5822
8.10498 64.0953
8.14971 70.479
8.19446 70.6526
8.23919 69.4304
8.28392 71.7258
8.32865 74.3967
8.37339 78.785
8.41812 84.7309
8.46288 105.622
8.50761 186.718
8.55235 410.47
8.59709 1240.59
8.64183 2227.64
8.68658 866.981
8.73134 155.181
8.77609 98.4597
8.82083 92.6187
8.86558 91.6111
8.91033 90.7561
8.9551 89.0382
8.99985 84.9928
9.04461 83.5021
9.08936 84.0834
9.13412 82.6926
9.17888 82.1099
9.22365 82.0166
9.26841 82.0234
9.31318 84.0843
9.35794 85.1374
9.4027 84.7778
9.44749 84.6126
9.49226 84.769
9.53703 85.5905
9.5818 88.2778
9.62657 93.1552
9.67134 95.7622
9.71614 93.1279
9.76091 94.9864
9.80569 98.0586
9.85047 100.586
9.89525 113.932
9.94005 130.278
9.98484 199.53
10.0296 366.581
10.0744 852.049
10.1192 1792.76
10.164 1563.48
10.2088 358.988
10.2536 122.374
10.2984 109.752
10.3432 109.468
10.388 105.355
10.4328 124.285
10.4776 166.4
10.5224 292.573
10.5672 514.87
10.612 496.558
10.6568 193.237
10.7017 94.1343
10.7465 86.1004
10.7913 83.2389
10.8361 80.7927
10.8809 78.7426
10.9257 77.6997
10.9706 77.6932
11.0154 74.9309
11.0602 72.5165
11.105 71.4497
11.1499 72.6106
11.1947 75.536
11.2395 70.8755
11.2844 68.6407
11.3292 67.0024
11.374 65.9239
11.4189 65.7535
11.4637 64.809
11.5086 64.36
11.5534 65.9283
11.5983 64.3892
11.6431 63.4263
11.688 62.9682
11.7328 62.5964
11.7777 62.3992
11.8225 62.4962
11.8674 62.31
11.9122 62.3525
11.9571 62.987
12.002 64.2439
12.0468 69.3261
12.0917 79.9013
12.1366 105.253
12.1814 155.924
12.2263 204.833
12.2712 157.283
12.3161 88.1664
12.3609 67.3952
12.4058 64.0888
12.4507 64.1577
12.4956 64.2955
12.5405 64.6297
12.5853 65.0613
12.6302 68.879
12.6751 72.0183
12.72 68.1048
12.7649 67.5585
12.8098 68.3295
12.8547 69.7423
12.8996 71.5376
12.9445 72.8387
12.9894 74.5739
13.0343 76.2653
13.0792 80.3769
13.1242 93.4302
13.1691 114.434
13.214 153.284
13.2589 248.278
13.3038 380.302
13.3487 418.831
13.3937 249.551
13.4386 120.189
13.4835 108.399
13.5285 123.316
13.5734 164.467
13.6183 257.354
13.6633 355.578
13.7082 326.624
13.7531 171.137
13.7981 93.6209
13.843 81.391
13.888 79.4683
13.9329 77.1516
13.9779 75.8122
14.0228 74.1876
14.0678 73.1146
14.1127 72.4498
14.1577 71.7822
14.2027 71.5503
14.2476 70.0711
14.2926 70.0339
14.3376 70.7974
14.3825 69.8351
14.4275 69.0032
14.4725 68.5752
14.5175 68.8714
14.5624 68.8307
14.6074 70.078
14.6524 70.6885
14.6974 70.6933
14.7424 74.1487
14.7874 80.4445
14.8324 90.5604
14.8774 114.013
14.9224 159.263
14.9674 212.542
15.0124 216.06
15.0574 140.238
15.1024 86.9072
15.1474 71.5867
15.1924 70.076
15.2374 69.6071
15.2824 69.05
15.3274 67.3536
15.3725 66.6316
15.4175 66.4586
15.4625 65.9963
15.5076 66.0491
15.5526 65.889
15.5976 66.0449
15.6426 68.3395
15.6877 73.6803
15.7327 80.926
15.7778 96.8793
15.8228 129.872
15.8679 174.886
15.9129 194.993
15.958 150.048
16.003 91.3885
16.0481 66.386
16.0931 63.2904
16.1382 61.465
16.1833 60.2489
16.2283 58.5876
16.2734 57.9929
16.3185 58.0071
16.3636 57.9118
16.4086 56.7384
16.4537 55.8809
16.4988 55.4351
16.5439 55.1221
16.589 55.0321
16.6341 54.6415
16.6792 54.3326
16.7243 54.6329
16.7694 54.8198
16.8145 54.4682
16.8596 55.0862
16.9047 55.5838
16.9498 55.8638
16.9949 55.2942
17.04 56.0117
17.0851 57.3378
17.1302 58.769
17.1754 62.0293
17.2205 67.4475
17.2656 75.3365
17.3108 83.1701
17.3559 81.0871
17.401 69.7332
17.4462 61.3836
17.4913 59.0373
17.5365 58.931
17.5815 59.1131
17.6268 59.4934
17.6718 60.2972
17.7171 60.7869
17.7622 61.3645
17.8074 62.4006
17.8525 65.5935
17.8977 68.8688
17.9428 74.3473
17.9881 83.9485
18.0331 102.612
18.0784 125.279
18.1237 142.264
18.1688 130.633
18.214 100.868
18.2591 86.0184
18.3044 91.4218
18.3495 101.132
18.3948 105.565
18.4399 94.301
18.4852 75.3064
18.5303 65.0197
18.5756 61.9614
18.6207 61.0804
18.666 60.1646
18.7112 59.6613
18.7565 58.838
18.8016 58.4171
18.8469 58.0056
18.892 57.8175
18.9374 57.1593
18.9825 56.7865
19.0278 56.589
19.073 57.0538
19.1183 57.1948
19.1635 57.9296
19.2088 59.3624
19.254 62.446
19.2993 67.1759
19.3447 73.1112
19.3898 76.0938
19.4352 71.0692
19.4804 61.9287
19.5257 55.9865
19.5709 54.0954
19.6163 53.6735
19.6615 53.6848
19.7068 53.2912
19.752 53.2304
19.7974 53.667
19.8426 54.2989
19.888 55.0468
19.9332 56.3186
19.9786 59.2073
20.0238 63.0548
20.0692 67.6548
20.1144 69.8522
20.1598 67.5657
20.205 63.0605
20.2504 62.0909
20.2957 64.1416
20.3411 65.3622
20.3863 63.1243
20.4318 57.6349
20.477 52.8448
20.5224 51.2526
20.5677 50.6742
20.6131 50.0337
20.6586 49.5337
20.7038 49.2824
20.7493 48.8293
20.7945 49.0243
20.84 48.7594
20.8853 48.5457
20.9307 48.6573
20.976 48.7365
21.0215 48.5425
21.0668 48.927
21.1122 49.4575
21.1575 50.0509
21.203 50.8029
21.2483 51.4479
21.2938 51.4105
21.3391 49.7535
21.3846 48.7924
21.4299 48.4048
21.4754 48.3261
21.5207 48.5454
21.5662 48.9767
21.6116 49.4265
21.6571 49.9695
21.7024 50.9894
21.7479 52.851
21.7933 55.6864
21.8388 59.4875
21.8843 63.2401
21.9297 64.7031
21.9752 62.7094
22.0206 58.9431
22.0661 56.2038
22.1115 56.0741
22.157 55.7044
22.2024 53.7839
22.248 50.9907
22.2933 49.624
22.3389 49.0767
22.3843 48.8282
22.4299 48.7288
22.4753 48.7597
22.5208 48.3851
22.5662 48.4702
22.6118 48.7231
22.6572 48.8193
22.7028 49.1893
22.7483 49.7014
22.7939 50.5693
22.8393 52.2527
22.8849 54.3437
22.9303 56.3578
22.9759 57.8944
23.0214 57.1386
23.067 53.8265
23.1126 50.7025
23.1581 49.0155
23.2037 48.7308
23.2492 48.8453
23.2948 48.9219
23.3403 49.1184
23.3859 49.7777
23.4314 50.9393
23.477 52.8631
23.5225 55.1775
23.5682 57.2971
23.6137 57.7312
23.6593 54.9234
23.7048 51.0751
23.7505 47.8587
23.796 46.425
23.8417 45.8951
23.8872 45.4395
23.9329 45.1572
23.9784 44.6297
24.0241 44.4948
24.0697 44.2963
24.1154 43.9402
24.1609 43.857
24.2066 43.7226
24.2522 43.571
24.2979 43.2015
24.3434 43.1858
24.3892 43.0906
24.4349 43.005
24.4805 42.7795
24.5262 43.0136
24.5718 42.8941
24.6175 42.8417
24.6631 42.6342
24.7089 42.259
24.7545 42.2167
24.8002 42.1238
24.8458 42.2358
24.8916 41.9688
24.9372 42.2128
24.983 42.557
25.0286 42.8868
25.0744 43.3083
25.12 43.8399
25.1658 44.2997
25.2114 44.67
25.2572 44.7071
25.3029 44.6955
25.3487 44.8896
25.3943 44.3664
25.4402 43.0404
25.4858 42.165
25.5316 41.4252
25.5773 40.7513
25.6231 40.8733
25.669 40.4943
25.7147 40.4921
25.7605 40.4076
25.8062 40.3263
25.8521 40.4651
25.8977 40.5021
25.9436 40.911
25.9893 40.9973
26.0352 41.4452
26.0809 41.4621
26.1268 41.6441
26.1725 41.1864
26.2184 40.7342
26.2641 40.2524
26.31 40.0732
26.3557 39.9636
26.4017 39.9364
26.4474 40.444
26.4933 40.6793
26.5391 41.2985
26.585 41.6741
26.6308 42.0421
26.6767 42.1594
26.7225 41.7408
26.7684 41.2363
26.8142 40.7337
26.8601 40.2885
26.9059 39.9957
26.9519 39.3722
26.9979 39.0297
27.0437 38.7655
27.0896 38.6762
27.1354 38.6208
27.1814 38.4437
27.2272 38.4465
27.2732 38.3915
27.3191 38.3901
27.3651 38.4646
27.4109 38.3823
27.4569 38.4474
27.5027 38.3802
27.5488 38.5227
27.5946 38.3687
27.6407 38.016
27.6865 37.916
27.7326 37.8157
27.7784 37.7671
27.8245 37.7372
27.8703 38.0788
27.9164 38.332
27.9623 38.3797
28.0084 38.7447
28.0543 39.1892
28.1003 38.9813
28.1462 38.6607
28.1923 38.3313
28.2384 37.8801
28.2843 37.513
28.3304 37.1256
28.3764 36.6885
28.4225 36.3083
28.4684 36.1526
28.5145 35.9455
28.5605 35.7579
28.6066 35.5841
28.6526 35.4992
28.6987 35.5534
28.7447 35.3852
28.7908 35.3673
28.8368 35.3312
28.8829 35.3537
28.9289 35.3272
28.9751 35.0601
29.0211 34.8
29.0673 34.5537
29.1133 34.4392
29.1595 34.2979
29.2055 34.3474
29.2517 34.3293
29.2977 34.1276
29.3439 34.2415
29.3899 34.2214
29.4361 33.9886
29.4824 33.8444
29.5284 33.692
29.5746 33.2891
29.6207 33.0331
29.6669 33.1055
29.713 32.9024
29.7593 32.8657
29.8053 32.8845
29.8516 32.7438
29.8977 32.7239
29.9439 32.5044
29.99 32.6033
30.0363 32.4764
30.0824 32.5492
30.1287 32.3341
30.1748 32.5023
30.2211 32.3696
30.2673 32.2063
30.3136 32.255
30.3597 32.1838
30.406 32.2088
30.4522 31.9875
30.4985 32.0337
30.5447 32.1677
30.591 32.053
30.6372 32.2108
30.6835 32.1519
30.7297 32.1964
30.7761 32.1108
30.8224 31.9056
30.8686 31.8107
30.915 31.5301
30.9612 31.4056
31.0076 31.201
31.0538 31.0625
31.1002 31.092
31.1464 30.875
31.1928 30.8795
31.2391 31.0159
31.2855 30.8222
31.3317 30.8735
31.3781 30.8485
31.4244 30.8057
31.4708 30.7953
31.5171 30.6903
31.5636 30.6463
31.6098 30.4523
31.6563 30.2506
31.7026 30.2407
31.7491 30.1043
31.7953 30.1722
31.8418 30.0682
31.8881 30.1925
31.9346 29.9919
31.9809 30.0101
32.0275 29.8473
32.074 29.7796
32.1203 29.5797
32.1668 29.4827
32.2132 29.3008
32.2597 29.1342
32.306 29.1143
32.3526 28.9796
32.399 28.8372
32.4455 28.7185
32.4919 28.5911
32.5385 28.6216
32.5848 28.4036
32.6314 28.4337
32.6778 28.3434
32.7244 28.2922
32.7708 28.1286
32.8174 28.085
32.8638 27.9464
32.9104 27.934
32.9569 27.9395
33.0035 27.8682
33.0499 27.7987
33.0966 27.6896
33.143 27.7348
33.1897 27.6429
33.2361 27.5196
33.2828 27.5092
33.3293 27.3347
33.3759 27.3327
33.4226 27.1228
33.4691 27.072
33.5158 26.9949
33.5623 26.8066
33.609 26.727
33.6555 26.6216
33.7022 26.5505
33.7487 26.4733
33.7954 26.4186
33.842 26.3012
33.8887 26.2445
33.9353 26.223
33.982 26.1722
34.0286 26.0085
34.0753 25.8881
34.1219 25.855
34.1687 25.6395
34.2152 25.683
34.262 25.6285
34.3086 25.5084
34.3554 25.5174
34.402 25.3013
34.4488 25.2249
34.4954 25.1798
34.5422 25.0957
34.5889 25.0508
34.6357 24.9362
34.6825 24.8664
34.7292 24.8365
34.776 24.6695
34.8227 24.7528
34.8695 24.5854
34.9162 24.5366
34.9631 24.4468
35.0098 24.4577
35.0566 24.3332
35.1033 24.1354
35.1502 24.2504
35.1969 24.1671
35.2438 24.0818
35.2906 24.0829
35.3375 24.0189
35.3842 23.9453
35.4311 23.9563
35.4779 23.9088
35.5248 23.8813
35.5716 23.7087
35.6185 23.6856
35.6653 23.6346
35.7123 23.5111
35.759 23.3182
35.806 23.3479
35.8528 23.1634
35.8998 23.1907
35.9468 23.0676
35.9936 23.0182
36.0406 22.9473
36.0874 22.9231
36.1345 22.8706
36.1813 22.7924
36.2283 22.664
36.2752 22.5611
36.3222 22.6047
36.3691 22.5611
36.4161 22.4204
36.463 22.335
36.5101 22.3986
36.557 22.2611
36.6041 22.1759
36.651 22.1553
36.6981 22.1025
36.745 21.9365
36.7921 21.9647
36.839 21.8439
36.8861 21.7777
36.9331 21.6558
36.9802 21.6104
37.0272 21.513
37.0743 21.4392
37.1213 21.4333
37.1684 21.3535
37.2154 21.2919
37.2626 21.2241
37.3098 21.2129
37.3568 21.0915
37.404 21.0488
37.451 20.919
37.4982 20.8765
37.5452 20.8663
37.5924 20.7142
37.6395 20.8015
37.6867 20.7243
37.7337 20.5394
37.781 20.5355
37.8281 20.4388
37.8753 20.3361
37.9224 20.2599
37.9697 20.247
38.0168 20.1579
38.064 20.1253
38.1111 20.0378
38.1584 19.9512
38.2056 20.0259
38.2529 19.8812
38.3 19.7812
38.3473 19.7988
38.3945 19.6324
38.4418 19.6326
38.489 19.5883
38.5363 19.5519
38.5837 19.3679
38.6309 19.3913
38.6782 19.2222
38.7254 19.2039
38.7728 19.1919
38.82 19.0992
38.8674 19.0433
38.9146 18.9674
38.9621 18.8873
39.0093 18.9106
39.0567 18.8624
39.104 18.7057
39.1514 18.6733
39.1987 18.6772
39.2461 18.5875
39.2934 18.5116
39.3409 18.4386
39.3882 18.4029
39.4356 18.3645
39.483 18.2675
39.5304 18.305
39.5778 18.2513
39.6253 18.0974
39.6726 18.0506
39.7201 18.0187
39.7675 17.9684
39.815 17.909
39.8624 17.803
39.9099 17.8496
39.9575 17.6865
40.0049 17.6921
40.0525 17.5591
40.0999 17.5001
40.1474 17.5209
40.1949 17.4008
40.2425 17.3329
40.2899 17.2974
40.3375 17.2444
40.385 17.2059
40.4326 17.1458
40.48 17.1192
40.5277 17.031
40.5752 16.9961
40.6228 16.9771
40.6703 16.8427
40.718 16.8418
40.7655 16.7945
40.8132 16.7578
40.8607 16.7105
40.9084 16.6544
40.9559 16.5762
41.0036 16.5743
41.0512 16.4691
41.0989 16.4224
41.1465 16.3073
41.1942 16.3369
41.242 16.2167
41.2896 16.1968
41.3373 16.1049
41.3849 16.0802
41.4327 16.0485
41.4803 15.9944
41.5281 15.9827
41.5758 15.861
41.6236 15.7823
41.6712 15.711
41.7191 15.6748
41.7667 15.6632
41.8146 15.5965
41.8622 15.5642
41.9101 15.5672
41.9578 15.4182
42.0057 15.4114
42.0534 15.3355
42.1013 15.3027
42.149 15.2595
42.1969 15.2093
42.2446 15.1236
42.2925 15.078
42.3403 15.0496
42.3882 15.0288
42.436 14.9739
42.4839 14.8824
42.5319 14.7906
42.5797 14.8061
42.6277 14.7189
42.6755 14.6755
42.7235 14.6081
42.7713 14.6342
42.8193 14.5203
42.8671 14.4663
42.9152 14.4313
42.963 14.3774
43.0111 14.313
43.0589 14.2856
43.107 14.2006
43.1549 14.2358
43.2029 14.1185
43.2508 14.1064
43.2989 14.0588
43.3468 14.0016
43.3949 13.9371
43.4429 13.9214
43.491 13.8174
43.5389 13.813
43.5871 13.7736
43.635 13.7341
43.6832 13.6661
43.7312 13.5791
43.7793 13.5921
43.8273 13.5521
43.8755 13.4557
43.9237 13.4099
43.9717 13.4061
44.0199 13.3359
44.068 13.3027
44.1162 13.2515
44.1642 13.2157
44.2125 13.1395
44.2606 13.1099
44.3088 13.0312
44.3569 13.0081
44.4052 13.0188
44.4533 12.9083
44.5016 12.848
44.5497 12.8134
44.598 12.8165
44.6461 12.7538
44.6945 12.696
44.7426 12.6756
44.791 12.5865
44.8391 12.591
44.8875 12.5061
44.9357 12.5155
44.984 12.4447
45.0322 12.4005
45.0806 12.3015
45.1288 12.2808
45.1773 12.2647
45.2257 12.1895
45.2739 12.1664
45.3224 12.1288
45.3706 12.0986
45.4191 11.9794
45.4673 11.9759
45.5158 11.9678
45.5641 11.9122
45.6126 11.8668
45.6609 11.8217
45.7094 11.7839
45.7577 11.749
45.8063 11.6696
45.8546 11.6396
45.9031 11.6016
45.9515 11.6074
46.0001 11.5089
46.0484 11.5106
46.097 11.4683
46.1454 11.4636
46.194 11.3876
46.2424 11.3373
46.291 11.2939
46.3395 11.2615
46.3881 11.162
46.4365 11.1664
46.4852 11.1097
46.5337 11.0735
46.5823 11.037
46.631 11.0129
46.6795 10.9616
46.7282 10.9504
46.7767 10.921
46.8254 10.8249
46.8739 10.8178
46.9226 10.744
46.9712 10.7078
47.0199 10.6856
47.0685 10.6552
47.1173 10.6032
47.1658 10.5899
47.2146 10.5072
47.2632 10.4986
47.312 10.4586
47.3606 10.3731
47.4095 10.3775
47.4581 10.3567
47.5069 10.29
47.5556 10.2575
47.6044 10.2264
47.6531 10.182
47.702 10.117
47.7507 10.0892
47.7996 10.0438
47.8483 10.01
47.8972 10.0216
47.9461 9.95665
47.9948 9.86686
48.0438 9.89421
48.0925 9.8502
48.1415 9.83915
48.1902 9.77875
48.2392 9.76836
48.288 9.74353
48.337 9.69169
48.3858 9.65726
48.4348 9.62285
48.4837 9.5651
48.5327 9.57826
48.5815 9.50479
48.6306 9.49778
48.6795 9.42927
48.7285 9.37636
48.7774 9.35106
48.8265 9.33337
48.8754 9.32531
48.9245 9.30088
48.9734 9.1903
49.0226 9.19449
49.0715 9.15599
49.1206 9.15763
49.1696 9.1122
49.2188 9.07499
49.2679 9.02808
49.3169 8.96922
49.3661 8.90618
49.4151 8.90576
49.4643 8.88169
49.5134 8.79512
49.5626 8.78541
49.6117 8.83376
49.6609 8.75322
49.71 8.70118
49.7592 8.68511
49.8083 8.62851
49.8576 8.61447
49.9067 8.56979
49.956 8.51974
50.0052 8.48729
50.0545 8.48578
50.1036 8.43246
50.153 8.42742
50.2022 8.4002
50.2515 8.34059
50.3007 8.29012
50.3501 8.25841
50.3993 8.24528
50.4487 8.20437
50.498 8.21017
50.5474 8.18878
50.5966 8.11196
50.6461 8.11795
50.6955 8.02365
50.7448 8.05402
50.7943 8.0245
50.8436 7.96795
50.8931 7.97799
50.9424 7.89851
50.9919 7.87394
51.0413 7.87155
51.0908 7.82358
51.1402 7.78633
51.1897 7.75368
51.2391 7.72355
51.2887 7.68168
51.3381 7.65285
51.3877 7.60371
51.4371 7.56415
51.4867 7.54518
51.5362 7.51956
51.5858 7.50146
51.6353 7.45728
51.6849 7.47354
51.7344 7.41296
51.7841 7.4352
51.8336 7.35566
51.8833 7.33248
51.9328 7.30038
51.9826 7.23163
52.0323 7.18849
52.0818 7.23053
52.1316 7.16698
52.1812 7.13969
52.231 7.10234
52.2806 7.07527
52.3304 7.02545
52.38 7.02986
52.4298 6.95891
52.4794 6.96314
52.5293 6.93988
52.5789 6.91835
52.6288 6.91809
52.6785 6.84007
52.7284 6.83986
52.7781 6.80812
52.828 6.77961
52.8777 6.75422
52.9276 6.74034
52.9774 6.70071
53.0273 6.65086
53.0771 6.62258
53.1271 6.62271
53.1769 6.5839
53.2269 6.55319
53.2767 6.53855
53.3267 6.49613
53.3765 6.46071
53.4266 6.46207
53.4766 6.40677
53.5265 6.37735
53.5765 6.33461
53.6264 6.33036
53.6765 6.29555
53.7264 6.28905
53.7765 6.26748
53.8265 6.21581
53.8766 6.16787
53.9266 6.17013
53.9767 6.12879
54.0267 6.08961
54.0769 6.11335
54.1269 6.05081
54.1771 5.99404
54.2271 5.97381
54.2773 5.94859
54.3274 5.96579
54.3776 5.89473
54.4277 5.8284
54.478 5.83783
54.528 5.7364
54.5783 5.78022
54.6285 5.71256
54.6788 5.67966
54.7289 5.62754
54.7792 5.60288
54.8296 5.56552
54.8798 5.49461
54.9301 5.44097
54.9803 5.47122
55.0307 5.45982
55.0809 5.37047
55.1314 5.38014
55.1816 5.25572
55.232 5.24389
55.2823 5.23586
55.3328 5.09483
55.383 5.05995
55.4335 5.04785
55.4838 5.00857
55.5344 4.98015
55.5847 4.85839
55.6352 4.88707
55.6856 4.90129
55.7361 4.80807