File: XRD/Ni3Fe_FD0243.xy
TT I
1.27165 7.96348
1.31627 7.43655
1.36089 6.89062
1.40551 7.2056
1.45013 6.16628
1.49476 6.16756
1.53938 6.57514
1.584 5.36003
1.62863 5.69958
1.67325 5.44289
1.71787 5.36486
1.7625 5.65964
1.80712 5.62819
1.85174 5.05019
1.89636 4.64989
1.94099 5.04676
1.98562 4.83344
2.03025 4.64336
2.07487 5.01135
2.11949 4.7199
2.16411 4.60244
2.20874 4.85977
2.25338 4.86626
2.298 4.14128
2.34263 4.17439
2.38725 4.82504
2.43188 4.63609
2.4765 5.36249
2.52115 5.26432
2.56577 5.34329
2.6104 6.53554
2.65503 5.80215
2.69965 6.65408
2.7443 6.95423
2.78893 6.72423
2.83356 7.90921
2.87818 8.47396
2.92281 8.70661
2.96744 9.12545
3.01209 10.1027
3.05672 10.1902
3.10135 11.9207
3.14599 12.9141
3.19062 13.9765
3.23527 14.7996
3.2799 15.7531
3.32454 16.7905
3.36917 17.7149
3.4138 18.6581
3.45844 19.4153
3.50309 20.8217
3.54773 21.4169
3.59237 22.3363
3.637 23.2331
3.68164 23.8104
3.7263 25.0774
3.77094 25.5904
3.81558 26.4241
3.86022 27.3755
3.90486 29.0691
3.9495 30.1756
3.99416 31.1929
4.0388 32.4624
4.08344 33.9123
4.12809 34.8891
4.17273 36.1425
4.21738 37.9034
4.26204 38.4997
4.30669 40.9003
4.35133 42.6003
4.39598 43.7486
4.44063 46.6417
4.4853 48.2205
4.52995 52.5968
4.5746 53.7688
4.61925 55.5573
4.6639 57.9898
4.70855 61.136
4.75322 64.6916
4.79788 67.9653
4.84253 71.3984
4.88719 77.0592
4.93184 81.1816
4.97652 87.7564
5.02118 96.0085
5.06583 106.607
5.11049 123.362
5.15515 168.546
5.19981 887.213
5.24449 3959.14
5.28916 10554.3
5.33382 4080.27
5.37848 268.087
5.42315 152.131
5.46783 128.784
5.5125 117.486
5.55716 112.153
5.60183 105.961
5.6465 104.002
5.69117 102.266
5.73586 100.162
5.78053 101.57
5.8252 102.006
5.86988 104.255
5.91455 109.192
5.95924 132.366
6.00392 444.876
6.0486 1428.27
6.09328 3709.79
6.13795 3633.66
6.18263 348.612
6.22733 108.188
6.27201 88.3429
6.3167 80.6204
6.36138 76.1008
6.40606 72.8722
6.45075 70.8235
6.49545 68.0581
6.54014 66.2364
6.58483 65.4047
6.62952 63.9591
6.67421 62.077
6.71892 61.2727
6.76361 60.4854
6.8083 60.2261
6.853 59.1648
6.89769 58.3329
6.94239 58.0342
6.98711 57.2258
7.03181 56.8934
7.07651 56.4351
7.12121 56.0761
7.16591 56.7102
7.21063 55.572
7.25533 55.4704
7.30004 55.1114
7.34475 55.678
7.38945 55.6118
7.43416 55.2814
7.47889 55.5528
7.5236 55.998
7.56831 56.7698
7.61303 57.1031
7.65774 57.0078
7.70247 58.001
7.74719 58.2851
7.79191 58.9148
7.83663 58.8453
7.88135 60.428
7.92607 61.2106
7.97081 62.3088
8.01553 63.6148
8.06026 65.3819
8.10498 66.6757
8.14971 68.861
8.19446 70.256
8.23919 73.052
8.28392 75.8189
8.32865 78.841
8.37339 84.1773
8.41812 90.2807
8.46288 110.978
8.50761 290.722
8.55235 578.572
8.59709 1077.69
8.64183 1992.97
8.68658 1163.45
8.73134 212.5
8.77609 109.799
8.82083 99.9574
8.86558 95.6402
8.91033 93.3325
8.9551 90.7244
8.99985 89.2668
9.04461 88.509
9.08936 87.8033
9.13412 86.51
9.17888 86.3433
9.22365 86.1163
9.26841 86.632
9.31318 87.8965
9.35794 88.1001
9.4027 88.2216
9.44749 88.841
9.49226 89.3423
9.53703 90.1978
9.5818 92.5386
9.62657 94.1158
9.67134 95.519
9.71614 97.0453
9.76091 99.642
9.80569 103.092
9.85047 106.453
9.89525 112.042
9.94005 137.166
9.98484 302.663
10.0296 511.042
10.0744 806.091
10.1192 1468.39
10.164 1703.08
10.2088 529.392
10.2536 146.814
10.2984 117.244
10.3432 112.124
10.388 115.09
10.4328 158.561
10.4776 210.098
10.5224 283.716
10.5672 448.126
10.612 538.083
10.6568 248.598
10.7017 106.484
10.7465 91.8864
10.7913 87.6829
10.8361 85.011
10.8809 82.6108
10.9257 80.669
10.9706 79.4654
11.0154 77.5097
11.0602 75.7394
11.105 74.7367
11.1499 73.3037
11.1947 72.1245
11.2395 70.9827
11.2844 70.4058
11.3292 69.7669
11.374 68.6826
11.4189 68.3072
11.4637 67.6042
11.5086 67.0147
11.5534 66.527
11.5983 66.3186
11.6431 66.3186
11.688 65.5826
11.7328 65.4094
11.7777 65.1005
11.8225 65.3677
11.8674 65.2425
11.9122 65.6214
11.9571 66.0032
12.002 68.382
12.0468 79.7821
12.0917 93.6568
12.1366 109.067
12.1814 141.13
12.2263 193.077
12.2712 182.974
12.3161 101.89
12.3609 69.591
12.4058 66.8207
12.4507 67.0766
12.4956 67.2109
12.5405 67.3915
12.5853 67.7526
12.6302 67.849
12.6751 68.8941
12.72 69.8068
12.7649 70.7811
12.8098 71.4362
12.8547 73.0076
12.8996 74.5116
12.9445 76.0179
12.9894 78.5258
13.0343 80.4999
13.0792 86.6859
13.1242 110.971
13.1691 145.927
13.214 174.515
13.2589 231.068
13.3038 326.373
13.3487 421.951
13.3937 303.314
13.4386 148.388
13.4835 133.217
13.5285 152.085
13.5734 175.038
13.6183 228.162
13.6633 316.083
13.7082 359.99
13.7531 225.095
13.7981 109.24
13.843 86.9005
13.888 83.9851
13.9329 81.177
13.9779 79.4989
14.0228 78.22
14.0678 76.6593
14.1127 76.0516
14.1577 75.0488
14.2027 74.6105
14.2476 73.9693
14.2926 73.1926
14.3376 73.1691
14.3825 72.2941
14.4275 72.1274
14.4725 72.0654
14.5175 72.2633
14.5624 72.3354
14.6074 72.612
14.6524 73.3728
14.6974 74.5389
14.7424 81.079
14.7874 95.0602
14.8324 106.054
14.8774 120.195
14.9224 146.632
14.9674 189.341
15.0124 222.393
15.0574 168.747
15.1024 101.242
15.1474 76.9989
15.1924 73.2837
15.2374 72.0977
15.2824 71.2009
15.3274 70.5089
15.3725 70.0042
15.4175 69.8647
15.4625 69.1618
15.5076 68.9306
15.5526 69.2086
15.5976 69.7229
15.6426 74.9444
15.6877 85.7755
15.7327 94.3513
15.7778 103.845
15.8228 122.818
15.8679 153.24
15.9129 190.624
15.958 172.589
16.003 110.574
16.0481 72.3198
16.0931 65.7927
16.1382 63.588
16.1833 62.8331
16.2283 61.3127
16.2734 60.7343
16.3185 60.1442
16.3636 59.4301
16.4086 58.7899
16.4537 58.3584
16.4988 57.8216
16.5439 57.7432
16.589 57.7376
16.6341 57.4545
16.6792 56.7648
16.7243 57.0895
16.7694 57.0991
16.8145 56.8916
16.8596 57.3122
16.9047 57.2903
16.9498 57.6375
16.9949 57.612
17.04 59.2386
17.0851 61.6767
17.1302 63.5568
17.1754 65.5517
17.2205 68.7172
17.2656 74.0604
17.3108 82.3789
17.3559 85.5101
17.401 77.0841
17.4462 66.4794
17.4913 62.3313
17.5365 61.7292
17.5815 62.1933
17.6268 62.4749
17.6718 62.8216
17.7171 63.6756
17.7622 64.3985
17.8074 66.6189
17.8525 72.0529
17.8977 78.0953
17.9428 82.3202
17.9881 88.2976
18.0331 99.5489
18.0784 115.984
18.1237 139.628
18.1688 143.665
18.214 116.811
18.2591 93.0474
18.3044 90.3115
18.3495 97.2209
18.3948 106.645
18.4399 101.628
18.4852 82.9684
18.5303 69.8811
18.5756 65.151
18.6207 64.1538
18.666 63.0373
18.7112 62.457
18.7565 61.8317
18.8016 61.5065
18.8469 60.7583
18.892 60.418
18.9374 59.9502
18.9825 59.6746
19.0278 59.3926
19.073 60.1774
19.1183 61.2339
19.1635 61.8646
19.2088 62.9232
19.254 64.4827
19.2993 67.4917
19.3447 71.3636
19.3898 76.6386
19.4352 75.8328
19.4804 67.9185
19.5257 60.1539
19.5709 56.7486
19.6163 56.4916
19.6615 56.299
19.7068 55.7864
19.752 55.9962
19.7974 57.1166
19.8426 57.9333
19.888 58.7884
19.9332 59.4011
19.9786 61.4338
20.0238 64.1696
20.0692 68.6001
20.1144 72.6582
20.1598 72.9312
20.205 67.6539
20.2504 64.1756
20.2957 64.4207
20.3411 66.7786
20.3863 66.9966
20.4318 61.9309
20.477 56.5577
20.5224 53.5303
20.5677 52.7064
20.6131 52.4811
20.6586 52.1731
20.7038 51.6582
20.7493 51.3407
20.7945 51.0579
20.84 51.1293
20.8853 50.9961
20.9307 50.9845
20.976 51.3001
21.0215 51.1834
21.0668 51.4092
21.1122 51.5336
21.1575 52.1123
21.203 52.4472
21.2483 53.4608
21.2938 53.7702
21.3391 52.8847
21.3846 51.5466
21.4299 50.7717
21.4754 50.8148
21.5207 50.9857
21.5662 51.7255
21.6116 52.698
21.6571 53.3673
21.7024 54.1526
21.7479 55.4463
21.7933 57.6305
21.8388 60.2332
21.8843 63.4992
21.9297 66.8966
21.9752 67.0139
22.0206 63.1162
22.0661 58.6602
22.1115 57.6761
22.157 58.3519
22.2024 57.2927
22.248 54.3788
22.2933 52.3157
22.3389 51.2628
22.3843 51.0781
22.4299 50.9158
22.4753 50.8868
22.5208 50.8393
22.5662 50.9679
22.6118 51.4114
22.6572 51.9242
22.7028 52.2717
22.7483 52.6173
22.7939 53.1501
22.8393 54.2395
22.8849 55.5288
22.9303 57.1603
22.9759 59.3214
23.0214 60.1689
23.067 57.9252
23.1126 54.3969
23.1581 51.8445
23.2037 51.4054
23.2492 51.8997
23.2948 51.9188
23.3403 52.1483
23.3859 52.5117
23.4314 53.3657
23.477 54.2045
23.5225 55.3429
23.5682 57.7462
23.6137 59.7306
23.6593 58.6101
23.7048 54.8378
23.7505 51.1213
23.796 48.8537
23.8417 48.2285
23.8872 47.61
23.9329 47.3241
23.9784 46.8676
24.0241 46.7284
24.0697 46.3192
24.1154 46.0686
24.1609 45.8854
24.2066 45.7674
24.2522 45.5819
24.2979 45.4274
24.3434 45.288
24.3892 44.9845
24.4349 44.8643
24.4805 44.8451
24.5262 44.846
24.5718 44.7757
24.6175 44.807
24.6631 44.7392
24.7089 44.3655
24.7545 44.3154
24.8002 44.1926
24.8458 44.2579
24.8916 44.1361
24.9372 44.2441
24.983 44.907
25.0286 44.9573
25.0744 45.2981
25.12 45.6301
25.1658 46.1446
25.2114 46.4784
25.2572 46.5445
25.3029 46.3528
25.3487 46.5142
25.3943 46.7427
25.4402 45.8771
25.4858 44.6318
25.5316 43.4392
25.5773 42.7947
25.6231 42.7474
25.669 42.4385
25.7147 42.4142
25.7605 42.337
25.8062 42.4147
25.8521 42.44
25.8977 42.247
25.9436 42.5735
25.9893 42.6221
26.0352 43.1695
26.0809 43.0671
26.1268 43.4709
26.1725 43.4653
26.2184 42.8469
26.2641 42.3669
26.31 42.1862
26.3557 42.07
26.4017 42.0755
26.4474 42.4013
26.4933 42.458
26.5391 42.7768
26.585 43.163
26.6308 43.4791
26.6767 43.924
26.7225 43.8382
26.7684 43.311
26.8142 42.6387
26.8601 42.2759
26.9059 41.8993
26.9519 41.3697
26.9979 41.0575
27.0437 40.6913
27.0896 40.5055
27.1354 40.4925
27.1814 40.4666
27.2272 40.3261
27.2732 40.3678
27.3191 40.0359
27.3651 40.107
27.4109 40.1094
27.4569 40.1813
27.5027 40.2697
27.5488 40.3817
27.5946 40.1538
27.6407 40.1003
27.6865 39.9873
27.7326 39.7507
27.7784 39.7717
27.8245 39.6131
27.8703 39.6724
27.9164 39.9599
27.9623 39.8616
28.0084 40.3049
28.0543 40.7502
28.1003 40.722
28.1462 40.4627
28.1923 40.1697
28.2384 39.6149
28.2843 39.4616
28.3304 38.8136
28.3764 38.3877
28.4225 38.0414
28.4684 37.7221
28.5145 37.5553
28.5605 37.4132
28.6066 37.3355
28.6526 37.1992
28.6987 37.184
28.7447 37.0152
28.7908 37.0096
28.8368 36.9191
28.8829 36.8246
28.9289 36.8343
28.9751 36.7577
29.0211 36.519
29.0673 36.2862
29.1133 36.0839
29.1595 35.9427
29.2055 35.8173
29.2517 35.9291
29.2977 35.7298
29.3439 35.7344
29.3899 35.59
29.4361 35.6172
29.4824 35.5411
29.5284 35.1526
29.5746 34.9408
29.6207 34.634
29.6669 34.4582
29.713 34.3581
29.7593 34.3766
29.8053 34.3652
29.8516 34.2386
29.8977 34.1324
29.9439 34.0475
29.99 33.9761
30.0363 33.9669
30.0824 34.035
30.1287 33.7914
30.1748 33.8359
30.2211 33.8519
30.2673 33.6779
30.3136 33.7979
30.3597 33.6979
30.406 33.6564
30.4522 33.4898
30.4985 33.4328
30.5447 33.5159
30.591 33.5416
30.6372 33.6486
30.6835 33.4617
30.7297 33.6657
30.7761 33.5707
30.8224 33.4375
30.8686 33.2465
30.915 32.9711
30.9612 32.8733
31.0076 32.7094
31.0538 32.7028
31.1002 32.5483
31.1464 32.2657
31.1928 32.305
31.2391 32.3982
31.2855 32.1455
31.3317 32.2548
31.3781 32.1663
31.4244 32.2225
31.4708 32.2132
31.5171 32.2285
31.5636 32.2171
31.6098 31.9709
31.6563 31.7605
31.7026 31.5815
31.7491 31.4545
31.7953 31.5084
31.8418 31.4201
31.8881 31.484
31.9346 31.3591
31.9809 31.374
32.0275 31.2682
32.074 31.1919
32.1203 30.9393
32.1668 30.8258
32.2132 30.6778
32.2597 30.4688
32.306 30.5096
32.3526 30.2632
32.399 30.1612
32.4455 29.9212
32.4919 29.8917
32.5385 29.9151
32.5848 29.7605
32.6314 29.7593
32.6778 29.6474
32.7244 29.5526
32.7708 29.3363
32.8174 29.51
32.8638 29.2222
32.9104 29.3572
32.9569 29.2298
33.0035 29.1329
33.0499 29.0278
33.0966 29.0041
33.143 28.9707
33.1897 28.974
33.2361 28.7946
33.2828 28.7902
33.3293 28.6201
33.3759 28.5415
33.4226 28.4858
33.4691 28.2451
33.5158 28.2282
33.5623 28.107
33.609 27.9672
33.6555 27.8346
33.7022 27.6826
33.7487 27.6546
33.7954 27.6138
33.842 27.4324
33.8887 27.4952
33.9353 27.4237
33.982 27.3266
34.0286 27.2344
34.0753 27.1748
34.1219 27.1052
34.1687 26.9807
34.2152 26.9437
34.262 26.7831
34.3086 26.6507
34.3554 26.6349
34.402 26.4007
34.4488 26.4503
34.4954 26.3508
34.5422 26.2198
34.5889 26.1726
34.6357 26.1155
34.6825 26.0522
34.7292 25.9897
34.776 25.8655
34.8227 25.9027
34.8695 25.6654
34.9162 25.6396
34.9631 25.5299
35.0098 25.586
35.0566 25.372
35.1033 25.3811
35.1502 25.3488
35.1969 25.254
35.2438 25.1933
35.2906 25.1523
35.3375 25.0886
35.3842 25.0264
35.4311 24.984
35.4779 24.9726
35.5248 24.8499
35.5716 24.8391
35.6185 24.7285
35.6653 24.5467
35.7123 24.612
35.759 24.4408
35.806 24.3302
35.8528 24.2614
35.8998 24.2329
35.9468 23.9946
35.9936 24.1329
36.0406 24.0279
36.0874 24.0205
36.1345 23.9143
36.1813 23.7978
36.2283 23.687
36.2752 23.6428
36.3222 23.6267
36.3691 23.5079
36.4161 23.3535
36.463 23.4094
36.5101 23.3653
36.557 23.3399
36.6041 23.13
36.651 23.1752
36.6981 23.1254
36.745 23.0626
36.7921 22.9675
36.839 22.8935
36.8861 22.7005
36.9331 22.75
36.9802 22.6574
37.0272 22.5767
37.0743 22.4431
37.1213 22.3945
37.1684 22.2985
37.2154 22.2878
37.2626 22.1818
37.3098 22.1002
37.3568 22.0827
37.404 22.0309
37.451 21.8871
37.4982 21.8804
37.5452 21.8241
37.5924 21.7239
37.6395 21.7769
37.6867 21.6021
37.7337 21.49
37.781 21.395
37.8281 21.3624
37.8753 21.25
37.9224 21.2216
37.9697 21.1759
38.0168 21.0548
38.064 21.0
38.1111 20.9997
38.1584 20.8615
38.2056 20.8557
38.2529 20.7328
38.3 20.6414
38.3473 20.6498
38.3945 20.583
38.4418 20.513
38.489 20.4711
38.5363 20.3101
38.5837 20.2608
38.6309 20.3113
38.6782 20.1187
38.7254 20.0464
38.7728 20.0573
38.82 19.9787
38.8674 19.9104
38.9146 19.8957
38.9621 19.7537
39.0093 19.7163
39.0567 19.6162
39.104 19.6416
39.1514 19.5545
39.1987 19.4722
39.2461 19.4647
39.2934 19.3429
39.3409 19.2575
39.3882 19.1971
39.4356 19.1655
39.483 19.1504
39.5304 19.0988
39.5778 19.0238
39.6253 18.9345
39.6726 18.8581
39.7201 18.7965
39.7675 18.7633
39.815 18.7127
39.8624 18.6355
39.9099 18.6217
39.9575 18.5122
40.0049 18.4656
40.0525 18.3771
40.0999 18.3638
40.1474 18.3353
40.1949 18.1654
40.2425 18.1421
40.2899 18.1424
40.3375 18.1037
40.385 17.9776
40.4326 17.9656
40.48 17.8179
40.5277 17.836
40.5752 17.7624
40.6228 17.6932
40.6703 17.6585
40.718 17.5707
40.7655 17.5789
40.8132 17.4799
40.8607 17.4613
40.9084 17.4011
40.9559 17.3128
41.0036 17.3088
41.0512 17.2198
41.0989 17.1913
41.1465 17.0667
41.1942 17.0503
41.242 16.9746
41.2896 16.8886
41.3373 16.8645
41.3849 16.852
41.4327 16.7633
41.4803 16.681
41.5281 16.6893
41.5758 16.5774
41.6236 16.4982
41.6712 16.4677
41.7191 16.3707
41.7667 16.3309
41.8146 16.3482
41.8622 16.2741
41.9101 16.1934
41.9578 16.0986
42.0057 16.1068
42.0534 16.0721
42.1013 15.9643
42.149 15.8471
42.1969 15.8174
42.2446 15.8356
42.2925 15.774
42.3403 15.7378
42.3882 15.6969
42.436 15.5874
42.4839 15.5231
42.5319 15.477
42.5797 15.4733
42.6277 15.3671
42.6755 15.3745
42.7235 15.3012
42.7713 15.2477
42.8193 15.2097
42.8671 15.1153
42.9152 15.1031
42.963 15.0182
43.0111 14.9757
43.0589 14.9276
43.107 14.8154
43.1549 14.8242
43.2029 14.7559
43.2508 14.7206
43.2989 14.6851
43.3468 14.5742
43.3949 14.5496
43.4429 14.5876
43.491 14.4743
43.5389 14.4209
43.5871 14.4151
43.635 14.3147
43.6832 14.3139
43.7312 14.2291
43.7793 14.1237
43.8273 14.0909
43.8755 14.1078
43.9237 14.0609
43.9717 13.9574
44.0199 13.8778
44.068 13.8868
44.1162 13.7986
44.1642 13.8049
44.2125 13.756
44.2606 13.6659
44.3088 13.645
44.3569 13.6019
44.4052 13.5587
44.4533 13.4681
44.5016 13.4341
44.5497 13.4581
44.598 13.3943
44.6461 13.3627
44.6945 13.2904
44.7426 13.2425
44.791 13.1585
44.8391 13.1231
44.8875 13.1066
44.9357 13.0239
44.984 12.9661
45.0322 12.9717
45.0806 12.883
45.1288 12.8258
45.1773 12.7934
45.2257 12.7535
45.2739 12.7312
45.3224 12.6519
45.3706 12.614
45.4191 12.5432
45.4673 12.5687
45.5158 12.4753
45.5641 12.4419
45.6126 12.4082
45.6609 12.3103
45.7094 12.2898
45.7577 12.2621
45.8063 12.1972
45.8546 12.1807
45.9031 12.1442
45.9515 12.0715
46.0001 12.0306
46.0484 12.0069
46.097 11.9261
46.1454 11.8827
46.194 11.8624
46.2424 11.8138
46.291 11.7867
46.3395 11.7377
46.3881 11.6683
46.4365 11.6779
46.4852 11.6415
46.5337 11.5853
46.5823 11.5428
46.631 11.5029
46.6795 11.4935
46.7282 11.4247
46.7767 11.3419
46.8254 11.2916
46.8739 11.2658
46.9226 11.2393
46.9712 11.1848
47.0199 11.131
47.0685 11.0892
47.1173 11.0926
47.1658 11.0332
47.2146 11.0385
47.2632 10.94
47.312 10.9256
47.3606 10.8303
47.4095 10.8028
47.4581 10.7992
47.5069 10.748
47.5556 10.7054
47.6044 10.6621
47.6531 10.583
47.702 10.5266
47.7507 10.5582
47.7996 10.4826
47.8483 10.4621
47.8972 10.4323
47.9461 10.3754
47.9948 10.3478
48.0438 10.3353
48.0925 10.3095
48.1415 10.2568
48.1902 10.1862
48.2392 10.2039
48.288 10.1427
48.337 10.095
48.3858 10.0818
48.4348 10.0255
48.4837 9.99151
48.5327 9.97085
48.5815 9.90582
48.6306 9.88612
48.6795 9.84648
48.7285 9.80833
48.7774 9.75787
48.8265 9.72765
48.8754 9.69363
48.9245 9.66694
48.9734 9.63054
49.0226 9.59487
49.0715 9.56788
49.1206 9.52269
49.1696 9.4757
49.2188 9.45779
49.2679 9.42393
49.3169 9.36156
49.3661 9.31752
49.4151 9.29464
49.4643 9.25819
49.5134 9.22372
49.5626 9.16453
49.6117 9.1473
49.6609 9.11369
49.71 9.07315
49.7592 9.05464
49.8083 8.9725
49.8576 9.00858
49.9067 8.94541
49.956 8.95038
50.0052 8.88471
50.0545 8.84314
50.1036 8.78979
50.153 8.80147
50.2022 8.78908
50.2515 8.684
50.3007 8.67262
50.3501 8.63094
50.3993 8.59418
50.4487 8.56429
50.498 8.51956
50.5474 8.5156
50.5966 8.49324
50.6461 8.41929
50.6955 8.45493
50.7448 8.38432
50.7943 8.33243
50.8436 8.2879
50.8931 8.26341
50.9424 8.2612
50.9919 8.21568
51.0413 8.19776
51.0908 8.16817
51.1402 8.14038
51.1897 8.04836
51.2391 8.07996
51.2887 7.99764
51.3381 7.96889
51.3877 7.92701
51.4371 7.93294
51.4867 7.88875
51.5362 7.85484
51.5858 7.84895
51.6353 7.74594
51.6849 7.76473
51.7344 7.73153
51.7841 7.71812
51.8336 7.69559
51.8833 7.60233
51.9328 7.56336
51.9826 7.56978
52.0323 7.53798
52.0818 7.50126
52.1316 7.46375
52.1812 7.43735
52.231 7.39133
52.2806 7.38602
52.3304 7.36129
52.38 7.30736
52.4298 7.3021
52.4794 7.27391
52.5293 7.21552
52.5789 7.19399
52.6288 7.15742
52.6785 7.12945
52.7284 7.14607
52.7781 7.08626
52.828 7.04365
52.8777 7.00018
52.9276 7.00394
52.9774 6.95011
53.0273 6.93796
53.0771 6.90087
53.1271 6.87952
53.1769 6.84102
53.2269 6.82674
53.2767 6.81634
53.3267 6.75715
53.3765 6.72047
53.4266 6.74794
53.4766 6.68847
53.5265 6.63949
53.5765 6.61228
53.6264 6.5797
53.6765 6.54007
53.7264 6.5034
53.7765 6.51784
53.8265 6.46215
53.8766 6.45342
53.9266 6.40341
53.9767 6.36786
54.0267 6.35475
54.0769 6.32552
54.1269 6.30529
54.1771 6.25143
54.2271 6.23477
54.2773 6.1752
54.3274 6.16438
54.3776 6.1328
54.4277 6.08038
54.478 6.02314
54.528 6.00056
54.5783 5.9163
54.6285 5.92041
54.6788 5.90737
54.7289 5.84049
54.7792 5.85535
54.8296 5.7178
54.8798 5.70238
54.9301 5.69731
54.9803 5.65746
55.0307 5.62935
55.0809 5.53909
55.1314 5.53693
55.1816 5.46816
55.232 5.44762
55.2823 5.3995
55.3328 5.32814
55.383 5.2881
55.4335 5.19442
55.4838 5.17109
55.5344 5.14077
55.5847 5.11701
55.6352 5.05157
55.6856 5.01405
55.7361 4.99933