File: XRD/Ni3Fe_FD0899.xy
TT I
1.27165 7.13767
1.31627 6.60588
1.36089 6.89499
1.40551 6.24518
1.45013 6.06202
1.49476 5.87338
1.53938 6.18211
1.584 5.29754
1.62863 5.54845
1.67325 4.98609
1.71787 5.54548
1.7625 5.01299
1.80712 5.01405
1.85174 5.03078
1.89636 4.5612
1.94099 5.60348
1.98562 4.66985
2.03025 4.52798
2.07487 4.43885
2.11949 4.20984
2.16411 4.61661
2.20874 11.7445
2.25338 18.2281
2.298 5.75519
2.34263 5.53638
2.38725 6.00296
2.43188 6.18812
2.4765 6.48295
2.52115 7.08864
2.56577 8.38752
2.6104 8.65266
2.65503 8.52642
2.69965 8.5935
2.7443 8.25526
2.78893 8.34817
2.83356 8.72747
2.87818 9.2742
2.92281 9.28633
2.96744 9.9869
3.01209 10.6268
3.05672 11.2565
3.10135 12.3362
3.14599 13.5679
3.19062 14.0257
3.23527 14.8081
3.2799 15.474
3.32454 16.7891
3.36917 17.2698
3.4138 18.9082
3.45844 19.7546
3.50309 20.4804
3.54773 21.5678
3.59237 23.241
3.637 73.6663
3.68164 49.0213
3.7263 25.9019
3.77094 26.287
3.81558 26.3466
3.86022 27.0659
3.90486 28.8403
3.9495 29.4514
3.99416 30.6929
4.0388 31.8562
4.08344 33.1638
4.12809 34.2407
4.17273 36.1331
4.21738 40.7158
4.26204 190.695
4.30669 168.69
4.35133 45.6595
4.39598 43.5742
4.44063 51.295
4.4853 59.9086
4.52995 49.9015
4.5746 51.1305
4.61925 52.5294
4.6639 55.0283
4.70855 57.4717
4.75322 60.3267
4.79788 63.3209
4.84253 66.2077
4.88719 70.5116
4.93184 74.2271
4.97652 79.0513
5.02118 85.5283
5.06583 92.6597
5.11049 102.691
5.15515 156.175
5.19981 321.937
5.24449 2658.87
5.28916 13733.7
5.33382 2562.63
5.37848 169.268
5.42315 123.058
5.46783 110.646
5.5125 103.785
5.55716 99.6479
5.60183 96.2028
5.6465 94.4541
5.69117 92.3432
5.73586 90.0341
5.78053 90.3851
5.8252 89.7525
5.86988 90.6803
5.91455 92.4054
5.95924 100.191
6.00392 195.877
6.0486 892.763
6.09328 4552.83
6.13795 3070.79
6.18263 195.62
6.22733 87.9691
6.27201 79.9739
6.3167 92.8085
6.36138 76.5361
6.40606 67.5498
6.45075 66.0867
6.49545 64.0364
6.54014 62.5302
6.58483 61.4057
6.62952 61.3809
6.67421 83.9905
6.71892 118.288
6.76361 64.83
6.8083 57.4895
6.853 56.4189
6.89769 55.5005
6.94239 55.193
6.98711 55.0189
7.03181 54.9177
7.07651 54.1457
7.12121 54.2392
7.16591 54.4739
7.21063 54.3945
7.25533 65.5103
7.30004 142.495
7.34475 80.2567
7.38945 54.9232
7.43416 53.5713
7.47889 53.3817
7.5236 53.9199
7.56831 54.201
7.61303 55.8059
7.65774 55.6247
7.70247 55.1375
7.74719 55.3099
7.79191 55.6004
7.83663 55.7803
7.88135 56.7833
7.92607 57.7279
7.97081 58.9991
8.01553 59.8968
8.06026 61.0665
8.10498 62.539
8.14971 70.4008
8.19446 69.7281
8.23919 68.2089
8.28392 70.7042
8.32865 73.0387
8.37339 77.0896
8.41812 83.0784
8.46288 106.658
8.50761 158.736
8.55235 356.583
8.59709 1186.75
8.64183 2297.89
8.68658 874.494
8.73134 145.952
8.77609 95.3541
8.82083 90.1643
8.86558 87.7571
8.91033 87.711
8.9551 88.5259
8.99985 83.848
9.04461 81.6714
9.08936 81.6512
9.13412 80.7903
9.17888 80.4621
9.22365 81.1038
9.26841 80.4789
9.31318 81.3364
9.35794 81.4586
9.4027 81.8237
9.44749 82.8246
9.49226 83.0659
9.53703 84.0045
9.5818 85.8959
9.62657 89.6537
9.67134 94.394
9.71614 91.7194
9.76091 92.1356
9.80569 94.7206
9.85047 98.1993
9.89525 116.547
9.94005 129.018
9.98484 170.597
10.0296 321.446
10.0744 796.024
10.1192 1845.65
10.164 1468.26
10.2088 334.316
10.2536 117.934
10.2984 108.569
10.3432 109.687
10.388 102.407
10.4328 115.861
10.4776 155.376
10.5224 282.643
10.5672 537.057
10.612 496.604
10.6568 181.249
10.7017 92.599
10.7465 84.1543
10.7913 81.2876
10.8361 79.3685
10.8809 77.2411
10.9257 76.4582
10.9706 76.5601
11.0154 73.1023
11.0602 71.3403
11.105 70.3468
11.1499 73.0445
11.1947 78.26
11.2395 71.3103
11.2844 68.0705
11.3292 65.8795
11.374 64.7641
11.4189 64.3171
11.4637 63.6357
11.5086 64.015
11.5534 65.8371
11.5983 63.7108
11.6431 62.4763
11.688 61.5399
11.7328 61.3129
11.7777 61.4879
11.8225 61.3645
11.8674 61.2446
11.9122 61.3717
11.9571 61.8157
12.002 62.5526
12.0468 66.2817
12.0917 76.3978
12.1366 100.529
12.1814 157.473
12.2263 221.835
12.2712 159.085
12.3161 89.5228
12.3609 67.9308
12.4058 63.177
12.4507 62.8353
12.4956 63.1643
12.5405 63.4786
12.5853 64.1584
12.6302 69.6057
12.6751 73.781
12.72 67.7144
12.7649 66.3359
12.8098 66.9588
12.8547 68.1748
12.8996 69.5319
12.9445 70.9247
12.9894 72.8567
13.0343 74.2888
13.0792 77.8203
13.1242 86.4528
13.1691 108.204
13.214 143.011
13.2589 239.628
13.3038 391.921
13.3487 422.973
13.3937 235.805
13.4386 114.441
13.4835 102.339
13.5285 116.013
13.5734 153.437
13.6183 253.332
13.6633 370.861
13.7082 332.243
13.7531 166.176
13.7981 91.5878
13.843 79.7753
13.888 77.6042
13.9329 75.3135
13.9779 74.3015
14.0228 73.0801
14.0678 71.4945
14.1127 71.1226
14.1577 70.6465
14.2027 70.0904
14.2476 68.9028
14.2926 68.9552
14.3376 69.7854
14.3825 68.6672
14.4275 67.4355
14.4725 67.2351
14.5175 67.7081
14.5624 67.8114
14.6074 69.2417
14.6524 69.919
14.6974 69.31
14.7424 70.6954
14.7874 76.7982
14.8324 86.199
14.8774 108.003
14.9224 155.574
14.9674 219.05
15.0124 217.134
15.0574 136.458
15.1024 84.1906
15.1474 70.1692
15.1924 68.8724
15.2374 69.0242
15.2824 68.2611
15.3274 66.4157
15.3725 65.5014
15.4175 65.0824
15.4625 64.5697
15.5076 64.572
15.5526 64.6099
15.5976 64.5944
15.6426 65.5035
15.6877 70.5996
15.7327 77.656
15.7778 92.3311
15.8228 126.682
15.8679 176.525
15.9129 196.212
15.958 149.183
16.003 89.4542
16.0481 64.9994
16.0931 62.5706
16.1382 60.8118
16.1833 59.2117
16.2283 57.5906
16.2734 57.0938
16.3185 57.2895
16.3636 57.5996
16.4086 56.1938
16.4537 55.0477
16.4988 54.4435
16.5439 54.2679
16.589 54.2061
16.6341 53.7546
16.6792 53.3989
16.7243 53.897
16.7694 53.8466
16.8145 53.7186
16.8596 54.1332
16.9047 55.196
16.9498 55.3384
16.9949 54.4303
17.04 54.6985
17.0851 55.6891
17.1302 57.4924
17.1754 60.1148
17.2205 65.5388
17.2656 74.4079
17.3108 83.6775
17.3559 80.8927
17.401 67.9154
17.4462 59.9145
17.4913 57.8377
17.5365 57.856
17.5815 57.6603
17.6268 58.186
17.6718 58.9688
17.7171 59.6937
17.7622 59.961
17.8074 60.7495
17.8525 62.9015
17.8977 66.8449
17.9428 71.6809
17.9881 80.7272
18.0331 99.4759
18.0784 125.24
18.1237 139.67
18.1688 125.741
18.214 96.5148
18.2591 83.0715
18.3044 90.2391
18.3495 102.1
18.3948 105.897
18.4399 91.7255
18.4852 73.4909
18.5303 63.8377
18.5756 60.85
18.6207 59.9906
18.666 58.8879
18.7112 58.3822
18.7565 57.8033
18.8016 57.415
18.8469 56.9399
18.892 56.5975
18.9374 56.0504
18.9825 55.8178
19.0278 55.7865
19.073 55.7009
19.1183 56.3222
19.1635 56.9588
19.2088 58.094
19.254 60.8437
19.2993 65.8644
19.3447 72.5848
19.3898 75.8225
19.4352 69.8531
19.4804 60.6393
19.5257 55.1351
19.5709 53.1629
19.6163 52.8441
19.6615 52.7786
19.7068 52.1317
19.752 52.1646
19.7974 52.6352
19.8426 53.4113
19.888 53.799
19.9332 55.22
19.9786 57.8471
20.0238 61.8972
20.0692 67.3518
20.1144 69.3307
20.1598 66.2171
20.205 61.6664
20.2504 61.1219
20.2957 63.9509
20.3411 65.5782
20.3863 62.5289
20.4318 56.1176
20.477 52.195
20.5224 50.2832
20.5677 49.8817
20.6131 49.3141
20.6586 48.786
20.7038 48.4943
20.7493 48.0409
20.7945 48.0747
20.84 47.7658
20.8853 47.8012
20.9307 47.6648
20.976 47.7215
21.0215 47.7856
21.0668 48.1466
21.1122 48.6111
21.1575 49.1308
21.203 50.1231
21.2483 50.538
21.2938 50.2863
21.3391 48.8654
21.3846 47.9619
21.4299 47.6118
21.4754 47.4227
21.5207 47.596
21.5662 47.941
21.6116 48.3206
21.6571 49.0524
21.7024 49.8801
21.7479 51.5482
21.7933 54.7917
21.8388 58.9857
21.8843 62.9481
21.9297 64.1141
21.9752 61.5741
22.0206 57.4558
22.0661 55.4569
22.1115 55.5337
22.157 55.1229
22.2024 52.7008
22.248 50.1911
22.2933 48.852
22.3389 48.1279
22.3843 48.1189
22.4299 47.8499
22.4753 47.9802
22.5208 47.5913
22.5662 47.6269
22.6118 47.8032
22.6572 47.9158
22.7028 48.4954
22.7483 48.7784
22.7939 49.5784
22.8393 51.0928
22.8849 53.6222
22.9303 55.8073
22.9759 57.3607
23.0214 56.3457
23.067 52.9044
23.1126 49.7622
23.1581 48.1841
23.2037 47.9702
23.2492 48.0075
23.2948 47.9343
23.3403 48.1286
23.3859 48.8876
23.4314 49.9104
23.477 51.9901
23.5225 54.6856
23.5682 56.8776
23.6137 57.3355
23.6593 54.3323
23.7048 50.0773
23.7505 47.0699
23.796 45.6269
23.8417 45.1627
23.8872 44.7735
23.9329 44.3255
23.9784 44.0591
24.0241 43.7457
24.0697 43.6772
24.1154 43.2956
24.1609 43.2307
24.2066 43.0503
24.2522 42.9497
24.2979 42.5009
24.3434 42.5371
24.3892 42.356
24.4349 42.4075
24.4805 42.1618
24.5262 42.5241
24.5718 42.309
24.6175 42.1759
24.6631 42.084
24.7089 41.7731
24.7545 41.6186
24.8002 41.4593
24.8458 41.5435
24.8916 41.2858
24.9372 41.5353
24.983 41.8444
25.0286 42.1026
25.0744 42.4816
25.12 43.1179
25.1658 43.7618
25.2114 43.9496
25.2572 43.9663
25.3029 44.2806
25.3487 44.3977
25.3943 43.7823
25.4402 42.4473
25.4858 41.4536
25.5316 40.6215
25.5773 40.0506
25.6231 40.053
25.669 39.8466
25.7147 39.9113
25.7605 39.6437
25.8062 39.6247
25.8521 39.9138
25.8977 39.7917
25.9436 40.1388
25.9893 40.4153
26.0352 40.8975
26.0809 41.0147
26.1268 41.0854
26.1725 40.5653
26.2184 39.8845
26.2641 39.4818
26.31 39.336
26.3557 39.3311
26.4017 39.4439
26.4474 39.8147
26.4933 40.1236
26.5391 40.6128
26.585 41.1607
26.6308 41.5278
26.6767 41.4952
26.7225 41.1248
26.7684 40.7874
26.8142 40.1143
26.8601 39.7765
26.9059 39.2004
26.9519 38.6953
26.9979 38.4573
27.0437 38.122
27.0896 38.0651
27.1354 38.0998
27.1814 37.9923
27.2272 37.8707
27.2732 37.9677
27.3191 37.7252
27.3651 37.747
27.4109 37.8078
27.4569 37.8572
27.5027 37.8613
27.5488 37.8911
27.5946 37.6664
27.6407 37.5929
27.6865 37.268
27.7326 37.1609
27.7784 37.1361
27.8245 37.3261
27.8703 37.295
27.9164 37.6618
27.9623 37.8413
28.0084 38.2709
28.0543 38.6313
28.1003 38.5062
28.1462 38.0979
28.1923 37.8764
28.2384 37.2252
28.2843 37.0412
28.3304 36.4842
28.3764 36.0626
28.4225 35.7786
28.4684 35.5786
28.5145 35.4509
28.5605 35.2321
28.6066 35.0641
28.6526 35.0051
28.6987 34.9566
28.7447 34.9765
28.7908 34.7554
28.8368 34.8589
28.8829 34.8813
28.9289 34.7302
28.9751 34.5373
29.0211 34.3904
29.0673 33.9637
29.1133 33.9678
29.1595 33.7639
29.2055 33.7225
29.2517 33.868
29.2977 33.6916
29.3439 33.6419
29.3899 33.6927
29.4361 33.5629
29.4824 33.2886
29.5284 33.0501
29.5746 32.8089
29.6207 32.5929
29.6669 32.5182
29.713 32.4043
29.7593 32.3639
29.8053 32.3415
29.8516 32.2527
29.8977 32.1337
29.9439 31.9037
29.99 32.067
30.0363 31.7981
30.0824 32.0066
30.1287 31.8511
30.1748 31.8522
30.2211 31.8434
30.2673 31.7539
30.3136 31.7606
30.3597 31.6812
30.406 31.681
30.4522 31.5325
30.4985 31.5232
30.5447 31.6976
30.591 31.5513
30.6372 31.5626
30.6835 31.6312
30.7297 31.6824
30.7761 31.5807
30.8224 31.4226
30.8686 31.2533
30.915 31.0353
30.9612 30.9471
31.0076 30.7588
31.0538 30.629
31.1002 30.6022
31.1464 30.3827
31.1928 30.4579
31.2391 30.4801
31.2855 30.2815
31.3317 30.3306
31.3781 30.5553
31.4244 30.4155
31.4708 30.4224
31.5171 30.2589
31.5636 30.2025
31.6098 29.9197
31.6563 29.7758
31.7026 29.7894
31.7491 29.5953
31.7953 29.655
31.8418 29.5266
31.8881 29.6791
31.9346 29.5629
31.9809 29.4888
32.0275 29.3802
32.074 29.3174
32.1203 29.1107
32.1668 28.9539
32.2132 28.8748
32.2597 28.7036
32.306 28.6548
32.3526 28.5029
32.399 28.4212
32.4455 28.2957
32.4919 28.2094
32.5385 28.2011
32.5848 28.1206
32.6314 28.0008
32.6778 28.0025
32.7244 27.8451
32.7708 27.6142
32.8174 27.6449
32.8638 27.4372
32.9104 27.5499
32.9569 27.3824
33.0035 27.3538
33.0499 27.5139
33.0966 27.3255
33.143 27.3138
33.1897 27.2348
33.2361 27.0879
33.2828 27.0968
33.3293 26.891
33.3759 26.8733
33.4226 26.774
33.4691 26.5914
33.5158 26.512
33.5623 26.4509
33.609 26.2681
33.6555 26.2658
33.7022 26.1917
33.7487 26.0276
33.7954 26.0622
33.842 25.9975
33.8887 25.8655
33.9353 25.9077
33.982 25.7809
34.0286 25.6648
34.0753 25.5371
34.1219 25.4537
34.1687 25.3871
34.2152 25.3
34.262 25.2061
34.3086 25.1154
34.3554 25.1408
34.402 25.0658
34.4488 24.8954
34.4954 24.8523
34.5422 24.6759
34.5889 24.6595
34.6357 24.5198
34.6825 24.568
34.7292 24.3795
34.776 24.3019
34.8227 24.1894
34.8695 24.2052
34.9162 24.2054
34.9631 24.0535
35.0098 24.1276
35.0566 23.8634
35.1033 23.7989
35.1502 23.8176
35.1969 23.7886
35.2438 23.7022
35.2906 23.7069
35.3375 23.7092
35.3842 23.5784
35.4311 23.5888
35.4779 23.4834
35.5248 23.526
35.5716 23.424
35.6185 23.2887
35.6653 23.1667
35.7123 23.1102
35.759 23.1062
35.806 22.9477
35.8528 22.918
35.8998 22.8228
35.9468 22.7758
35.9936 22.7265
36.0406 22.6159
36.0874 22.6139
36.1345 22.4718
36.1813 22.4133
36.2283 22.3172
36.2752 22.2863
36.3222 22.2811
36.3691 22.1667
36.4161 22.1051
36.463 22.074
36.5101 21.9817
36.557 21.9764
36.6041 21.8394
36.651 21.8345
36.6981 21.7988
36.745 21.6953
36.7921 21.5744
36.839 21.488
36.8861 21.3778
36.9331 21.3531
36.9802 21.2624
37.0272 21.2343
37.0743 21.1603
37.1213 21.0747
37.1684 21.0274
37.2154 20.9789
37.2626 20.926
37.3098 20.8332
37.3568 20.7604
37.404 20.7151
37.451 20.6206
37.4982 20.6363
37.5452 20.4408
37.5924 20.5297
37.6395 20.4881
37.6867 20.4624
37.7337 20.2704
37.781 20.2136
37.8281 20.0703
37.8753 19.9992
37.9224 19.9149
37.9697 19.9817
38.0168 19.8771
38.064 19.8556
38.1111 19.7859
38.1584 19.6694
38.2056 19.6318
38.2529 19.509
38.3 19.4724
38.3473 19.5207
38.3945 19.3406
38.4418 19.3091
38.489 19.2923
38.5363 19.1628
38.5837 19.1009
38.6309 18.9853
38.6782 18.9583
38.7254 18.902
38.7728 18.8979
38.82 18.7718
38.8674 18.8081
38.9146 18.6815
38.9621 18.7112
39.0093 18.6228
39.0567 18.5227
39.104 18.5227
39.1514 18.4341
39.1987 18.3598
39.2461 18.3579
39.2934 18.3258
39.3409 18.1642
39.3882 18.0919
39.4356 18.028
39.483 18.0077
39.5304 17.9364
39.5778 17.9025
39.6253 17.801
39.6726 17.7863
39.7201 17.6575
39.7675 17.6537
39.815 17.6505
39.8624 17.5487
39.9099 17.5396
39.9575 17.3866
40.0049 17.3974
40.0525 17.2969
40.0999 17.2443
40.1474 17.1552
40.1949 17.2009
40.2425 17.1034
40.2899 17.084
40.3375 17.0498
40.385 16.9567
40.4326 16.9055
40.48 16.7942
40.5277 16.8289
40.5752 16.7567
40.6228 16.6786
40.6703 16.6118
40.718 16.6366
40.7655 16.5502
40.8132 16.4556
40.8607 16.5016
40.9084 16.3914
40.9559 16.3131
41.0036 16.3292
41.0512 16.2258
41.0989 16.2266
41.1465 16.1098
41.1942 16.0443
41.242 16.0141
41.2896 15.9453
41.3373 15.8789
41.3849 15.869
41.4327 15.8022
41.4803 15.6932
41.5281 15.6779
41.5758 15.6595
41.6236 15.5898
41.6712 15.49
41.7191 15.4698
41.7667 15.4451
41.8146 15.4174
41.8622 15.3638
41.9101 15.3177
41.9578 15.224
42.0057 15.138
42.0534 15.1165
42.1013 15.067
42.149 15.0184
42.1969 14.9572
42.2446 14.8818
42.2925 14.9081
42.3403 14.8323
42.3882 14.8314
42.436 14.7624
42.4839 14.6639
42.5319 14.6137
42.5797 14.6112
42.6277 14.5317
42.6755 14.4549
42.7235 14.4329
42.7713 14.4007
42.8193 14.3095
42.8671 14.308
42.9152 14.2739
42.963 14.1754
43.0111 14.1116
43.0589 14.0796
43.107 14.0528
43.1549 13.9795
43.2029 13.9175
43.2508 13.8873
43.2989 13.8624
43.3468 13.8129
43.3949 13.76
43.4429 13.701
43.491 13.637
43.5389 13.5967
43.5871 13.5433
43.635 13.5206
43.6832 13.4846
43.7312 13.4338
43.7793 13.4001
43.8273 13.3368
43.8755 13.262
43.9237 13.2433
43.9717 13.1949
44.0199 13.1786
44.068 13.1009
44.1162 13.0413
44.1642 13.007
44.2125 12.9854
44.2606 12.9488
44.3088 12.891
44.3569 12.8218
44.4052 12.776
44.4533 12.6942
44.5016 12.6945
44.5497 12.646
44.598 12.6327
44.6461 12.5544
44.6945 12.4951
44.7426 12.4497
44.791 12.3908
44.8391 12.4239
44.8875 12.3563
44.9357 12.331
44.984 12.2942
45.0322 12.1992
45.0806 12.1943
45.1288 12.1402
45.1773 12.0863
45.2257 12.0439
45.2739 11.951
45.3224 11.9262
45.3706 11.9366
45.4191 11.8697
45.4673 11.8269
45.5158 11.7701
45.5641 11.7435
45.6126 11.7113
45.6609 11.6186
45.7094 11.594
45.7577 11.5936
45.8063 11.504
45.8546 11.4925
45.9031 11.4515
45.9515 11.4582
46.0001 11.3183
46.0484 11.3507
46.097 11.2955
46.1454 11.2434
46.194 11.2473
46.2424 11.1639
46.291 11.1201
46.3395 11.0788
46.3881 11.0067
46.4365 11.0148
46.4852 10.9626
46.5337 10.8926
46.5823 10.912
46.631 10.8403
46.6795 10.817
46.7282 10.7899
46.7767 10.7384
46.8254 10.721
46.8739 10.6598
46.9226 10.5633
46.9712 10.5858
47.0199 10.5301
47.0685 10.4814
47.1173 10.4767
47.1658 10.4325
47.2146 10.39
47.2632 10.307
47.312 10.3241
47.3606 10.2434
47.4095 10.2486
47.4581 10.1504
47.5069 10.1199
47.5556 10.1083
47.6044 10.0811
47.6531 10.0587
47.702 9.9889
47.7507 9.95358
47.7996 9.90912
47.8483 9.84085
47.8972 9.86774
47.9461 9.7845
47.9948 9.74102
48.0438 9.7323
48.0925 9.73864
48.1415 9.69591
48.1902 9.62474
48.2392 9.62392
48.288 9.64041
48.337 9.53824
48.3858 9.53888
48.4348 9.49358
48.4837 9.48043
48.5327 9.38791
48.5815 9.38537
48.6306 9.3632
48.6795 9.33312
48.7285 9.27529
48.7774 9.23871
48.8265 9.22986
48.8754 9.1498
48.9245 9.11056
48.9734 9.08242
49.0226 9.09588
49.0715 9.01547
49.1206 8.98993
49.1696 8.94492
49.2188 8.91628
49.2679 8.91152
49.3169 8.84145
49.3661 8.80287
49.4151 8.76729
49.4643 8.73724
49.5134 8.74191
49.5626 8.67958
49.6117 8.64211
49.6609 8.61274
49.71 8.57883
49.7592 8.52885
49.8083 8.50471
49.8576 8.49519
49.9067 8.44272
49.956 8.44188
50.0052 8.39744
50.0545 8.38982
50.1036 8.31766
50.153 8.2854
50.2022 8.29579
50.2515 8.22079
50.3007 8.16619
50.3501 8.16139
50.3993 8.1371
50.4487 8.09073
50.498 8.08505
50.5474 8.02368
50.5966 7.9851
50.6461 7.9419
50.6955 7.97351
50.7448 7.90973
50.7943 7.89542
50.8436 7.87664
50.8931 7.82842
50.9424 7.8065
50.9919 7.75393
51.0413 7.73852
51.0908 7.67348
51.1402 7.68286
51.1897 7.64729
51.2391 7.59146
51.2887 7.59589
51.3381 7.55248
51.3877 7.53621
51.4371 7.46397
51.4867 7.44532
51.5362 7.42823
51.5858 7.41623
51.6353 7.34134
51.6849 7.34147
51.7344 7.28314
51.7841 7.29208
51.8336 7.22409
51.8833 7.22164
51.9328 7.1517
51.9826 7.10827
52.0323 7.14043
52.0818 7.09907
52.1316 7.04426
52.1812 7.04513
52.231 7.03254
52.2806 6.9878
52.3304 6.94962
52.38 6.93819
52.4298 6.91675
52.4794 6.89797
52.5293 6.86322
52.5789 6.81579
52.6288 6.79989
52.6785 6.75055
52.7284 6.7361
52.7781 6.73436
52.828 6.65979
52.8777 6.64155
52.9276 6.61301
52.9774 6.5911
53.0273 6.60125
53.0771 6.50141
53.1271 6.54986
53.1769 6.50341
53.2269 6.45567
53.2767 6.42384
53.3267 6.37871
53.3765 6.36489
53.4266 6.36324
53.4766 6.29221
53.5265 6.25915
53.5765 6.28395
53.6264 6.23235
53.6765 6.21719
53.7264 6.18691
53.7765 6.1985
53.8265 6.13057
53.8766 6.10741
53.9266 6.06058
53.9767 6.05191
54.0267 6.04222
54.0769 6.02073
54.1269 5.98075
54.1771 5.93034
54.2271 5.94168
54.2773 5.86307
54.3274 5.86686
54.3776 5.80048
54.4277 5.79865
54.478 5.76482
54.528 5.71651
54.5783 5.64488
54.6285 5.62074
54.6788 5.61633
54.7289 5.57573
54.7792 5.53122
54.8296 5.44055
54.8798 5.42466
54.9301 5.36777
54.9803 5.39342
55.0307 5.32239
55.0809 5.2737
55.1314 5.26657
55.1816 5.19448
55.232 5.14964
55.2823 5.13321
55.3328 5.07532
55.383 4.9802
55.4335 5.03188
55.4838 4.97088
55.5344 4.90998
55.5847 4.84958
55.6352 4.81776
55.6856 4.7727
55.7361 4.71848