File: XRD/Ni3Fe_FD0626.xy
TT I
1.27165 7.23967
1.31627 6.76548
1.36089 6.4233
1.40551 6.29473
1.45013 6.47804
1.49476 6.59268
1.53938 5.81828
1.584 5.40427
1.62863 5.41965
1.67325 5.32891
1.71787 4.86364
1.7625 4.45709
1.80712 4.86919
1.85174 4.92457
1.89636 4.51082
1.94099 5.12453
1.98562 5.01792
2.03025 4.97038
2.07487 4.17545
2.11949 4.50928
2.16411 4.93041
2.20874 14.6982
2.25338 23.6747
2.298 5.47992
2.34263 5.49557
2.38725 5.91852
2.43188 6.44729
2.4765 6.10827
2.52115 6.54495
2.56577 6.93972
2.6104 8.01018
2.65503 6.90198
2.69965 7.87089
2.7443 8.00614
2.78893 7.67631
2.83356 8.30604
2.87818 8.4178
2.92281 8.86933
2.96744 9.42454
3.01209 10.3576
3.05672 11.1789
3.10135 12.4197
3.14599 12.967
3.19062 14.0986
3.23527 15.2137
3.2799 15.6304
3.32454 16.5666
3.36917 17.7129
3.4138 18.9536
3.45844 19.832
3.50309 20.9381
3.54773 21.7103
3.59237 24.2202
3.637 97.5142
3.68164 61.1224
3.7263 26.3249
3.77094 26.1666
3.81558 26.9482
3.86022 27.6481
3.90486 29.1236
3.9495 29.9243
3.99416 30.828
4.0388 32.4175
4.08344 33.9302
4.12809 35.138
4.17273 37.0161
4.21738 43.8351
4.26204 260.498
4.30669 225.573
4.35133 49.4249
4.39598 44.9023
4.44063 54.7277
4.4853 66.9029
4.52995 50.5058
4.5746 51.0737
4.61925 53.1619
4.6639 55.5873
4.70855 58.3123
4.75322 61.038
4.79788 63.5872
4.84253 67.0294
4.88719 71.3907
4.93184 74.8256
4.97652 80.4841
5.02118 87.083
5.06583 94.7871
5.11049 105.996
5.15515 175.309
5.19981 344.674
5.24449 2774.09
5.28916 12614.1
5.33382 3019.38
5.37848 194.473
5.42315 130.287
5.46783 114.508
5.5125 106.349
5.55716 102.666
5.60183 99.0996
5.6465 97.0402
5.69117 94.0569
5.73586 92.0972
5.78053 91.1928
5.8252 91.1857
5.86988 91.5619
5.91455 94.3115
5.95924 101.558
6.00392 200.845
6.0486 959.955
6.09328 4375.63
6.13795 3520.72
6.18263 254.456
6.22733 94.7207
6.27201 84.3321
6.3167 104.235
6.36138 81.4775
6.40606 69.6779
6.45075 67.7928
6.49545 66.0806
6.54014 64.1388
6.58483 63.2945
6.62952 63.076
6.67421 95.9155
6.71892 149.642
6.76361 69.4515
6.8083 59.0553
6.853 57.9008
6.89769 57.2748
6.94239 57.0613
6.98711 56.2715
7.03181 55.7815
7.07651 55.8279
7.12121 55.5213
7.16591 55.511
7.21063 55.7706
7.25533 71.5982
7.30004 189.205
7.34475 94.679
7.38945 57.2481
7.43416 54.9583
7.47889 54.4848
7.5236 54.9937
7.56831 55.7612
7.61303 57.4677
7.65774 57.8597
7.70247 56.4079
7.74719 56.1877
7.79191 57.2346
7.83663 57.1635
7.88135 58.2109
7.92607 59.1458
7.97081 59.8851
8.01553 60.9629
8.06026 62.4088
8.10498 64.1973
8.14971 74.2108
8.19446 72.7468
8.23919 69.9532
8.28392 72.0217
8.32865 74.1285
8.37339 78.428
8.41812 85.5264
8.46288 115.403
8.50761 159.78
8.55235 375.668
8.59709 1154.35
8.64183 2182.93
8.68658 1013.04
8.73134 170.917
8.77609 100.702
8.82083 92.9126
8.86558 89.8356
8.91033 90.3822
8.9551 92.2662
8.99985 85.6638
9.04461 83.6167
9.08936 83.1843
9.13412 81.9757
9.17888 82.2216
9.22365 83.3754
9.26841 82.0236
9.31318 82.5332
9.35794 82.8698
9.4027 83.2136
9.44749 84.073
9.49226 84.853
9.53703 85.7565
9.5818 87.5436
9.62657 91.8839
9.67134 99.1469
9.71614 93.8951
9.76091 94.2963
9.80569 96.4414
9.85047 99.9078
9.89525 125.147
9.94005 137.76
9.98484 171.207
10.0296 334.466
10.0744 800.598
10.1192 1712.55
10.164 1614.75
10.2088 425.666
10.2536 129.763
10.2984 114.356
10.3432 116.241
10.388 104.812
10.4328 116.974
10.4776 158.162
10.5224 276.0
10.5672 504.7
10.612 504.117
10.6568 211.449
10.7017 98.1185
10.7465 87.0368
10.7913 83.3561
10.8361 81.2363
10.8809 79.2313
10.9257 78.6957
10.9706 79.6368
11.0154 75.2073
11.0602 73.0537
11.105 72.1158
11.1499 76.8151
11.1947 84.5235
11.2395 75.1264
11.2844 70.8002
11.3292 67.5319
11.374 66.7246
11.4189 65.7013
11.4637 65.3371
11.5086 65.6245
11.5534 68.7872
11.5983 65.7145
11.6431 64.0274
11.688 63.3032
11.7328 63.0878
11.7777 63.0649
11.8225 62.7172
11.8674 62.5129
11.9122 62.9164
11.9571 63.135
12.002 63.7784
12.0468 67.1884
12.0917 78.7188
12.1366 101.721
12.1814 151.402
12.2263 201.66
12.2712 170.529
12.3161 99.0723
12.3609 71.6045
12.4058 65.1951
12.4507 64.3574
12.4956 64.5323
12.5405 64.6546
12.5853 65.5558
12.6302 73.9034
12.6751 79.973
12.72 70.6573
12.7649 68.1854
12.8098 68.6427
12.8547 69.7404
12.8996 71.2413
12.9445 72.5584
12.9894 74.0523
13.0343 75.8517
13.0792 78.8885
13.1242 87.2836
13.1691 110.679
13.214 146.656
13.2589 233.398
13.3038 364.601
13.3487 423.384
13.3937 273.202
13.4386 128.253
13.4835 105.123
13.5285 119.193
13.5734 157.106
13.6183 244.351
13.6633 345.693
13.7082 344.206
13.7531 195.625
13.7981 100.408
13.843 82.1582
13.888 79.8722
13.9329 77.3735
13.9779 76.042
14.0228 74.5784
14.0678 73.3245
14.1127 72.8752
14.1577 73.0505
14.2027 71.6753
14.2476 70.7056
14.2926 70.9278
14.3376 71.8936
14.3825 70.4731
14.4275 69.0133
14.4725 68.9167
14.5175 69.3497
14.5624 69.2713
14.6074 71.6477
14.6524 72.0213
14.6974 70.7457
14.7424 71.8369
14.7874 78.2222
14.8324 88.39
14.8774 109.847
14.9224 152.715
14.9674 204.154
15.0124 215.728
15.0574 151.366
15.1024 93.025
15.1474 72.8528
15.1924 70.8621
15.2374 71.5931
15.2824 70.8304
15.3274 68.6397
15.3725 67.0879
15.4175 66.6054
15.4625 66.2218
15.5076 66.6727
15.5526 66.492
15.5976 65.9028
15.6426 66.75
15.6877 71.7948
15.7327 79.3593
15.7778 94.4134
15.8228 125.599
15.8679 168.403
15.9129 192.742
15.958 157.325
16.003 99.2329
16.0481 69.1412
16.0931 65.2997
16.1382 63.3571
16.1833 60.8987
16.2283 59.4535
16.2734 58.6533
16.3185 59.1553
16.3636 59.8872
16.4086 58.2581
16.4537 56.4992
16.4988 56.0728
16.5439 55.7244
16.589 55.3201
16.6341 55.1666
16.6792 54.8128
16.7243 55.2043
16.7694 55.2258
16.8145 55.307
16.8596 55.4627
16.9047 57.2434
16.9498 57.4766
16.9949 55.9891
17.04 56.1273
17.0851 56.995
17.1302 58.8288
17.1754 62.0164
17.2205 66.7688
17.2656 74.3826
17.3108 82.4379
17.3559 82.7307
17.401 72.6848
17.4462 62.8374
17.4913 59.5995
17.5365 59.1703
17.5815 59.3733
17.6268 59.7766
17.6718 60.3878
17.7171 61.0279
17.7622 61.4378
17.8074 61.9099
17.8525 63.944
17.8977 68.178
17.9428 73.4703
17.9881 82.0548
18.0331 99.1773
18.0784 120.504
18.1237 138.584
18.1688 131.528
18.214 105.174
18.2591 87.5147
18.3044 90.628
18.3495 99.98
18.3948 105.837
18.4399 97.4872
18.4852 79.0672
18.5303 66.7211
18.5756 62.4706
18.6207 61.6675
18.666 60.5974
18.7112 59.9048
18.7565 59.2383
18.8016 58.9731
18.8469 58.1723
18.892 57.9224
18.9374 57.4807
18.9825 57.256
19.0278 57.4219
19.073 57.2425
19.1183 57.7325
19.1635 58.437
19.2088 59.6675
19.254 62.1992
19.2993 66.4727
19.3447 72.8545
19.3898 76.5758
19.4352 72.7334
19.4804 64.117
19.5257 57.405
19.5709 54.6307
19.6163 53.9336
19.6615 53.9668
19.7068 53.3401
19.752 53.3722
19.7974 53.899
19.8426 54.5481
19.888 55.2561
19.9332 56.3745
19.9786 58.6389
20.0238 62.2221
20.0692 67.166
20.1144 69.6185
20.1598 68.1583
20.205 63.7337
20.2504 62.4102
20.2957 63.8423
20.3411 65.634
20.3863 64.4226
20.4318 59.1666
20.477 54.1468
20.5224 52.0328
20.5677 51.2743
20.6131 50.5756
20.6586 49.8271
20.7038 49.7593
20.7493 49.3329
20.7945 49.2686
20.84 49.0933
20.8853 48.8554
20.9307 48.7722
20.976 48.8678
21.0215 48.5862
21.0668 49.2435
21.1122 49.6766
21.1575 50.3741
21.203 50.7589
21.2483 51.4343
21.2938 51.4538
21.3391 50.3234
21.3846 49.2039
21.4299 48.6947
21.4754 48.5248
21.5207 48.7605
21.5662 48.9213
21.6116 49.4033
21.6571 50.0215
21.7024 50.893
21.7479 52.5203
21.7933 55.2398
21.8388 59.128
21.8843 62.813
21.9297 64.6328
21.9752 63.3997
22.0206 59.9902
22.0661 57.0464
22.1115 56.3037
22.157 56.098
22.2024 54.6351
22.248 51.8781
22.2933 50.1341
22.3389 49.4749
22.3843 49.2709
22.4299 49.1913
22.4753 49.2458
22.5208 48.7361
22.5662 48.6562
22.6118 48.7983
22.6572 49.047
22.7028 49.4029
22.7483 49.8201
22.7939 50.5946
22.8393 52.0844
22.8849 54.1943
22.9303 56.2917
22.9759 57.7776
23.0214 57.6366
23.067 55.0312
23.1126 51.718
23.1581 49.6541
23.2037 49.0595
23.2492 49.0037
23.2948 48.9438
23.3403 49.32
23.3859 49.9376
23.4314 50.8851
23.477 52.7681
23.5225 54.7774
23.5682 57.138
23.6137 57.9354
23.6593 56.0466
23.7048 52.0911
23.7505 48.6154
23.796 46.9423
23.8417 46.2491
23.8872 45.8429
23.9329 45.3918
23.9784 45.0654
24.0241 44.8944
24.0697 44.5288
24.1154 44.4169
24.1609 44.1586
24.2066 44.0585
24.2522 43.9022
24.2979 43.5309
24.3434 43.5299
24.3892 43.2321
24.4349 43.2762
24.4805 42.9998
24.5262 43.249
24.5718 43.1661
24.6175 43.128
24.6631 43.029
24.7089 42.5808
24.7545 42.6382
24.8002 42.5132
24.8458 42.4815
24.8916 42.252
24.9372 42.3301
24.983 42.5526
25.0286 42.9108
25.0744 43.5913
25.12 43.8221
25.1658 44.5299
25.2114 44.6746
25.2572 44.8619
25.3029 44.963
25.3487 45.0371
25.3943 44.764
25.4402 43.9083
25.4858 42.7528
25.5316 41.765
25.5773 41.1482
25.6231 41.0298
25.669 40.5676
25.7147 40.7441
25.7605 40.7032
25.8062 40.7386
25.8521 40.7979
25.8977 40.7936
25.9436 40.8736
25.9893 41.2001
26.0352 41.6977
26.0809 41.7015
26.1268 41.7189
26.1725 41.5333
26.2184 40.9522
26.2641 40.5865
26.31 40.4212
26.3557 40.3582
26.4017 40.1546
26.4474 40.6589
26.4933 40.9854
26.5391 41.4198
26.585 41.9293
26.6308 42.2554
26.6767 42.3908
26.7225 42.1072
26.7684 41.6662
26.8142 41.0092
26.8601 40.6039
26.9059 40.3752
26.9519 39.7732
26.9979 39.3737
27.0437 38.9499
27.0896 38.8703
27.1354 38.9105
27.1814 38.6929
27.2272 38.7067
27.2732 38.6855
27.3191 38.5383
27.3651 38.6292
27.4109 38.6519
27.4569 38.6151
27.5027 38.7321
27.5488 38.8671
27.5946 38.5099
27.6407 38.341
27.6865 38.1899
27.7326 38.0362
27.7784 37.982
27.8245 38.0728
27.8703 38.1287
27.9164 38.4675
27.9623 38.6472
28.0084 38.8042
28.0543 39.1364
28.1003 39.311
28.1462 38.9278
28.1923 38.7616
28.2384 38.1949
28.2843 37.8369
28.3304 37.3938
28.3764 36.9306
28.4225 36.5922
28.4684 36.3627
28.5145 36.0584
28.5605 35.9085
28.6066 35.9052
28.6526 35.8629
28.6987 35.8259
28.7447 35.6836
28.7908 35.6055
28.8368 35.6173
28.8829 35.6308
28.9289 35.5518
28.9751 35.2659
29.0211 35.1766
29.0673 34.7999
29.1133 34.6707
29.1595 34.6694
29.2055 34.579
29.2517 34.4047
29.2977 34.4322
29.3439 34.3806
29.3899 34.4006
29.4361 34.3443
29.4824 33.9566
29.5284 33.8398
29.5746 33.6222
29.6207 33.2469
29.6669 33.3405
29.713 33.1522
29.7593 33.0047
29.8053 32.9141
29.8516 32.9876
29.8977 32.9261
29.9439 32.7876
29.99 32.6723
30.0363 32.6154
30.0824 32.6846
30.1287 32.6102
30.1748 32.5389
30.2211 32.5392
30.2673 32.4796
30.3136 32.5432
30.3597 32.4002
30.406 32.3336
30.4522 32.1975
30.4985 32.1394
30.5447 32.2743
30.591 32.2997
30.6372 32.4188
30.6835 32.3478
30.7297 32.4102
30.7761 32.2916
30.8224 32.2371
30.8686 31.9382
30.915 31.7179
30.9612 31.5657
31.0076 31.4708
31.0538 31.3527
31.1002 31.2807
31.1464 31.0191
31.1928 31.0592
31.2391 31.0977
31.2855 31.1354
31.3317 30.8978
31.3781 31.0551
31.4244 31.0363
31.4708 30.891
31.5171 30.8695
31.5636 30.8355
31.6098 30.7435
31.6563 30.5014
31.7026 30.4158
31.7491 30.2824
31.7953 30.2638
31.8418 30.3
31.8881 30.3248
31.9346 30.2052
31.9809 30.1284
32.0275 30.0677
32.074 29.9848
32.1203 29.885
32.1668 29.6806
32.2132 29.5505
32.2597 29.3338
32.306 29.2729
32.3526 29.0253
32.399 29.0138
32.4455 28.9031
32.4919 28.8047
32.5385 28.808
32.5848 28.6038
32.6314 28.5822
32.6778 28.5971
32.7244 28.3692
32.7708 28.245
32.8174 28.3114
32.8638 28.1583
32.9104 28.1386
32.9569 28.0362
33.0035 27.9666
33.0499 28.0463
33.0966 27.9702
33.143 27.841
33.1897 27.8094
33.2361 27.8954
33.2828 27.8132
33.3293 27.5098
33.3759 27.3983
33.4226 27.3442
33.4691 27.301
33.5158 27.1257
33.5623 27.0089
33.609 26.9419
33.6555 26.8162
33.7022 26.7904
33.7487 26.6582
33.7954 26.6922
33.842 26.5198
33.8887 26.4019
33.9353 26.4337
33.982 26.2705
34.0286 26.1918
34.0753 26.1451
34.1219 25.9922
34.1687 25.9811
34.2152 25.9141
34.262 25.7958
34.3086 25.7145
34.3554 25.624
34.402 25.5452
34.4488 25.4368
34.4954 25.4011
34.5422 25.2218
34.5889 25.1399
34.6357 25.031
34.6825 25.0567
34.7292 25.0231
34.776 24.8753
34.8227 24.7881
34.8695 24.7998
34.9162 24.6736
34.9631 24.6026
35.0098 24.6763
35.0566 24.4993
35.1033 24.4149
35.1502 24.3554
35.1969 24.2486
35.2438 24.2781
35.2906 24.1975
35.3375 24.1201
35.3842 24.0741
35.4311 24.1175
35.4779 24.0043
35.5248 24.0349
35.5716 23.8963
35.6185 23.7782
35.6653 23.7218
35.7123 23.6473
35.759 23.5784
35.806 23.4349
35.8528 23.2961
35.8998 23.3076
35.9468 23.186
35.9936 23.2375
36.0406 23.0697
36.0874 23.1686
36.1345 22.9212
36.1813 22.9761
36.2283 22.8372
36.2752 22.7591
36.3222 22.7588
36.3691 22.6896
36.4161 22.5805
36.463 22.5846
36.5101 22.5812
36.557 22.4425
36.6041 22.3282
36.651 22.3614
36.6981 22.1831
36.745 22.1517
36.7921 22.0681
36.839 21.9387
36.8861 21.948
36.9331 21.8537
36.9802 21.7728
37.0272 21.7284
37.0743 21.642
37.1213 21.5417
37.1684 21.5964
37.2154 21.4487
37.2626 21.3702
37.3098 21.4046
37.3568 21.2436
37.404 21.2276
37.451 21.0533
37.4982 21.105
37.5452 20.9527
37.5924 20.9256
37.6395 20.9185
37.6867 20.8188
37.7337 20.7348
37.781 20.6213
37.8281 20.6457
37.8753 20.5106
37.9224 20.3802
37.9697 20.3832
38.0168 20.2948
38.064 20.2299
38.1111 20.1515
38.1584 20.1386
38.2056 20.002
38.2529 20.0832
38.3 19.9164
38.3473 19.8985
38.3945 19.7725
38.4418 19.7386
38.489 19.7118
38.5363 19.6275
38.5837 19.5407
38.6309 19.511
38.6782 19.4202
38.7254 19.395
38.7728 19.2979
38.82 19.2433
38.8674 19.2739
38.9146 19.0927
38.9621 19.1364
39.0093 18.9561
39.0567 18.9936
39.104 18.8766
39.1514 18.7752
39.1987 18.8068
39.2461 18.7268
39.2934 18.6933
39.3409 18.5837
39.3882 18.53
39.4356 18.4513
39.483 18.4057
39.5304 18.3291
39.5778 18.3305
39.6253 18.2449
39.6726 18.1593
39.7201 18.1531
39.7675 18.063
39.815 18.047
39.8624 17.9507
39.9099 17.929
39.9575 17.8199
40.0049 17.7238
40.0525 17.7726
40.0999 17.7057
40.1474 17.6399
40.1949 17.4827
40.2425 17.4405
40.2899 17.4093
40.3375 17.3607
40.385 17.3128
40.4326 17.2732
40.48 17.1933
40.5277 17.2183
40.5752 17.1528
40.6228 17.0487
40.6703 17.0538
40.718 16.9642
40.7655 16.9145
40.8132 16.8664
40.8607 16.8251
40.9084 16.7212
40.9559 16.6025
41.0036 16.7415
41.0512 16.5672
41.0989 16.5626
41.1465 16.4218
41.1942 16.4085
41.242 16.3463
41.2896 16.3374
41.3373 16.2425
41.3849 16.1797
41.4327 16.1345
41.4803 16.056
41.5281 16.0245
41.5758 15.943
41.6236 15.9253
41.6712 15.8789
41.7191 15.8383
41.7667 15.7329
41.8146 15.6871
41.8622 15.631
41.9101 15.596
41.9578 15.4914
42.0057 15.4807
42.0534 15.475
42.1013 15.4369
42.149 15.3176
42.1969 15.2607
42.2446 15.2563
42.2925 15.1949
42.3403 15.1552
42.3882 15.1631
42.436 15.0405
42.4839 14.9925
42.5319 14.9779
42.5797 14.8407
42.6277 14.8838
42.6755 14.7692
42.7235 14.7305
42.7713 14.7256
42.8193 14.633
42.8671 14.529
42.9152 14.5428
42.963 14.4976
43.0111 14.4478
43.0589 14.3408
43.107 14.2898
43.1549 14.3138
43.2029 14.2323
43.2508 14.2047
43.2989 14.1288
43.3468 14.0541
43.3949 14.0233
43.4429 13.9951
43.491 13.9443
43.5389 13.883
43.5871 13.8818
43.635 13.7887
43.6832 13.8216
43.7312 13.6526
43.7793 13.6798
43.8273 13.6033
43.8755 13.5379
43.9237 13.5467
43.9717 13.5088
44.0199 13.4138
44.068 13.4329
44.1162 13.3123
44.1642 13.3154
44.2125 13.2239
44.2606 13.1957
44.3088 13.1296
44.3569 13.119
44.4052 13.0919
44.4533 12.9712
44.5016 12.9451
44.5497 12.9643
44.598 12.8437
44.6461 12.8673
44.6945 12.823
44.7426 12.7623
44.791 12.6903
44.8391 12.6671
44.8875 12.6299
44.9357 12.582
44.984 12.5221
45.0322 12.453
45.0806 12.428
45.1288 12.3982
45.1773 12.3511
45.2257 12.3356
45.2739 12.26
45.3224 12.1914
45.3706 12.1561
45.4191 12.1183
45.4673 12.1112
45.5158 12.0292
45.5641 12.001
45.6126 11.9721
45.6609 11.9482
45.7094 11.87
45.7577 11.8522
45.8063 11.7643
45.8546 11.7528
45.9031 11.6811
45.9515 11.7067
46.0001 11.6265
46.0484 11.591
46.097 11.5494
46.1454 11.5036
46.194 11.4923
46.2424 11.3865
46.291 11.406
46.3395 11.332
46.3881 11.2851
46.4365 11.2698
46.4852 11.1961
46.5337 11.1893
46.5823 11.1552
46.631 11.099
46.6795 11.0436
46.7282 11.0071
46.7767 10.9931
46.8254 10.9348
46.8739 10.9029
46.9226 10.8234
46.9712 10.8224
47.0199 10.7932
47.0685 10.6948
47.1173 10.6839
47.1658 10.6376
47.2146 10.6182
47.2632 10.5472
47.312 10.5319
47.3606 10.4657
47.4095 10.4221
47.4581 10.4023
47.5069 10.3673
47.5556 10.3336
47.6044 10.2736
47.6531 10.247
47.702 10.2214
47.7507 10.1752
47.7996 10.1185
47.8483 10.1162
47.8972 10.0969
47.9461 10.0191
47.9948 9.99617
48.0438 9.95839
48.0925 9.9226
48.1415 9.88078
48.1902 9.87592
48.2392 9.80903
48.288 9.76524
48.337 9.75018
48.3858 9.68608
48.4348 9.68403
48.4837 9.66257
48.5327 9.63142
48.5815 9.55743
48.6306 9.53112
48.6795 9.54239
48.7285 9.47129
48.7774 9.45282
48.8265 9.39451
48.8754 9.3396
48.9245 9.36696
48.9734 9.2884
49.0226 9.26158
49.0715 9.22751
49.1206 9.20489
49.1696 9.1381
49.2188 9.13893
49.2679 9.07956
49.3169 9.03825
49.3661 8.99869
49.4151 8.99083
49.4643 8.95503
49.5134 8.89294
49.5626 8.85932
49.6117 8.86085
49.6609 8.8163
49.71 8.75267
49.7592 8.67924
49.8083 8.66292
49.8576 8.68582
49.9067 8.62575
49.956 8.62322
50.0052 8.57717
50.0545 8.51804
50.1036 8.4912
50.153 8.48621
50.2022 8.4747
50.2515 8.39361
50.3007 8.3779
50.3501 8.35616
50.3993 8.32507
50.4487 8.29278
50.498 8.26616
50.5474 8.2506
50.5966 8.2205
50.6461 8.15393
50.6955 8.11687
50.7448 8.0921
50.7943 8.07665
50.8436 8.0281
50.8931 8.0074
50.9424 7.97551
50.9919 7.95399
51.0413 7.88166
51.0908 7.92043
51.1402 7.84229
51.1897 7.81385
51.2391 7.78478
51.2887 7.74738
51.3381 7.71889
51.3877 7.69246
51.4371 7.6081
51.4867 7.59957
51.5362 7.62004
51.5858 7.53011
51.6353 7.51258
51.6849 7.4844
51.7344 7.48666
51.7841 7.43303
51.8336 7.40642
51.8833 7.35674
51.9328 7.29038
51.9826 7.31475
52.0323 7.24302
52.0818 7.23504
52.1316 7.19529
52.1812 7.20836
52.231 7.18088
52.2806 7.11403
52.3304 7.10881
52.38 7.04626
52.4298 7.02375
52.4794 6.9793
52.5293 7.01807
52.5789 6.92186
52.6288 6.94883
52.6785 6.87463
52.7284 6.85957
52.7781 6.84046
52.828 6.82912
52.8777 6.77846
52.9276 6.75674
52.9774 6.73688
53.0273 6.71528
53.0771 6.63402
53.1271 6.70433
53.1769 6.57985
53.2269 6.60066
53.2767 6.54556
53.3267 6.52941
53.3765 6.50524
53.4266 6.49812
53.4766 6.43084
53.5265 6.4527
53.5765 6.39015
53.6264 6.40149
53.6765 6.33706
53.7264 6.28394
53.7765 6.25492
53.8265 6.26592
53.8766 6.19853
53.9266 6.19779
53.9767 6.15255
54.0267 6.17875
54.0769 6.11514
54.1269 6.14826
54.1771 6.05386
54.2271 6.05078
54.2773 5.96572
54.3274 5.92273
54.3776 5.90925
54.4277 5.90044
54.478 5.92418
54.528 5.85133
54.5783 5.80289
54.6285 5.78232
54.6788 5.75491
54.7289 5.62037
54.7792 5.62119
54.8296 5.57893
54.8798 5.49704
54.9301 5.51512
54.9803 5.50227
55.0307 5.43106
55.0809 5.40712
55.1314 5.36495
55.1816 5.31223
55.232 5.27112
55.2823 5.24123
55.3328 5.2109
55.383 5.14072
55.4335 5.0441
55.4838 5.06246
55.5344 4.95701
55.5847 4.93167
55.6352 4.94409
55.6856 4.85067
55.7361 4.83382