File: XRD/Ni3Fe_FD0650.xy
TT I
1.27165 7.39899
1.31627 6.75789
1.36089 6.96044
1.40551 5.75435
1.45013 6.79246
1.49476 5.28837
1.53938 5.60673
1.584 5.37962
1.62863 5.34333
1.67325 5.09261
1.71787 5.07653
1.7625 4.47217
1.80712 5.12546
1.85174 4.91475
1.89636 4.47589
1.94099 5.1634
1.98562 5.02337
2.03025 4.43376
2.07487 4.68248
2.11949 5.06188
2.16411 4.97808
2.20874 17.3738
2.25338 29.0448
2.298 6.67008
2.34263 6.19066
2.38725 5.87457
2.43188 5.79654
2.4765 7.38395
2.52115 7.30089
2.56577 7.426
2.6104 7.84162
2.65503 8.27412
2.69965 8.21063
2.7443 8.18864
2.78893 7.90134
2.83356 8.31
2.87818 9.06363
2.92281 9.13615
2.96744 9.57774
3.01209 10.3757
3.05672 11.2561
3.10135 12.1666
3.14599 13.0232
3.19062 14.3397
3.23527 15.1215
3.2799 15.803
3.32454 16.811
3.36917 17.4489
3.4138 19.1424
3.45844 19.9687
3.50309 21.5019
3.54773 22.3731
3.59237 24.7674
3.637 115.307
3.68164 71.8801
3.7263 26.9151
3.77094 26.5059
3.81558 27.2618
3.86022 28.1213
3.90486 28.991
3.9495 29.8991
3.99416 31.2293
4.0388 32.6946
4.08344 33.8968
4.12809 35.372
4.17273 37.6348
4.21738 44.7589
4.26204 316.78
4.30669 281.457
4.35133 51.0301
4.39598 45.2162
4.44063 56.6528
4.4853 72.2573
4.52995 50.7682
4.5746 51.1785
4.61925 53.4481
4.6639 55.4797
4.70855 58.356
4.75322 60.7696
4.79788 63.9134
4.84253 67.1515
4.88719 70.8757
4.93184 74.5051
4.97652 80.0222
5.02118 85.9991
5.06583 93.5407
5.11049 104.623
5.15515 187.633
5.19981 329.685
5.24449 2607.38
5.28916 12584.5
5.33382 3196.01
5.37848 197.165
5.42315 129.997
5.46783 113.833
5.5125 105.957
5.55716 102.156
5.60183 98.2989
5.6465 96.5165
5.69117 94.1357
5.73586 91.9026
5.78053 91.3722
5.8252 90.4763
5.86988 90.9503
5.91455 93.2809
5.95924 99.9373
6.00392 187.556
6.0486 892.798
6.09328 4331.18
6.13795 3512.85
6.18263 264.247
6.22733 95.165
6.27201 84.256
6.3167 111.79
6.36138 84.3551
6.40606 69.4039
6.45075 67.7702
6.49545 65.3881
6.54014 64.1044
6.58483 63.4973
6.62952 63.6195
6.67421 103.996
6.71892 174.6
6.76361 72.8318
6.8083 59.4322
6.853 58.0327
6.89769 57.5389
6.94239 56.8748
6.98711 56.387
7.03181 56.3716
7.07651 56.2166
7.12121 55.8208
7.16591 56.014
7.21063 56.4604
7.25533 74.6962
7.30004 224.494
7.34475 106.17
7.38945 57.9948
7.43416 55.4664
7.47889 55.0529
7.5236 55.4255
7.56831 55.9735
7.61303 58.0472
7.65774 58.6999
7.70247 56.972
7.74719 56.8816
7.79191 56.8851
7.83663 57.0723
7.88135 58.3295
7.92607 59.0001
7.97081 60.2646
8.01553 61.0701
8.06026 62.3803
8.10498 63.6265
8.14971 76.0239
8.19446 74.0971
8.23919 69.4441
8.28392 71.648
8.32865 73.9407
8.37339 77.972
8.41812 85.4334
8.46288 120.911
8.50761 157.24
8.55235 358.971
8.59709 1084.53
8.64183 2176.38
8.68658 1035.0
8.73134 178.213
8.77609 99.7441
8.82083 92.9399
8.86558 89.5375
8.91033 90.8001
8.9551 93.9161
8.99985 85.9059
9.04461 83.3642
9.08936 82.9509
9.13412 81.6683
9.17888 82.2616
9.22365 83.3446
9.26841 82.1655
9.31318 82.7996
9.35794 83.0574
9.4027 82.8422
9.44749 83.7567
9.49226 84.2236
9.53703 85.4206
9.5818 87.1685
9.62657 93.0235
9.67134 101.377
9.71614 93.9778
9.76091 94.0561
9.80569 96.3537
9.85047 99.6621
9.89525 130.446
9.94005 144.163
9.98484 166.401
10.0296 317.322
10.0744 746.552
10.1192 1681.26
10.164 1672.99
10.2088 447.866
10.2536 131.665
10.2984 115.917
10.3432 119.286
10.388 105.355
10.4328 114.994
10.4776 153.355
10.5224 264.348
10.5672 494.126
10.612 522.366
10.6568 216.823
10.7017 99.1011
10.7465 86.9739
10.7913 83.3171
10.8361 81.5212
10.8809 79.2114
10.9257 79.3946
10.9706 80.6503
11.0154 75.4162
11.0602 73.0611
11.105 72.3633
11.1499 78.2823
11.1947 88.9436
11.2395 76.7137
11.2844 71.8479
11.3292 67.7721
11.374 66.6019
11.4189 65.8728
11.4637 65.1886
11.5086 66.0479
11.5534 70.1018
11.5983 66.8832
11.6431 64.1145
11.688 63.1318
11.7328 63.3193
11.7777 63.0738
11.8225 62.5994
11.8674 62.6543
11.9122 62.9601
11.9571 62.8768
12.002 63.7788
12.0468 67.3669
12.0917 78.1706
12.1366 100.677
12.1814 145.697
12.2263 203.13
12.2712 176.034
12.3161 103.937
12.3609 73.2599
12.4058 65.4159
12.4507 64.8267
12.4956 64.605
12.5405 64.7539
12.5853 65.9535
12.6302 76.0661
12.6751 83.3731
12.72 71.7766
12.7649 68.1827
12.8098 68.5427
12.8547 69.5756
12.8996 70.9925
12.9445 72.0176
12.9894 73.7669
13.0343 75.4378
13.0792 78.5978
13.1242 86.1886
13.1691 109.303
13.214 143.428
13.2589 224.559
13.3038 354.945
13.3487 436.468
13.3937 282.013
13.4386 129.959
13.4835 104.146
13.5285 116.982
13.5734 152.356
13.6183 235.58
13.6633 340.309
13.7082 350.973
13.7531 196.848
13.7981 100.451
13.843 82.1801
13.888 79.8476
13.9329 77.0998
13.9779 76.0443
14.0228 74.6023
14.0678 73.1855
14.1127 72.8646
14.1577 72.9372
14.2027 71.7451
14.2476 70.6123
14.2926 70.9867
14.3376 72.991
14.3825 71.022
14.4275 69.0028
14.4725 68.7926
14.5175 68.917
14.5624 69.2062
14.6074 71.8968
14.6524 72.546
14.6974 70.4525
14.7424 71.4797
14.7874 77.6669
14.8324 87.2346
14.8774 106.573
14.9224 146.665
14.9674 199.189
15.0124 218.081
15.0574 154.33
15.1024 93.7449
15.1474 72.9636
15.1924 70.8168
15.2374 72.2329
15.2824 71.5024
15.3274 68.7335
15.3725 67.0897
15.4175 66.4434
15.4625 66.0936
15.5076 66.7069
15.5526 66.5335
15.5976 65.7475
15.6426 66.389
15.6877 71.0732
15.7327 78.1124
15.7778 92.0521
15.8228 121.154
15.8679 163.259
15.9129 194.118
15.958 163.607
16.003 102.341
16.0481 69.6069
16.0931 65.877
16.1382 63.8077
16.1833 61.1756
16.2283 59.3988
16.2734 58.652
16.3185 59.3122
16.3636 60.5453
16.4086 58.5494
16.4537 56.6586
16.4988 55.6044
16.5439 55.7436
16.589 55.5142
16.6341 55.304
16.6792 54.8189
16.7243 55.0746
16.7694 55.2236
16.8145 55.2575
16.8596 55.6805
16.9047 57.7208
16.9498 57.8217
16.9949 56.2436
17.04 55.8196
17.0851 56.9836
17.1302 58.7096
17.1754 61.4388
17.2205 65.8444
17.2656 73.3515
17.3108 81.9059
17.3559 83.6531
17.401 72.5377
17.4462 62.6592
17.4913 59.4071
17.5365 59.127
17.5815 59.289
17.6268 59.6295
17.6718 60.6056
17.7171 61.1975
17.7622 61.4123
17.8074 61.5946
17.8525 63.7144
17.8977 67.3368
17.9428 72.6404
17.9881 80.724
18.0331 96.2441
18.0784 117.789
18.1237 138.329
18.1688 133.906
18.214 105.985
18.2591 86.794
18.3044 89.435
18.3495 98.9913
18.3948 106.652
18.4399 99.3638
18.4852 79.7932
18.5303 67.0768
18.5756 62.5532
18.6207 61.582
18.666 60.7831
18.7112 59.9556
18.7565 59.1602
18.8016 58.8774
18.8469 58.2889
18.892 57.7912
18.9374 57.2912
18.9825 57.1895
19.0278 57.0732
19.073 57.3304
19.1183 57.5951
19.1635 58.2216
19.2088 59.6565
19.254 61.6219
19.2993 65.9573
19.3447 72.2925
19.3898 77.1608
19.4352 73.8012
19.4804 64.649
19.5257 57.3264
19.5709 54.4642
19.6163 53.9624
19.6615 53.864
19.7068 53.5757
19.752 53.2496
19.7974 53.7317
19.8426 54.566
19.888 55.3759
19.9332 56.1949
19.9786 58.4162
20.0238 61.7436
20.0692 66.622
20.1144 69.8664
20.1598 68.8947
20.205 63.9077
20.2504 62.1569
20.2957 63.3989
20.3411 65.6809
20.3863 64.8088
20.4318 59.2683
20.477 54.2408
20.5224 52.0125
20.5677 51.3774
20.6131 50.4538
20.6586 49.8454
20.7038 49.9248
20.7493 49.1909
20.7945 49.1417
20.84 49.0323
20.8853 48.8164
20.9307 48.598
20.976 48.9004
21.0215 48.6942
21.0668 49.2712
21.1122 49.5741
21.1575 50.0508
21.203 50.7737
21.2483 51.6471
21.2938 51.7612
21.3391 50.3039
21.3846 49.1746
21.4299 48.6278
21.4754 48.5419
21.5207 48.6798
21.5662 48.7279
21.6116 49.0386
21.6571 49.8205
21.7024 50.7125
21.7479 52.4336
21.7933 54.8649
21.8388 58.1982
21.8843 61.9775
21.9297 64.729
21.9752 64.1089
22.0206 60.1742
22.0661 56.7002
22.1115 56.4588
22.157 56.1974
22.2024 54.7895
22.248 51.9391
22.2933 50.3257
22.3389 49.2691
22.3843 49.3637
22.4299 49.2131
22.4753 49.1514
22.5208 48.6145
22.5662 48.4794
22.6118 48.6666
22.6572 48.9426
22.7028 49.4053
22.7483 49.7188
22.7939 50.2455
22.8393 51.8233
22.8849 53.623
22.9303 55.9811
22.9759 57.9982
23.0214 57.92
23.067 55.3004
23.1126 51.9059
23.1581 49.4708
23.2037 48.9962
23.2492 49.13
23.2948 48.9096
23.3403 49.1104
23.3859 49.6341
23.4314 50.6251
23.477 52.338
23.5225 54.5916
23.5682 56.9158
23.6137 58.2517
23.6593 56.2448
23.7048 52.4143
23.7505 48.7502
23.796 46.94
23.8417 46.3686
23.8872 45.7126
23.9329 45.4277
23.9784 45.07
24.0241 44.7674
24.0697 44.6804
24.1154 44.2213
24.1609 44.2738
24.2066 44.0075
24.2522 43.8584
24.2979 43.6905
24.3434 43.5028
24.3892 43.4253
24.4349 43.3129
24.4805 43.0604
24.5262 43.1354
24.5718 43.049
24.6175 42.9313
24.6631 43.0598
24.7089 42.6309
24.7545 42.5482
24.8002 42.4355
24.8458 42.4226
24.8916 42.2518
24.9372 42.312
24.983 42.5709
25.0286 42.8988
25.0744 43.3011
25.12 43.7391
25.1658 44.355
25.2114 44.6457
25.2572 44.9081
25.3029 44.8682
25.3487 44.9277
25.3943 45.0073
25.4402 44.0281
25.4858 42.7932
25.5316 41.8899
25.5773 41.2018
25.6231 40.9802
25.669 40.6419
25.7147 40.5773
25.7605 40.5577
25.8062 40.6277
25.8521 40.8772
25.8977 40.6761
25.9436 40.9506
25.9893 41.0303
26.0352 41.6434
26.0809 41.5575
26.1268 41.91
26.1725 41.4327
26.2184 40.9587
26.2641 40.4388
26.31 40.2045
26.3557 40.3328
26.4017 40.3504
26.4474 40.6074
26.4933 40.8226
26.5391 41.1475
26.585 41.7256
26.6308 42.1036
26.6767 42.3352
26.7225 42.2775
26.7684 41.7493
26.8142 40.9704
26.8601 40.6671
26.9059 40.3106
26.9519 39.7291
26.9979 39.3393
27.0437 39.0441
27.0896 38.9499
27.1354 38.866
27.1814 38.7722
27.2272 38.5883
27.2732 38.6929
27.3191 38.4569
27.3651 38.6664
27.4109 38.5199
27.4569 38.6279
27.5027 38.7519
27.5488 38.6399
27.5946 38.6054
27.6407 38.1893
27.6865 38.3022
27.7326 37.8942
27.7784 37.9337
27.8245 37.9523
27.8703 37.9708
27.9164 38.3809
27.9623 38.4783
28.0084 38.7007
28.0543 39.1568
28.1003 39.1954
28.1462 39.0901
28.1923 38.6891
28.2384 38.0048
28.2843 37.753
28.3304 37.439
28.3764 36.7351
28.4225 36.5207
28.4684 36.367
28.5145 36.1415
28.5605 35.971
28.6066 35.8329
28.6526 35.772
28.6987 35.7624
28.7447 35.6613
28.7908 35.5397
28.8368 35.6244
28.8829 35.4998
28.9289 35.4668
28.9751 35.2283
29.0211 35.1239
29.0673 34.8259
29.1133 34.7285
29.1595 34.5153
29.2055 34.4299
29.2517 34.398
29.2977 34.3364
29.3439 34.3873
29.3899 34.3528
29.4361 34.2202
29.4824 34.1837
29.5284 33.9134
29.5746 33.548
29.6207 33.2474
29.6669 33.2305
29.713 33.0791
29.7593 32.9566
29.8053 33.1479
29.8516 32.9032
29.8977 32.8599
29.9439 32.7275
29.99 32.5903
30.0363 32.6002
30.0824 32.686
30.1287 32.4869
30.1748 32.5345
30.2211 32.5819
30.2673 32.4433
30.3136 32.4578
30.3597 32.3913
30.406 32.3662
30.4522 32.24
30.4985 32.1756
30.5447 32.3652
30.591 32.2073
30.6372 32.2758
30.6835 32.2635
30.7297 32.3415
30.7761 32.2332
30.8224 32.0902
30.8686 32.0447
30.915 31.6334
30.9612 31.6542
31.0076 31.3829
31.0538 31.2563
31.1002 31.3383
31.1464 31.0487
31.1928 31.0487
31.2391 31.0808
31.2855 30.9665
31.3317 30.9888
31.3781 30.9589
31.4244 30.9423
31.4708 30.8961
31.5171 30.8067
31.5636 30.8364
31.6098 30.5533
31.6563 30.4833
31.7026 30.3653
31.7491 30.1898
31.7953 30.3325
31.8418 30.1532
31.8881 30.2263
31.9346 30.1075
31.9809 30.2329
32.0275 30.0873
32.074 29.9378
32.1203 29.8535
32.1668 29.658
32.2132 29.5504
32.2597 29.3277
32.306 29.1874
32.3526 29.0803
32.399 29.0551
32.4455 28.8685
32.4919 28.8073
32.5385 28.7941
32.5848 28.602
32.6314 28.6115
32.6778 28.495
32.7244 28.3785
32.7708 28.2242
32.8174 28.3138
32.8638 28.1211
32.9104 28.1587
32.9569 28.1796
33.0035 27.9407
33.0499 28.0173
33.0966 27.8748
33.143 27.9306
33.1897 27.7941
33.2361 27.805
33.2828 27.6666
33.3293 27.5493
33.3759 27.4973
33.4226 27.3257
33.4691 27.2356
33.5158 27.1505
33.5623 27.0667
33.609 26.8824
33.6555 26.7662
33.7022 26.7712
33.7487 26.587
33.7954 26.5549
33.842 26.4774
33.8887 26.4781
33.9353 26.3208
33.982 26.1808
34.0286 26.1232
34.0753 26.0767
34.1219 26.0213
34.1687 25.8837
34.2152 25.8643
34.262 25.7512
34.3086 25.6897
34.3554 25.6408
34.402 25.5166
34.4488 25.413
34.4954 25.3759
34.5422 25.2923
34.5889 25.1581
34.6357 25.0692
34.6825 25.0664
34.7292 24.973
34.776 24.8527
34.8227 24.7726
34.8695 24.7223
34.9162 24.7075
34.9631 24.584
35.0098 24.6072
35.0566 24.4493
35.1033 24.3449
35.1502 24.3645
35.1969 24.3476
35.2438 24.3499
35.2906 24.2101
35.3375 24.2105
35.3842 24.1159
35.4311 24.1307
35.4779 24.0383
35.5248 23.965
35.5716 23.855
35.6185 23.8057
35.6653 23.7477
35.7123 23.7554
35.759 23.5814
35.806 23.493
35.8528 23.3497
35.8998 23.3659
35.9468 23.2639
35.9936 23.1192
36.0406 23.1468
36.0874 23.0931
36.1345 23.0139
36.1813 22.9106
36.2283 22.8139
36.2752 22.6703
36.3222 22.7567
36.3691 22.7547
36.4161 22.557
36.463 22.4824
36.5101 22.5451
36.557 22.4369
36.6041 22.2745
36.651 22.277
36.6981 22.2292
36.745 22.1579
36.7921 22.0591
36.839 21.9312
36.8861 21.8921
36.9331 21.842
36.9802 21.724
37.0272 21.6668
37.0743 21.6064
37.1213 21.5213
37.1684 21.4553
37.2154 21.4992
37.2626 21.3167
37.3098 21.3304
37.3568 21.2577
37.404 21.1638
37.451 21.075
37.4982 21.0887
37.5452 20.9594
37.5924 20.8609
37.6395 20.9099
37.6867 20.7301
37.7337 20.7075
37.781 20.6038
37.8281 20.5574
37.8753 20.4763
37.9224 20.3676
37.9697 20.4121
38.0168 20.3095
38.064 20.2432
38.1111 20.202
38.1584 20.1288
38.2056 20.0899
38.2529 19.9629
38.3 19.9334
38.3473 19.881
38.3945 19.6725
38.4418 19.7097
38.489 19.646
38.5363 19.5382
38.5837 19.5714
38.6309 19.5062
38.6782 19.3862
38.7254 19.3303
38.7728 19.2787
38.82 19.2221
38.8674 19.1556
38.9146 19.1409
38.9621 19.1002
39.0093 19.0061
39.0567 18.8915
39.104 18.8713
39.1514 18.8066
39.1987 18.7393
39.2461 18.7282
39.2934 18.6901
39.3409 18.5331
39.3882 18.5105
39.4356 18.4164
39.483 18.4315
39.5304 18.34
39.5778 18.3153
39.6253 18.2576
39.6726 18.1724
39.7201 18.2093
39.7675 18.0554
39.815 18.0557
39.8624 17.877
39.9099 17.9192
39.9575 17.8573
40.0049 17.7776
40.0525 17.7482
40.0999 17.6799
40.1474 17.5373
40.1949 17.5234
40.2425 17.4845
40.2899 17.4354
40.3375 17.4314
40.385 17.3438
40.4326 17.2396
40.48 17.2079
40.5277 17.1626
40.5752 17.108
40.6228 17.0739
40.6703 17.0124
40.718 16.9304
40.7655 16.8268
40.8132 16.8379
40.8607 16.7415
40.9084 16.7412
40.9559 16.666
41.0036 16.6451
41.0512 16.591
41.0989 16.5651
41.1465 16.4946
41.1942 16.4157
41.242 16.3073
41.2896 16.2398
41.3373 16.2141
41.3849 16.2139
41.4327 16.1383
41.4803 16.0854
41.5281 16.0477
41.5758 15.9376
41.6236 15.8635
41.6712 15.8331
41.7191 15.8238
41.7667 15.7545
41.8146 15.7627
41.8622 15.6769
41.9101 15.5788
41.9578 15.4929
42.0057 15.5094
42.0534 15.4264
42.1013 15.4497
42.149 15.319
42.1969 15.2843
42.2446 15.2515
42.2925 15.1681
42.3403 15.1401
42.3882 15.118
42.436 15.0375
42.4839 14.9436
42.5319 14.9051
42.5797 14.8658
42.6277 14.881
42.6755 14.7981
42.7235 14.7258
42.7713 14.743
42.8193 14.6014
42.8671 14.6438
42.9152 14.537
42.963 14.5211
43.0111 14.4501
43.0589 14.3792
43.107 14.403
43.1549 14.3416
43.2029 14.242
43.2508 14.2707
43.2989 14.1706
43.3468 14.0743
43.3949 14.046
43.4429 13.9863
43.491 13.9452
43.5389 13.9249
43.5871 13.8899
43.635 13.7641
43.6832 13.7369
43.7312 13.6804
43.7793 13.6635
43.8273 13.6612
43.8755 13.5759
43.9237 13.5334
43.9717 13.4865
44.0199 13.4185
44.068 13.4176
44.1162 13.2898
44.1642 13.2933
44.2125 13.2612
44.2606 13.2282
44.3088 13.1734
44.3569 13.0976
44.4052 13.0737
44.4533 13.016
44.5016 12.9535
44.5497 12.9709
44.598 12.8864
44.6461 12.837
44.6945 12.8083
44.7426 12.7684
44.791 12.6579
44.8391 12.6921
44.8875 12.6078
44.9357 12.5806
44.984 12.4899
45.0322 12.459
45.0806 12.4104
45.1288 12.3698
45.1773 12.313
45.2257 12.3012
45.2739 12.2527
45.3224 12.246
45.3706 12.2041
45.4191 12.1065
45.4673 12.0943
45.5158 12.0408
45.5641 11.9478
45.6126 11.936
45.6609 11.9387
45.7094 11.8953
45.7577 11.8471
45.8063 11.7586
45.8546 11.7454
45.9031 11.6923
45.9515 11.6765
46.0001 11.6477
46.0484 11.6382
46.097 11.4734
46.1454 11.4709
46.194 11.528
46.2424 11.4175
46.291 11.3463
46.3395 11.3341
46.3881 11.2688
46.4365 11.2726
46.4852 11.2112
46.5337 11.2036
46.5823 11.149
46.631 11.0979
46.6795 11.0958
46.7282 11.0233
46.7767 11.0114
46.8254 10.9683
46.8739 10.8795
46.9226 10.8446
46.9712 10.7932
47.0199 10.7552
47.0685 10.73
47.1173 10.6722
47.1658 10.6389
47.2146 10.5808
47.2632 10.526
47.312 10.5506
47.3606 10.494
47.4095 10.4475
47.4581 10.4365
47.5069 10.346
47.5556 10.2943
47.6044 10.3009
47.6531 10.2496
47.702 10.2344
47.7507 10.1971
47.7996 10.1344
47.8483 10.1237
47.8972 10.0723
47.9461 10.0791
47.9948 9.98142
48.0438 9.97071
48.0925 9.9302
48.1415 9.952
48.1902 9.89234
48.2392 9.87365
48.288 9.80358
48.337 9.7272
48.3858 9.74105
48.4348 9.72347
48.4837 9.70334
48.5327 9.63031
48.5815 9.55256
48.6306 9.54049
48.6795 9.5408
48.7285 9.44451
48.7774 9.47016
48.8265 9.42204
48.8754 9.3679
48.9245 9.32204
48.9734 9.28774
49.0226 9.29693
49.0715 9.22314
49.1206 9.18347
49.1696 9.15793
49.2188 9.13264
49.2679 9.08322
49.3169 9.014
49.3661 9.0164
49.4151 8.99119
49.4643 8.96297
49.5134 8.91997
49.5626 8.8678
49.6117 8.82771
49.6609 8.81566
49.71 8.80524
49.7592 8.71279
49.8083 8.656
49.8576 8.68562
49.9067 8.64751
49.956 8.63939
50.0052 8.55503
50.0545 8.56168
50.1036 8.47615
50.153 8.50002
50.2022 8.46049
50.2515 8.40008
50.3007 8.37721
50.3501 8.31028
50.3993 8.32167
50.4487 8.27656
50.498 8.24122
50.5474 8.21202
50.5966 8.17798
50.6461 8.15362
50.6955 8.13568
50.7448 8.10954
50.7943 8.10884
50.8436 8.04652
50.8931 8.01516
50.9424 7.96645
50.9919 7.94596
51.0413 7.88328
51.0908 7.88527
51.1402 7.87427
51.1897 7.83021
51.2391 7.78507
51.2887 7.74717
51.3381 7.71563
51.3877 7.7055
51.4371 7.64423
51.4867 7.59674
51.5362 7.6066
51.5858 7.5752
51.6353 7.51449
51.6849 7.48667
51.7344 7.41576
51.7841 7.46544
51.8336 7.40537
51.8833 7.41177
51.9328 7.31962
51.9826 7.29634
52.0323 7.24547
52.0818 7.23956
52.1316 7.20263
52.1812 7.18458
52.231 7.14808
52.2806 7.13137
52.3304 7.08961
52.38 7.10126
52.4298 7.06408
52.4794 7.00021
52.5293 6.99152
52.5789 6.97312
52.6288 6.93168
52.6785 6.89227
52.7284 6.89216
52.7781 6.84296
52.828 6.81059
52.8777 6.78238
52.9276 6.73134
52.9774 6.73273
53.0273 6.68779
53.0771 6.67062
53.1271 6.65394
53.1769 6.61936
53.2269 6.60591
53.2767 6.55961
53.3267 6.50244
53.3765 6.51874
53.4266 6.51592
53.4766 6.4548
53.5265 6.40418
53.5765 6.38416
53.6264 6.36637
53.6765 6.34549
53.7264 6.28867
53.7765 6.30545
53.8265 6.2242
53.8766 6.18776
53.9266 6.2398
53.9767 6.20252
54.0267 6.14114
54.0769 6.13083
54.1269 6.0906
54.1771 6.04352
54.2271 6.0054
54.2773 6.01359
54.3274 5.98542
54.3776 5.96783
54.4277 5.88726
54.478 5.86822
54.528 5.85407
54.5783 5.79897
54.6285 5.76635
54.6788 5.69271
54.7289 5.64264
54.7792 5.60304
54.8296 5.57281
54.8798 5.49922
54.9301 5.51387
54.9803 5.47497
55.0307 5.49372
55.0809 5.35604
55.1314 5.36142
55.1816 5.30165
55.232 5.30266
55.2823 5.24433
55.3328 5.20373
55.383 5.14872
55.4335 5.07394
55.4838 4.95563
55.5344 4.98837
55.5847 4.99494
55.6352 4.95365
55.6856 4.84425
55.7361 4.83866