File: XRD/Ni3Fe_FD0036.xy
TT I
1.27165 32.6483
1.31627 31.8062
1.36089 30.2371
1.40551 29.1337
1.45013 27.7589
1.49476 27.1379
1.53938 25.8784
1.584 24.4933
1.62863 23.8712
1.67325 23.5786
1.71787 23.7504
1.7625 22.2814
1.80712 22.1951
1.85174 21.2005
1.89636 21.6259
1.94099 22.0706
1.98562 22.2128
2.03025 21.9886
2.07487 21.8394
2.11949 22.8112
2.16411 23.6544
2.20874 24.53
2.25338 24.1726
2.298 23.8124
2.34263 23.4209
2.38725 22.6697
2.43188 22.468
2.4765 23.4746
2.52115 22.8048
2.56577 24.1401
2.6104 24.7145
2.65503 25.6706
2.69965 26.5789
2.7443 28.783
2.78893 31.3801
2.83356 33.4048
2.87818 36.3785
2.92281 41.6553
2.96744 47.2452
3.01209 55.6215
3.05672 63.8586
3.10135 75.0428
3.14599 79.2942
3.19062 78.7469
3.23527 71.5209
3.2799 60.5627
3.32454 50.5609
3.36917 42.1421
3.4138 37.6854
3.45844 34.3947
3.50309 32.9884
3.54773 32.3177
3.59237 33.5191
3.637 35.3767
3.68164 35.3561
3.7263 34.3192
3.77094 31.9705
3.81558 30.648
3.86022 30.223
3.90486 30.4817
3.9495 30.3436
3.99416 31.2605
4.0388 32.1774
4.08344 35.1222
4.12809 37.4686
4.17273 42.8769
4.21738 52.5339
4.26204 62.4352
4.30669 67.6909
4.35133 62.5712
4.39598 53.4041
4.44063 48.1698
4.4853 47.7389
4.52995 45.2471
4.5746 43.4634
4.61925 42.6355
4.6639 42.541
4.70855 44.0994
4.75322 45.9931
4.79788 48.8923
4.84253 51.8747
4.88719 56.7399
4.93184 62.7685
4.97652 71.9502
5.02118 88.2472
5.06583 112.549
5.11049 137.494
5.15515 187.562
5.19981 297.496
5.24449 645.543
5.28916 1370.73
5.33382 3603.58
5.37848 3520.48
5.42315 991.474
5.46783 338.336
5.5125 205.935
5.55716 154.498
5.60183 126.303
5.6465 112.879
5.69117 108.188
5.73586 101.259
5.78053 97.9159
5.8252 98.3178
5.86988 104.015
5.91455 114.371
5.95924 135.43
6.00392 184.556
6.0486 301.831
6.09328 513.084
6.13795 922.55
6.18263 1261.59
6.22733 642.812
6.27201 267.674
6.3167 149.64
6.36138 101.867
6.40606 79.0144
6.45075 68.0303
6.49545 60.2128
6.54014 55.2986
6.58483 52.0397
6.62952 51.8327
6.67421 51.7291
6.71892 52.5402
6.76361 51.7191
6.8083 48.3689
6.853 45.5335
6.89769 43.6243
6.94239 42.2764
6.98711 40.8181
7.03181 40.692
7.07651 40.6743
7.12121 41.1998
7.16591 42.518
7.21063 45.1739
7.25533 49.8888
7.30004 58.8228
7.34475 61.7365
7.38945 53.8714
7.43416 47.174
7.47889 44.9667
7.5236 52.885
7.56831 116.975
7.61303 163.7
7.65774 68.5946
7.70247 43.787
7.74719 39.3639
7.79191 38.1479
7.83663 37.4369
7.88135 37.296
7.92607 37.5299
7.97081 37.7613
8.01553 38.3768
8.06026 39.2743
8.10498 40.0373
8.14971 41.5458
8.19446 43.0841
8.23919 44.7728
8.28392 46.211
8.32865 48.2219
8.37339 52.1539
8.41812 57.3043
8.46288 66.1939
8.50761 81.0049
8.55235 113.814
8.59709 177.544
8.64183 241.257
8.68658 463.513
8.73134 790.348
8.77609 526.206
8.82083 219.753
8.86558 119.937
8.91033 89.7164
8.9551 76.2782
8.99985 69.8233
9.04461 64.8408
9.08936 62.2203
9.13412 61.0572
9.17888 63.0703
9.22365 73.9815
9.26841 163.467
9.31318 292.014
9.35794 139.132
9.4027 69.5974
9.44749 58.7045
9.49226 55.1411
9.53703 54.2941
9.5818 54.2095
9.62657 54.1099
9.67134 55.1274
9.71614 56.0603
9.76091 57.0316
9.80569 58.9515
9.85047 61.5878
9.89525 66.0743
9.94005 72.71
9.98484 84.0974
10.0296 108.817
10.0744 156.903
10.1192 197.775
10.164 285.926
10.2088 591.49
10.2536 782.643
10.2984 424.318
10.3432 193.81
10.388 115.383
10.4328 89.7628
10.4776 83.6502
10.5224 89.5189
10.5672 95.2521
10.612 111.555
10.6568 184.447
10.7017 283.651
10.7465 235.596
10.7913 122.36
10.8361 68.3879
10.8809 54.6503
10.9257 49.659
10.9706 47.1238
11.0154 45.3796
11.0602 44.2652
11.105 43.4135
11.1499 42.5181
11.1947 42.41
11.2395 41.9721
11.2844 41.5549
11.3292 40.6364
11.374 39.6046
11.4189 38.995
11.4637 38.5074
11.5086 38.2482
11.5534 38.1304
11.5983 38.1132
11.6431 38.0023
11.688 37.5384
11.7328 37.0886
11.7777 37.4846
11.8225 37.82
11.8674 38.482
11.9122 40.7269
11.9571 51.0562
12.002 89.3663
12.0468 95.5541
12.0917 57.4369
12.1366 47.4701
12.1814 48.4849
12.2263 51.0152
12.2712 59.4913
12.3161 77.9651
12.3609 94.3687
12.4058 79.0839
12.4507 57.2921
12.4956 47.4554
12.5405 43.218
12.5853 41.114
12.6302 40.5317
12.6751 40.9722
12.72 40.8837
12.7649 40.599
12.8098 39.9729
12.8547 39.4532
12.8996 40.0222
12.9445 40.1172
12.9894 41.1405
13.0343 42.0414
13.0792 44.2176
13.1242 50.2511
13.1691 62.2554
13.214 65.1393
13.2589 67.9152
13.3038 71.7091
13.3487 80.0248
13.3937 108.545
13.4386 173.359
13.4835 214.385
13.5285 157.591
13.5734 104.959
13.6183 86.8768
13.6633 80.5304
13.7082 86.0446
13.7531 114.785
13.7981 179.969
13.843 192.091
13.888 121.513
13.9329 74.1285
13.9779 57.5805
14.0228 50.5472
14.0678 47.4775
14.1127 46.9802
14.1577 52.3562
14.2027 79.3475
14.2476 94.3649
14.2926 64.1153
14.3376 46.5439
14.3825 42.3019
14.4275 40.6978
14.4725 40.13
14.5175 39.5717
14.5624 39.4574
14.6074 39.3761
14.6524 39.7243
14.6974 39.8608
14.7424 40.0353
14.7874 40.5617
14.8324 42.4615
14.8774 45.9395
14.9224 49.5954
14.9674 51.4579
15.0124 54.979
15.0574 66.783
15.1024 93.5778
15.1474 121.044
15.1924 107.33
15.2374 74.0938
15.2824 55.1274
15.3274 46.7227
15.3725 43.1818
15.4175 41.5385
15.4625 40.3907
15.5076 39.7039
15.5526 39.5464
15.5976 39.42
15.6426 39.1223
15.6877 39.7529
15.7327 40.8758
15.7778 43.2771
15.8228 46.9721
15.8679 48.5956
15.9129 50.4922
15.958 58.1972
16.003 75.304
16.0481 106.122
16.0931 117.804
16.1382 97.3444
16.1833 71.7876
16.2283 51.0576
16.2734 42.3521
16.3185 39.0061
16.3636 37.0722
16.4086 35.7334
16.4537 35.0114
16.4988 34.1996
16.5439 33.5612
16.589 33.2564
16.6341 32.9867
16.6792 32.4159
16.7243 32.768
16.7694 32.5922
16.8145 32.4839
16.8596 32.6486
16.9047 33.0566
16.9498 34.5339
16.9949 38.7995
17.04 41.825
17.0851 37.9256
17.1302 34.5708
17.1754 34.1767
17.2205 34.4857
17.2656 35.0164
17.3108 35.5188
17.3559 36.0301
17.401 38.1978
17.4462 42.7583
17.4913 49.2161
17.5365 49.4159
17.5815 42.8653
17.6268 38.2944
17.6718 36.3982
17.7171 35.8914
17.7622 36.2946
17.8074 38.6028
17.8525 42.614
17.8977 43.1717
17.9428 40.3961
17.9881 40.7632
18.0331 42.4471
18.0784 43.3196
18.1237 44.4093
18.1688 47.588
18.214 55.8026
18.2591 72.8561
18.3044 92.8765
18.3495 89.2207
18.3948 68.3139
18.4399 56.2275
18.4852 55.1586
18.5303 62.6654
18.5756 69.9308
18.6207 66.6607
18.666 55.567
18.7112 46.5342
18.7565 40.4623
18.8016 37.7533
18.8469 36.5312
18.892 35.7774
18.9374 35.1213
18.9825 34.7277
19.0278 34.6529
19.073 34.3834
19.1183 34.1739
19.1635 34.1943
19.2088 34.6492
19.254 35.4752
19.2993 36.1706
19.3447 37.5944
19.3898 42.9003
19.4352 48.2042
19.4804 47.5534
19.5257 45.4102
19.5709 46.8674
19.6163 46.2679
19.6615 41.5065
19.7068 37.0445
19.752 34.6721
19.7974 33.4394
19.8426 32.7497
19.888 32.547
19.9332 32.7563
19.9786 32.9892
20.0238 33.1013
20.0692 33.2016
20.1144 33.2781
20.1598 34.4728
20.205 36.0108
20.2504 39.7764
20.2957 44.1408
20.3411 44.8711
20.3863 41.717
20.4318 38.5802
20.477 38.7938
20.5224 41.6863
20.5677 42.9761
20.6131 39.6839
20.6586 35.3758
20.7038 32.8789
20.7493 31.6051
20.7945 31.7305
20.84 33.0781
20.8853 34.5514
20.9307 33.7301
20.976 31.3735
21.0215 29.876
21.0668 29.5935
21.1122 29.72
21.1575 29.4665
21.203 29.3782
21.2483 29.364
21.2938 29.5561
21.3391 29.535
21.3846 30.1024
21.4299 31.1355
21.4754 32.3151
21.5207 32.4392
21.5662 31.6031
21.6116 30.9201
21.6571 30.3167
21.7024 29.8574
21.7479 30.5529
21.7933 30.7033
21.8388 31.0715
21.8843 31.4931
21.9297 31.7275
21.9752 32.8376
22.0206 34.811
22.0661 37.7311
22.1115 42.2184
22.157 44.9359
22.2024 44.2173
22.248 41.4833
22.2933 39.7877
22.3389 38.6027
22.3843 37.6257
22.4299 35.4019
22.4753 33.1463
22.5208 31.7682
22.5662 31.0898
22.6118 30.6241
22.6572 30.3752
22.7028 30.2966
22.7483 30.3524
22.7939 30.4551
22.8393 31.3129
22.8849 32.1851
22.9303 32.5583
22.9759 31.8273
23.0214 31.5873
23.067 32.1079
23.1126 33.5103
23.1581 36.1177
23.2037 39.5811
23.2492 40.0191
23.2948 36.8612
23.3403 33.7974
23.3859 32.3383
23.4314 32.1548
23.477 33.0096
23.5225 34.0703
23.5682 34.2344
23.6137 33.1464
23.6593 32.3986
23.7048 33.1498
23.7505 35.0997
23.796 38.3916
23.8417 40.9409
23.8872 39.6444
23.9329 35.5818
23.9784 32.3749
24.0241 30.5427
24.0697 29.7628
24.1154 29.3012
24.1609 29.1253
24.2066 28.792
24.2522 28.2946
24.2979 27.7842
24.3434 27.4284
24.3892 27.2487
24.4349 27.0851
24.4805 27.0461
24.5262 26.9426
24.5718 26.9362
24.6175 26.9162
24.6631 27.1147
24.7089 27.5678
24.7545 28.145
24.8002 28.2092
24.8458 27.7278
24.8916 27.045
24.9372 26.7346
24.983 26.6948
25.0286 26.4826
25.0744 26.6165
25.12 26.3909
25.1658 26.7365
25.2114 26.7617
25.2572 27.0833
25.3029 27.521
25.3487 28.3493
25.3943 28.991
25.4402 29.2619
25.4858 29.3599
25.5316 29.407
25.5773 30.0303
25.6231 30.7265
25.669 29.9466
25.7147 28.6142
25.7605 27.2197
25.8062 26.6231
25.8521 26.622
25.8977 26.68
25.9436 26.8946
25.9893 26.6299
26.0352 26.2637
26.0809 25.7175
26.1268 25.7428
26.1725 25.8583
26.2184 26.0085
26.2641 26.3082
26.31 26.9571
26.3557 27.7322
26.4017 27.8135
26.4474 27.4875
26.4933 26.7308
26.5391 26.3668
26.585 26.1653
26.6308 25.9233
26.6767 26.03
26.7225 26.1795
26.7684 26.4051
26.8142 26.7804
26.8601 27.5766
26.9059 28.8366
26.9519 29.1131
26.9979 29.1962
27.0437 28.7913
27.0896 28.5087
27.1354 27.7317
27.1814 26.8556
27.2272 25.902
27.2732 25.5291
27.3191 25.1446
27.3651 25.1293
27.4109 24.9028
27.4569 24.7468
27.5027 24.7215
27.5488 24.9694
27.5946 24.8526
27.6407 24.9082
27.6865 24.9307
27.7326 24.9429
27.7784 25.1742
27.8245 25.3621
27.8703 25.44
27.9164 25.1418
27.9623 24.9729
28.0084 24.7582
28.0543 25.0443
28.1003 25.4028
28.1462 25.6663
28.1923 25.7602
28.2384 25.5861
28.2843 26.0723
28.3304 26.8865
28.3764 27.1775
28.4225 26.7884
28.4684 26.3226
28.5145 25.8644
28.5605 25.6422
28.6066 25.0987
28.6526 24.5226
28.6987 24.3678
28.7447 23.7392
28.7908 23.3159
28.8368 23.2392
28.8829 23.093
28.9289 22.9681
28.9751 22.8291
29.0211 22.7896
29.0673 22.789
29.1133 22.8904
29.1595 23.0606
29.2055 23.1032
29.2517 23.1177
29.2977 22.8356
29.3439 22.5464
29.3899 22.2454
29.4361 22.1698
29.4824 22.0735
29.5284 22.0967
29.5746 22.0958
29.6207 22.1213
29.6669 22.3244
29.713 22.432
29.7593 22.3932
29.8053 22.1123
29.8516 21.7702
29.8977 21.7051
29.9439 21.4274
29.99 21.2696
30.0363 21.256
30.0824 21.3427
30.1287 21.4065
30.1748 21.4094
30.2211 21.4691
30.2673 21.2932
30.3136 21.1605
30.3597 21.0983
30.406 21.2105
30.4522 21.1707
30.4985 21.2427
30.5447 21.3328
30.591 21.345
30.6372 21.2562
30.6835 20.9077
30.7297 20.9498
30.7761 20.9861
30.8224 20.9944
30.8686 21.1148
30.915 21.2158
30.9612 21.4986
31.0076 21.8123
31.0538 22.037
31.1002 21.9982
31.1464 21.7214
31.1928 21.6096
31.2391 21.4291
31.2855 20.9838
31.3317 20.8382
31.3781 20.6782
31.4244 20.6025
31.4708 20.4952
31.5171 20.4575
31.5636 20.4752
31.6098 20.5407
31.6563 20.5048
31.7026 20.6192
31.7491 20.7111
31.7953 20.895
31.8418 20.9621
31.8881 20.8334
31.9346 20.5031
31.9809 20.3846
32.0275 20.104
32.074 20.1423
32.1203 20.1245
32.1668 20.1993
32.2132 20.3864
32.2597 20.4287
32.306 20.4376
32.3526 20.3204
32.399 20.0927
32.4455 19.8677
32.4919 19.745
32.5385 19.5702
32.5848 19.3398
32.6314 19.3132
32.6778 19.1897
32.7244 19.0417
32.7708 18.8879
32.8174 18.8746
32.8638 18.8709
32.9104 18.7904
32.9569 18.8026
33.0035 18.8097
33.0499 18.8302
33.0966 18.7782
33.143 18.7032
33.1897 18.5704
33.2361 18.4495
33.2828 18.5265
33.3293 18.3675
33.3759 18.4801
33.4226 18.4975
33.4691 18.5896
33.5158 18.6096
33.5623 18.6879
33.609 18.6086
33.6555 18.5468
33.7022 18.4211
33.7487 18.2452
33.7954 18.0799
33.842 17.9045
33.8887 17.7407
33.9353 17.8504
33.982 17.6366
34.0286 17.644
34.0753 17.7062
34.1219 17.5355
34.1687 17.5512
34.2152 17.4975
34.262 17.5402
34.3086 17.3696
34.3554 17.3162
34.402 17.1562
34.4488 17.1215
34.4954 17.0496
34.5422 16.9991
34.5889 17.0049
34.6357 16.9871
34.6825 16.9634
34.7292 16.9276
34.776 16.8687
34.8227 16.7387
34.8695 16.6975
34.9162 16.5782
34.9631 16.4899
35.0098 16.5502
35.0566 16.3449
35.1033 16.3669
35.1502 16.3881
35.1969 16.3485
35.2438 16.3656
35.2906 16.326
35.3375 16.2309
35.3842 16.2166
35.4311 16.2143
35.4779 16.2279
35.5248 16.1906
35.5716 16.1432
35.6185 16.1602
35.6653 16.1907
35.7123 16.2599
35.759 16.2644
35.806 16.259
35.8528 16.3056
35.8998 16.2071
35.9468 16.1332
35.9936 16.0192
36.0406 15.9016
36.0874 15.8407
36.1345 15.6852
36.1813 15.5727
36.2283 15.5821
36.2752 15.4991
36.3222 15.5088
36.3691 15.476
36.4161 15.4726
36.463 15.4682
36.5101 15.475
36.557 15.4856
36.6041 15.2937
36.651 15.311
36.6981 15.2235
36.745 15.1844
36.7921 15.1248
36.839 15.0851
36.8861 15.0817
36.9331 15.0548
36.9802 15.0258
37.0272 15.0182
37.0743 14.9373
37.1213 14.8458
37.1684 14.713
37.2154 14.6884
37.2626 14.5908
37.3098 14.6008
37.3568 14.5592
37.404 14.483
37.451 14.4718
37.4982 14.3787
37.5452 14.3398
37.5924 14.3006
37.6395 14.3639
37.6867 14.1999
37.7337 14.1755
37.781 14.1421
37.8281 14.0572
37.8753 14.0428
37.9224 13.9775
37.9697 13.923
38.0168 13.9527
38.064 13.8928
38.1111 13.9018
38.1584 13.7939
38.2056 13.8161
38.2529 13.7032
38.3 13.6595
38.3473 13.6164
38.3945 13.5952
38.4418 13.5124
38.489 13.4905
38.5363 13.4245
38.5837 13.3575
38.6309 13.3433
38.6782 13.3739
38.7254 13.2973
38.7728 13.2707
38.82 13.2029
38.8674 13.1941
38.9146 13.1378
38.9621 13.1335
39.0093 13.0286
39.0567 13.0711
39.104 13.0671
39.1514 12.9261
39.1987 12.9537
39.2461 12.8521
39.2934 12.8501
39.3409 12.7354
39.3882 12.7378
39.4356 12.6588
39.483 12.6124
39.5304 12.6126
39.5778 12.6076
39.6253 12.5255
39.6726 12.4662
39.7201 12.4394
39.7675 12.3914
39.815 12.3751
39.8624 12.3572
39.9099 12.3332
39.9575 12.2303
40.0049 12.2374
40.0525 12.2326
40.0999 12.1906
40.1474 12.197
40.1949 12.1387
40.2425 12.0736
40.2899 12.1089
40.3375 12.0489
40.385 12.0035
40.4326 11.9069
40.48 11.871
40.5277 11.8158
40.5752 11.8051
40.6228 11.7959
40.6703 11.7969
40.718 11.7094
40.7655 11.7065
40.8132 11.6426
40.8607 11.6746
40.9084 11.5746
40.9559 11.5889
41.0036 11.5959
41.0512 11.5383
41.0989 11.4731
41.1465 11.4609
41.1942 11.4697
41.242 11.3946
41.2896 11.3347
41.3373 11.2774
41.3849 11.2791
41.4327 11.2477
41.4803 11.1511
41.5281 11.1521
41.5758 11.1378
41.6236 11.0136
41.6712 11.0245
41.7191 11.0055
41.7667 10.9633
41.8146 10.9347
41.8622 10.8417
41.9101 10.9153
41.9578 10.804
42.0057 10.8305
42.0534 10.7705
42.1013 10.7856
42.149 10.6727
42.1969 10.7442
42.2446 10.6421
42.2925 10.6055
42.3403 10.6194
42.3882 10.4848
42.436 10.4746
42.4839 10.4188
42.5319 10.3914
42.5797 10.3378
42.6277 10.3429
42.6755 10.3362
42.7235 10.2988
42.7713 10.2595
42.8193 10.1897
42.8671 10.1635
42.9152 10.1152
42.963 10.0929
43.0111 10.0481
43.0589 10.0222
43.107 9.98972
43.1549 9.96098
43.2029 9.91814
43.2508 9.91616
43.2989 9.85216
43.3468 9.8092
43.3949 9.77367
43.4429 9.78167
43.491 9.73115
43.5389 9.69267
43.5871 9.66475
43.635 9.63364
43.6832 9.61167
43.7312 9.52302
43.7793 9.52361
43.8273 9.51683
43.8755 9.46599
43.9237 9.45421
43.9717 9.49143
44.0199 9.3794
44.068 9.36917
44.1162 9.35156
44.1642 9.29696
44.2125 9.28558
44.2606 9.28584
44.3088 9.22973
44.3569 9.16166
44.4052 9.18746
44.4533 9.13713
44.5016 9.08369
44.5497 9.06545
44.598 9.02346
44.6461 8.99998
44.6945 8.99357
44.7426 8.87918
44.791 8.88006
44.8391 8.87618
44.8875 8.89278
44.9357 8.83773
44.984 8.78102
45.0322 8.78702
45.0806 8.73951
45.1288 8.71176
45.1773 8.7007
45.2257 8.65795
45.2739 8.64865
45.3224 8.64313
45.3706 8.56581
45.4191 8.53355
45.4673 8.52496
45.5158 8.4812
45.5641 8.44434
45.6126 8.46771
45.6609 8.38385
45.7094 8.35606
45.7577 8.34565
45.8063 8.32515
45.8546 8.27515
45.9031 8.25537
45.9515 8.25356
46.0001 8.22625
46.0484 8.16168
46.097 8.11011
46.1454 8.12989
46.194 8.09448
46.2424 8.04744
46.291 8.04554
46.3395 8.00825
46.3881 7.9811
46.4365 7.96066
46.4852 7.92197
46.5337 7.88648
46.5823 7.88418
46.631 7.83178
46.6795 7.81356
46.7282 7.80573
46.7767 7.74038
46.8254 7.7052
46.8739 7.70987
46.9226 7.64326
46.9712 7.63495
47.0199 7.60342
47.0685 7.5861
47.1173 7.54969
47.1658 7.53512
47.2146 7.49633
47.2632 7.48388
47.312 7.46056
47.3606 7.41085
47.4095 7.36439
47.4581 7.37201
47.5069 7.32975
47.5556 7.28079
47.6044 7.26759
47.6531 7.28639
47.702 7.24157
47.7507 7.24929
47.7996 7.18369
47.8483 7.18354
47.8972 7.15288
47.9461 7.10494
47.9948 7.06638
48.0438 7.04094
48.0925 7.04314
48.1415 7.01374
48.1902 6.97739
48.2392 6.97053
48.288 6.95071
48.337 6.87557
48.3858 6.86409
48.4348 6.85531
48.4837 6.83565
48.5327 6.82934
48.5815 6.80457
48.6306 6.76615
48.6795 6.775
48.7285 6.69748
48.7774 6.70772
48.8265 6.67147
48.8754 6.64987
48.9245 6.65836
48.9734 6.60252
49.0226 6.5616
49.0715 6.55545
49.1206 6.56443
49.1696 6.51306
49.2188 6.46464
49.2679 6.44665
49.3169 6.42548
49.3661 6.39858
49.4151 6.41199
49.4643 6.35901
49.5134 6.32473
49.5626 6.31791
49.6117 6.31963
49.6609 6.27748
49.71 6.26066
49.7592 6.20155
49.8083 6.22251
49.8576 6.2076
49.9067 6.16934
49.956 6.14194
50.0052 6.10308
50.0545 6.1078
50.1036 6.06918
50.153 6.01494
50.2022 6.03812
50.2515 6.00863
50.3007 5.98013
50.3501 5.93698
50.3993 5.92734
50.4487 5.93511
50.498 5.91135
50.5474 5.87523
50.5966 5.87195
50.6461 5.8284
50.6955 5.83405
50.7448 5.81009
50.7943 5.78144
50.8436 5.79399
50.8931 5.75106
50.9424 5.70387
50.9919 5.67201
51.0413 5.68986
51.0908 5.65517
51.1402 5.65342
51.1897 5.59135
51.2391 5.5991
51.2887 5.57314
51.3381 5.48616
51.3877 5.54054
51.4371 5.49699
51.4867 5.45883
51.5362 5.48928
51.5858 5.44476
51.6353 5.41457
51.6849 5.41287
51.7344 5.36539
51.7841 5.35456
51.8336 5.30904
51.8833 5.32319
51.9328 5.27797
51.9826 5.27616
52.0323 5.25887
52.0818 5.21123
52.1316 5.16067
52.1812 5.18966
52.231 5.18011
52.2806 5.12112
52.3304 5.1271
52.38 5.11433
52.4298 5.0821
52.4794 5.05806
52.5293 5.06341
52.5789 5.02504
52.6288 5.00813
52.6785 4.96944
52.7284 4.96307
52.7781 4.99586
52.828 4.9403
52.8777 4.88809
52.9276 4.89255
52.9774 4.86982
53.0273 4.83667
53.0771 4.85705
53.1271 4.81881
53.1769 4.78333
53.2269 4.77856
53.2767 4.7461
53.3267 4.73571
53.3765 4.7199
53.4266 4.68837
53.4766 4.65963
53.5265 4.62174
53.5765 4.6494
53.6264 4.60829
53.6765 4.59718
53.7264 4.57466
53.7765 4.59108
53.8265 4.52482
53.8766 4.50077
53.9266 4.4527
53.9767 4.45939
54.0267 4.44427
54.0769 4.39719
54.1269 4.36906
54.1771 4.38164
54.2271 4.37329
54.2773 4.31412
54.3274 4.31003
54.3776 4.25027
54.4277 4.25543
54.478 4.22737
54.528 4.17062
54.5783 4.16927
54.6285 4.12763
54.6788 4.06203
54.7289 4.03957
54.7792 3.99558
54.8296 3.96335
54.8798 3.96517
54.9301 3.91261
54.9803 3.88219
55.0307 3.90543
55.0809 3.84393
55.1314 3.78783
55.1816 3.73102
55.232 3.77799
55.2823 3.72514
55.3328 3.67864
55.383 3.60353
55.4335 3.6269
55.4838 3.59626
55.5344 3.50232
55.5847 3.47691
55.6352 3.48855
55.6856 3.50125
55.7361 3.4621