File: XRD/Ni3Fe_FD0710.xy
TT I
1.27165 7.56996
1.31627 6.30988
1.36089 6.4293
1.40551 5.67162
1.45013 6.1226
1.49476 6.69121
1.53938 5.33364
1.584 5.31803
1.62863 4.82137
1.67325 4.77457
1.71787 5.14844
1.7625 4.83207
1.80712 4.70885
1.85174 4.35326
1.89636 4.44378
1.94099 5.16665
1.98562 4.85222
2.03025 4.73786
2.07487 4.66769
2.11949 4.72985
2.16411 4.81965
2.20874 7.96027
2.25338 11.2443
2.298 5.41203
2.34263 5.3709
2.38725 5.81982
2.43188 6.64596
2.4765 6.38504
2.52115 6.41771
2.56577 7.83343
2.6104 7.89342
2.65503 7.84074
2.69965 8.47447
2.7443 7.84714
2.78893 7.69768
2.83356 8.43153
2.87818 8.05045
2.92281 8.93284
2.96744 9.05409
3.01209 10.3534
3.05672 10.4869
3.10135 12.0306
3.14599 13.0289
3.19062 14.0724
3.23527 14.8029
3.2799 15.5409
3.32454 16.9151
3.36917 17.4876
3.4138 18.4247
3.45844 18.9387
3.50309 20.4286
3.54773 21.2949
3.59237 23.0471
3.637 49.0767
3.68164 36.1574
3.7263 25.4604
3.77094 25.5467
3.81558 26.123
3.86022 27.061
3.90486 28.6019
3.9495 29.6072
3.99416 30.6326
4.0388 31.8204
4.08344 33.1265
4.12809 34.3715
4.17273 35.8251
4.21738 39.2167
4.26204 118.157
4.30669 102.903
4.35133 44.4671
4.39598 43.556
4.44063 48.5233
4.4853 53.4592
4.52995 56.8853
4.5746 56.9901
4.61925 53.2943
4.6639 55.3698
4.70855 58.4658
4.75322 61.8733
4.79788 67.9201
4.84253 68.4903
4.88719 75.2953
4.93184 76.399
4.97652 81.8799
5.02118 87.851
5.06583 95.4058
5.11049 107.574
5.15515 157.464
5.19981 432.938
5.24449 3077.02
5.28916 12794.8
5.33382 2637.99
5.37848 198.09
5.42315 131.794
5.46783 119.874
5.5125 112.347
5.55716 102.607
5.60183 98.6553
5.6465 96.7345
5.69117 94.464
5.73586 93.2748
5.78053 98.5324
5.8252 98.4994
5.86988 101.234
5.91455 96.6805
5.95924 106.809
6.00392 257.68
6.0486 1045.29
6.09328 4637.25
6.13795 3065.76
6.18263 217.95
6.22733 90.9159
6.27201 80.6446
6.3167 84.5123
6.36138 74.6522
6.40606 69.9738
6.45075 69.5166
6.49545 65.6823
6.54014 63.3729
6.58483 63.1186
6.62952 63.0653
6.67421 72.7838
6.71892 89.292
6.76361 62.1242
6.8083 59.4904
6.853 59.4728
6.89769 56.5532
6.94239 56.1472
6.98711 55.374
7.03181 55.6129
7.07651 55.0155
7.12121 54.6164
7.16591 56.2382
7.21063 55.2285
7.25533 60.262
7.30004 97.8114
7.34475 67.542
7.38945 55.1431
7.43416 53.8724
7.47889 53.9176
7.5236 54.1095
7.56831 54.7163
7.61303 55.1899
7.65774 56.0541
7.70247 56.7583
7.74719 56.3612
7.79191 56.1257
7.83663 56.5605
7.88135 57.6672
7.92607 58.5371
7.97081 59.5487
8.01553 61.0554
8.06026 62.9219
8.10498 64.0356
8.14971 70.9835
8.19446 70.7139
8.23919 69.2978
8.28392 71.6067
8.32865 74.4817
8.37339 78.3392
8.41812 84.2063
8.46288 104.351
8.50761 189.669
8.55235 412.23
8.59709 1250.37
8.64183 2180.8
8.68658 844.952
8.73134 147.729
8.77609 98.3996
8.82083 92.8354
8.86558 92.3063
8.91033 92.2722
8.9551 89.8236
8.99985 85.3218
9.04461 84.1959
9.08936 84.4553
9.13412 83.2574
9.17888 82.3575
9.22365 82.2616
9.26841 82.381
9.31318 84.6657
9.35794 86.7318
9.4027 85.9409
9.44749 85.2523
9.49226 85.1141
9.53703 85.8567
9.5818 89.6038
9.62657 94.3717
9.67134 95.309
9.71614 93.199
9.76091 95.0973
9.80569 99.3791
9.85047 101.662
9.89525 112.273
9.94005 129.241
9.98484 200.832
10.0296 366.588
10.0744 858.761
10.1192 1801.55
10.164 1534.61
10.2088 359.55
10.2536 122.182
10.2984 109.93
10.3432 108.07
10.388 106.192
10.4328 124.693
10.4776 166.92
10.5224 295.556
10.5672 523.401
10.612 494.98
10.6568 190.091
10.7017 93.8948
10.7465 86.1249
10.7913 82.9003
10.8361 81.0601
10.8809 78.876
10.9257 77.9631
10.9706 77.8931
11.0154 75.3775
11.0602 72.829
11.105 71.5305
11.1499 71.968
11.1947 74.2337
11.2395 70.0567
11.2844 68.3153
11.3292 66.8074
11.374 65.9085
11.4189 65.5593
11.4637 64.5206
11.5086 64.6417
11.5534 65.1508
11.5983 63.9584
11.6431 63.0326
11.688 62.6418
11.7328 63.0848
11.7777 62.5949
11.8225 62.7782
11.8674 62.7868
11.9122 62.921
11.9571 63.0822
12.002 64.65
12.0468 69.6641
12.0917 79.527
12.1366 105.555
12.1814 156.556
12.2263 206.922
12.2712 156.92
12.3161 87.5743
12.3609 66.8276
12.4058 64.0558
12.4507 64.184
12.4956 64.7769
12.5405 64.6581
12.5853 65.2023
12.6302 67.9844
12.6751 70.7011
12.72 68.2233
12.7649 67.6868
12.8098 68.0691
12.8547 70.0099
12.8996 71.5091
12.9445 73.0554
12.9894 74.8223
13.0343 76.081
13.0792 80.7222
13.1242 94.1465
13.1691 114.417
13.214 154.151
13.2589 250.678
13.3038 381.242
13.3487 415.409
13.3937 245.269
13.4386 120.329
13.4835 108.567
13.5285 123.324
13.5734 165.864
13.6183 259.91
13.6633 359.228
13.7082 328.439
13.7531 172.763
13.7981 94.2844
13.843 81.4165
13.888 79.3023
13.9329 77.2612
13.9779 75.8879
14.0228 74.5748
14.0678 72.9383
14.1127 72.4876
14.1577 72.0577
14.2027 71.3525
14.2476 70.4202
14.2926 70.1776
14.3376 69.9108
14.3825 69.6694
14.4275 68.6703
14.4725 68.8689
14.5175 68.8193
14.5624 69.0259
14.6074 69.9375
14.6524 70.4522
14.6974 70.7173
14.7424 74.5415
14.7874 80.5641
14.8324 90.9506
14.8774 115.062
14.9224 160.107
14.9674 213.223
15.0124 215.104
15.0574 139.224
15.1024 86.1438
15.1474 71.8365
15.1924 70.1878
15.2374 69.4899
15.2824 68.5766
15.3274 67.37
15.3725 66.6144
15.4175 66.1957
15.4625 65.8663
15.5076 65.5451
15.5526 66.0448
15.5976 65.9816
15.6426 68.629
15.6877 73.7475
15.7327 80.9572
15.7778 97.1479
15.8228 130.873
15.8679 175.281
15.9129 194.994
15.958 148.756
16.003 91.007
16.0481 66.4713
16.0931 62.9364
16.1382 61.1151
16.1833 60.1759
16.2283 58.6465
16.2734 58.0614
16.3185 57.5889
16.3636 57.7118
16.4086 56.6567
16.4537 55.9057
16.4988 55.1786
16.5439 55.3923
16.589 55.1168
16.6341 54.6578
16.6792 54.4588
16.7243 54.7712
16.7694 54.6356
16.8145 54.6356
16.8596 54.9392
16.9047 55.3515
16.9498 55.6702
16.9949 55.2774
17.04 56.0676
17.0851 57.152
17.1302 58.6299
17.1754 61.9458
17.2205 67.3931
17.2656 75.4407
17.3108 83.3507
17.3559 81.3854
17.401 69.4977
17.4462 61.5268
17.4913 59.1394
17.5365 58.9504
17.5815 59.1532
17.6268 59.6267
17.6718 60.1418
17.7171 60.47
17.7622 61.2765
17.8074 62.6347
17.8525 65.6558
17.8977 68.887
17.9428 74.5671
17.9881 84.1759
18.0331 102.934
18.0784 125.994
18.1237 141.181
18.1688 129.883
18.214 100.28
18.2591 85.9921
18.3044 91.6308
18.3495 100.888
18.3948 105.395
18.4399 93.0267
18.4852 74.8516
18.5303 64.9133
18.5756 61.8829
18.6207 61.0658
18.666 60.331
18.7112 59.6212
18.7565 59.0159
18.8016 58.502
18.8469 58.0683
18.892 57.7442
18.9374 57.1755
18.9825 57.0085
19.0278 56.7053
19.073 57.1455
19.1183 57.2757
19.1635 57.8809
19.2088 59.4071
19.254 62.5519
19.2993 67.2377
19.3447 73.0856
19.3898 75.9023
19.4352 70.7901
19.4804 61.8688
19.5257 56.2049
19.5709 53.9055
19.6163 53.7741
19.6615 53.534
19.7068 53.2646
19.752 53.3169
19.7974 53.6933
19.8426 54.4264
19.888 55.0204
19.9332 56.2901
19.9786 59.2689
20.0238 63.0764
20.0692 67.7737
20.1144 69.5742
20.1598 67.5425
20.205 63.0724
20.2504 62.2134
20.2957 64.1775
20.3411 65.3616
20.3863 63.1708
20.4318 57.2266
20.477 52.6637
20.5224 50.9855
20.5677 50.6
20.6131 49.9583
20.6586 49.3947
20.7038 49.326
20.7493 48.995
20.7945 48.8722
20.84 48.7855
20.8853 48.6704
20.9307 48.4562
20.976 48.7149
21.0215 48.6232
21.0668 48.9013
21.1122 49.6002
21.1575 50.3352
21.203 50.9371
21.2483 51.407
21.2938 51.353
21.3391 49.8277
21.3846 48.7945
21.4299 48.3547
21.4754 48.4493
21.5207 48.5124
21.5662 48.9542
21.6116 49.47
21.6571 49.8759
21.7024 50.7396
21.7479 53.1328
21.7933 55.8887
21.8388 59.6555
21.8843 63.2282
21.9297 65.0285
21.9752 62.7293
22.0206 58.656
22.0661 56.0903
22.1115 55.9779
22.157 55.7981
22.2024 53.6853
22.248 51.0099
22.2933 49.6292
22.3389 48.9724
22.3843 48.8537
22.4299 48.6288
22.4753 48.6312
22.5208 48.6373
22.5662 48.502
22.6118 48.8343
22.6572 48.9432
22.7028 49.3323
22.7483 49.6244
22.7939 50.7297
22.8393 52.1398
22.8849 54.5046
22.9303 56.3258
22.9759 57.8181
23.0214 56.9121
23.067 53.9635
23.1126 50.7013
23.1581 49.0106
23.2037 48.7552
23.2492 48.7829
23.2948 48.8118
23.3403 49.2797
23.3859 49.7131
23.4314 50.9898
23.477 52.8579
23.5225 55.3519
23.5682 57.2672
23.6137 57.8226
23.6593 54.8119
23.7048 50.884
23.7505 47.8397
23.796 46.4802
23.8417 45.9337
23.8872 45.4593
23.9329 45.0844
23.9784 44.83
24.0241 44.5477
24.0697 44.2136
24.1154 44.2288
24.1609 43.7433
24.2066 43.6722
24.2522 43.5781
24.2979 43.2697
24.3434 43.1638
24.3892 42.9837
24.4349 43.0598
24.4805 42.9244
24.5262 43.1019
24.5718 42.8573
24.6175 42.8162
24.6631 42.766
24.7089 42.4461
24.7545 42.2552
24.8002 42.1616
24.8458 42.2373
24.8916 42.039
24.9372 42.2257
24.983 42.5154
25.0286 42.8734
25.0744 43.3542
25.12 43.7638
25.1658 44.4338
25.2114 44.5743
25.2572 44.7022
25.3029 44.6211
25.3487 44.9186
25.3943 44.4123
25.4402 43.1831
25.4858 42.133
25.5316 41.1761
25.5773 40.8479
25.6231 40.7395
25.669 40.4811
25.7147 40.5978
25.7605 40.3757
25.8062 40.5429
25.8521 40.5509
25.8977 40.4297
25.9436 40.9002
25.9893 41.0227
26.0352 41.4815
26.0809 41.6146
26.1268 41.6671
26.1725 41.2239
26.2184 40.618
26.2641 40.2191
26.31 40.1005
26.3557 40.1813
26.4017 40.1363
26.4474 40.3788
26.4933 40.6708
26.5391 41.2326
26.585 41.7252
26.6308 42.0779
26.6767 42.1686
26.7225 41.7898
26.7684 41.3557
26.8142 40.7772
26.8601 40.3044
26.9059 39.868
26.9519 39.3405
26.9979 39.0652
27.0437 38.85
27.0896 38.7113
27.1354 38.6975
27.1814 38.678
27.2272 38.5137
27.2732 38.4478
27.3191 38.292
27.3651 38.5152
27.4109 38.4327
27.4569 38.422
27.5027 38.5009
27.5488 38.5359
27.5946 38.2459
27.6407 38.1196
27.6865 37.9091
27.7326 37.8499
27.7784 37.8606
27.8245 37.8404
27.8703 37.9272
27.9164 38.3143
27.9623 38.3505
28.0084 38.7572
28.0543 39.057
28.1003 38.9903
28.1462 38.7586
28.1923 38.2156
28.2384 37.9711
28.2843 37.4696
28.3304 37.0014
28.3764 36.5629
28.4225 36.3197
28.4684 36.2457
28.5145 35.9349
28.5605 35.7105
28.6066 35.568
28.6526 35.5316
28.6987 35.5169
28.7447 35.4846
28.7908 35.3668
28.8368 35.3172
28.8829 35.2756
28.9289 35.3243
28.9751 35.0366
29.0211 34.8377
29.0673 34.5679
29.1133 34.5136
29.1595 34.3482
29.2055 34.3334
29.2517 34.2874
29.2977 34.2797
29.3439 34.2063
29.3899 34.2111
29.4361 34.0957
29.4824 33.8534
29.5284 33.6735
29.5746 33.2756
29.6207 33.0684
29.6669 33.0238
29.713 32.8688
29.7593 32.8009
29.8053 32.8005
29.8516 32.674
29.8977 32.7607
29.9439 32.5352
29.99 32.5094
30.0363 32.4351
30.0824 32.4369
30.1287 32.3632
30.1748 32.5153
30.2211 32.3657
30.2673 32.2107
30.3136 32.3198
30.3597 32.2291
30.406 32.1401
30.4522 31.9429
30.4985 32.0426
30.5447 32.1973
30.591 32.0373
30.6372 32.1922
30.6835 32.1241
30.7297 32.2989
30.7761 31.9864
30.8224 31.9071
30.8686 31.8043
30.915 31.4685
30.9612 31.4037
31.0076 31.2591
31.0538 31.1179
31.1002 31.0747
31.1464 30.7736
31.1928 30.7933
31.2391 30.8915
31.2855 30.8654
31.3317 30.8549
31.3781 30.9273
31.4244 30.9683
31.4708 30.7219
31.5171 30.707
31.5636 30.5333
31.6098 30.4106
31.6563 30.2814
31.7026 30.2702
31.7491 30.0703
31.7953 30.1148
31.8418 30.0582
31.8881 30.198
31.9346 30.0488
31.9809 30.0352
32.0275 29.7754
32.074 29.7745
32.1203 29.6392
32.1668 29.5291
32.2132 29.1934
32.2597 29.1261
32.306 29.1237
32.3526 28.8677
32.399 28.805
32.4455 28.6699
32.4919 28.5928
32.5385 28.5737
32.5848 28.4078
32.6314 28.3757
32.6778 28.3813
32.7244 28.2487
32.7708 28.1064
32.8174 28.0731
32.8638 27.8645
32.9104 27.9488
32.9569 27.9159
33.0035 27.7963
33.0499 27.7936
33.0966 27.7658
33.143 27.7879
33.1897 27.5812
33.2361 27.5266
33.2828 27.463
33.3293 27.3058
33.3759 27.2885
33.4226 27.2235
33.4691 27.0166
33.5158 26.9979
33.5623 26.8212
33.609 26.6306
33.6555 26.6483
33.7022 26.564
33.7487 26.4319
33.7954 26.3975
33.842 26.2498
33.8887 26.2743
33.9353 26.2362
33.982 26.1312
34.0286 26.006
34.0753 25.9423
34.1219 25.9362
34.1687 25.7368
34.2152 25.6916
34.262 25.5636
34.3086 25.5489
34.3554 25.4566
34.402 25.3523
34.4488 25.218
34.4954 25.1973
34.5422 25.1504
34.5889 25.0419
34.6357 24.8391
34.6825 24.8434
34.7292 24.7632
34.776 24.6188
34.8227 24.6648
34.8695 24.5588
34.9162 24.4406
34.9631 24.4478
35.0098 24.414
35.0566 24.3722
35.1033 24.2523
35.1502 24.2461
35.1969 24.0961
35.2438 24.1166
35.2906 24.003
35.3375 23.9774
35.3842 23.9272
35.4311 23.8839
35.4779 23.9066
35.5248 23.8354
35.5716 23.7561
35.6185 23.7034
35.6653 23.5583
35.7123 23.4603
35.759 23.4142
35.806 23.3121
35.8528 23.1609
35.8998 23.2622
35.9468 23.1041
35.9936 23.0268
36.0406 22.9341
36.0874 22.9505
36.1345 22.8481
36.1813 22.763
36.2283 22.6924
36.2752 22.6588
36.3222 22.612
36.3691 22.4868
36.4161 22.439
36.463 22.3943
36.5101 22.3716
36.557 22.3455
36.6041 22.2528
36.651 22.1863
36.6981 22.0828
36.745 21.9073
36.7921 21.9524
36.839 21.823
36.8861 21.7318
36.9331 21.7206
36.9802 21.5933
37.0272 21.5793
37.0743 21.3726
37.1213 21.3994
37.1684 21.2876
37.2154 21.3336
37.2626 21.1799
37.3098 21.1951
37.3568 21.0713
37.404 21.0452
37.451 21.0441
37.4982 20.9271
37.5452 20.7736
37.5924 20.7178
37.6395 20.7642
37.6867 20.6509
37.7337 20.5102
37.781 20.4549
37.8281 20.4279
37.8753 20.3611
37.9224 20.3301
37.9697 20.1649
38.0168 20.1183
38.064 20.1769
38.1111 20.0675
38.1584 19.9611
38.2056 19.9293
38.2529 19.8632
38.3 19.7865
38.3473 19.7787
38.3945 19.7012
38.4418 19.6236
38.489 19.5408
38.5363 19.3887
38.5837 19.3462
38.6309 19.3623
38.6782 19.362
38.7254 19.197
38.7728 19.1542
38.82 19.0869
38.8674 19.0026
38.9146 18.9676
38.9621 18.9505
39.0093 18.8691
39.0567 18.7874
39.104 18.7204
39.1514 18.5974
39.1987 18.6719
39.2461 18.5712
39.2934 18.521
39.3409 18.4033
39.3882 18.3141
39.4356 18.2539
39.483 18.2992
39.5304 18.1752
39.5778 18.1752
39.6253 18.1186
39.6726 18.0439
39.7201 17.9994
39.7675 17.9469
39.815 17.8652
39.8624 17.8354
39.9099 17.7493
39.9575 17.7053
40.0049 17.6057
40.0525 17.599
40.0999 17.5253
40.1474 17.5031
40.1949 17.376
40.2425 17.3673
40.2899 17.3529
40.3375 17.2586
40.385 17.2302
40.4326 17.136
40.48 17.0042
40.5277 17.0602
40.5752 16.9636
40.6228 16.9072
40.6703 16.9206
40.718 16.8486
40.7655 16.7277
40.8132 16.6865
40.8607 16.6401
40.9084 16.5686
40.9559 16.5252
41.0036 16.5305
41.0512 16.4321
41.0989 16.4586
41.1465 16.3407
41.1942 16.3089
41.242 16.2148
41.2896 16.1512
41.3373 16.1349
41.3849 16.0898
41.4327 16.0394
41.4803 15.9297
41.5281 15.9384
41.5758 15.8439
41.6236 15.7599
41.6712 15.7581
41.7191 15.7363
41.7667 15.6278
41.8146 15.6349
41.8622 15.5247
41.9101 15.4951
41.9578 15.3737
42.0057 15.3782
42.0534 15.2847
42.1013 15.2737
42.149 15.2656
42.1969 15.1624
42.2446 15.1173
42.2925 15.0804
42.3403 15.0465
42.3882 15.0035
42.436 14.9386
42.4839 14.8264
42.5319 14.8326
42.5797 14.7592
42.6277 14.7066
42.6755 14.676
42.7235 14.608
42.7713 14.5652
42.8193 14.5028
42.8671 14.4646
42.9152 14.4377
42.963 14.3382
43.0111 14.3353
43.0589 14.2951
43.107 14.1461
43.1549 14.1647
43.2029 14.1583
43.2508 14.1187
43.2989 14.0264
43.3468 13.9469
43.3949 13.9568
43.4429 13.8895
43.491 13.8258
43.5389 13.7927
43.5871 13.7446
43.635 13.6854
43.6832 13.6539
43.7312 13.5779
43.7793 13.5342
43.8273 13.5498
43.8755 13.4402
43.9237 13.4266
43.9717 13.3854
44.0199 13.3167
44.068 13.2795
44.1162 13.1431
44.1642 13.253
44.2125 13.1791
44.2606 13.0862
44.3088 13.0503
44.3569 13.0387
44.4052 12.9499
44.4533 12.9181
44.5016 12.8226
44.5497 12.8703
44.598 12.8122
44.6461 12.7474
44.6945 12.6976
44.7426 12.6441
44.791 12.5824
44.8391 12.5367
44.8875 12.4962
44.9357 12.473
44.984 12.4238
45.0322 12.3374
45.0806 12.3402
45.1288 12.2538
45.1773 12.236
45.2257 12.2311
45.2739 12.1205
45.3224 12.1024
45.3706 12.0935
45.4191 12.0244
45.4673 11.9792
45.5158 11.9247
45.5641 11.8728
45.6126 11.8869
45.6609 11.7978
45.7094 11.7996
45.7577 11.7377
45.8063 11.6906
45.8546 11.712
45.9031 11.6081
45.9515 11.595
46.0001 11.5094
46.0484 11.4611
46.097 11.4844
46.1454 11.4337
46.194 11.3736
46.2424 11.3338
46.291 11.2961
46.3395 11.2504
46.3881 11.1411
46.4365 11.15
46.4852 11.0729
46.5337 11.0722
46.5823 11.0819
46.631 11.0031
46.6795 11.0004
46.7282 10.9163
46.7767 10.9017
46.8254 10.8438
46.8739 10.7888
46.9226 10.7595
46.9712 10.703
47.0199 10.701
47.0685 10.6358
47.1173 10.619
47.1658 10.5548
47.2146 10.5233
47.2632 10.4946
47.312 10.4203
47.3606 10.3669
47.4095 10.3661
47.4581 10.299
47.5069 10.3042
47.5556 10.2372
47.6044 10.1802
47.6531 10.1444
47.702 10.1157
47.7507 10.0952
47.7996 10.0341
47.8483 10.0124
47.8972 10.0427
47.9461 9.96404
47.9948 9.88997
48.0438 9.8769
48.0925 9.86768
48.1415 9.80305
48.1902 9.77812
48.2392 9.76828
48.288 9.69939
48.337 9.66755
48.3858 9.64288
48.4348 9.63436
48.4837 9.60357
48.5327 9.52154
48.5815 9.51241
48.6306 9.45753
48.6795 9.40806
48.7285 9.38908
48.7774 9.33039
48.8265 9.39706
48.8754 9.26905
48.9245 9.26958
48.9734 9.2245
49.0226 9.19845
49.0715 9.16701
49.1206 9.09688
49.1696 9.08328
49.2188 9.00909
49.2679 9.00732
49.3169 8.9575
49.3661 8.94764
49.4151 8.90207
49.4643 8.84913
49.5134 8.84321
49.5626 8.74047
49.6117 8.8237
49.6609 8.76704
49.71 8.70169
49.7592 8.69305
49.8083 8.62525
49.8576 8.61119
49.9067 8.56942
49.956 8.52272
50.0052 8.53425
50.0545 8.46961
50.1036 8.46775
50.153 8.41567
50.2022 8.35469
50.2515 8.33907
50.3007 8.28833
50.3501 8.24528
50.3993 8.26553
50.4487 8.22933
50.498 8.19999
50.5474 8.16316
50.5966 8.12113
50.6461 8.08459
50.6955 8.05186
50.7448 8.02352
50.7943 8.01618
50.8436 7.96596
50.8931 7.92922
50.9424 7.91786
50.9919 7.84221
51.0413 7.84788
51.0908 7.81425
51.1402 7.78667
51.1897 7.752
51.2391 7.7223
51.2887 7.7136
51.3381 7.64757
51.3877 7.60395
51.4371 7.56981
51.4867 7.55418
51.5362 7.52491
51.5858 7.51436
51.6353 7.4304
51.6849 7.43346
51.7344 7.36254
51.7841 7.38835
51.8336 7.34694
51.8833 7.31719
51.9328 7.2876
51.9826 7.22334
52.0323 7.24348
52.0818 7.17891
52.1316 7.14386
52.1812 7.15058
52.231 7.10713
52.2806 7.0825
52.3304 7.05897
52.38 7.01232
52.4298 6.97201
52.4794 6.94181
52.5293 6.90847
52.5789 6.90337
52.6288 6.87748
52.6785 6.83101
52.7284 6.80486
52.7781 6.8146
52.828 6.77162
52.8777 6.72855
52.9276 6.69145
52.9774 6.68517
53.0273 6.64896
53.0771 6.63264
53.1271 6.56795
53.1769 6.56356
53.2269 6.53569
53.2767 6.56218
53.3267 6.4586
53.3765 6.49936
53.4266 6.42039
53.4766 6.4105
53.5265 6.32976
53.5765 6.35608
53.6264 6.30581
53.6765 6.30237
53.7264 6.28265
53.7765 6.25418
53.8265 6.20678
53.8766 6.16823
53.9266 6.13845
53.9767 6.14422
54.0267 6.11243
54.0769 6.02388
54.1269 6.05167
54.1771 6.03807
54.2271 5.97307
54.2773 5.90075
54.3274 5.9321
54.3776 5.87761
54.4277 5.89247
54.478 5.81801
54.528 5.75471
54.5783 5.75897
54.6285 5.69903
54.6788 5.69634
54.7289 5.635
54.7792 5.58462
54.8296 5.52312
54.8798 5.47739
54.9301 5.46459
54.9803 5.43671
55.0307 5.38747
55.0809 5.40836
55.1314 5.31973
55.1816 5.29801
55.232 5.22447
55.2823 5.19965
55.3328 5.17682
55.383 5.06738
55.4335 5.03287
55.4838 5.03387
55.5344 4.91021
55.5847 4.94947
55.6352 4.89708
55.6856 4.8451
55.7361 4.81983