File: XRD/Ni3Fe_FD0837.xy
TT I
1.27165 7.22226
1.31627 6.51779
1.36089 6.30364
1.40551 5.87769
1.45013 6.50924
1.49476 6.23401
1.53938 5.71931
1.584 5.32062
1.62863 5.27489
1.67325 4.94751
1.71787 4.3327
1.7625 4.98098
1.80712 4.72734
1.85174 4.71977
1.89636 4.7659
1.94099 4.53491
1.98562 4.58214
2.03025 4.87768
2.07487 4.26728
2.11949 4.62632
2.16411 4.54996
2.20874 10.9208
2.25338 15.9777
2.298 5.79952
2.34263 5.2942
2.38725 5.91421
2.43188 5.59649
2.4765 7.32308
2.52115 7.19368
2.56577 8.6149
2.6104 8.15713
2.65503 7.89201
2.69965 7.86788
2.7443 8.1116
2.78893 8.26675
2.83356 8.71451
2.87818 8.2945
2.92281 9.22902
2.96744 9.61138
3.01209 10.2496
3.05672 10.9744
3.10135 12.1366
3.14599 12.9555
3.19062 13.7483
3.23527 15.4383
3.2799 15.3999
3.32454 16.6685
3.36917 17.9602
3.4138 18.5499
3.45844 19.3025
3.50309 20.5059
3.54773 21.146
3.59237 23.5852
3.637 68.795
3.68164 45.9758
3.7263 25.8643
3.77094 25.9511
3.81558 26.9006
3.86022 27.2272
3.90486 28.4804
3.9495 29.5992
3.99416 30.5326
4.0388 31.9013
4.08344 33.0273
4.12809 34.6212
4.17273 36.1745
4.21738 41.2416
4.26204 180.491
4.30669 153.154
4.35133 46.3785
4.39598 43.8588
4.44063 50.9834
4.4853 58.6912
4.52995 52.3728
4.5746 52.7803
4.61925 53.0296
4.6639 55.1693
4.70855 57.7122
4.75322 61.047
4.79788 65.1803
4.84253 67.1959
4.88719 72.3942
4.93184 75.2307
4.97652 80.3636
5.02118 86.2055
5.06583 93.4147
5.11049 104.498
5.15515 158.448
5.19981 329.076
5.24449 2730.13
5.28916 12346.2
5.33382 2753.46
5.37848 182.873
5.42315 126.888
5.46783 113.806
5.5125 107.306
5.55716 101.141
5.60183 97.7985
5.6465 95.9697
5.69117 93.5968
5.73586 91.8398
5.78053 92.9143
5.8252 92.7604
5.86988 94.549
5.91455 93.5261
5.95924 100.373
6.00392 201.149
6.0486 920.491
6.09328 4394.4
6.13795 3088.43
6.18263 225.34
6.22733 89.9728
6.27201 80.5247
6.3167 91.5688
6.36138 76.2734
6.40606 68.844
6.45075 67.3792
6.49545 64.529
6.54014 63.2572
6.58483 62.4648
6.62952 62.2085
6.67421 83.4304
6.71892 111.431
6.76361 64.2284
6.8083 58.3893
6.853 58.0072
6.89769 56.4007
6.94239 55.758
6.98711 55.1803
7.03181 55.0827
7.07651 54.3806
7.12121 54.6691
7.16591 55.0432
7.21063 54.9002
7.25533 66.2668
7.30004 133.325
7.34475 76.5592
7.38945 55.0472
7.43416 53.7913
7.47889 53.5447
7.5236 54.1731
7.56831 54.3307
7.61303 56.0017
7.65774 56.133
7.70247 55.8309
7.74719 55.8813
7.79191 56.3497
7.83663 56.2208
7.88135 57.1452
7.92607 58.0825
7.97081 59.2488
8.01553 60.6427
8.06026 61.9508
8.10498 63.4926
8.14971 71.1362
8.19446 70.8431
8.23919 69.1011
8.28392 70.8907
8.32865 73.088
8.37339 77.413
8.41812 83.5438
8.46288 105.143
8.50761 159.069
8.55235 373.146
8.59709 1190.69
8.64183 2171.35
8.68658 905.716
8.73134 157.665
8.77609 97.1254
8.82083 91.4854
8.86558 89.6822
8.91033 89.6495
8.9551 89.6481
8.99985 84.5102
9.04461 83.1083
9.08936 82.606
9.13412 81.261
9.17888 81.478
9.22365 81.7513
9.26841 81.4096
9.31318 82.7822
9.35794 83.3472
9.4027 83.7115
9.44749 83.6989
9.49226 83.9626
9.53703 85.3093
9.5818 87.3162
9.62657 92.0598
9.67134 95.1337
9.71614 92.2659
9.76091 93.6142
9.80569 96.5792
9.85047 99.5395
9.89525 116.673
9.94005 126.217
9.98484 171.676
10.0296 331.369
10.0744 826.078
10.1192 1740.27
10.164 1529.06
10.2088 396.002
10.2536 123.964
10.2984 110.409
10.3432 110.255
10.388 102.954
10.4328 116.454
10.4776 158.313
10.5224 290.763
10.5672 525.41
10.612 487.001
10.6568 196.698
10.7017 95.8319
10.7465 85.5746
10.7913 82.5643
10.8361 80.7678
10.8809 78.1545
10.9257 77.7371
10.9706 77.45
11.0154 74.5514
11.0602 72.3138
11.105 71.2418
11.1499 73.6223
11.1947 77.9895
11.2395 71.6556
11.2844 68.847
11.3292 66.609
11.374 65.7518
11.4189 64.9377
11.4637 64.1454
11.5086 64.3612
11.5534 66.2497
11.5983 64.1894
11.6431 63.0671
11.688 62.4037
11.7328 62.3689
11.7777 62.2538
11.8225 61.9904
11.8674 61.4548
11.9122 61.9726
11.9571 62.2229
12.002 63.2939
12.0468 67.223
12.0917 77.4362
12.1366 102.702
12.1814 155.985
12.2263 207.672
12.2712 168.276
12.3161 92.9196
12.3609 67.8278
12.4058 63.8576
12.4507 63.5362
12.4956 64.0123
12.5405 64.0894
12.5853 64.849
12.6302 70.1405
12.6751 73.3835
12.72 68.0452
12.7649 67.1583
12.8098 67.8298
12.8547 68.9014
12.8996 70.3808
12.9445 71.8643
12.9894 73.402
13.0343 75.2619
13.0792 78.4308
13.1242 87.3773
13.1691 108.844
13.214 146.989
13.2589 245.474
13.3038 382.879
13.3487 413.233
13.3937 252.671
13.4386 122.417
13.4835 103.862
13.5285 118.05
13.5734 158.63
13.6183 252.574
13.6633 356.505
13.7082 329.011
13.7531 179.133
13.7981 96.0965
13.843 80.9254
13.888 78.4845
13.9329 76.4524
13.9779 75.258
14.0228 73.8456
14.0678 72.4958
14.1127 71.9795
14.1577 71.2229
14.2027 70.5813
14.2476 69.547
14.2926 69.5212
14.3376 70.196
14.3825 69.0849
14.4275 68.5304
14.4725 67.9773
14.5175 68.3075
14.5624 68.3498
14.6074 70.1333
14.6524 70.3481
14.6974 69.6177
14.7424 71.5088
14.7874 77.5476
14.8324 87.426
14.8774 110.68
14.9224 157.459
14.9674 211.714
15.0124 214.071
15.0574 144.252
15.1024 89.288
15.1474 71.591
15.1924 69.6661
15.2374 69.4365
15.2824 68.8011
15.3274 67.2398
15.3725 65.9553
15.4175 65.7485
15.4625 65.2042
15.5076 65.347
15.5526 65.3892
15.5976 65.0351
15.6426 66.2884
15.6877 71.292
15.7327 78.7265
15.7778 94.859
15.8228 128.471
15.8679 172.848
15.9129 189.531
15.958 149.732
16.003 93.5088
16.0481 66.8197
16.0931 63.3118
16.1382 61.2798
16.1833 59.7347
16.2283 58.3588
16.2734 57.9617
16.3185 57.8096
16.3636 57.9859
16.4086 56.7334
16.4537 55.3928
16.4988 54.8456
16.5439 54.9502
16.589 54.453
16.6341 54.3964
16.6792 53.9238
16.7243 54.1456
16.7694 54.1743
16.8145 54.2163
16.8596 54.5828
16.9047 55.6605
16.9498 55.6272
16.9949 54.8
17.04 55.3526
17.0851 56.4135
17.1302 57.9124
17.1754 60.9507
17.2205 66.6978
17.2656 74.4808
17.3108 82.2355
17.3559 80.5915
17.401 69.6349
17.4462 61.154
17.4913 58.5692
17.5365 58.5392
17.5815 58.4686
17.6268 58.9152
17.6718 59.8282
17.7171 60.1772
17.7622 60.5972
17.8074 61.459
17.8525 63.661
17.8977 67.3961
17.9428 72.5061
17.9881 82.2823
18.0331 100.909
18.0784 123.11
18.1237 137.648
18.1688 127.083
18.214 101.9
18.2591 86.1896
18.3044 91.2337
18.3495 100.231
18.3948 103.762
18.4399 93.0397
18.4852 75.7387
18.5303 65.0234
18.5756 61.2952
18.6207 60.6291
18.666 59.9916
18.7112 58.8229
18.7565 58.3453
18.8016 58.1175
18.8469 57.3926
18.892 57.1853
18.9374 56.826
18.9825 56.4693
19.0278 56.2269
19.073 56.1433
19.1183 56.6347
19.1635 57.4032
19.2088 58.786
19.254 61.5638
19.2993 66.5197
19.3447 71.9913
19.3898 74.6309
19.4352 70.1741
19.4804 61.845
19.5257 55.9442
19.5709 53.5746
19.6163 53.2132
19.6615 53.3207
19.7068 52.7813
19.752 52.9801
19.7974 52.9106
19.8426 53.7525
19.888 54.4576
19.9332 55.3906
19.9786 58.3611
20.0238 62.3093
20.0692 67.1084
20.1144 69.0607
20.1598 67.3312
20.205 63.006
20.2504 61.91
20.2957 63.7304
20.3411 64.8252
20.3863 62.7926
20.4318 57.3187
20.477 52.89
20.5224 50.9358
20.5677 50.1889
20.6131 49.6008
20.6586 49.2494
20.7038 49.0836
20.7493 48.4334
20.7945 48.3892
20.84 48.3351
20.8853 48.1604
20.9307 48.1339
20.976 48.1804
21.0215 48.2339
21.0668 48.5247
21.1122 48.9852
21.1575 49.6439
21.203 50.2881
21.2483 50.7291
21.2938 50.7373
21.3391 49.5053
21.3846 48.2445
21.4299 47.9666
21.4754 47.8722
21.5207 48.0017
21.5662 48.2849
21.6116 48.6236
21.6571 49.1877
21.7024 50.1893
21.7479 52.1217
21.7933 55.0315
21.8388 58.7701
21.8843 62.1323
21.9297 63.6124
21.9752 62.0512
22.0206 58.5779
22.0661 56.1073
22.1115 55.3718
22.157 55.032
22.2024 53.3454
22.248 50.7619
22.2933 49.2106
22.3389 48.6073
22.3843 48.4733
22.4299 48.2374
22.4753 48.4342
22.5208 48.0216
22.5662 48.0583
22.6118 48.1192
22.6572 48.2759
22.7028 48.5909
22.7483 49.0683
22.7939 49.9435
22.8393 51.5835
22.8849 53.8951
22.9303 55.894
22.9759 56.9306
23.0214 56.3396
23.067 53.6187
23.1126 50.4688
23.1581 48.72
23.2037 48.3182
23.2492 48.2806
23.2948 48.2035
23.3403 48.5536
23.3859 49.4039
23.4314 50.2324
23.477 52.3411
23.5225 54.6826
23.5682 56.4648
23.6137 57.1659
23.6593 54.7923
23.7048 50.8143
23.7505 47.7773
23.796 46.1784
23.8417 45.4573
23.8872 45.0663
23.9329 44.8572
23.9784 44.3627
24.0241 44.1114
24.0697 44.0539
24.1154 43.6454
24.1609 43.6481
24.2066 43.3391
24.2522 43.2011
24.2979 42.8966
24.3434 42.8169
24.3892 42.6636
24.4349 42.634
24.4805 42.5603
24.5262 42.7053
24.5718 42.5165
24.6175 42.3386
24.6631 42.4608
24.7089 41.9786
24.7545 41.9801
24.8002 41.8356
24.8458 41.7178
24.8916 41.5847
24.9372 41.7202
24.983 42.0262
25.0286 42.4391
25.0744 42.9381
25.12 43.3892
25.1658 43.9018
25.2114 44.1038
25.2572 44.4354
25.3029 44.4087
25.3487 44.4246
25.3943 44.0725
25.4402 42.9272
25.4858 41.9418
25.5316 40.9514
25.5773 40.4607
25.6231 40.4951
25.669 39.9822
25.7147 40.0897
25.7605 39.8813
25.8062 40.1324
25.8521 40.0357
25.8977 40.1966
25.9436 40.4126
25.9893 40.5547
26.0352 41.003
26.0809 41.1911
26.1268 41.326
26.1725 40.8781
26.2184 40.3579
26.2641 39.8574
26.31 39.6187
26.3557 39.7011
26.4017 39.7084
26.4474 39.9599
26.4933 40.3403
26.5391 40.8784
26.585 41.339
26.6308 41.6907
26.6767 41.7009
26.7225 41.5233
26.7684 41.0386
26.8142 40.3916
26.8601 39.9981
26.9059 39.5618
26.9519 39.09
26.9979 38.8552
27.0437 38.4827
27.0896 38.3602
27.1354 38.3073
27.1814 38.2839
27.2272 38.0724
27.2732 38.0851
27.3191 37.8686
27.3651 38.1446
27.4109 37.9475
27.4569 38.0253
27.5027 38.2076
27.5488 38.2848
27.5946 37.9706
27.6407 37.7931
27.6865 37.7395
27.7326 37.4107
27.7784 37.4159
27.8245 37.3998
27.8703 37.5871
27.9164 37.9842
27.9623 38.1344
28.0084 38.2624
28.0543 38.6593
28.1003 38.5862
28.1462 38.4526
28.1923 38.0884
28.2384 37.4918
28.2843 37.121
28.3304 36.6747
28.3764 36.296
28.4225 36.052
28.4684 35.9027
28.5145 35.6184
28.5605 35.5828
28.6066 35.3262
28.6526 35.2516
28.6987 35.1991
28.7447 35.1531
28.7908 35.027
28.8368 35.0332
28.8829 35.0235
28.9289 34.9956
28.9751 34.7221
29.0211 34.5156
29.0673 34.2427
29.1133 34.1714
29.1595 34.0364
29.2055 33.9835
29.2517 33.9283
29.2977 33.9934
29.3439 34.0228
29.3899 33.8504
29.4361 33.7091
29.4824 33.6027
29.5284 33.3684
29.5746 33.0755
29.6207 32.8519
29.6669 32.8405
29.713 32.5564
29.7593 32.5962
29.8053 32.4198
29.8516 32.4789
29.8977 32.3881
29.9439 32.3388
29.99 32.3195
30.0363 32.1554
30.0824 32.215
30.1287 32.0004
30.1748 32.0435
30.2211 32.1695
30.2673 31.9004
30.3136 32.0717
30.3597 32.0073
30.406 31.7786
30.4522 31.6586
30.4985 31.7107
30.5447 31.7694
30.591 31.8376
30.6372 31.9105
30.6835 31.8448
30.7297 31.8505
30.7761 31.811
30.8224 31.5635
30.8686 31.4939
30.915 31.3245
30.9612 31.124
31.0076 31.0401
31.0538 30.9004
31.1002 30.8157
31.1464 30.5992
31.1928 30.6031
31.2391 30.6057
31.2855 30.4913
31.3317 30.5589
31.3781 30.6707
31.4244 30.5339
31.4708 30.5838
31.5171 30.4176
31.5636 30.3929
31.6098 30.2816
31.6563 30.0601
31.7026 29.9132
31.7491 29.8147
31.7953 29.8477
31.8418 29.8279
31.8881 29.8785
31.9346 29.7895
31.9809 29.7349
32.0275 29.5945
32.074 29.602
32.1203 29.2242
32.1668 29.2549
32.2132 28.9686
32.2597 28.8376
32.306 28.8607
32.3526 28.7336
32.399 28.5992
32.4455 28.4914
32.4919 28.362
32.5385 28.3172
32.5848 28.1339
32.6314 28.2235
32.6778 28.2327
32.7244 27.9987
32.7708 27.8158
32.8174 27.8885
32.8638 27.7804
32.9104 27.8118
32.9569 27.7578
33.0035 27.5493
33.0499 27.5613
33.0966 27.5348
33.143 27.5165
33.1897 27.4092
33.2361 27.3768
33.2828 27.3794
33.3293 27.1994
33.3759 27.0709
33.4226 26.9715
33.4691 26.8638
33.5158 26.7773
33.5623 26.6303
33.609 26.4898
33.6555 26.4068
33.7022 26.3043
33.7487 26.2568
33.7954 26.2122
33.842 26.1303
33.8887 25.9854
33.9353 25.9713
33.982 25.8778
34.0286 25.7476
34.0753 25.6415
34.1219 25.6302
34.1687 25.5659
34.2152 25.4077
34.262 25.35
34.3086 25.3196
34.3554 25.3134
34.402 25.1307
34.4488 24.9935
34.4954 24.9597
34.5422 24.9422
34.5889 24.7949
34.6357 24.6965
34.6825 24.5958
34.7292 24.5574
34.776 24.4602
34.8227 24.4474
34.8695 24.4038
34.9162 24.3494
34.9631 24.2334
35.0098 24.2436
35.0566 24.0462
35.1033 24.032
35.1502 24.0438
35.1969 24.0621
35.2438 23.8225
35.2906 23.935
35.3375 23.8078
35.3842 23.7714
35.4311 23.764
35.4779 23.704
35.5248 23.6697
35.5716 23.5208
35.6185 23.4189
35.6653 23.3759
35.7123 23.2645
35.759 23.2357
35.806 23.1099
35.8528 23.0359
35.8998 22.9528
35.9468 22.8866
35.9936 22.9182
36.0406 22.7461
36.0874 22.7715
36.1345 22.6142
36.1813 22.5934
36.2283 22.4916
36.2752 22.3409
36.3222 22.4794
36.3691 22.3779
36.4161 22.2222
36.463 22.183
36.5101 22.1702
36.557 22.0861
36.6041 21.9074
36.651 21.9287
36.6981 21.911
36.745 21.852
36.7921 21.8196
36.839 21.6678
36.8861 21.6412
36.9331 21.5069
36.9802 21.4466
37.0272 21.3644
37.0743 21.2463
37.1213 21.1955
37.1684 21.23
37.2154 21.2011
37.2626 21.0394
37.3098 20.9911
37.3568 20.9914
37.404 20.8268
37.451 20.7429
37.4982 20.7346
37.5452 20.5943
37.5924 20.5784
37.6395 20.6243
37.6867 20.5029
37.7337 20.3227
37.781 20.2973
37.8281 20.2679
37.8753 20.238
37.9224 20.1011
37.9697 20.0773
38.0168 19.9011
38.064 19.8495
38.1111 19.8846
38.1584 19.7802
38.2056 19.7549
38.2529 19.6718
38.3 19.633
38.3473 19.6192
38.3945 19.5308
38.4418 19.4672
38.489 19.3818
38.5363 19.3169
38.5837 19.3127
38.6309 19.1528
38.6782 19.1776
38.7254 19.0723
38.7728 18.9772
38.82 18.9376
38.8674 18.8649
38.9146 18.8659
38.9621 18.7594
39.0093 18.739
39.0567 18.6874
39.104 18.6232
39.1514 18.5313
39.1987 18.5388
39.2461 18.5075
39.2934 18.3571
39.3409 18.2373
39.3882 18.2241
39.4356 18.1285
39.483 18.2039
39.5304 18.0552
39.5778 18.0917
39.6253 17.972
39.6726 17.9406
39.7201 17.8885
39.7675 17.8155
39.815 17.765
39.8624 17.6283
39.9099 17.664
39.9575 17.602
40.0049 17.5364
40.0525 17.4485
40.0999 17.3778
40.1474 17.3418
40.1949 17.3262
40.2425 17.2285
40.2899 17.162
40.3375 17.0968
40.385 17.0309
40.4326 16.9985
40.48 16.9236
40.5277 16.8932
40.5752 16.8386
40.6228 16.7377
40.6703 16.746
40.718 16.6926
40.7655 16.6555
40.8132 16.5774
40.8607 16.5234
40.9084 16.504
40.9559 16.4727
41.0036 16.3844
41.0512 16.3023
41.0989 16.3756
41.1465 16.2434
41.1942 16.1785
41.242 16.1367
41.2896 16.033
41.3373 15.9904
41.3849 15.9048
41.4327 15.8704
41.4803 15.793
41.5281 15.7841
41.5758 15.7254
41.6236 15.7167
41.6712 15.6791
41.7191 15.5415
41.7667 15.5295
41.8146 15.4817
41.8622 15.4248
41.9101 15.342
41.9578 15.2734
42.0057 15.2729
42.0534 15.2487
42.1013 15.1561
42.149 15.1403
42.1969 15.0708
42.2446 15.0621
42.2925 14.9821
42.3403 14.9072
42.3882 14.8475
42.436 14.8608
42.4839 14.751
42.5319 14.7489
42.5797 14.6442
42.6277 14.6248
42.6755 14.5219
42.7235 14.5026
42.7713 14.4576
42.8193 14.3842
42.8671 14.3471
42.9152 14.3788
42.963 14.2168
43.0111 14.214
43.0589 14.168
43.107 14.1554
43.1549 14.0983
43.2029 14.0195
43.2508 14.0068
43.2989 13.887
43.3468 13.8767
43.3949 13.8292
43.4429 13.8255
43.491 13.6831
43.5389 13.653
43.5871 13.6402
43.635 13.5804
43.6832 13.5379
43.7312 13.4654
43.7793 13.4246
43.8273 13.398
43.8755 13.3773
43.9237 13.3226
43.9717 13.2943
44.0199 13.2272
44.068 13.1925
44.1162 13.1006
44.1642 13.1207
44.2125 13.0397
44.2606 13.0705
44.3088 12.98
44.3569 12.8774
44.4052 12.8821
44.4533 12.8048
44.5016 12.7728
44.5497 12.7404
44.598 12.6711
44.6461 12.6464
44.6945 12.5819
44.7426 12.5501
44.791 12.4847
44.8391 12.46
44.8875 12.4224
44.9357 12.3684
44.984 12.3422
45.0322 12.268
45.0806 12.2228
45.1288 12.1773
45.1773 12.1654
45.2257 12.1135
45.2739 12.0662
45.3224 12.0237
45.3706 12.0142
45.4191 11.9242
45.4673 11.9009
45.5158 11.8498
45.5641 11.8302
45.6126 11.7642
45.6609 11.7142
45.7094 11.6657
45.7577 11.6423
45.8063 11.5693
45.8546 11.5533
45.9031 11.5401
45.9515 11.4978
46.0001 11.4274
46.0484 11.3675
46.097 11.3787
46.1454 11.3176
46.194 11.309
46.2424 11.2172
46.291 11.1973
46.3395 11.1478
46.3881 11.1092
46.4365 11.1054
46.4852 11.0054
46.5337 11.0105
46.5823 10.9325
46.631 10.9268
46.6795 10.8931
46.7282 10.8345
46.7767 10.8002
46.8254 10.7722
46.8739 10.6973
46.9226 10.6794
46.9712 10.6161
47.0199 10.5747
47.0685 10.575
47.1173 10.4938
47.1658 10.4727
47.2146 10.4671
47.2632 10.4009
47.312 10.3601
47.3606 10.3015
47.4095 10.2582
47.4581 10.2772
47.5069 10.2242
47.5556 10.1572
47.6044 10.1263
47.6531 10.1155
47.702 10.0875
47.7507 10.0194
47.7996 9.9667
47.8483 9.94792
47.8972 9.92664
47.9461 9.93033
47.9948 9.84258
48.0438 9.84048
48.0925 9.7806
48.1415 9.72881
48.1902 9.66868
48.2392 9.71208
48.288 9.63657
48.337 9.62269
48.3858 9.58342
48.4348 9.53462
48.4837 9.53166
48.5327 9.47502
48.5815 9.43862
48.6306 9.41084
48.6795 9.34619
48.7285 9.35325
48.7774 9.32136
48.8265 9.26358
48.8754 9.19299
48.9245 9.19047
48.9734 9.13753
49.0226 9.13045
49.0715 9.08861
49.1206 9.03939
49.1696 9.01813
49.2188 9.00018
49.2679 8.94217
49.3169 8.92475
49.3661 8.86995
49.4151 8.86897
49.4643 8.81264
49.5134 8.78566
49.5626 8.70583
49.6117 8.70981
49.6609 8.6724
49.71 8.59872
49.7592 8.59067
49.8083 8.53627
49.8576 8.5262
49.9067 8.49458
49.956 8.51442
50.0052 8.45644
50.0545 8.39465
50.1036 8.3825
50.153 8.3391
50.2022 8.31986
50.2515 8.25813
50.3007 8.25014
50.3501 8.1994
50.3993 8.20261
50.4487 8.17558
50.498 8.11477
50.5474 8.08179
50.5966 8.08488
50.6461 8.05318
50.6955 8.02161
50.7448 7.97235
50.7943 7.93033
50.8436 7.88072
50.8931 7.88673
50.9424 7.85419
50.9919 7.80025
51.0413 7.79295
51.0908 7.76672
51.1402 7.70148
51.1897 7.69236
51.2391 7.62589
51.2887 7.58945
51.3381 7.55798
51.3877 7.58044
51.4371 7.54515
51.4867 7.4926
51.5362 7.49096
51.5858 7.43196
51.6353 7.40545
51.6849 7.37207
51.7344 7.37749
51.7841 7.35438
51.8336 7.26799
51.8833 7.26429
51.9328 7.23445
51.9826 7.19214
52.0323 7.16489
52.0818 7.12059
52.1316 7.08746
52.1812 7.1129
52.231 7.05996
52.2806 7.02352
52.3304 7.01653
52.38 6.96519
52.4298 6.91729
52.4794 6.91005
52.5293 6.86065
52.5789 6.84634
52.6288 6.84279
52.6785 6.77654
52.7284 6.7199
52.7781 6.75469
52.828 6.70656
52.8777 6.69689
52.9276 6.66206
52.9774 6.64677
53.0273 6.5823
53.0771 6.55578
53.1271 6.57803
53.1769 6.50749
53.2269 6.4957
53.2767 6.44926
53.3267 6.43911
53.3765 6.4054
53.4266 6.34126
53.4766 6.33607
53.5265 6.33131
53.5765 6.32336
53.6264 6.2613
53.6765 6.2234
53.7264 6.20538
53.7765 6.193
53.8265 6.1457
53.8766 6.11318
53.9266 6.11091
53.9767 6.10993
54.0267 6.07491
54.0769 6.0574
54.1269 5.99343
54.1771 5.99092
54.2271 5.94242
54.2773 5.88668
54.3274 5.84262
54.3776 5.81926
54.4277 5.8165
54.478 5.77668
54.528 5.73285
54.5783 5.69362
54.6285 5.66098
54.6788 5.59609
54.7289 5.58366
54.7792 5.57043
54.8296 5.5136
54.8798 5.43613
54.9301 5.45904
54.9803 5.44122
55.0307 5.35917
55.0809 5.26699
55.1314 5.32142
55.1816 5.18299
55.232 5.23179
55.2823 5.1586
55.3328 5.09278
55.383 5.08174
55.4335 5.01837
55.4838 4.97548
55.5344 4.92169
55.5847 4.88431
55.6352 4.88816
55.6856 4.83377
55.7361 4.78065