File: XRD/Ni3Fe_FD0291.xy
TT I
1.27165 7.60275
1.31627 6.79954
1.36089 7.27023
1.40551 6.80765
1.45013 6.46654
1.49476 5.9106
1.53938 6.32745
1.584 5.48004
1.62863 5.68205
1.67325 5.07791
1.71787 4.99368
1.7625 4.80731
1.80712 4.93076
1.85174 5.18244
1.89636 4.42181
1.94099 5.28176
1.98562 5.45866
2.03025 4.18367
2.07487 4.27865
2.11949 5.63918
2.16411 4.77036
2.20874 17.1871
2.25338 28.6975
2.298 6.17251
2.34263 4.76165
2.38725 4.90892
2.43188 4.86756
2.4765 5.79594
2.52115 5.48417
2.56577 6.27768
2.6104 7.51608
2.65503 6.91808
2.69965 6.89833
2.7443 6.95077
2.78893 7.37259
2.83356 8.16959
2.87818 8.46147
2.92281 8.46766
2.96744 9.54127
3.01209 10.5046
3.05672 11.1057
3.10135 11.9597
3.14599 12.8609
3.19062 14.4835
3.23527 15.3223
3.2799 16.0498
3.32454 16.7421
3.36917 18.2691
3.4138 19.5058
3.45844 19.5955
3.50309 21.7969
3.54773 22.3292
3.59237 25.3175
3.637 113.972
3.68164 71.1617
3.7263 26.9379
3.77094 27.0747
3.81558 27.5733
3.86022 28.1927
3.90486 29.9601
3.9495 30.5424
3.99416 31.8194
4.0388 33.1431
4.08344 34.5276
4.12809 35.9383
4.17273 38.2441
4.21738 46.041
4.26204 307.272
4.30669 278.083
4.35133 52.2782
4.39598 46.2694
4.44063 57.5884
4.4853 73.2436
4.52995 53.5169
4.5746 53.3284
4.61925 55.0229
4.6639 57.4502
4.70855 59.9534
4.75322 62.8475
4.79788 66.4
4.84253 69.4789
4.88719 74.0003
4.93184 77.9597
4.97652 84.0957
5.02118 91.6702
5.06583 100.328
5.11049 114.699
5.15515 210.09
5.19981 503.626
5.24449 3119.55
5.28916 10814.9
5.33382 4183.1
5.37848 258.176
5.42315 146.549
5.46783 124.354
5.5125 112.974
5.55716 107.794
5.60183 103.846
5.6465 101.53
5.69117 98.8708
5.73586 97.1779
5.78053 97.1682
5.8252 96.5821
5.86988 98.1606
5.91455 101.074
5.95924 112.442
6.00392 258.885
6.0486 1077.29
6.09328 3691.25
6.13795 3784.51
6.18263 367.836
6.22733 106.94
6.27201 90.2868
6.3167 115.073
6.36138 87.7052
6.40606 72.5326
6.45075 70.2817
6.49545 68.3768
6.54014 66.4155
6.58483 66.0733
6.62952 65.6526
6.67421 104.071
6.71892 174.157
6.76361 74.4288
6.8083 61.403
6.853 60.0869
6.89769 59.2794
6.94239 58.9206
6.98711 58.1717
7.03181 57.7866
7.07651 57.7958
7.12121 57.3528
7.16591 57.9575
7.21063 58.1655
7.25533 76.001
7.30004 219.624
7.34475 106.832
7.38945 59.066
7.43416 56.868
7.47889 56.4053
7.5236 56.6526
7.56831 57.5722
7.61303 59.6291
7.65774 60.428
7.70247 58.7776
7.74719 58.3149
7.79191 58.7218
7.83663 59.0547
7.88135 59.663
7.92607 60.8689
7.97081 62.0412
8.01553 62.7936
8.06026 64.6831
8.10498 66.5686
8.14971 78.3419
8.19446 76.6385
8.23919 72.0572
8.28392 74.3517
8.32865 76.84
8.37339 81.624
8.41812 89.2172
8.46288 127.049
8.50761 192.228
8.55235 441.798
8.59709 1014.81
8.64183 2049.99
8.68658 1258.42
8.73134 224.163
8.77609 108.567
8.82083 98.0368
8.86558 94.2773
8.91033 94.4028
8.9551 97.3116
8.99985 89.1373
9.04461 86.631
9.08936 86.0264
9.13412 85.1066
9.17888 85.2256
9.22365 85.9268
9.26841 84.933
9.31318 85.6941
9.35794 85.9913
9.4027 86.0445
9.44749 87.3027
9.49226 87.5026
9.53703 88.5056
9.5818 90.602
9.62657 96.3302
9.67134 105.186
9.71614 97.8265
9.76091 97.6325
9.80569 100.185
9.85047 104.168
9.89525 134.276
9.94005 151.313
9.98484 199.553
10.0296 388.859
10.0744 719.261
10.1192 1500.04
10.164 1788.75
10.2088 610.063
10.2536 151.798
10.2984 121.905
10.3432 123.779
10.388 110.482
10.4328 127.414
10.4776 173.363
10.5224 256.927
10.5672 450.588
10.612 559.937
10.6568 259.937
10.7017 106.979
10.7465 91.2563
10.7913 86.7819
10.8361 84.5696
10.8809 82.0811
10.9257 82.0524
10.9706 83.4178
11.0154 78.0501
11.0602 75.6714
11.105 74.8807
11.1499 80.45
11.1947 91.0606
11.2395 79.3058
11.2844 74.1699
11.3292 69.8726
11.374 68.8669
11.4189 68.4332
11.4637 67.4527
11.5086 67.977
11.5534 72.2096
11.5983 68.868
11.6431 66.0203
11.688 65.2766
11.7328 65.2056
11.7777 65.2957
11.8225 65.0188
11.8674 64.8091
11.9122 64.9468
11.9571 65.3805
12.002 66.2994
12.0468 71.1923
12.0917 84.5821
12.1366 102.736
12.1814 138.19
12.2263 195.26
12.2712 190.145
12.3161 114.339
12.3609 76.8928
12.4058 68.0767
12.4507 67.0902
12.4956 67.0212
12.5405 67.385
12.5853 67.8375
12.6302 77.7621
12.6751 85.8503
12.72 73.8169
12.7649 70.3919
12.8098 70.9293
12.8547 72.4202
12.8996 73.6058
12.9445 75.0092
12.9894 76.7859
13.0343 78.387
13.0792 81.9276
13.1242 93.0143
13.1691 121.858
13.214 154.845
13.2589 213.784
13.3038 326.052
13.3487 438.98
13.3937 323.411
13.4386 149.987
13.4835 114.645
13.5285 130.868
13.5734 157.75
13.6183 216.332
13.6633 312.942
13.7082 368.074
13.7531 237.417
13.7981 113.624
13.843 86.2925
13.888 82.9288
13.9329 80.1581
13.9779 78.6475
14.0228 77.2122
14.0678 75.7155
14.1127 75.2973
14.1577 75.561
14.2027 74.2306
14.2476 73.036
14.2926 73.3033
14.3376 74.8589
14.3825 73.3246
14.4275 71.2951
14.4725 71.0668
14.5175 71.2929
14.5624 71.6434
14.6074 74.27
14.6524 75.2602
14.6974 73.4688
14.7424 75.0852
14.7874 83.4031
14.8324 94.9648
14.8774 110.195
14.9224 139.131
14.9674 189.604
15.0124 227.196
15.0574 175.396
15.1024 104.839
15.1474 76.7521
15.1924 73.7468
15.2374 74.6361
15.2824 73.9141
15.3274 71.1091
15.3725 69.5623
15.4175 68.9676
15.4625 68.6874
15.5076 68.9635
15.5526 69.0534
15.5976 68.3259
15.6426 69.565
15.6877 76.2272
15.7327 85.1524
15.7778 96.5486
15.8228 117.299
15.8679 154.938
15.9129 192.49
15.958 177.947
16.003 116.311
16.0481 74.5634
16.0931 68.671
16.1382 65.9684
16.1833 63.4669
16.2283 61.5946
16.2734 60.719
16.3185 61.0925
16.3636 62.5323
16.4086 60.798
16.4537 58.7417
16.4988 57.684
16.5439 57.5764
16.589 57.4388
16.6341 57.3764
16.6792 56.5875
16.7243 56.948
16.7694 57.3606
16.8145 56.9868
16.8596 57.3883
16.9047 59.5637
16.9498 59.9197
16.9949 58.2628
17.04 58.1381
17.0851 59.7487
17.1302 61.4941
17.1754 64.0144
17.2205 67.3078
17.2656 72.7408
17.3108 81.9987
17.3559 86.009
17.401 77.6335
17.4462 66.4222
17.4913 61.7236
17.5365 61.6587
17.5815 61.3831
17.6268 61.6966
17.6718 62.859
17.7171 63.2598
17.7622 63.5114
17.8074 64.1408
17.8525 66.8206
17.8977 71.9746
17.9428 77.4582
17.9881 83.5096
18.0331 95.0062
18.0784 113.504
18.1237 137.659
18.1688 143.975
18.214 118.131
18.2591 92.3784
18.3044 89.2357
18.3495 97.6371
18.3948 108.107
18.4399 104.585
18.4852 85.5693
18.5303 70.4038
18.5756 65.0401
18.6207 63.9678
18.666 62.8763
18.7112 62.0121
18.7565 61.2539
18.8016 60.9137
18.8469 60.1677
18.892 59.9226
18.9374 59.6061
18.9825 59.3836
19.0278 59.2862
19.073 59.4337
19.1183 59.8218
19.1635 60.7632
19.2088 62.0855
19.254 63.4829
19.2993 66.2926
19.3447 72.2577
19.3898 78.1236
19.4352 77.2352
19.4804 68.6378
19.5257 60.5387
19.5709 56.7533
19.6163 55.9795
19.6615 55.757
19.7068 55.411
19.752 55.3895
19.7974 55.8407
19.8426 56.711
19.888 57.5656
19.9332 58.3667
19.9786 60.0345
20.0238 62.5302
20.0692 67.0648
20.1144 71.4859
20.1598 72.5109
20.205 67.4731
20.2504 63.8422
20.2957 64.29
20.3411 66.8987
20.3863 67.4903
20.4318 62.697
20.477 57.1915
20.5224 54.2245
20.5677 53.3977
20.6131 52.2462
20.6586 51.6032
20.7038 51.5728
20.7493 51.0695
20.7945 50.8833
20.84 50.6269
20.8853 50.6981
20.9307 50.411
20.976 50.663
21.0215 50.5651
21.0668 50.9208
21.1122 51.283
21.1575 51.5732
21.203 52.415
21.2483 53.0914
21.2938 53.4777
21.3391 52.4593
21.3846 51.257
21.4299 50.4371
21.4754 50.1847
21.5207 50.4647
21.5662 50.6564
21.6116 51.3687
21.6571 52.0621
21.7024 52.8626
21.7479 54.2838
21.7933 56.0494
21.8388 59.0484
21.8843 62.7747
21.9297 66.4772
21.9752 66.9825
22.0206 63.4602
22.0661 58.9263
22.1115 57.6032
22.157 57.8743
22.2024 57.3341
22.248 54.3817
22.2933 52.2443
22.3389 51.3024
22.3843 50.9626
22.4299 50.8125
22.4753 50.9058
22.5208 50.4908
22.5662 50.2834
22.6118 50.5024
22.6572 50.8058
22.7028 51.1223
22.7483 51.7616
22.7939 52.1844
22.8393 53.2818
22.8849 54.8247
22.9303 56.6829
22.9759 59.0874
23.0214 60.095
23.067 58.0658
23.1126 54.0664
23.1581 51.6077
23.2037 50.8811
23.2492 50.8033
23.2948 50.9648
23.3403 51.2706
23.3859 51.7092
23.4314 52.2292
23.477 53.1383
23.5225 55.1614
23.5682 57.4402
23.6137 59.7608
23.6593 58.9758
23.7048 55.179
23.7505 51.0309
23.796 48.7549
23.8417 47.8763
23.8872 47.4748
23.9329 47.0889
23.9784 46.5843
24.0241 46.3935
24.0697 46.1176
24.1154 45.9983
24.1609 45.767
24.2066 45.645
24.2522 45.5296
24.2979 45.1758
24.3434 45.211
24.3892 44.987
24.4349 44.9466
24.4805 44.4057
24.5262 44.7354
24.5718 44.4814
24.6175 44.5815
24.6631 44.4239
24.7089 44.3464
24.7545 43.9621
24.8002 43.8506
24.8458 43.8828
24.8916 43.7335
24.9372 43.8602
24.983 44.0896
25.0286 44.3071
25.0744 44.7468
25.12 45.0054
25.1658 45.7407
25.2114 46.1472
25.2572 46.25
25.3029 46.2763
25.3487 46.3935
25.3943 46.4566
25.4402 45.7544
25.4858 44.6086
25.5316 43.4007
25.5773 42.5305
25.6231 42.5271
25.669 42.2458
25.7147 42.1917
25.7605 42.086
25.8062 42.1964
25.8521 42.2544
25.8977 42.3272
25.9436 42.2612
25.9893 42.2318
26.0352 42.752
26.0809 42.7946
26.1268 43.2998
26.1725 42.9961
26.2184 42.4139
26.2641 42.051
26.31 41.7639
26.3557 41.6846
26.4017 41.6584
26.4474 41.9496
26.4933 42.0654
26.5391 42.6289
26.585 42.8911
26.6308 43.2135
26.6767 43.6755
26.7225 43.5553
26.7684 43.1559
26.8142 42.44
26.8601 42.0389
26.9059 41.698
26.9519 41.0448
26.9979 40.8162
27.0437 40.3761
27.0896 40.1936
27.1354 40.2092
27.1814 40.0408
27.2272 40.005
27.2732 40.0787
27.3191 39.7687
27.3651 39.8633
27.4109 39.6974
27.4569 39.8933
27.5027 39.9177
27.5488 39.9826
27.5946 40.0018
27.6407 39.8196
27.6865 39.5744
27.7326 39.2889
27.7784 39.4804
27.8245 39.1906
27.8703 39.332
27.9164 39.4397
27.9623 39.6782
28.0084 39.9742
28.0543 40.4118
28.1003 40.4469
28.1462 40.2468
28.1923 40.1506
28.2384 39.3545
28.2843 39.1515
28.3304 38.7252
28.3764 38.1794
28.4225 37.8955
28.4684 37.71
28.5145 37.4201
28.5605 37.2759
28.6066 37.1509
28.6526 36.9363
28.6987 36.844
28.7447 36.8886
28.7908 36.7809
28.8368 36.7239
28.8829 36.7294
28.9289 36.7361
28.9751 36.4687
29.0211 36.266
29.0673 36.1003
29.1133 35.8589
29.1595 35.7009
29.2055 35.6248
29.2517 35.6206
29.2977 35.4977
29.3439 35.4887
29.3899 35.4577
29.4361 35.4228
29.4824 35.3225
29.5284 35.1926
29.5746 34.8038
29.6207 34.3812
29.6669 34.3243
29.713 34.2045
29.7593 34.2761
29.8053 34.1908
29.8516 34.0109
29.8977 33.9626
29.9439 33.7402
29.99 33.8147
30.0363 33.6186
30.0824 33.6757
30.1287 33.7103
30.1748 33.5788
30.2211 33.6778
30.2673 33.5655
30.3136 33.6597
30.3597 33.5802
30.406 33.463
30.4522 33.279
30.4985 33.237
30.5447 33.3475
30.591 33.2652
30.6372 33.2302
30.6835 33.3085
30.7297 33.4033
30.7761 33.382
30.8224 33.1798
30.8686 33.0819
30.915 32.8072
30.9612 32.7751
31.0076 32.5699
31.0538 32.3701
31.1002 32.2956
31.1464 32.1887
31.1928 32.1017
31.2391 32.2348
31.2855 31.9527
31.3317 31.972
31.3781 32.0373
31.4244 32.0072
31.4708 31.9238
31.5171 31.9348
31.5636 32.0116
31.6098 31.7957
31.6563 31.6004
31.7026 31.3841
31.7491 31.3589
31.7953 31.3357
31.8418 31.3082
31.8881 31.1659
31.9346 31.2069
31.9809 31.152
32.0275 31.0629
32.074 31.0527
32.1203 30.7675
32.1668 30.688
32.2132 30.6236
32.2597 30.436
32.306 30.2954
32.3526 30.0556
32.399 29.9873
32.4455 29.8798
32.4919 29.7281
32.5385 29.7212
32.5848 29.5861
32.6314 29.6111
32.6778 29.5434
32.7244 29.3832
32.7708 29.2231
32.8174 29.3156
32.8638 29.1238
32.9104 29.0442
32.9569 29.1068
33.0035 28.9451
33.0499 28.8678
33.0966 28.9047
33.143 28.746
33.1897 28.7103
33.2361 28.6023
33.2828 28.6369
33.3293 28.4343
33.3759 28.4393
33.4226 28.2613
33.4691 28.2465
33.5158 28.1035
33.5623 27.9407
33.609 27.8186
33.6555 27.6289
33.7022 27.5783
33.7487 27.5443
33.7954 27.4563
33.842 27.3673
33.8887 27.2913
33.9353 27.2821
33.982 27.1521
34.0286 27.0604
34.0753 27.0071
34.1219 26.8365
34.1687 26.7955
34.2152 26.7985
34.262 26.6329
34.3086 26.464
34.3554 26.5258
34.402 26.327
34.4488 26.2322
34.4954 26.2845
34.5422 26.0533
34.5889 26.0262
34.6357 26.0127
34.6825 25.8855
34.7292 25.8249
34.776 25.7096
34.8227 25.6157
34.8695 25.5999
34.9162 25.4563
34.9631 25.3517
35.0098 25.4083
35.0566 25.2822
35.1033 25.2021
35.1502 25.1407
35.1969 25.0987
35.2438 25.0235
35.2906 25.0749
35.3375 24.9473
35.3842 24.8452
35.4311 24.8948
35.4779 24.8608
35.5248 24.759
35.5716 24.6587
35.6185 24.6116
35.6653 24.5317
35.7123 24.4044
35.759 24.4657
35.806 24.2439
35.8528 24.0898
35.8998 23.9974
35.9468 23.9978
35.9936 23.9792
36.0406 23.7893
36.0874 23.8146
36.1345 23.7529
36.1813 23.7274
36.2283 23.5135
36.2752 23.4171
36.3222 23.5272
36.3691 23.4004
36.4161 23.3106
36.463 23.3043
36.5101 23.264
36.557 23.242
36.6041 23.0121
36.651 22.9917
36.6981 22.9519
36.745 22.8377
36.7921 22.8224
36.839 22.691
36.8861 22.6566
36.9331 22.5819
36.9802 22.5279
37.0272 22.472
37.0743 22.3466
37.1213 22.2957
37.1684 22.2635
37.2154 22.1104
37.2626 22.084
37.3098 22.0454
37.3568 21.9803
37.404 21.9914
37.451 21.7941
37.4982 21.7609
37.5452 21.6632
37.5924 21.6199
37.6395 21.6601
37.6867 21.5187
37.7337 21.3737
37.781 21.3596
37.8281 21.3199
37.8753 21.1785
37.9224 21.0911
37.9697 21.0241
38.0168 20.9026
38.064 20.9496
38.1111 20.8962
38.1584 20.8066
38.2056 20.7235
38.2529 20.6798
38.3 20.6425
38.3473 20.5894
38.3945 20.4394
38.4418 20.3948
38.489 20.4189
38.5363 20.3012
38.5837 20.2148
38.6309 20.1631
38.6782 20.0636
38.7254 20.0524
38.7728 19.9604
38.82 19.8502
38.8674 19.8495
38.9146 19.741
38.9621 19.7158
39.0093 19.6718
39.0567 19.5863
39.104 19.564
39.1514 19.3838
39.1987 19.4518
39.2461 19.3389
39.2934 19.3068
39.3409 19.1995
39.3882 19.0818
39.4356 19.0678
39.483 18.9782
39.5304 18.9774
39.5778 18.8549
39.6253 18.9057
39.6726 18.7322
39.7201 18.7655
39.7675 18.6599
39.815 18.6311
39.8624 18.5129
39.9099 18.4894
39.9575 18.4296
40.0049 18.4572
40.0525 18.312
40.0999 18.2492
40.1474 18.1784
40.1949 18.104
40.2425 18.0575
40.2899 18.0427
40.3375 17.9764
40.385 17.9623
40.4326 17.8169
40.48 17.8264
40.5277 17.7807
40.5752 17.703
40.6228 17.6575
40.6703 17.5542
40.718 17.5261
40.7655 17.469
40.8132 17.3748
40.8607 17.4303
40.9084 17.3108
40.9559 17.2547
41.0036 17.2289
41.0512 17.1199
41.0989 17.0776
41.1465 17.0791
41.1942 16.9586
41.242 16.9076
41.2896 16.8136
41.3373 16.8122
41.3849 16.7504
41.4327 16.6507
41.4803 16.6105
41.5281 16.5925
41.5758 16.5451
41.6236 16.4372
41.6712 16.376
41.7191 16.305
41.7667 16.2335
41.8146 16.2883
41.8622 16.2005
41.9101 16.1356
41.9578 16.0278
42.0057 15.9864
42.0534 15.943
42.1013 15.8912
42.149 15.8455
42.1969 15.8082
42.2446 15.8067
42.2925 15.6928
42.3403 15.6667
42.3882 15.66
42.436 15.5987
42.4839 15.4691
42.5319 15.4684
42.5797 15.4416
42.6277 15.3489
42.6755 15.3049
42.7235 15.2014
42.7713 15.1575
42.8193 15.1049
42.8671 15.047
42.9152 15.064
42.963 15.0327
43.0111 14.9609
43.0589 14.8557
43.107 14.82
43.1549 14.7505
43.2029 14.6944
43.2508 14.6555
43.2989 14.6242
43.3468 14.5566
43.3949 14.5014
43.4429 14.5007
43.491 14.4232
43.5389 14.3972
43.5871 14.347
43.635 14.2705
43.6832 14.2243
43.7312 14.1642
43.7793 14.1075
43.8273 14.0136
43.8755 14.0517
43.9237 13.9566
43.9717 13.984
44.0199 13.8982
44.068 13.8308
44.1162 13.7852
44.1642 13.7435
44.2125 13.7137
44.2606 13.6507
44.3088 13.5746
44.3569 13.5731
44.4052 13.5131
44.4533 13.4607
44.5016 13.389
44.5497 13.3782
44.598 13.367
44.6461 13.3348
44.6945 13.2034
44.7426 13.1675
44.791 13.1112
44.8391 13.0919
44.8875 13.0494
44.9357 12.988
44.984 12.9522
45.0322 12.8848
45.0806 12.8286
45.1288 12.7955
45.1773 12.7166
45.2257 12.7428
45.2739 12.6798
45.3224 12.6145
45.3706 12.6119
45.4191 12.5157
45.4673 12.517
45.5158 12.4576
45.5641 12.4013
45.6126 12.3649
45.6609 12.3219
45.7094 12.2592
45.7577 12.2027
45.8063 12.156
45.8546 12.1449
45.9031 12.0838
45.9515 12.0419
46.0001 11.9809
46.0484 11.9522
46.097 11.9413
46.1454 11.9125
46.194 11.8614
46.2424 11.8222
46.291 11.7438
46.3395 11.7134
46.3881 11.6202
46.4365 11.6253
46.4852 11.6013
46.5337 11.5274
46.5823 11.5318
46.631 11.4548
46.6795 11.4065
46.7282 11.3871
46.7767 11.3034
46.8254 11.2968
46.8739 11.2368
46.9226 11.2039
46.9712 11.1578
47.0199 11.1087
47.0685 11.1077
47.1173 10.9955
47.1658 10.9576
47.2146 10.99
47.2632 10.9167
47.312 10.8429
47.3606 10.8377
47.4095 10.7685
47.4581 10.7306
47.5069 10.6995
47.5556 10.6799
47.6044 10.6133
47.6531 10.5755
47.702 10.5085
47.7507 10.5397
47.7996 10.48
47.8483 10.4709
47.8972 10.4101
47.9461 10.3687
47.9948 10.2979
48.0438 10.2729
48.0925 10.2613
48.1415 10.2428
48.1902 10.1788
48.2392 10.1447
48.288 10.131
48.337 10.0741
48.3858 10.0384
48.4348 10.0147
48.4837 9.96898
48.5327 9.95953
48.5815 9.90956
48.6306 9.85999
48.6795 9.85347
48.7285 9.75117
48.7774 9.77126
48.8265 9.73771
48.8754 9.64055
48.9245 9.65429
48.9734 9.612
49.0226 9.56198
49.0715 9.53492
49.1206 9.51042
49.1696 9.46207
49.2188 9.463
49.2679 9.39461
49.3169 9.34754
49.3661 9.31209
49.4151 9.29903
49.4643 9.23588
49.5134 9.19028
49.5626 9.1561
49.6117 9.12778
49.6609 9.11097
49.71 9.04299
49.7592 9.00566
49.8083 8.97127
49.8576 8.96906
49.9067 8.92611
49.956 8.90047
50.0052 8.85294
50.0545 8.80679
50.1036 8.76168
50.153 8.76053
50.2022 8.73934
50.2515 8.66923
50.3007 8.64387
50.3501 8.60727
50.3993 8.63993
50.4487 8.57324
50.498 8.55896
50.5474 8.49329
50.5966 8.46015
50.6461 8.44566
50.6955 8.41141
50.7448 8.31608
50.7943 8.32
50.8436 8.27555
50.8931 8.25506
50.9424 8.21688
50.9919 8.21597
51.0413 8.19126
51.0908 8.11992
51.1402 8.10784
51.1897 8.0567
51.2391 8.05288
51.2887 7.98694
51.3381 7.97854
51.3877 7.97819
51.4371 7.88375
51.4867 7.88052
51.5362 7.85044
51.5858 7.78867
51.6353 7.80049
51.6849 7.71979
51.7344 7.72231
51.7841 7.71889
51.8336 7.63635
51.8833 7.62674
51.9328 7.57692
51.9826 7.53999
52.0323 7.52831
52.0818 7.42841
52.1316 7.45195
52.1812 7.43031
52.231 7.39385
52.2806 7.37269
52.3304 7.31359
52.38 7.30493
52.4298 7.27737
52.4794 7.2465
52.5293 7.21475
52.5789 7.21622
52.6288 7.16007
52.6785 7.11871
52.7284 7.10399
52.7781 7.05457
52.828 7.04888
52.8777 6.98298
52.9276 6.98186
52.9774 6.95023
53.0273 6.89845
53.0771 6.90969
53.1271 6.8944
53.1769 6.83855
53.2269 6.7834
53.2767 6.80299
53.3267 6.74404
53.3765 6.69793
53.4266 6.68527
53.4766 6.63101
53.5265 6.62525
53.5765 6.66143
53.6264 6.55827
53.6765 6.54938
53.7264 6.51027
53.7765 6.50222
53.8265 6.47053
53.8766 6.39819
53.9266 6.41032
53.9767 6.32518
54.0267 6.33443
54.0769 6.32579
54.1269 6.25082
54.1771 6.18867
54.2271 6.2105
54.2773 6.17558
54.3274 6.15911
54.3776 6.11559
54.4277 6.10969
54.478 6.05384
54.528 6.01726
54.5783 5.98575
54.6285 5.94184
54.6788 5.91019
54.7289 5.84991
54.7792 5.81874
54.8296 5.74545
54.8798 5.69716
54.9301 5.6893
54.9803 5.654
55.0307 5.64211
55.0809 5.57039
55.1314 5.56002
55.1816 5.46589
55.232 5.46839
55.2823 5.36487
55.3328 5.30668
55.383 5.24138
55.4335 5.19385
55.4838 5.17131
55.5344 5.11382
55.5847 5.12191
55.6352 5.11087
55.6856 5.06333
55.7361 4.95836