File: XRD/Ni3Fe_FD0328.xy
TT I
1.27165 7.68734
1.31627 7.52168
1.36089 6.74133
1.40551 6.4401
1.45013 7.17429
1.49476 6.21306
1.53938 5.8082
1.584 5.29496
1.62863 5.10607
1.67325 4.81992
1.71787 5.42358
1.7625 5.02943
1.80712 5.37477
1.85174 5.02671
1.89636 4.82197
1.94099 4.9058
1.98562 4.62211
2.03025 4.71966
2.07487 4.26506
2.11949 4.69929
2.16411 4.71317
2.20874 12.4941
2.25338 18.2214
2.298 5.41381
2.34263 5.06859
2.38725 4.70019
2.43188 5.14704
2.4765 5.42904
2.52115 5.61786
2.56577 6.50977
2.6104 6.8784
2.65503 6.71035
2.69965 7.10154
2.7443 7.26837
2.78893 7.3486
2.83356 8.00659
2.87818 8.22289
2.92281 8.08235
2.96744 9.88818
3.01209 10.952
3.05672 11.3863
3.10135 12.2513
3.14599 12.9163
3.19062 14.4432
3.23527 15.4687
3.2799 15.7859
3.32454 16.6807
3.36917 17.7905
3.4138 19.167
3.45844 19.8754
3.50309 21.1975
3.54773 21.8831
3.59237 23.8323
3.637 79.5184
3.68164 52.0275
3.7263 26.242
3.77094 26.5735
3.81558 27.2952
3.86022 28.0284
3.90486 29.3029
3.9495 30.3783
3.99416 31.0696
4.0388 33.0248
4.08344 34.0057
4.12809 35.4338
4.17273 37.4309
4.21738 42.3276
4.26204 209.338
4.30669 179.934
4.35133 48.0738
4.39598 45.6915
4.44063 53.2078
4.4853 62.9604
4.52995 52.575
4.5746 52.6689
4.61925 54.8363
4.6639 56.9968
4.70855 59.731
4.75322 62.9675
4.79788 66.1897
4.84253 69.5983
4.88719 74.1172
4.93184 77.7111
4.97652 84.1993
5.02118 91.5382
5.06583 100.471
5.11049 115.521
5.15515 185.559
5.19981 549.424
5.24449 3499.66
5.28916 11442.6
5.33382 3574.27
5.37848 230.047
5.42315 140.712
5.46783 120.773
5.5125 111.104
5.55716 106.247
5.60183 102.198
5.6465 100.25
5.69117 98.4151
5.73586 96.5344
5.78053 96.4668
5.8252 96.796
5.86988 98.2512
5.91455 101.345
5.95924 114.476
6.00392 292.179
6.0486 1212.04
6.09328 4024.11
6.13795 3459.28
6.18263 299.856
6.22733 101.491
6.27201 86.4417
6.3167 100.005
6.36138 81.3329
6.40606 71.0802
6.45075 69.384
6.49545 67.4447
6.54014 65.6688
6.58483 64.4566
6.62952 64.3263
6.67421 88.5704
6.71892 128.853
6.76361 68.0445
6.8083 59.9364
6.853 59.0052
6.89769 58.6066
6.94239 57.8842
6.98711 57.5986
7.03181 56.8723
7.07651 57.0214
7.12121 56.3234
7.16591 56.6949
7.21063 56.8728
7.25533 68.2896
7.30004 154.207
7.34475 86.1604
7.38945 57.3996
7.43416 55.8572
7.47889 55.6335
7.5236 56.2514
7.56831 56.9945
7.61303 58.3433
7.65774 58.3068
7.70247 57.5161
7.74719 57.4863
7.79191 57.9989
7.83663 58.5411
7.88135 59.2256
7.92607 60.5417
7.97081 61.6011
8.01553 62.7172
8.06026 64.1669
8.10498 65.7767
8.14971 73.9627
8.19446 73.4353
8.23919 71.8085
8.28392 74.4368
8.32865 76.7625
8.37339 81.6394
8.41812 88.6641
8.46288 117.186
8.50761 208.995
8.55235 477.998
8.59709 1151.07
8.64183 2118.65
8.68658 1102.15
8.73134 186.368
8.77609 104.897
8.82083 96.4751
8.86558 93.0533
8.91033 92.2562
8.9551 93.1482
8.99985 87.8315
9.04461 86.1971
9.08936 85.2965
9.13412 84.4561
9.17888 84.7262
9.22365 85.053
9.26841 84.1767
9.31318 85.7962
9.35794 85.5181
9.4027 85.9333
9.44749 86.6924
9.49226 87.2762
9.53703 87.9698
9.5818 90.4254
9.62657 94.3704
9.67134 99.8322
9.71614 96.2098
9.76091 97.1702
9.80569 99.9692
9.85047 103.68
9.89525 124.449
9.94005 141.054
9.98484 218.323
10.0296 418.23
10.0744 840.033
10.1192 1619.79
10.164 1708.37
10.2088 494.372
10.2536 140.739
10.2984 117.623
10.3432 116.934
10.388 109.524
10.4328 132.254
10.4776 181.891
10.5224 289.342
10.5672 480.877
10.612 525.343
10.6568 221.553
10.7017 101.203
10.7465 89.5789
10.7913 85.7769
10.8361 83.7222
10.8809 81.2554
10.9257 80.3595
10.9706 80.8461
11.0154 76.9639
11.0602 74.7496
11.105 73.6997
11.1499 76.9671
11.1947 82.4446
11.2395 75.4635
11.2844 71.976
11.3292 69.1361
11.374 68.0342
11.4189 67.6719
11.4637 66.7969
11.5086 67.0543
11.5534 69.1887
11.5983 67.0327
11.6431 65.5497
11.688 64.6646
11.7328 64.6751
11.7777 64.6859
11.8225 64.3433
11.8674 64.2977
11.9122 64.6362
11.9571 65.1167
12.002 66.059
12.0468 72.7777
12.0917 86.0227
12.1366 108.333
12.1814 149.333
12.2263 199.823
12.2712 178.377
12.3161 101.358
12.3609 72.1355
12.4058 66.4363
12.4507 65.9341
12.4956 66.3912
12.5405 66.396
12.5853 67.169
12.6302 73.6772
12.6751 78.464
12.72 71.6798
12.7649 69.9359
12.8098 70.4604
12.8547 71.761
12.8996 73.4433
12.9445 74.6531
12.9894 76.4759
13.0343 78.5684
13.0792 82.3948
13.1242 96.1054
13.1691 125.056
13.214 164.15
13.2589 241.025
13.3038 349.176
13.3487 428.906
13.3937 286.423
13.4386 133.771
13.4835 116.094
13.5285 133.8
13.5734 169.49
13.6183 239.184
13.6633 329.017
13.7082 343.706
13.7531 204.609
13.7981 103.594
13.843 84.4155
13.888 82.2918
13.9329 79.495
13.9779 78.2126
14.0228 76.7686
14.0678 75.1709
14.1127 74.615
14.1577 74.4358
14.2027 73.4862
14.2476 72.5404
14.2926 72.6949
14.3376 73.5384
14.3825 72.1751
14.4275 70.8138
14.4725 70.7932
14.5175 70.9697
14.5624 71.26
14.6074 73.0204
14.6524 73.6695
14.6974 72.8916
14.7424 75.6254
14.7874 84.9607
14.8324 96.9677
14.8774 117.331
14.9224 152.257
14.9674 198.736
15.0124 219.406
15.0574 157.524
15.1024 95.2014
15.1474 74.6907
15.1924 72.6435
15.2374 72.8449
15.2824 71.9061
15.3274 70.1703
15.3725 68.859
15.4175 68.5976
15.4625 68.3244
15.5076 68.3579
15.5526 68.2762
15.5976 68.2028
15.6426 70.2548
15.6877 77.7484
15.7327 86.2033
15.7778 101.47
15.8228 127.136
15.8679 162.43
15.9129 193.464
15.958 167.174
16.003 103.809
16.0481 70.6729
16.0931 66.3263
16.1382 64.4217
16.1833 62.457
16.2283 60.7475
16.2734 60.0959
16.3185 60.1797
16.3636 60.5714
16.4086 59.1913
16.4537 58.0008
16.4988 57.1485
16.5439 57.1772
16.589 56.8393
16.6341 56.6607
16.6792 56.1752
16.7243 56.667
16.7694 56.5219
16.8145 56.4468
16.8596 56.8517
16.9047 57.9794
16.9498 58.3736
16.9949 57.3367
17.04 57.7629
17.0851 59.4789
17.1302 61.3128
17.1754 64.3481
17.2205 68.9996
17.2656 75.0144
17.3108 82.968
17.3559 84.3377
17.401 74.3864
17.4462 64.6235
17.4913 61.0171
17.5365 60.9604
17.5815 61.2807
17.6268 61.5048
17.6718 62.0758
17.7171 62.7983
17.7622 63.1389
17.8074 63.9401
17.8525 67.7303
17.8977 72.4898
17.9428 78.1211
17.9881 86.8923
18.0331 101.272
18.0784 118.802
18.1237 140.042
18.1688 138.588
18.214 112.11
18.2591 90.9476
18.3044 91.2916
18.3495 99.1146
18.3948 106.984
18.4399 100.317
18.4852 81.2319
18.5303 68.1344
18.5756 64.21
18.6207 63.241
18.666 62.2301
18.7112 61.4846
18.7565 60.9612
18.8016 60.5908
18.8469 59.7674
18.892 59.5322
18.9374 59.1402
18.9825 58.8098
19.0278 58.5858
19.073 58.8254
19.1183 59.6167
19.1635 60.4767
19.2088 62.0252
19.254 64.1364
19.2993 67.7527
19.3447 72.8281
19.3898 77.5986
19.4352 75.0048
19.4804 66.1926
19.5257 58.9535
19.5709 56.0151
19.6163 55.5935
19.6615 55.4406
19.7068 54.9708
19.752 54.9435
19.7974 55.4424
19.8426 56.6567
19.888 57.1876
19.9332 58.4462
19.9786 60.7777
20.0238 63.7926
20.0692 67.9262
20.1144 71.2513
20.1598 71.0523
20.205 66.1522
20.2504 63.61
20.2957 64.3782
20.3411 66.7465
20.3863 66.1234
20.4318 60.8683
20.477 55.6254
20.5224 53.0895
20.5677 52.3718
20.6131 51.8648
20.6586 51.2551
20.7038 51.1217
20.7493 50.4847
20.7945 50.6486
20.84 50.3697
20.8853 50.2229
20.9307 50.2326
20.976 50.1155
21.0215 50.3721
21.0668 50.636
21.1122 51.1559
21.1575 51.6134
21.203 51.9621
21.2483 52.9233
21.2938 53.3301
21.3391 51.8815
21.3846 50.5055
21.4299 50.0907
21.4754 50.0168
21.5207 50.1911
21.5662 50.5059
21.6116 50.997
21.6571 51.766
21.7024 52.7472
21.7479 54.6922
21.7933 57.0135
21.8388 59.9264
21.8843 63.4879
21.9297 66.3794
21.9752 65.807
22.0206 61.7542
22.0661 58.1126
22.1115 57.2189
22.157 57.3515
22.2024 55.9773
22.248 53.4112
22.2933 51.4228
22.3389 50.6145
22.3843 50.4746
22.4299 50.4754
22.4753 50.5503
22.5208 50.3455
22.5662 49.9813
22.6118 50.2468
22.6572 50.6735
22.7028 51.0745
22.7483 51.5428
22.7939 52.2755
22.8393 53.5529
22.8849 55.1944
22.9303 56.949
22.9759 58.9806
23.0214 59.1343
23.067 56.5063
23.1126 53.0778
23.1581 50.8898
23.2037 50.5043
23.2492 50.535
23.2948 50.754
23.3403 50.8624
23.3859 51.6419
23.4314 52.5752
23.477 53.9263
23.5225 55.6968
23.5682 57.5093
23.6137 59.3921
23.6593 57.5481
23.7048 53.7156
23.7505 49.8272
23.796 48.0731
23.8417 47.4329
23.8872 46.9364
23.9329 46.5324
23.9784 46.3026
24.0241 45.9351
24.0697 45.7732
24.1154 45.3214
24.1609 45.4171
24.2066 45.1908
24.2522 45.0309
24.2979 44.8326
24.3434 44.6618
24.3892 44.3983
24.4349 44.5002
24.4805 44.0979
24.5262 44.3325
24.5718 44.0649
24.6175 44.3109
24.6631 44.1496
24.7089 43.8907
24.7545 43.6634
24.8002 43.5291
24.8458 43.5753
24.8916 43.4232
24.9372 43.6166
24.983 43.9165
25.0286 44.2155
25.0744 44.6004
25.12 44.9638
25.1658 45.6688
25.2114 45.9007
25.2572 45.986
25.3029 45.9435
25.3487 46.1324
25.3943 46.0446
25.4402 45.125
25.4858 43.9618
25.5316 42.9336
25.5773 42.1078
25.6231 42.155
25.669 41.9176
25.7147 41.8407
25.7605 41.7345
25.8062 41.8899
25.8521 41.8683
25.8977 41.8165
25.9436 42.0898
25.9893 42.1888
26.0352 42.5623
26.0809 42.7257
26.1268 42.9308
26.1725 42.6992
26.2184 42.3214
26.2641 41.5678
26.31 41.3689
26.3557 41.3946
26.4017 41.426
26.4474 41.661
26.4933 42.0201
26.5391 42.4938
26.585 42.7305
26.6308 43.2633
26.6767 43.4906
26.7225 43.4093
26.7684 42.818
26.8142 42.0592
26.8601 41.6168
26.9059 41.316
26.9519 40.7592
26.9979 40.3924
27.0437 40.0279
27.0896 39.8376
27.1354 40.0067
27.1814 39.7849
27.2272 39.6234
27.2732 39.6527
27.3191 39.5143
27.3651 39.651
27.4109 39.3941
27.4569 39.5303
27.5027 39.7064
27.5488 39.7555
27.5946 39.5395
27.6407 39.448
27.6865 39.2828
27.7326 38.9545
27.7784 39.0582
27.8245 39.0323
27.8703 39.0861
27.9164 39.3978
27.9623 39.5197
28.0084 39.742
28.0543 40.2872
28.1003 40.1885
28.1462 39.9775
28.1923 39.6063
28.2384 39.1464
28.2843 38.6655
28.3304 38.3783
28.3764 37.8187
28.4225 37.4827
28.4684 37.3554
28.5145 37.1589
28.5605 36.8837
28.6066 36.6579
28.6526 36.7352
28.6987 36.6085
28.7447 36.5372
28.7908 36.4479
28.8368 36.4408
28.8829 36.4366
28.9289 36.4466
28.9751 36.2813
29.0211 36.0846
29.0673 35.6908
29.1133 35.6754
29.1595 35.3466
29.2055 35.4028
29.2517 35.3653
29.2977 35.1978
29.3439 35.2965
29.3899 35.2564
29.4361 35.1366
29.4824 35.059
29.5284 34.7934
29.5746 34.433
29.6207 34.0996
29.6669 34.036
29.713 33.9414
29.7593 33.8791
29.8053 34.0023
29.8516 33.8608
29.8977 33.7244
29.9439 33.6503
29.99 33.6969
30.0363 33.4769
30.0824 33.443
30.1287 33.3923
30.1748 33.3852
30.2211 33.3435
30.2673 33.264
30.3136 33.306
30.3597 33.3005
30.406 33.1891
30.4522 32.9407
30.4985 32.9149
30.5447 33.1359
30.591 33.1624
30.6372 33.1944
30.6835 33.036
30.7297 33.1979
30.7761 33.1513
30.8224 32.942
30.8686 32.7692
30.915 32.5877
30.9612 32.535
31.0076 32.2672
31.0538 32.0878
31.1002 32.0694
31.1464 31.9111
31.1928 31.8663
31.2391 31.887
31.2855 31.773
31.3317 31.7219
31.3781 31.869
31.4244 31.8122
31.4708 31.632
31.5171 31.8053
31.5636 31.6724
31.6098 31.4626
31.6563 31.3451
31.7026 31.1793
31.7491 31.0091
31.7953 31.0509
31.8418 31.1466
31.8881 30.9858
31.9346 30.9642
31.9809 30.8162
32.0275 30.7778
32.074 30.715
32.1203 30.5638
32.1668 30.3374
32.2132 30.2655
32.2597 30.1677
32.306 30.047
32.3526 29.8962
32.399 29.7692
32.4455 29.7268
32.4919 29.6033
32.5385 29.555
32.5848 29.3478
32.6314 29.3694
32.6778 29.3239
32.7244 29.1674
32.7708 28.9172
32.8174 28.9545
32.8638 28.8786
32.9104 28.9869
32.9569 28.8147
33.0035 28.7421
33.0499 28.7762
33.0966 28.6105
33.143 28.6317
33.1897 28.492
33.2361 28.4323
33.2828 28.3829
33.3293 28.2159
33.3759 28.1903
33.4226 28.1098
33.4691 27.9241
33.5158 27.7808
33.5623 27.7727
33.609 27.577
33.6555 27.4674
33.7022 27.3527
33.7487 27.2881
33.7954 27.3036
33.842 27.1201
33.8887 27.1776
33.9353 27.0344
33.982 26.8653
34.0286 26.8642
34.0753 26.7328
34.1219 26.7214
34.1687 26.5874
34.2152 26.516
34.262 26.4245
34.3086 26.297
34.3554 26.3086
34.402 26.1538
34.4488 25.9993
34.4954 26.0158
34.5422 25.944
34.5889 25.8262
34.6357 25.7455
34.6825 25.6672
34.7292 25.5212
34.776 25.4253
34.8227 25.3996
34.8695 25.2884
34.9162 25.2945
34.9631 25.1531
35.0098 25.1511
35.0566 25.1127
35.1033 25.0375
35.1502 24.9794
35.1969 24.9092
35.2438 24.7998
35.2906 24.7725
35.3375 24.7346
35.3842 24.7001
35.4311 24.6728
35.4779 24.6301
35.5248 24.6377
35.5716 24.45
35.6185 24.4068
35.6653 24.3023
35.7123 24.2626
35.759 24.1666
35.806 24.0266
35.8528 23.9753
35.8998 23.891
35.9468 23.7702
35.9936 23.7217
36.0406 23.6827
36.0874 23.6699
36.1345 23.6225
36.1813 23.4869
36.2283 23.3941
36.2752 23.3959
36.3222 23.2908
36.3691 23.1813
36.4161 23.0938
36.463 23.0749
36.5101 23.0845
36.557 23.0459
36.6041 22.8646
36.651 22.9121
36.6981 22.7999
36.745 22.7426
36.7921 22.663
36.839 22.5509
36.8861 22.4586
36.9331 22.3461
36.9802 22.3607
37.0272 22.1809
37.0743 22.1007
37.1213 22.1394
37.1684 22.0321
37.2154 21.9581
37.2626 21.8924
37.3098 21.891
37.3568 21.7335
37.404 21.6906
37.451 21.5816
37.4982 21.5517
37.5452 21.4516
37.5924 21.3798
37.6395 21.386
37.6867 21.3058
37.7337 21.2401
37.781 21.132
37.8281 21.0119
37.8753 21.0161
37.9224 20.9394
37.9697 20.9387
38.0168 20.7693
38.064 20.7611
38.1111 20.7138
38.1584 20.5972
38.2056 20.5688
38.2529 20.4901
38.3 20.4309
38.3473 20.4344
38.3945 20.3251
38.4418 20.2502
38.489 20.1441
38.5363 19.9789
38.5837 20.0712
38.6309 19.9896
38.6782 19.8797
38.7254 19.7922
38.7728 19.8443
38.82 19.6827
38.8674 19.6414
38.9146 19.5668
38.9621 19.5174
39.0093 19.5428
39.0567 19.4145
39.104 19.3133
39.1514 19.1756
39.1987 19.1888
39.2461 19.1864
39.2934 19.0469
39.3409 18.9976
39.3882 18.9383
39.4356 18.9146
39.483 18.8918
39.5304 18.8
39.5778 18.757
39.6253 18.6751
39.6726 18.568
39.7201 18.5269
39.7675 18.5418
39.815 18.5035
39.8624 18.358
39.9099 18.4284
39.9575 18.2805
40.0049 18.2112
40.0525 18.1287
40.0999 18.0558
40.1474 18.1029
40.1949 17.9634
40.2425 17.9155
40.2899 17.9097
40.3375 17.8049
40.385 17.7245
40.4326 17.6859
40.48 17.6333
40.5277 17.5687
40.5752 17.5369
40.6228 17.451
40.6703 17.4552
40.718 17.3933
40.7655 17.3974
40.8132 17.2506
40.8607 17.224
40.9084 17.1598
40.9559 17.0999
41.0036 17.0378
41.0512 16.9719
41.0989 16.9633
41.1465 16.8568
41.1942 16.8225
41.242 16.7659
41.2896 16.7163
41.3373 16.5872
41.3849 16.5671
41.4327 16.5903
41.4803 16.4908
41.5281 16.404
41.5758 16.3853
41.6236 16.2957
41.6712 16.2634
41.7191 16.168
41.7667 16.1175
41.8146 16.124
41.8622 16.0241
41.9101 16.0046
41.9578 15.9441
42.0057 15.871
42.0534 15.8249
42.1013 15.7984
42.149 15.7198
42.1969 15.6828
42.2446 15.6169
42.2925 15.5944
42.3403 15.4869
42.3882 15.5272
42.436 15.4152
42.4839 15.3406
42.5319 15.3155
42.5797 15.2431
42.6277 15.196
42.6755 15.121
42.7235 15.0906
42.7713 15.0897
42.8193 14.9956
42.8671 14.9251
42.9152 14.893
42.963 14.8069
43.0111 14.7863
43.0589 14.7434
43.107 14.664
43.1549 14.6234
43.2029 14.5737
43.2508 14.5281
43.2989 14.4874
43.3468 14.453
43.3949 14.4125
43.4429 14.3416
43.491 14.2973
43.5389 14.25
43.5871 14.2214
43.635 14.1154
43.6832 14.1073
43.7312 14.0
43.7793 13.9833
43.8273 13.9323
43.8755 13.9059
43.9237 13.91
43.9717 13.8137
44.0199 13.7479
44.068 13.7186
44.1162 13.6474
44.1642 13.6389
44.2125 13.5517
44.2606 13.5122
44.3088 13.4868
44.3569 13.4358
44.4052 13.3439
44.4533 13.2793
44.5016 13.2769
44.5497 13.2266
44.598 13.1826
44.6461 13.1207
44.6945 13.1234
44.7426 13.069
44.791 13.0127
44.8391 12.9723
44.8875 12.9343
44.9357 12.8902
44.984 12.805
45.0322 12.7597
45.0806 12.7177
45.1288 12.6845
45.1773 12.6366
45.2257 12.6222
45.2739 12.6028
45.3224 12.5211
45.3706 12.4742
45.4191 12.4265
45.4673 12.3748
45.5158 12.3006
45.5641 12.2741
45.6126 12.2404
45.6609 12.1862
45.7094 12.1233
45.7577 12.1202
45.8063 12.0144
45.8546 12.0486
45.9031 11.9736
45.9515 11.9622
46.0001 11.8874
46.0484 11.8917
46.097 11.8556
46.1454 11.8038
46.194 11.7706
46.2424 11.698
46.291 11.6161
46.3395 11.569
46.3881 11.5355
46.4365 11.5517
46.4852 11.499
46.5337 11.426
46.5823 11.4182
46.631 11.3007
46.6795 11.3248
46.7282 11.2749
46.7767 11.2261
46.8254 11.1749
46.8739 11.1116
46.9226 11.082
46.9712 11.0833
47.0199 11.0329
47.0685 10.9723
47.1173 10.9241
47.1658 10.9212
47.2146 10.8664
47.2632 10.7948
47.312 10.8047
47.3606 10.74
47.4095 10.6975
47.4581 10.6304
47.5069 10.5882
47.5556 10.5774
47.6044 10.5625
47.6531 10.5413
47.702 10.4538
47.7507 10.4174
47.7996 10.3749
47.8483 10.3464
47.8972 10.2633
47.9461 10.2876
47.9948 10.2721
48.0438 10.1981
48.0925 10.1849
48.1415 10.1506
48.1902 10.0815
48.2392 10.0896
48.288 10.0276
48.337 9.96035
48.3858 9.94923
48.4348 9.88415
48.4837 9.94575
48.5327 9.84961
48.5815 9.82198
48.6306 9.80777
48.6795 9.7228
48.7285 9.69509
48.7774 9.65601
48.8265 9.616
48.8754 9.57891
48.9245 9.55682
48.9734 9.51648
49.0226 9.49188
49.0715 9.4795
49.1206 9.41708
49.1696 9.38609
49.2188 9.35949
49.2679 9.29743
49.3169 9.24304
49.3661 9.20442
49.4151 9.21091
49.4643 9.13117
49.5134 9.08435
49.5626 9.04229
49.6117 9.02375
49.6609 9.01301
49.71 8.96666
49.7592 8.98688
49.8083 8.89259
49.8576 8.86844
49.9067 8.83182
49.956 8.81019
50.0052 8.76356
50.0545 8.75894
50.1036 8.71214
50.153 8.64892
50.2022 8.66338
50.2515 8.6277
50.3007 8.56746
50.3501 8.53922
50.3993 8.53257
50.4487 8.48223
50.498 8.42525
50.5474 8.41656
50.5966 8.38934
50.6461 8.3309
50.6955 8.3295
50.7448 8.31248
50.7943 8.22969
50.8436 8.22588
50.8931 8.19953
50.9424 8.17227
50.9919 8.11921
51.0413 8.10427
51.0908 8.10192
51.1402 8.04556
51.1897 7.99484
51.2391 7.95371
51.2887 7.94076
51.3381 7.87484
51.3877 7.83891
51.4371 7.83702
51.4867 7.76889
51.5362 7.81566
51.5858 7.72113
51.6353 7.71859
51.6849 7.65635
51.7344 7.63808
51.7841 7.62052
51.8336 7.58319
51.8833 7.57298
51.9328 7.51503
51.9826 7.45409
52.0323 7.46863
52.0818 7.40635
52.1316 7.34734
52.1812 7.39397
52.231 7.29925
52.2806 7.31076
52.3304 7.25737
52.38 7.22063
52.4298 7.25308
52.4794 7.17741
52.5293 7.16168
52.5789 7.14366
52.6288 7.09832
52.6785 7.06098
52.7284 6.9914
52.7781 7.01235
52.828 6.99073
52.8777 6.93249
52.9276 6.90824
52.9774 6.86294
53.0273 6.87701
53.0771 6.86061
53.1271 6.81651
53.1769 6.75853
53.2269 6.75479
53.2767 6.70553
53.3267 6.68094
53.3765 6.70396
53.4266 6.62695
53.4766 6.5757
53.5265 6.53461
53.5765 6.50545
53.6264 6.53476
53.6765 6.51684
53.7264 6.46201
53.7765 6.47541
53.8265 6.38507
53.8766 6.38534
53.9266 6.33195
53.9767 6.33277
54.0267 6.32731
54.0769 6.25099
54.1269 6.24202
54.1771 6.18031
54.2271 6.21037
54.2773 6.12536
54.3274 6.06237
54.3776 6.05585
54.4277 6.07018
54.478 6.02296
54.528 5.97528
54.5783 5.92459
54.6285 5.85216
54.6788 5.8737
54.7289 5.81101
54.7792 5.76433
54.8296 5.71927
54.8798 5.69301
54.9301 5.67154
54.9803 5.57902
55.0307 5.58222
55.0809 5.56392
55.1314 5.47465
55.1816 5.47263
55.232 5.36616
55.2823 5.38757
55.3328 5.30529
55.383 5.23529
55.4335 5.21337
55.4838 5.17439
55.5344 5.07199
55.5847 5.10005
55.6352 5.01046
55.6856 5.04451
55.7361 4.98914