File: XRD/Ni3Fe_FD0656.xy
TT I
1.27165 7.54758
1.31627 6.33996
1.36089 6.54999
1.40551 6.53516
1.45013 6.3112
1.49476 5.89786
1.53938 6.31991
1.584 5.29563
1.62863 5.84854
1.67325 4.91021
1.71787 5.19693
1.7625 4.83021
1.80712 5.20304
1.85174 4.28444
1.89636 4.62767
1.94099 4.81591
1.98562 4.66782
2.03025 4.46483
2.07487 3.98459
2.11949 4.93213
2.16411 5.05633
2.20874 17.2786
2.25338 30.0199
2.298 6.86545
2.34263 5.55016
2.38725 6.05103
2.43188 6.04985
2.4765 7.3909
2.52115 7.0597
2.56577 6.91949
2.6104 8.17469
2.65503 7.87396
2.69965 7.82486
2.7443 8.01047
2.78893 8.38098
2.83356 8.20884
2.87818 9.14823
2.92281 9.21083
2.96744 9.32008
3.01209 10.3793
3.05672 11.3961
3.10135 12.0488
3.14599 13.1019
3.19062 14.8878
3.23527 15.0115
3.2799 15.8973
3.32454 16.8292
3.36917 18.0058
3.4138 19.1025
3.45844 20.0268
3.50309 21.0522
3.54773 22.2814
3.59237 24.7662
3.637 118.712
3.68164 74.4458
3.7263 26.6544
3.77094 26.4744
3.81558 27.2688
3.86022 27.8122
3.90486 29.4853
3.9495 29.9238
3.99416 31.488
4.0388 32.5736
4.08344 33.8049
4.12809 35.2534
4.17273 37.572
4.21738 45.3251
4.26204 329.302
4.30669 296.452
4.35133 51.8638
4.39598 45.2807
4.44063 57.1338
4.4853 73.3982
4.52995 51.3173
4.5746 51.215
4.61925 53.2914
4.6639 55.5188
4.70855 57.7861
4.75322 61.1688
4.79788 63.3816
4.84253 66.6945
4.88719 70.5459
4.93184 73.6953
4.97652 80.0063
5.02118 85.9505
5.06583 93.1442
5.11049 104.407
5.15515 188.482
5.19981 326.577
5.24449 2525.72
5.28916 12622.1
5.33382 3290.49
5.37848 196.85
5.42315 130.63
5.46783 113.608
5.5125 105.934
5.55716 101.927
5.60183 98.3104
5.6465 96.9115
5.69117 94.0545
5.73586 91.5999
5.78053 90.8041
5.8252 90.3459
5.86988 91.0915
5.91455 92.615
5.95924 99.2649
6.00392 184.514
6.0486 872.413
6.09328 4266.76
6.13795 3494.14
6.18263 267.362
6.22733 95.1615
6.27201 84.3437
6.3167 113.237
6.36138 85.1294
6.40606 69.4805
6.45075 67.705
6.49545 66.1353
6.54014 64.0764
6.58483 63.5284
6.62952 63.5593
6.67421 105.027
6.71892 181.021
6.76361 74.0456
6.8083 59.5747
6.853 57.9982
6.89769 57.5694
6.94239 56.9894
6.98711 56.2277
7.03181 56.0024
7.07651 56.2945
7.12121 55.8518
7.16591 56.3176
7.21063 56.5577
7.25533 75.1516
7.30004 230.424
7.34475 108.606
7.38945 57.8749
7.43416 55.372
7.47889 54.99
7.5236 55.4953
7.56831 56.207
7.61303 58.2123
7.65774 58.2927
7.70247 56.479
7.74719 56.4003
7.79191 56.562
7.83663 57.2198
7.88135 58.2377
7.92607 58.9099
7.97081 60.0551
8.01553 60.9159
8.06026 62.5511
8.10498 63.9506
8.14971 76.9571
8.19446 74.8735
8.23919 70.1597
8.28392 71.6407
8.32865 73.9528
8.37339 78.0556
8.41812 85.5548
8.46288 121.989
8.50761 155.821
8.55235 354.198
8.59709 1068.91
8.64183 2173.12
8.68658 1048.73
8.73134 181.024
8.77609 100.319
8.82083 93.1832
8.86558 89.7699
8.91033 90.5565
8.9551 94.0852
8.99985 86.1229
9.04461 83.4913
9.08936 82.1895
9.13412 81.5701
9.17888 82.2488
9.22365 83.0482
9.26841 81.9856
9.31318 82.4041
9.35794 82.2394
9.4027 82.6501
9.44749 83.7959
9.49226 84.6044
9.53703 85.1373
9.5818 86.7821
9.62657 92.4114
9.67134 101.927
9.71614 94.6587
9.76091 93.9529
9.80569 95.4895
9.85047 99.614
9.89525 130.776
9.94005 146.058
9.98484 165.776
10.0296 313.296
10.0744 733.048
10.1192 1666.35
10.164 1710.66
10.2088 458.285
10.2536 132.298
10.2984 116.057
10.3432 120.008
10.388 105.427
10.4328 114.607
10.4776 152.451
10.5224 260.127
10.5672 481.652
10.612 531.415
10.6568 223.238
10.7017 99.1213
10.7465 87.1724
10.7913 83.2247
10.8361 81.2965
10.8809 79.2065
10.9257 78.9261
10.9706 80.7681
11.0154 75.4845
11.0602 73.1888
11.105 72.1916
11.1499 78.4533
11.1947 89.9344
11.2395 77.3099
11.2844 72.1432
11.3292 67.6012
11.374 66.4384
11.4189 65.8521
11.4637 65.4702
11.5086 66.1166
11.5534 70.8009
11.5983 66.8446
11.6431 63.8629
11.688 63.2365
11.7328 63.1178
11.7777 63.0747
11.8225 62.6742
11.8674 62.597
11.9122 62.9988
11.9571 63.2115
12.002 63.3437
12.0468 66.8157
12.0917 77.9922
12.1366 99.7378
12.1814 144.216
12.2263 202.528
12.2712 177.035
12.3161 105.026
12.3609 73.3251
12.4058 65.4466
12.4507 64.6145
12.4956 64.5671
12.5405 64.8372
12.5853 65.9419
12.6302 76.257
12.6751 84.5239
12.72 72.2595
12.7649 68.1167
12.8098 68.6002
12.8547 69.7408
12.8996 70.9707
12.9445 72.1605
12.9894 73.5165
13.0343 75.3704
13.0792 78.2807
13.1242 85.9793
13.1691 108.495
13.214 142.06
13.2589 221.921
13.3038 351.379
13.3487 439.103
13.3937 288.642
13.4386 131.203
13.4835 104.166
13.5285 116.484
13.5734 150.476
13.6183 232.069
13.6633 335.746
13.7082 351.33
13.7531 202.068
13.7981 101.003
13.843 82.1021
13.888 79.7889
13.9329 77.0486
13.9779 75.8932
14.0228 74.3657
14.0678 72.883
14.1127 72.8526
14.1577 73.0909
14.2027 71.9269
14.2476 70.465
14.2926 70.952
14.3376 72.708
14.3825 70.7566
14.4275 69.0482
14.4725 68.6434
14.5175 69.073
14.5624 69.0301
14.6074 72.0441
14.6524 72.731
14.6974 70.4267
14.7424 71.1879
14.7874 76.9685
14.8324 86.4812
14.8774 105.495
14.9224 145.115
14.9674 198.357
15.0124 220.638
15.0574 157.897
15.1024 94.8992
15.1474 73.0413
15.1924 70.7869
15.2374 72.3301
15.2824 71.3981
15.3274 68.5975
15.3725 67.099
15.4175 66.4711
15.4625 66.0537
15.5076 66.422
15.5526 66.4082
15.5976 65.7732
15.6426 66.3939
15.6877 70.8396
15.7327 77.8656
15.7778 91.6944
15.8228 120.133
15.8679 162.085
15.9129 195.503
15.958 165.22
16.003 103.484
16.0481 69.6985
16.0931 65.9197
16.1382 63.9125
16.1833 61.336
16.2283 59.2779
16.2734 58.573
16.3185 59.3729
16.3636 60.4962
16.4086 58.7925
16.4537 56.6682
16.4988 55.8903
16.5439 55.7002
16.589 55.3156
16.6341 55.002
16.6792 54.5179
16.7243 54.9822
16.7694 55.2598
16.8145 55.2616
16.8596 55.5731
16.9047 57.6807
16.9498 57.9891
16.9949 56.0451
17.04 55.7493
17.0851 56.7163
17.1302 58.5137
17.1754 61.2913
17.2205 65.8236
17.2656 72.9509
17.3108 81.9396
17.3559 83.7502
17.401 72.402
17.4462 62.5652
17.4913 59.27
17.5365 59.2179
17.5815 59.2466
17.6268 59.4841
17.6718 60.5337
17.7171 61.2519
17.7622 61.2902
17.8074 61.6858
17.8525 63.3097
17.8977 67.3636
17.9428 72.4086
17.9881 80.3251
18.0331 95.8682
18.0784 117.29
18.1237 138.793
18.1688 135.447
18.214 106.993
18.2591 86.6663
18.3044 88.8016
18.3495 98.3579
18.3948 106.395
18.4399 100.18
18.4852 80.1982
18.5303 66.945
18.5756 62.5385
18.6207 61.5478
18.666 60.6431
18.7112 59.9471
18.7565 59.0294
18.8016 58.8071
18.8469 58.067
18.892 57.9334
18.9374 57.337
18.9825 57.2453
19.0278 57.0536
19.073 57.036
19.1183 57.5714
19.1635 58.3693
19.2088 59.4339
19.254 61.8284
19.2993 65.8824
19.3447 72.2143
19.3898 77.3635
19.4352 73.9557
19.4804 64.7986
19.5257 57.405
19.5709 54.2789
19.6163 53.9299
19.6615 53.8605
19.7068 53.4805
19.752 53.5062
19.7974 53.5164
19.8426 54.4772
19.888 54.9763
19.9332 56.0241
19.9786 58.192
20.0238 61.3912
20.0692 66.5365
20.1144 69.9259
20.1598 69.0138
20.205 63.9792
20.2504 61.8506
20.2957 63.299
20.3411 65.6365
20.3863 64.8565
20.4318 59.4508
20.477 54.4294
20.5224 52.2047
20.5677 51.4158
20.6131 50.4191
20.6586 49.9711
20.7038 49.5422
20.7493 49.1543
20.7945 49.1476
20.84 49.0432
20.8853 48.8199
20.9307 48.6859
20.976 48.7542
21.0215 48.5699
21.0668 48.9939
21.1122 49.4066
21.1575 50.0888
21.203 50.8212
21.2483 51.3522
21.2938 51.7626
21.3391 50.4758
21.3846 49.0611
21.4299 48.5594
21.4754 48.5227
21.5207 48.6634
21.5662 48.8177
21.6116 49.2552
21.6571 49.7701
21.7024 50.7397
21.7479 52.4056
21.7933 54.8129
21.8388 58.1713
21.8843 61.968
21.9297 64.5787
21.9752 64.2246
22.0206 60.4187
22.0661 56.8631
22.1115 56.0722
22.157 56.4047
22.2024 54.8563
22.248 52.0162
22.2933 50.2608
22.3389 49.2746
22.3843 49.2405
22.4299 49.3455
22.4753 49.3698
22.5208 48.8362
22.5662 48.6217
22.6118 48.6988
22.6572 48.9957
22.7028 49.2349
22.7483 49.6263
22.7939 50.2106
22.8393 51.7677
22.8849 53.5414
22.9303 55.7847
22.9759 57.8549
23.0214 57.9125
23.067 55.3707
23.1126 51.6824
23.1581 49.6383
23.2037 48.9163
23.2492 48.9078
23.2948 48.7613
23.3403 49.1018
23.3859 49.6714
23.4314 50.5692
23.477 52.3596
23.5225 54.2303
23.5682 56.7052
23.6137 58.2738
23.6593 56.441
23.7048 52.4905
23.7505 48.8416
23.796 46.7944
23.8417 46.2145
23.8872 45.7781
23.9329 45.3639
23.9784 44.9988
24.0241 44.6819
24.0697 44.6083
24.1154 44.3269
24.1609 44.0533
24.2066 44.0041
24.2522 43.7802
24.2979 43.5137
24.3434 43.6747
24.3892 43.4137
24.4349 43.3503
24.4805 43.0911
24.5262 43.0909
24.5718 43.1012
24.6175 43.1126
24.6631 42.9542
24.7089 42.6488
24.7545 42.6504
24.8002 42.4396
24.8458 42.3206
24.8916 42.1198
24.9372 42.2632
24.983 42.6125
25.0286 42.8276
25.0744 43.252
25.12 43.7051
25.1658 44.3237
25.2114 44.7978
25.2572 44.7965
25.3029 44.9451
25.3487 44.9618
25.3943 44.8912
25.4402 43.9122
25.4858 42.8466
25.5316 41.6905
25.5773 41.1006
25.6231 41.1701
25.669 40.6497
25.7147 40.6102
25.7605 40.5509
25.8062 40.6541
25.8521 40.8061
25.8977 40.6684
25.9436 41.0265
25.9893 40.8836
26.0352 41.5211
26.0809 41.5291
26.1268 41.8433
26.1725 41.4298
26.2184 40.9687
26.2641 40.3999
26.31 40.1003
26.3557 40.2095
26.4017 40.2758
26.4474 40.4628
26.4933 40.7665
26.5391 41.2109
26.585 41.6582
26.6308 42.1148
26.6767 42.2235
26.7225 42.1997
26.7684 41.7106
26.8142 41.0374
26.8601 40.5994
26.9059 40.1835
26.9519 39.6744
26.9979 39.2196
27.0437 39.0067
27.0896 38.7973
27.1354 38.904
27.1814 38.6362
27.2272 38.668
27.2732 38.5493
27.3191 38.4661
27.3651 38.6058
27.4109 38.5142
27.4569 38.6118
27.5027 38.7097
27.5488 38.5927
27.5946 38.5968
27.6407 38.2696
27.6865 38.1092
27.7326 37.9098
27.7784 38.0103
27.8245 37.8903
27.8703 38.0379
27.9164 38.3298
27.9623 38.4394
28.0084 38.7972
28.0543 39.1474
28.1003 39.0514
28.1462 38.9804
28.1923 38.6728
28.2384 38.16
28.2843 37.8077
28.3304 37.3715
28.3764 36.8707
28.4225 36.5812
28.4684 36.4971
28.5145 36.1051
28.5605 36.0582
28.6066 35.777
28.6526 35.8284
28.6987 35.7378
28.7447 35.6332
28.7908 35.5823
28.8368 35.638
28.8829 35.6186
28.9289 35.4424
28.9751 35.3289
29.0211 34.9966
29.0673 34.8604
29.1133 34.5923
29.1595 34.5145
29.2055 34.392
29.2517 34.4627
29.2977 34.2744
29.3439 34.4221
29.3899 34.3308
29.4361 34.3009
29.4824 34.1126
29.5284 33.873
29.5746 33.5388
29.6207 33.2067
29.6669 33.1684
29.713 33.1889
29.7593 32.9786
29.8053 32.9151
29.8516 32.9498
29.8977 32.8901
29.9439 32.6818
29.99 32.6619
30.0363 32.5185
30.0824 32.6209
30.1287 32.4237
30.1748 32.5405
30.2211 32.5907
30.2673 32.4195
30.3136 32.4969
30.3597 32.4304
30.406 32.4072
30.4522 32.1073
30.4985 32.1071
30.5447 32.3004
30.591 32.223
30.6372 32.3315
30.6835 32.3466
30.7297 32.3574
30.7761 32.2737
30.8224 32.2183
30.8686 32.1099
30.915 31.6616
30.9612 31.587
31.0076 31.4539
31.0538 31.2658
31.1002 31.1963
31.1464 31.0291
31.1928 31.0622
31.2391 31.0372
31.2855 31.035
31.3317 30.8857
31.3781 30.9803
31.4244 30.9064
31.4708 30.9386
31.5171 30.9173
31.5636 30.813
31.6098 30.6927
31.6563 30.4695
31.7026 30.436
31.7491 30.2227
31.7953 30.3817
31.8418 30.1668
31.8881 30.2189
31.9346 30.2778
31.9809 30.2049
32.0275 30.0712
32.074 29.9388
32.1203 29.7492
32.1668 29.6494
32.2132 29.5528
32.2597 29.3519
32.306 29.2533
32.3526 29.0831
32.399 28.984
32.4455 28.8601
32.4919 28.8094
32.5385 28.8034
32.5848 28.6279
32.6314 28.5437
32.6778 28.4779
32.7244 28.2703
32.7708 28.2962
32.8174 28.2753
32.8638 28.1062
32.9104 28.2448
32.9569 28.0999
33.0035 27.9723
33.0499 27.9466
33.0966 27.8756
33.143 27.9111
33.1897 27.8256
33.2361 27.7069
33.2828 27.7061
33.3293 27.5407
33.3759 27.456
33.4226 27.3332
33.4691 27.2953
33.5158 27.1961
33.5623 27.0732
33.609 26.8682
33.6555 26.7346
33.7022 26.7067
33.7487 26.5777
33.7954 26.5976
33.842 26.5296
33.8887 26.3662
33.9353 26.4219
33.982 26.1922
34.0286 26.2193
34.0753 26.1256
34.1219 26.0518
34.1687 25.9734
34.2152 25.9294
34.262 25.8191
34.3086 25.7077
34.3554 25.6613
34.402 25.477
34.4488 25.4287
34.4954 25.2895
34.5422 25.2933
34.5889 25.1249
34.6357 25.0996
34.6825 24.9776
34.7292 24.959
34.776 24.8284
34.8227 24.7071
34.8695 24.7422
34.9162 24.6916
34.9631 24.6555
35.0098 24.6767
35.0566 24.4755
35.1033 24.4121
35.1502 24.4
35.1969 24.3768
35.2438 24.2074
35.2906 24.2509
35.3375 24.1962
35.3842 24.0121
35.4311 24.1263
35.4779 24.0573
35.5248 23.9978
35.5716 23.877
35.6185 23.8017
35.6653 23.6973
35.7123 23.6992
35.759 23.5757
35.806 23.3732
35.8528 23.4271
35.8998 23.259
35.9468 23.1664
35.9936 23.2247
36.0406 23.0762
36.0874 23.1215
36.1345 22.9849
36.1813 22.907
36.2283 22.8288
36.2752 22.6832
36.3222 22.7533
36.3691 22.6025
36.4161 22.5027
36.463 22.5471
36.5101 22.4813
36.557 22.5042
36.6041 22.2826
36.651 22.2897
36.6981 22.2532
36.745 22.2037
36.7921 22.057
36.839 21.9319
36.8861 21.8759
36.9331 21.8662
36.9802 21.7302
37.0272 21.7367
37.0743 21.5894
37.1213 21.5327
37.1684 21.4747
37.2154 21.4367
37.2626 21.3726
37.3098 21.2814
37.3568 21.1761
37.404 21.2778
37.451 21.0698
37.4982 20.9099
37.5452 20.8903
37.5924 20.8234
37.6395 20.901
37.6867 20.7915
37.7337 20.6951
37.781 20.6196
37.8281 20.5688
37.8753 20.456
37.9224 20.4471
37.9697 20.3454
38.0168 20.2988
38.064 20.2556
38.1111 20.109
38.1584 20.0658
38.2056 20.0265
38.2529 20.0754
38.3 19.9045
38.3473 19.8813
38.3945 19.7338
38.4418 19.7604
38.489 19.6747
38.5363 19.5546
38.5837 19.5139
38.6309 19.4902
38.6782 19.4809
38.7254 19.3422
38.7728 19.2584
38.82 19.1762
38.8674 19.2352
38.9146 19.1565
38.9621 19.0623
39.0093 19.0218
39.0567 18.9541
39.104 18.9074
39.1514 18.7219
39.1987 18.7328
39.2461 18.702
39.2934 18.5996
39.3409 18.5224
39.3882 18.4553
39.4356 18.4204
39.483 18.408
39.5304 18.2806
39.5778 18.3006
39.6253 18.1732
39.6726 18.2166
39.7201 18.1849
39.7675 18.1024
39.815 18.0022
39.8624 17.886
39.9099 17.9141
39.9575 17.7889
40.0049 17.7697
40.0525 17.6967
40.0999 17.6792
40.1474 17.6436
40.1949 17.5071
40.2425 17.4969
40.2899 17.4044
40.3375 17.4106
40.385 17.3205
40.4326 17.3035
40.48 17.1565
40.5277 17.1334
40.5752 17.1072
40.6228 16.9888
40.6703 17.0037
40.718 16.9108
40.7655 16.9259
40.8132 16.8491
40.8607 16.8414
40.9084 16.7149
40.9559 16.6418
41.0036 16.6573
41.0512 16.5641
41.0989 16.4957
41.1465 16.4819
41.1942 16.4109
41.242 16.3306
41.2896 16.2746
41.3373 16.2145
41.3849 16.2221
41.4327 16.154
41.4803 16.0713
41.5281 16.0134
41.5758 15.9937
41.6236 15.8901
41.6712 15.8151
41.7191 15.8266
41.7667 15.7318
41.8146 15.7224
41.8622 15.5874
41.9101 15.6366
41.9578 15.4928
42.0057 15.5307
42.0534 15.4106
42.1013 15.3896
42.149 15.3215
42.1969 15.3206
42.2446 15.3203
42.2925 15.2289
42.3403 15.1965
42.3882 15.1249
42.436 15.004
42.4839 14.9634
42.5319 14.952
42.5797 14.8708
42.6277 14.8428
42.6755 14.7492
42.7235 14.7394
42.7713 14.7222
42.8193 14.6107
42.8671 14.5417
42.9152 14.5174
42.963 14.4947
43.0111 14.4227
43.0589 14.4182
43.107 14.3233
43.1549 14.2556
43.2029 14.2571
43.2508 14.2465
43.2989 14.135
43.3468 14.1046
43.3949 14.0597
43.4429 14.019
43.491 13.9597
43.5389 13.8941
43.5871 13.8564
43.635 13.7457
43.6832 13.7836
43.7312 13.6771
43.7793 13.6214
43.8273 13.6452
43.8755 13.5444
43.9237 13.5363
43.9717 13.5168
44.0199 13.392
44.068 13.404
44.1162 13.2923
44.1642 13.311
44.2125 13.2884
44.2606 13.2194
44.3088 13.1407
44.3569 13.168
44.4052 13.0719
44.4533 13.013
44.5016 12.9709
44.5497 12.9163
44.598 12.8502
44.6461 12.8323
44.6945 12.8412
44.7426 12.7659
44.791 12.6847
44.8391 12.6852
44.8875 12.5932
44.9357 12.5867
44.984 12.5309
45.0322 12.4168
45.0806 12.4317
45.1288 12.3791
45.1773 12.3574
45.2257 12.3327
45.2739 12.2895
45.3224 12.2485
45.3706 12.1934
45.4191 12.0934
45.4673 12.0662
45.5158 12.0282
45.5641 12.0117
45.6126 12.0049
45.6609 11.9332
45.7094 11.871
45.7577 11.8629
45.8063 11.734
45.8546 11.7833
45.9031 11.697
45.9515 11.6609
46.0001 11.6357
46.0484 11.5671
46.097 11.5327
46.1454 11.5225
46.194 11.4514
46.2424 11.4171
46.291 11.3712
46.3395 11.3441
46.3881 11.2745
46.4365 11.2653
46.4852 11.2285
46.5337 11.1517
46.5823 11.1644
46.631 11.098
46.6795 11.0426
46.7282 10.9691
46.7767 10.9755
46.8254 10.9218
46.8739 10.8903
46.9226 10.8025
46.9712 10.8046
47.0199 10.7657
47.0685 10.7405
47.1173 10.6829
47.1658 10.6121
47.2146 10.5994
47.2632 10.5531
47.312 10.5137
47.3606 10.5025
47.4095 10.4432
47.4581 10.4191
47.5069 10.3766
47.5556 10.3398
47.6044 10.2607
47.6531 10.2192
47.702 10.183
47.7507 10.192
47.7996 10.163
47.8483 10.1092
47.8972 10.114
47.9461 10.007
47.9948 9.96013
48.0438 9.9394
48.0925 9.93573
48.1415 9.85774
48.1902 9.88273
48.2392 9.79702
48.288 9.79195
48.337 9.74894
48.3858 9.69975
48.4348 9.71269
48.4837 9.6932
48.5327 9.64879
48.5815 9.57271
48.6306 9.56115
48.6795 9.5279
48.7285 9.45139
48.7774 9.41812
48.8265 9.42682
48.8754 9.33255
48.9245 9.29503
48.9734 9.29769
49.0226 9.28656
49.0715 9.24002
49.1206 9.19788
49.1696 9.13396
49.2188 9.13009
49.2679 9.09287
49.3169 9.04282
49.3661 9.0184
49.4151 8.98654
49.4643 8.95633
49.5134 8.91954
49.5626 8.85928
49.6117 8.86648
49.6609 8.82942
49.71 8.75434
49.7592 8.72571
49.8083 8.69302
49.8576 8.66764
49.9067 8.65772
49.956 8.59936
50.0052 8.58229
50.0545 8.55651
50.1036 8.494
50.153 8.4706
50.2022 8.47323
50.2515 8.39715
50.3007 8.33624
50.3501 8.31778
50.3993 8.31835
50.4487 8.2981
50.498 8.25846
50.5474 8.22142
50.5966 8.17089
50.6461 8.19831
50.6955 8.14693
50.7448 8.05743
50.7943 8.09989
50.8436 8.04581
50.8931 7.9961
50.9424 7.99201
50.9919 7.91665
51.0413 7.91584
51.0908 7.90154
51.1402 7.85072
51.1897 7.82749
51.2391 7.78829
51.2887 7.75992
51.3381 7.70141
51.3877 7.70745
51.4371 7.66156
51.4867 7.62433
51.5362 7.6029
51.5858 7.56085
51.6353 7.4979
51.6849 7.52077
51.7344 7.4554
51.7841 7.42668
51.8336 7.41194
51.8833 7.36408
51.9328 7.31006
51.9826 7.31446
52.0323 7.26299
52.0818 7.24605
52.1316 7.20656
52.1812 7.26702
52.231 7.15253
52.2806 7.16852
52.3304 7.12547
52.38 7.07827
52.4298 7.07676
52.4794 7.00772
52.5293 6.97293
52.5789 7.00509
52.6288 6.93151
52.6785 6.86623
52.7284 6.86846
52.7781 6.87598
52.828 6.81336
52.8777 6.80021
52.9276 6.73852
52.9774 6.76535
53.0273 6.69877
53.0771 6.70511
53.1271 6.67124
53.1769 6.61042
53.2269 6.62836
53.2767 6.55883
53.3267 6.58321
53.3765 6.50921
53.4266 6.51286
53.4766 6.43074
53.5265 6.39173
53.5765 6.40418
53.6264 6.3812
53.6765 6.3367
53.7264 6.29416
53.7765 6.29648
53.8265 6.24188
53.8766 6.22292
53.9266 6.18723
53.9767 6.19
54.0267 6.18346
54.0769 6.09956
54.1269 6.11601
54.1771 6.06863
54.2271 6.01963
54.2773 5.93709
54.3274 5.97245
54.3776 5.90738
54.4277 5.9022
54.478 5.86751
54.528 5.82574
54.5783 5.81495
54.6285 5.77182
54.6788 5.70805
54.7289 5.6934
54.7792 5.61888
54.8296 5.58747
54.8798 5.54693
54.9301 5.52596
54.9803 5.45673
55.0307 5.45452
55.0809 5.40422
55.1314 5.36254
55.1816 5.4002
55.232 5.27473
55.2823 5.20771
55.3328 5.20633
55.383 5.15041
55.4335 5.11247
55.4838 5.07178
55.5344 4.96856
55.5847 4.96409
55.6352 4.9393
55.6856 4.87338
55.7361 4.85348