File: XRD/Ni3Fe_FD0842.xy
TT I
1.27165 7.3189
1.31627 6.75785
1.36089 6.53897
1.40551 5.84888
1.45013 6.13286
1.49476 6.08793
1.53938 5.48299
1.584 5.17632
1.62863 5.11209
1.67325 5.23436
1.71787 5.06148
1.7625 4.36735
1.80712 4.76993
1.85174 4.62725
1.89636 4.75284
1.94099 5.07968
1.98562 4.39623
2.03025 4.46944
2.07487 4.30394
2.11949 4.70449
2.16411 4.88319
2.20874 12.592
2.25338 19.0104
2.298 5.77391
2.34263 5.44075
2.38725 6.61466
2.43188 6.05042
2.4765 7.10165
2.52115 7.14653
2.56577 7.98776
2.6104 7.99027
2.65503 8.68543
2.69965 8.25388
2.7443 8.09731
2.78893 8.18337
2.83356 8.67139
2.87818 9.07432
2.92281 8.91992
2.96744 9.46273
3.01209 10.0976
3.05672 11.4508
3.10135 12.0222
3.14599 13.3927
3.19062 15.0993
3.23527 15.3759
3.2799 15.7896
3.32454 16.4168
3.36917 18.0034
3.4138 19.2342
3.45844 19.5183
3.50309 20.8098
3.54773 21.3633
3.59237 23.563
3.637 77.5193
3.68164 51.4885
3.7263 26.0407
3.77094 25.8636
3.81558 26.3945
3.86022 27.4252
3.90486 28.9909
3.9495 29.6475
3.99416 30.8896
4.0388 31.8587
4.08344 33.2591
4.12809 34.171
4.17273 36.5526
4.21738 41.9379
4.26204 206.647
4.30669 178.272
4.35133 47.2224
4.39598 43.9351
4.44063 52.0706
4.4853 61.3883
4.52995 50.3197
4.5746 51.7263
4.61925 53.2381
4.6639 54.9554
4.70855 57.4627
4.75322 60.4866
4.79788 63.5589
4.84253 66.3819
4.88719 71.0337
4.93184 74.1499
4.97652 79.8438
5.02118 85.6734
5.06583 92.7287
5.11049 103.644
5.15515 158.965
5.19981 316.684
5.24449 2654.6
5.28916 12395.2
5.33382 2685.77
5.37848 178.253
5.42315 125.691
5.46783 112.14
5.5125 105.538
5.55716 100.67
5.60183 96.9696
5.6465 95.616
5.69117 92.7272
5.73586 90.8681
5.78053 90.8473
5.8252 89.9448
5.86988 91.3661
5.91455 92.1845
5.95924 98.8208
6.00392 189.219
6.0486 903.048
6.09328 4386.37
6.13795 3110.78
6.18263 224.359
6.22733 90.1679
6.27201 81.1201
6.3167 95.1959
6.36138 77.5631
6.40606 68.2591
6.45075 66.8219
6.49545 64.3987
6.54014 63.1699
6.58483 62.3441
6.62952 62.1675
6.67421 87.4778
6.71892 123.253
6.76361 65.6201
6.8083 57.9118
6.853 56.8553
6.89769 56.1962
6.94239 56.14
6.98711 55.3935
7.03181 55.1588
7.07651 54.5677
7.12121 54.2302
7.16591 55.037
7.21063 54.8445
7.25533 67.7382
7.30004 149.849
7.34475 82.262
7.38945 55.7876
7.43416 53.8043
7.47889 53.6118
7.5236 54.1895
7.56831 54.5016
7.61303 56.1519
7.65774 56.3835
7.70247 55.6263
7.74719 55.5959
7.79191 56.0085
7.83663 56.269
7.88135 57.1193
7.92607 57.5892
7.97081 59.1376
8.01553 60.2198
8.06026 61.3895
8.10498 63.4813
8.14971 70.8182
8.19446 70.3705
8.23919 68.4655
8.28392 71.0271
8.32865 73.2531
8.37339 77.4357
8.41812 83.5693
8.46288 107.071
8.50761 152.27
8.55235 359.252
8.59709 1169.02
8.64183 2165.73
8.68658 935.148
8.73134 160.862
8.77609 97.0624
8.82083 91.3287
8.86558 88.4728
8.91033 88.9258
8.9551 89.3511
8.99985 84.8162
9.04461 82.7001
9.08936 82.2648
9.13412 80.749
9.17888 81.4625
9.22365 81.6137
9.26841 81.1873
9.31318 81.9124
9.35794 82.03
9.4027 82.6341
9.44749 83.1778
9.49226 83.6536
9.53703 84.3267
9.5818 86.4752
9.62657 90.5591
9.67134 96.0644
9.71614 92.381
9.76091 92.9797
9.80569 95.4463
9.85047 98.8393
9.89525 118.55
9.94005 128.005
9.98484 164.604
10.0296 320.71
10.0744 805.257
10.1192 1768.01
10.164 1552.99
10.2088 404.011
10.2536 123.959
10.2984 110.819
10.3432 111.177
10.388 102.635
10.4328 114.371
10.4776 155.346
10.5224 285.371
10.5672 530.236
10.612 512.978
10.6568 200.906
10.7017 95.7512
10.7465 85.6292
10.7913 82.3445
10.8361 80.3301
10.8809 78.0263
10.9257 77.3497
10.9706 77.3387
11.0154 73.8339
11.0602 72.1169
11.105 71.2707
11.1499 74.1583
11.1947 79.3361
11.2395 72.3854
11.2844 68.9316
11.3292 66.3206
11.374 65.5442
11.4189 64.8713
11.4637 64.324
11.5086 64.3101
11.5534 66.5259
11.5983 64.4595
11.6431 63.0248
11.688 62.1261
11.7328 62.3676
11.7777 62.05
11.8225 61.7628
11.8674 61.3964
11.9122 61.8112
11.9571 61.8206
12.002 62.736
12.0468 66.2801
12.0917 76.5506
12.1366 101.163
12.1814 156.863
12.2263 207.403
12.2712 169.291
12.3161 93.9333
12.3609 68.2775
12.4058 63.6272
12.4507 63.4473
12.4956 63.5741
12.5405 63.5186
12.5853 64.7131
12.6302 70.9586
12.6751 75.2128
12.72 68.5154
12.7649 67.0857
12.8098 67.4314
12.8547 68.7048
12.8996 70.1731
12.9445 71.5051
12.9894 73.2976
13.0343 74.9051
13.0792 77.9707
13.1242 85.7018
13.1691 107.398
13.214 144.519
13.2589 241.965
13.3038 382.976
13.3487 413.062
13.3937 253.204
13.4386 121.904
13.4835 102.236
13.5285 116.636
13.5734 155.773
13.6183 251.766
13.6633 352.446
13.7082 326.866
13.7531 178.265
13.7981 96.1157
13.843 80.4266
13.888 78.511
13.9329 76.198
13.9779 74.7943
14.0228 73.2959
14.0678 72.2737
14.1127 71.9189
14.1577 71.5912
14.2027 70.5481
14.2476 69.514
14.2926 69.6621
14.3376 70.2906
14.3825 69.0133
14.4275 67.7141
14.4725 67.8269
14.5175 68.0082
14.5624 68.3009
14.6074 69.983
14.6524 70.5145
14.6974 69.3885
14.7424 70.9399
14.7874 76.7277
14.8324 86.4242
14.8774 108.585
14.9224 154.974
14.9674 211.952
15.0124 215.751
15.0574 146.247
15.1024 89.8153
15.1474 71.424
15.1924 69.4592
15.2374 69.6533
15.2824 68.8908
15.3274 67.1526
15.3725 65.9028
15.4175 65.6534
15.4625 65.1531
15.5076 65.3214
15.5526 65.1533
15.5976 64.8694
15.6426 65.6852
15.6877 70.5051
15.7327 77.6452
15.7778 93.3336
15.8228 126.698
15.8679 172.427
15.9129 190.024
15.958 150.268
16.003 93.9361
16.0481 67.0919
16.0931 63.4197
16.1382 61.5604
16.1833 59.5298
16.2283 58.3999
16.2734 57.625
16.3185 57.7131
16.3636 58.0735
16.4086 56.8263
16.4537 55.4945
16.4988 54.9799
16.5439 54.7511
16.589 54.5255
16.6341 54.2421
16.6792 53.8329
16.7243 54.1787
16.7694 54.3848
16.8145 54.0714
16.8596 54.461
16.9047 55.781
16.9498 55.6953
16.9949 54.9128
17.04 55.0534
17.0851 55.9904
17.1302 57.5895
17.1754 60.8402
17.2205 66.2899
17.2656 74.9932
17.3108 82.2364
17.3559 81.0797
17.401 69.7628
17.4462 61.3669
17.4913 58.4814
17.5365 58.4295
17.5815 58.5383
17.6268 58.8401
17.6718 59.474
17.7171 60.196
17.7622 60.5784
17.8074 61.0708
17.8525 63.1394
17.8977 66.9956
17.9428 72.3167
17.9881 81.5664
18.0331 100.358
18.0784 122.639
18.1237 137.638
18.1688 127.345
18.214 101.414
18.2591 85.571
18.3044 90.9765
18.3495 100.534
18.3948 103.575
18.4399 93.134
18.4852 75.9629
18.5303 65.136
18.5756 61.4389
18.6207 60.3934
18.666 59.6707
18.7112 58.9916
18.7565 58.2168
18.8016 57.7574
18.8469 57.442
18.892 57.2363
18.9374 56.4385
18.9825 56.3352
19.0278 56.2142
19.073 56.1226
19.1183 56.5536
19.1635 57.3724
19.2088 58.4392
19.254 61.4461
19.2993 66.2816
19.3447 72.1577
19.3898 75.6201
19.4352 70.7204
19.4804 62.2252
19.5257 55.9794
19.5709 53.5919
19.6163 53.3819
19.6615 52.9486
19.7068 52.7692
19.752 52.4396
19.7974 52.9654
19.8426 53.8151
19.888 54.2174
19.9332 55.5702
19.9786 58.2534
20.0238 62.1829
20.0692 66.8626
20.1144 69.1582
20.1598 67.4608
20.205 62.7167
20.2504 61.9552
20.2957 63.7055
20.3411 64.8553
20.3863 63.1472
20.4318 57.5496
20.477 53.1142
20.5224 50.9463
20.5677 50.2931
20.6131 49.8194
20.6586 48.9468
20.7038 48.9855
20.7493 48.6772
20.7945 48.595
20.84 48.1775
20.8853 48.1831
20.9307 48.0811
20.976 48.2847
21.0215 48.1226
21.0668 48.4406
21.1122 48.8466
21.1575 49.5239
21.203 50.3592
21.2483 50.8457
21.2938 50.8682
21.3391 49.5395
21.3846 48.3674
21.4299 47.8998
21.4754 47.9389
21.5207 48.1139
21.5662 48.2096
21.6116 48.6351
21.6571 49.164
21.7024 50.212
21.7479 52.0309
21.7933 54.8792
21.8388 58.7328
21.8843 62.3404
21.9297 63.5631
21.9752 61.9108
22.0206 58.6283
22.0661 56.0514
22.1115 55.4909
22.157 55.1357
22.2024 53.433
22.248 50.8933
22.2933 49.1844
22.3389 48.4279
22.3843 48.5285
22.4299 48.2126
22.4753 48.1716
22.5208 48.0929
22.5662 47.9156
22.6118 48.094
22.6572 48.1857
22.7028 48.6597
22.7483 48.9864
22.7939 49.7579
22.8393 51.3974
22.8849 53.6443
22.9303 55.8996
22.9759 57.243
23.0214 56.403
23.067 53.588
23.1126 50.4334
23.1581 48.6404
23.2037 48.2091
23.2492 48.1628
23.2948 48.254
23.3403 48.4045
23.3859 49.1889
23.4314 50.2314
23.477 52.3263
23.5225 54.6431
23.5682 56.462
23.6137 57.0451
23.6593 54.7417
23.7048 50.8933
23.7505 47.7202
23.796 46.1365
23.8417 45.3335
23.8872 45.058
23.9329 44.6011
23.9784 44.2951
24.0241 44.1119
24.0697 43.9957
24.1154 43.6486
24.1609 43.5258
24.2066 43.3825
24.2522 43.1
24.2979 42.8985
24.3434 42.8984
24.3892 42.6325
24.4349 42.6118
24.4805 42.3503
24.5262 42.7622
24.5718 42.5245
24.6175 42.4587
24.6631 42.3241
24.7089 41.9501
24.7545 42.0024
24.8002 41.7764
24.8458 41.7252
24.8916 41.4628
24.9372 41.701
24.983 42.0521
25.0286 42.3565
25.0744 42.7907
25.12 43.2842
25.1658 43.954
25.2114 44.2092
25.2572 44.4646
25.3029 44.3201
25.3487 44.4891
25.3943 44.0775
25.4402 42.9996
25.4858 41.9389
25.5316 41.0042
25.5773 40.3882
25.6231 40.4199
25.669 40.1209
25.7147 40.0399
25.7605 39.9747
25.8062 39.9088
25.8521 40.0798
25.8977 40.0556
25.9436 40.4874
25.9893 40.5344
26.0352 41.1134
26.0809 41.0573
26.1268 41.2524
26.1725 40.8335
26.2184 40.3994
26.2641 39.9023
26.31 39.6215
26.3557 39.5549
26.4017 39.5402
26.4474 39.9408
26.4933 40.3155
26.5391 40.7476
26.585 41.3411
26.6308 41.7022
26.6767 41.7073
26.7225 41.446
26.7684 40.9547
26.8142 40.4749
26.8601 39.9051
26.9059 39.5407
26.9519 39.1547
26.9979 38.6269
27.0437 38.5315
27.0896 38.3693
27.1354 38.3192
27.1814 38.1879
27.2272 38.0591
27.2732 38.0457
27.3191 37.8553
27.3651 37.9941
27.4109 37.8749
27.4569 38.0886
27.5027 38.0976
27.5488 38.1153
27.5946 37.8567
27.6407 37.893
27.6865 37.5695
27.7326 37.4767
27.7784 37.6003
27.8245 37.4438
27.8703 37.441
27.9164 37.8077
27.9623 38.0225
28.0084 38.3526
28.0543 38.773
28.1003 38.587
28.1462 38.3546
28.1923 38.0552
28.2384 37.5354
28.2843 37.1471
28.3304 36.6369
28.3764 36.3325
28.4225 35.9854
28.4684 35.7874
28.5145 35.5561
28.5605 35.5121
28.6066 35.3133
28.6526 35.1241
28.6987 35.243
28.7447 35.0846
28.7908 35.0649
28.8368 35.116
28.8829 35.0313
28.9289 34.9728
28.9751 34.6735
29.0211 34.5271
29.0673 34.2902
29.1133 34.2317
29.1595 34.0859
29.2055 33.9283
29.2517 33.9904
29.2977 33.9414
29.3439 33.8802
29.3899 33.8382
29.4361 33.7066
29.4824 33.5516
29.5284 33.3409
29.5746 33.0415
29.6207 32.6832
29.6669 32.7575
29.713 32.6228
29.7593 32.4429
29.8053 32.5149
29.8516 32.3887
29.8977 32.3541
29.9439 32.2494
29.99 32.1691
30.0363 32.145
30.0824 32.1211
30.1287 32.0759
30.1748 31.987
30.2211 32.0686
30.2673 31.8792
30.3136 32.0807
30.3597 31.794
30.406 31.7672
30.4522 31.7836
30.4985 31.7243
30.5447 31.7743
30.591 31.7208
30.6372 31.802
30.6835 31.7583
30.7297 31.8776
30.7761 31.8283
30.8224 31.589
30.8686 31.4167
30.915 31.2672
30.9612 31.1161
31.0076 30.9319
31.0538 30.8705
31.1002 30.746
31.1464 30.6137
31.1928 30.5081
31.2391 30.5956
31.2855 30.4845
31.3317 30.4655
31.3781 30.6004
31.4244 30.5283
31.4708 30.5412
31.5171 30.4783
31.5636 30.3896
31.6098 30.0601
31.6563 30.0199
31.7026 29.8346
31.7491 29.7412
31.7953 29.796
31.8418 29.8132
31.8881 29.787
31.9346 29.8463
31.9809 29.7011
32.0275 29.6012
32.074 29.5138
32.1203 29.1856
32.1668 29.1437
32.2132 29.0549
32.2597 28.9668
32.306 28.7716
32.3526 28.6169
32.399 28.6087
32.4455 28.392
32.4919 28.3455
32.5385 28.3445
32.5848 28.2054
32.6314 28.1447
32.6778 28.1041
32.7244 27.9631
32.7708 27.7961
32.8174 27.8845
32.8638 27.8022
32.9104 27.8068
32.9569 27.7567
33.0035 27.6204
33.0499 27.5436
33.0966 27.5324
33.143 27.5779
33.1897 27.4658
33.2361 27.2808
33.2828 27.2837
33.3293 27.0839
33.3759 27.0379
33.4226 26.8961
33.4691 26.7752
33.5158 26.6564
33.5623 26.6597
33.609 26.4814
33.6555 26.2901
33.7022 26.3096
33.7487 26.1846
33.7954 26.1407
33.842 26.102
33.8887 26.0146
33.9353 25.9385
33.982 25.8668
34.0286 25.809
34.0753 25.6844
34.1219 25.6347
34.1687 25.531
34.2152 25.5132
34.262 25.4006
34.3086 25.3013
34.3554 25.2991
34.402 25.0834
34.4488 25.0899
34.4954 24.9836
34.5422 24.8557
34.5889 24.763
34.6357 24.7356
34.6825 24.6957
34.7292 24.5205
34.776 24.4461
34.8227 24.4008
34.8695 24.3867
34.9162 24.3101
34.9631 24.1783
35.0098 24.2626
35.0566 24.0626
35.1033 24.0029
35.1502 24.0224
35.1969 23.8967
35.2438 23.9072
35.2906 23.8845
35.3375 23.8241
35.3842 23.6758
35.4311 23.7192
35.4779 23.7432
35.5248 23.5769
35.5716 23.5407
35.6185 23.4649
35.6653 23.3244
35.7123 23.2997
35.759 23.2238
35.806 23.0822
35.8528 23.048
35.8998 22.9451
35.9468 22.9382
35.9936 22.7958
36.0406 22.8032
36.0874 22.7796
36.1345 22.6
36.1813 22.6322
36.2283 22.4319
36.2752 22.3549
36.3222 22.5054
36.3691 22.3652
36.4161 22.1893
36.463 22.2051
36.5101 22.1741
36.557 22.1793
36.6041 21.9164
36.651 22.0
36.6981 21.8608
36.745 21.7696
36.7921 21.6425
36.839 21.6288
36.8861 21.6108
36.9331 21.4342
36.9802 21.469
37.0272 21.3641
37.0743 21.2889
37.1213 21.2422
37.1684 21.1775
37.2154 21.1296
37.2626 20.9226
37.3098 20.9815
37.3568 20.9592
37.404 20.8315
37.451 20.7728
37.4982 20.6512
37.5452 20.6189
37.5924 20.5191
37.6395 20.6201
37.6867 20.4863
37.7337 20.4282
37.781 20.2993
37.8281 20.265
37.8753 20.1223
37.9224 20.1611
37.9697 20.1112
38.0168 19.9844
38.064 19.8925
38.1111 19.8239
38.1584 19.824
38.2056 19.6693
38.2529 19.6518
38.3 19.6133
38.3473 19.4956
38.3945 19.4737
38.4418 19.4626
38.489 19.4179
38.5363 19.2935
38.5837 19.2406
38.6309 19.1539
38.6782 19.1634
38.7254 19.0426
38.7728 18.9705
38.82 18.8889
38.8674 18.8699
38.9146 18.8485
38.9621 18.7831
39.0093 18.7166
39.0567 18.6505
39.104 18.5951
39.1514 18.4342
39.1987 18.4043
39.2461 18.4271
39.2934 18.3837
39.3409 18.2449
39.3882 18.1711
39.4356 18.1644
39.483 18.1218
39.5304 17.9619
39.5778 18.0357
39.6253 17.9757
39.6726 17.9672
39.7201 17.86
39.7675 17.8467
39.815 17.6826
39.8624 17.6329
39.9099 17.5869
39.9575 17.5751
40.0049 17.5123
40.0525 17.4936
40.0999 17.3804
40.1474 17.3676
40.1949 17.2817
40.2425 17.2301
40.2899 17.196
40.3375 17.0918
40.385 17.033
40.4326 16.9922
40.48 16.9116
40.5277 16.9619
40.5752 16.878
40.6228 16.779
40.6703 16.722
40.718 16.6911
40.7655 16.7172
40.8132 16.5663
40.8607 16.5301
40.9084 16.5247
40.9559 16.4745
41.0036 16.3121
41.0512 16.3058
41.0989 16.2724
41.1465 16.255
41.1942 16.1442
41.242 16.0731
41.2896 15.9969
41.3373 15.9254
41.3849 15.9322
41.4327 15.8622
41.4803 15.8248
41.5281 15.7833
41.5758 15.7112
41.6236 15.6888
41.6712 15.5762
41.7191 15.5231
41.7667 15.5096
41.8146 15.5294
41.8622 15.4055
41.9101 15.4235
41.9578 15.301
42.0057 15.2655
42.0534 15.1995
42.1013 15.1242
42.149 15.1392
42.1969 15.0393
42.2446 15.0183
42.2925 14.9635
42.3403 14.9301
42.3882 14.8797
42.436 14.8059
42.4839 14.7698
42.5319 14.71
42.5797 14.6919
42.6277 14.6241
42.6755 14.5315
42.7235 14.4933
42.7713 14.4334
42.8193 14.4142
42.8671 14.3825
42.9152 14.3236
42.963 14.3181
43.0111 14.221
43.0589 14.2309
43.107 14.1134
43.1549 14.0818
43.2029 13.9822
43.2508 13.9902
43.2989 13.9416
43.3468 13.843
43.3949 13.8101
43.4429 13.78
43.491 13.7436
43.5389 13.6614
43.5871 13.6369
43.635 13.6061
43.6832 13.5422
43.7312 13.4724
43.7793 13.4226
43.8273 13.4362
43.8755 13.3524
43.9237 13.2981
43.9717 13.2887
44.0199 13.2105
44.068 13.1669
44.1162 13.1176
44.1642 13.0899
44.2125 13.0326
44.2606 12.9563
44.3088 12.9278
44.3569 12.8935
44.4052 12.8426
44.4533 12.8469
44.5016 12.7738
44.5497 12.7287
44.598 12.6834
44.6461 12.6315
44.6945 12.6329
44.7426 12.5782
44.791 12.4476
44.8391 12.4877
44.8875 12.4525
44.9357 12.3621
44.984 12.3283
45.0322 12.2665
45.0806 12.251
45.1288 12.1997
45.1773 12.1171
45.2257 12.1222
45.2739 12.0397
45.3224 12.0645
45.3706 12.0209
45.4191 11.9242
45.4673 11.8975
45.5158 11.8767
45.5641 11.7929
45.6126 11.7748
45.6609 11.7281
45.7094 11.709
45.7577 11.5971
45.8063 11.6035
45.8546 11.602
45.9031 11.4984
45.9515 11.4776
46.0001 11.4276
46.0484 11.4228
46.097 11.3382
46.1454 11.3494
46.194 11.3118
46.2424 11.2375
46.291 11.1983
46.3395 11.2469
46.3881 11.0746
46.4365 11.0828
46.4852 11.0448
46.5337 10.9719
46.5823 10.9233
46.631 10.8847
46.6795 10.9216
46.7282 10.8353
46.7767 10.7854
46.8254 10.7185
46.8739 10.771
46.9226 10.7055
46.9712 10.6351
47.0199 10.6029
47.0685 10.5367
47.1173 10.548
47.1658 10.4546
47.2146 10.4625
47.2632 10.4093
47.312 10.3405
47.3606 10.3159
47.4095 10.2583
47.4581 10.2467
47.5069 10.1971
47.5556 10.1639
47.6044 10.1091
47.6531 10.1335
47.702 10.0521
47.7507 10.0228
47.7996 10.0116
47.8483 9.92954
47.8972 9.90562
47.9461 9.93216
47.9948 9.80082
48.0438 9.82007
48.0925 9.79207
48.1415 9.72513
48.1902 9.68759
48.2392 9.69575
48.288 9.65022
48.337 9.61297
48.3858 9.56323
48.4348 9.53715
48.4837 9.52614
48.5327 9.4758
48.5815 9.43696
48.6306 9.39266
48.6795 9.36863
48.7285 9.3387
48.7774 9.26418
48.8265 9.26906
48.8754 9.20362
48.9245 9.17794
48.9734 9.16404
49.0226 9.12032
49.0715 9.07606
49.1206 9.03083
49.1696 8.99517
49.2188 8.97461
49.2679 8.93443
49.3169 8.89568
49.3661 8.85896
49.4151 8.8198
49.4643 8.83507
49.5134 8.7401
49.5626 8.67051
49.6117 8.7274
49.6609 8.70612
49.71 8.61356
49.7592 8.60191
49.8083 8.58066
49.8576 8.56485
49.9067 8.45618
49.956 8.4519
50.0052 8.47244
50.0545 8.39844
50.1036 8.35614
50.153 8.3158
50.2022 8.30416
50.2515 8.26447
50.3007 8.24038
50.3501 8.24222
50.3993 8.17584
50.4487 8.16307
50.498 8.13127
50.5474 8.07221
50.5966 8.05241
50.6461 7.98871
50.6955 7.9994
50.7448 7.9883
50.7943 7.92486
50.8436 7.87496
50.8931 7.90756
50.9424 7.79701
50.9919 7.76403
51.0413 7.77849
51.0908 7.72721
51.1402 7.71875
51.1897 7.65423
51.2391 7.64614
51.2887 7.64941
51.3381 7.59693
51.3877 7.57871
51.4371 7.50647
51.4867 7.48591
51.5362 7.50819
51.5858 7.49599
51.6353 7.38421
51.6849 7.3818
51.7344 7.33462
51.7841 7.32798
51.8336 7.27333
51.8833 7.26671
51.9328 7.20599
51.9826 7.20572
52.0323 7.171
52.0818 7.14263
52.1316 7.09821
52.1812 7.08658
52.231 7.02858
52.2806 6.99916
52.3304 7.01438
52.38 6.96945
52.4298 6.93789
52.4794 6.90726
52.5293 6.86833
52.5789 6.85581
52.6288 6.80211
52.6785 6.71889
52.7284 6.75697
52.7781 6.75804
52.828 6.69532
52.8777 6.65696
52.9276 6.61215
52.9774 6.63235
53.0273 6.60757
53.0771 6.58307
53.1271 6.53678
53.1769 6.49543
53.2269 6.49387
53.2767 6.4651
53.3267 6.41007
53.3765 6.41109
53.4266 6.43919
53.4766 6.38548
53.5265 6.30586
53.5765 6.26711
53.6264 6.26083
53.6765 6.22867
53.7264 6.19682
53.7765 6.19327
53.8265 6.14764
53.8766 6.15953
53.9266 6.1409
53.9767 6.07667
54.0267 6.06876
54.0769 6.03511
54.1269 5.97836
54.1771 5.957
54.2271 5.93585
54.2773 5.89203
54.3274 5.88638
54.3776 5.81451
54.4277 5.80711
54.478 5.74153
54.528 5.7768
54.5783 5.70599
54.6285 5.67931
54.6788 5.64592
54.7289 5.58712
54.7792 5.54389
54.8296 5.52633
54.8798 5.47032
54.9301 5.43083
54.9803 5.39333
55.0307 5.36454
55.0809 5.28797
55.1314 5.31475
55.1816 5.24398
55.232 5.176
55.2823 5.1646
55.3328 5.07967
55.383 5.09334
55.4335 5.0182
55.4838 5.01758
55.5344 4.91571
55.5847 4.84915
55.6352 4.84466
55.6856 4.81959
55.7361 4.77646