File: XRD/Ni3Fe_FD1022.xy
TT I
1.27165 6.99188
1.31627 6.44912
1.36089 5.68466
1.40551 5.46229
1.45013 5.34286
1.49476 5.45228
1.53938 5.56147
1.584 4.97852
1.62863 4.81413
1.67325 4.86172
1.71787 4.43146
1.7625 4.34028
1.80712 4.50352
1.85174 4.31346
1.89636 4.48174
1.94099 4.66334
1.98562 4.39126
2.03025 4.62064
2.07487 4.24562
2.11949 4.69345
2.16411 4.38514
2.20874 4.93973
2.25338 6.1316
2.298 5.37361
2.34263 5.34762
2.38725 5.88268
2.43188 6.22716
2.4765 7.33273
2.52115 6.75319
2.56577 8.1823
2.6104 8.54364
2.65503 8.59133
2.69965 8.85613
2.7443 8.79462
2.78893 8.0593
2.83356 8.45603
2.87818 9.17099
2.92281 8.59387
2.96744 9.55819
3.01209 10.3345
3.05672 10.8528
3.10135 12.2077
3.14599 13.0233
3.19062 14.1976
3.23527 14.7832
3.2799 15.1337
3.32454 16.0046
3.36917 17.2862
3.4138 18.194
3.45844 19.1681
3.50309 20.2096
3.54773 20.5639
3.59237 21.4949
3.637 28.0689
3.68164 27.0426
3.7263 24.2473
3.77094 24.903
3.81558 25.6117
3.86022 26.3087
3.90486 27.7203
3.9495 28.3596
3.99416 29.0408
4.0388 30.0546
4.08344 31.7776
4.12809 32.6049
4.17273 33.3266
4.21738 35.546
4.26204 53.2693
4.30669 58.0885
4.35133 40.6687
4.39598 40.5795
4.44063 43.0477
4.4853 46.1558
4.52995 46.2699
4.5746 48.0245
4.61925 50.572
4.6639 52.3207
4.70855 55.1984
4.75322 58.0513
4.79788 60.2221
4.84253 63.4552
4.88719 67.6198
4.93184 71.0167
4.97652 76.6504
5.02118 82.466
5.06583 89.0031
5.11049 96.9779
5.15515 117.167
5.19981 227.187
5.24449 2362.18
5.28916 13256.7
5.33382 3418.25
5.37848 231.651
5.42315 124.983
5.46783 107.78
5.5125 100.672
5.55716 96.6724
5.60183 92.2802
5.6465 90.1725
5.69117 89.1581
5.73586 87.3415
5.78053 86.7056
5.8252 85.8016
5.86988 86.3557
5.91455 88.45
5.95924 94.2926
6.00392 158.641
6.0486 830.924
6.09328 4352.1
6.13795 3507.51
6.18263 247.987
6.22733 87.4195
6.27201 75.0861
6.3167 72.5386
6.36138 68.4746
6.40606 64.203
6.45075 62.9731
6.49545 61.1905
6.54014 59.5959
6.58483 58.4221
6.62952 57.5997
6.67421 58.5128
6.71892 63.8027
6.76361 56.4239
6.8083 53.7218
6.853 53.4125
6.89769 52.9028
6.94239 52.7409
6.98711 51.9666
7.03181 51.8935
7.07651 51.9232
7.12121 51.7676
7.16591 51.3202
7.21063 50.8241
7.25533 51.3931
7.30004 61.9283
7.34475 55.9444
7.38945 51.4077
7.43416 50.7323
7.47889 51.5859
7.5236 61.4611
7.56831 82.17
7.61303 58.6291
7.65774 52.6157
7.70247 52.9566
7.74719 53.2064
7.79191 53.0013
7.83663 53.8569
7.88135 54.4554
7.92607 55.1111
7.97081 56.3415
8.01553 57.0141
8.06026 58.6761
8.10498 59.68
8.14971 62.1062
8.19446 63.6609
8.23919 65.5109
8.28392 67.3401
8.32865 69.7311
8.37339 73.1084
8.41812 77.5432
8.46288 85.2289
8.50761 125.018
8.55235 346.831
8.59709 1057.32
8.64183 2269.6
8.68658 1100.53
8.73134 181.691
8.77609 94.7466
8.82083 87.7196
8.86558 84.607
8.91033 82.9118
8.9551 81.7121
8.99985 80.1028
9.04461 79.6645
9.08936 79.2036
9.13412 78.4562
9.17888 79.2878
9.22365 96.7702
9.26841 127.532
9.31318 93.3123
9.35794 79.9527
9.4027 79.4721
9.44749 80.1717
9.49226 80.1046
9.53703 81.0155
9.5818 82.5663
9.62657 83.6126
9.67134 85.92
9.71614 87.1371
9.76091 88.4903
9.80569 90.7335
9.85047 93.033
9.89525 98.2065
9.94005 105.138
9.98484 143.385
10.0296 325.836
10.0744 736.098
10.1192 1732.33
10.164 1693.15
10.2088 453.018
10.2536 126.636
10.2984 102.511
10.3432 100.032
10.388 96.7147
10.4328 105.966
10.4776 153.886
10.5224 258.995
10.5672 491.62
10.612 528.947
10.6568 223.284
10.7017 107.402
10.7465 87.2188
10.7913 79.27
10.8361 77.2618
10.8809 74.7386
10.9257 72.7464
10.9706 72.1586
11.0154 70.1362
11.0602 68.8351
11.105 67.4074
11.1499 66.2892
11.1947 66.6405
11.2395 65.0154
11.2844 64.0719
11.3292 63.0817
11.374 62.2791
11.4189 61.846
11.4637 61.3385
11.5086 61.0199
11.5534 60.6173
11.5983 60.0076
11.6431 59.976
11.688 59.5304
11.7328 59.367
11.7777 59.3873
11.8225 59.1325
11.8674 59.2514
11.9122 62.263
11.9571 71.0245
12.002 68.5908
12.0468 64.2824
12.0917 74.891
12.1366 95.4852
12.1814 143.707
12.2263 200.64
12.2712 171.993
12.3161 94.5401
12.3609 63.8995
12.4058 60.6282
12.4507 60.4149
12.4956 60.7058
12.5405 60.9444
12.5853 61.0517
12.6302 62.1082
12.6751 63.3719
12.72 63.4115
12.7649 63.7916
12.8098 64.5595
12.8547 65.7771
12.8996 67.0435
12.9445 68.5881
12.9894 70.1241
13.0343 72.0261
13.0792 76.0734
13.1242 81.9396
13.1691 104.691
13.214 141.262
13.2589 220.168
13.3038 358.629
13.3487 441.716
13.3937 279.401
13.4386 126.465
13.4835 97.5777
13.5285 116.112
13.5734 150.836
13.6183 230.534
13.6633 353.783
13.7082 361.858
13.7531 205.053
13.7981 100.083
13.843 79.0066
13.888 76.2095
13.9329 73.8457
13.9779 72.9475
14.0228 71.55
14.0678 70.3084
14.1127 71.983
14.1577 77.259
14.2027 74.9318
14.2476 68.7677
14.2926 67.0967
14.3376 66.5166
14.3825 66.3855
14.4275 65.673
14.4725 65.7405
14.5175 65.8986
14.5624 65.6747
14.6074 66.1234
14.6524 66.5514
14.6974 66.737
14.7424 67.7098
14.7874 73.4831
14.8324 86.0056
14.8774 106.028
14.9224 144.386
14.9674 205.75
15.0124 225.719
15.0574 158.623
15.1024 93.58
15.1474 70.6318
15.1924 67.3903
15.2374 65.9964
15.2824 64.964
15.3274 64.3533
15.3725 63.5198
15.4175 63.4117
15.4625 62.7501
15.5076 62.7801
15.5526 62.5433
15.5976 62.6513
15.6426 63.3355
15.6877 67.5918
15.7327 77.2037
15.7778 91.1605
15.8228 118.881
15.8679 166.691
15.9129 200.6
15.958 167.685
16.003 103.034
16.0481 69.651
16.0931 63.1257
16.1382 59.7807
16.1833 57.7504
16.2283 56.459
16.2734 55.8413
16.3185 55.0131
16.3636 54.5442
16.4086 53.9524
16.4537 53.5458
16.4988 53.0583
16.5439 52.812
16.589 52.5065
16.6341 52.2928
16.6792 52.0525
16.7243 52.2093
16.7694 52.1527
16.8145 52.3302
16.8596 52.5275
16.9047 53.275
16.9498 54.2936
16.9949 53.7142
17.04 53.2694
17.0851 54.1789
17.1302 56.245
17.1754 59.1585
17.2205 63.5487
17.2656 71.2643
17.3108 81.1822
17.3559 81.8728
17.401 71.1074
17.4462 61.0381
17.4913 56.9835
17.5365 56.5543
17.5815 56.7419
17.6268 57.0462
17.6718 57.6431
17.7171 58.3424
17.7622 59.327
17.8074 60.2456
17.8525 61.2579
17.8977 65.3095
17.9428 71.3703
17.9881 79.3642
18.0331 95.3089
18.0784 118.879
18.1237 140.465
18.1688 137.148
18.214 108.493
18.2591 87.2809
18.3044 87.4604
18.3495 98.3587
18.3948 105.804
18.4399 97.7482
18.4852 78.4456
18.5303 65.3522
18.5756 61.1445
18.6207 59.8454
18.666 58.5333
18.7112 57.3376
18.7565 56.7702
18.8016 56.2662
18.8469 56.0193
18.892 55.7199
18.9374 55.071
18.9825 54.7965
19.0278 54.5349
19.073 54.3901
19.1183 54.7373
19.1635 55.6034
19.2088 57.1665
19.254 59.722
19.2993 64.9314
19.3447 71.6427
19.3898 75.8886
19.4352 71.9168
19.4804 62.9421
19.5257 55.6506
19.5709 52.5896
19.6163 51.7962
19.6615 51.68
19.7068 51.2735
19.752 51.3997
19.7974 51.4725
19.8426 52.051
19.888 52.9671
19.9332 54.1306
19.9786 56.475
20.0238 60.1198
20.0692 65.6271
20.1144 69.502
20.1598 68.5637
20.205 63.5249
20.2504 60.9924
20.2957 62.7627
20.3411 64.6695
20.3863 64.0716
20.4318 57.9222
20.477 52.6776
20.5224 49.6419
20.5677 48.9039
20.6131 48.3788
20.6586 47.85
20.7038 47.6565
20.7493 47.6623
20.7945 47.8409
20.84 47.5616
20.8853 47.271
20.9307 46.718
20.976 46.9716
21.0215 46.7154
21.0668 47.1951
21.1122 47.6292
21.1575 48.1309
21.203 48.9751
21.2483 49.7794
21.2938 50.1565
21.3391 48.7742
21.3846 47.4033
21.4299 46.9346
21.4754 46.8272
21.5207 46.9886
21.5662 46.9694
21.6116 47.4191
21.6571 48.123
21.7024 49.3102
21.7479 51.0346
21.7933 53.4276
21.8388 57.2134
21.8843 61.9968
21.9297 64.7651
21.9752 63.6734
22.0206 59.3096
22.0661 55.9296
22.1115 55.4991
22.157 55.6107
22.2024 54.1746
22.248 50.694
22.2933 48.8212
22.3389 47.5114
22.3843 47.3277
22.4299 47.1415
22.4753 47.0311
22.5208 46.9608
22.5662 46.8783
22.6118 47.212
22.6572 47.139
22.7028 47.8823
22.7483 48.3477
22.7939 49.208
22.8393 50.6429
22.8849 52.6107
22.9303 55.1299
22.9759 57.2979
23.0214 57.1565
23.067 54.3419
23.1126 50.6214
23.1581 48.0113
23.2037 47.55
23.2492 47.1545
23.2948 47.321
23.3403 47.7826
23.3859 48.5965
23.4314 49.6876
23.477 51.4074
23.5225 53.8399
23.5682 56.433
23.6137 58.1976
23.6593 55.8651
23.7048 51.8195
23.7505 47.8584
23.796 45.4083
23.8417 44.7983
23.8872 44.1643
23.9329 43.9256
23.9784 43.5407
24.0241 43.2761
24.0697 43.1116
24.1154 42.7474
24.1609 42.4872
24.2066 42.3965
24.2522 42.2545
24.2979 42.082
24.3434 42.003
24.3892 41.8032
24.4349 41.6909
24.4805 41.5544
24.5262 41.8401
24.5718 41.6276
24.6175 41.7929
24.6631 41.6134
24.7089 41.3513
24.7545 41.0414
24.8002 40.9561
24.8458 40.8945
24.8916 40.8049
24.9372 40.8593
24.983 41.211
25.0286 41.531
25.0744 42.1347
25.12 42.5494
25.1658 43.4491
25.2114 43.8718
25.2572 43.8851
25.3029 44.2591
25.3487 44.0585
25.3943 44.0163
25.4402 42.8681
25.4858 41.5789
25.5316 40.4682
25.5773 39.8687
25.6231 39.7658
25.669 39.2721
25.7147 39.4006
25.7605 39.3641
25.8062 39.3529
25.8521 39.5651
25.8977 39.4101
25.9436 39.6957
25.9893 39.8793
26.0352 40.3096
26.0809 40.6371
26.1268 40.9973
26.1725 40.6674
26.2184 40.0183
26.2641 39.3898
26.31 38.9269
26.3557 39.008
26.4017 38.995
26.4474 39.3192
26.4933 39.6241
26.5391 40.1653
26.585 40.7101
26.6308 41.3124
26.6767 41.5786
26.7225 41.3254
26.7684 40.9899
26.8142 40.1269
26.8601 39.7011
26.9059 39.3527
26.9519 38.6418
26.9979 38.2659
27.0437 37.9613
27.0896 37.7602
27.1354 37.6904
27.1814 37.633
27.2272 37.553
27.2732 37.5262
27.3191 37.2459
27.3651 37.4012
27.4109 37.367
27.4569 37.5582
27.5027 37.6818
27.5488 37.7602
27.5946 37.5077
27.6407 37.3323
27.6865 37.1319
27.7326 37.0499
27.7784 36.9692
27.8245 36.8455
27.8703 37.0053
27.9164 37.3107
27.9623 37.6763
28.0084 38.0705
28.0543 38.5504
28.1003 38.4746
28.1462 38.4323
28.1923 38.0143
28.2384 37.3784
28.2843 37.0212
28.3304 36.4978
28.3764 36.0512
28.4225 35.5679
28.4684 35.2825
28.5145 34.9743
28.5605 34.8221
28.6066 34.8038
28.6526 34.8072
28.6987 34.7245
28.7447 34.6032
28.7908 34.4674
28.8368 34.4138
28.8829 34.5487
28.9289 34.4697
28.9751 34.293
29.0211 34.1409
29.0673 33.7851
29.1133 33.603
29.1595 33.4872
29.2055 33.4505
29.2517 33.3712
29.2977 33.2955
29.3439 33.3446
29.3899 33.386
29.4361 33.4046
29.4824 33.2459
29.5284 32.9265
29.5746 32.5341
29.6207 32.1455
29.6669 32.1849
29.713 32.0251
29.7593 31.996
29.8053 31.8994
29.8516 31.8508
29.8977 31.7946
29.9439 31.7805
29.99 31.7503
30.0363 31.567
30.0824 31.6741
30.1287 31.5556
30.1748 31.6519
30.2211 31.6496
30.2673 31.3988
30.3136 31.5231
30.3597 31.4921
30.406 31.3286
30.4522 31.1234
30.4985 31.228
30.5447 31.2553
30.591 31.3528
30.6372 31.5153
30.6835 31.4179
30.7297 31.4966
30.7761 31.5691
30.8224 31.3873
30.8686 31.2328
30.915 30.9372
30.9612 30.8376
31.0076 30.5877
31.0538 30.5282
31.1002 30.4437
31.1464 30.2433
31.1928 30.2989
31.2391 30.2838
31.2855 30.1014
31.3317 30.237
31.3781 30.1985
31.4244 30.1761
31.4708 30.1197
31.5171 30.1144
31.5636 30.0824
31.6098 29.9537
31.6563 29.6677
31.7026 29.536
31.7491 29.4075
31.7953 29.5224
31.8418 29.5093
31.8881 29.3474
31.9346 29.519
31.9809 29.4672
32.0275 29.3258
32.074 29.2561
32.1203 28.9079
32.1668 28.8846
32.2132 28.7092
32.2597 28.5639
32.306 28.5026
32.3526 28.3107
32.399 28.2041
32.4455 28.0521
32.4919 27.939
32.5385 27.9024
32.5848 27.8275
32.6314 27.7893
32.6778 27.7569
32.7244 27.5571
32.7708 27.48
32.8174 27.4438
32.8638 27.2778
32.9104 27.3371
32.9569 27.2633
33.0035 27.2728
33.0499 27.2556
33.0966 27.1369
33.143 27.1942
33.1897 27.0677
33.2361 26.9407
33.2828 26.9671
33.3293 26.793
33.3759 26.7376
33.4226 26.5737
33.4691 26.5211
33.5158 26.372
33.5623 26.2749
33.609 26.1899
33.6555 25.9577
33.7022 26.0035
33.7487 25.8079
33.7954 25.7831
33.842 25.7058
33.8887 25.7311
33.9353 25.6079
33.982 25.497
34.0286 25.4956
34.0753 25.3264
34.1219 25.2959
34.1687 25.2035
34.2152 25.1237
34.262 25.0111
34.3086 24.9126
34.3554 24.9262
34.402 24.8199
34.4488 24.6993
34.4954 24.6477
34.5422 24.5608
34.5889 24.4113
34.6357 24.3267
34.6825 24.3153
34.7292 24.2298
34.776 24.0983
34.8227 23.9972
34.8695 24.0449
34.9162 23.9676
34.9631 23.8987
35.0098 23.855
35.0566 23.7267
35.1033 23.7327
35.1502 23.724
35.1969 23.6257
35.2438 23.5675
35.2906 23.5431
35.3375 23.5057
35.3842 23.458
35.4311 23.4553
35.4779 23.3666
35.5248 23.324
35.5716 23.1809
35.6185 23.2055
35.6653 23.0833
35.7123 23.0341
35.759 22.926
35.806 22.824
35.8528 22.7648
35.8998 22.5771
35.9468 22.5809
35.9936 22.5496
36.0406 22.4829
36.0874 22.4391
36.1345 22.3922
36.1813 22.3094
36.2283 22.2
36.2752 22.0562
36.3222 22.159
36.3691 22.0621
36.4161 21.9326
36.463 21.8352
36.5101 21.9316
36.557 21.9053
36.6041 21.6853
36.651 21.632
36.6981 21.6188
36.745 21.533
36.7921 21.4757
36.839 21.3692
36.8861 21.3241
36.9331 21.2515
36.9802 21.1361
37.0272 21.045
37.0743 20.9973
37.1213 20.9672
37.1684 20.9112
37.2154 20.8327
37.2626 20.7234
37.3098 20.7435
37.3568 20.6268
37.404 20.5827
37.451 20.4548
37.4982 20.4439
37.5452 20.3866
37.5924 20.3062
37.6395 20.3378
37.6867 20.1281
37.7337 20.1096
37.781 20.0502
37.8281 19.9496
37.8753 19.8517
37.9224 19.8523
37.9697 19.7671
38.0168 19.7046
38.064 19.6688
38.1111 19.6513
38.1584 19.5824
38.2056 19.4988
38.2529 19.3976
38.3 19.3581
38.3473 19.3365
38.3945 19.1776
38.4418 19.1843
38.489 19.1099
38.5363 19.0575
38.5837 18.9475
38.6309 18.9041
38.6782 18.8537
38.7254 18.7911
38.7728 18.771
38.82 18.645
38.8674 18.6332
38.9146 18.5285
38.9621 18.4695
39.0093 18.4428
39.0567 18.3762
39.104 18.314
39.1514 18.2506
39.1987 18.2047
39.2461 18.1513
39.2934 18.0854
39.3409 18.0067
39.3882 17.9122
39.4356 17.8829
39.483 17.8401
39.5304 17.8388
39.5778 17.7412
39.6253 17.6816
39.6726 17.6526
39.7201 17.5741
39.7675 17.5231
39.815 17.5625
39.8624 17.4237
39.9099 17.385
39.9575 17.2403
40.0049 17.2377
40.0525 17.1891
40.0999 17.232
40.1474 17.1247
40.1949 17.0523
40.2425 16.9278
40.2899 16.9737
40.3375 16.8963
40.385 16.8119
40.4326 16.8085
40.48 16.7249
40.5277 16.6974
40.5752 16.5819
40.6228 16.5601
40.6703 16.4926
40.718 16.4725
40.7655 16.4304
40.8132 16.364
40.8607 16.3415
40.9084 16.3282
40.9559 16.2367
41.0036 16.1401
41.0512 16.1213
41.0989 16.022
41.1465 15.9355
41.1942 15.971
41.242 15.816
41.2896 15.7579
41.3373 15.7802
41.3849 15.7556
41.4327 15.665
41.4803 15.6423
41.5281 15.6143
41.5758 15.5188
41.6236 15.4231
41.6712 15.3828
41.7191 15.3496
41.7667 15.3462
41.8146 15.3229
41.8622 15.231
41.9101 15.1069
41.9578 15.0815
42.0057 15.0209
42.0534 14.9772
42.1013 14.9231
42.149 14.9106
42.1969 14.8486
42.2446 14.7966
42.2925 14.6854
42.3403 14.6631
42.3882 14.6733
42.436 14.6397
42.4839 14.5472
42.5319 14.5086
42.5797 14.4375
42.6277 14.4097
42.6755 14.4104
42.7235 14.3153
42.7713 14.2987
42.8193 14.2024
42.8671 14.1962
42.9152 14.0999
42.963 14.1024
43.0111 13.9952
43.0589 13.9616
43.107 13.8858
43.1549 13.8629
43.2029 13.8364
43.2508 13.8206
43.2989 13.7332
43.3468 13.6447
43.3949 13.666
43.4429 13.5972
43.491 13.5129
43.5389 13.4771
43.5871 13.4732
43.635 13.3254
43.6832 13.3672
43.7312 13.2476
43.7793 13.2601
43.8273 13.2134
43.8755 13.1959
43.9237 13.1263
43.9717 13.1132
44.0199 13.0387
44.068 13.0223
44.1162 12.92
44.1642 12.8676
44.2125 12.8741
44.2606 12.8061
44.3088 12.7711
44.3569 12.7248
44.4052 12.7133
44.4533 12.6014
44.5016 12.5335
44.5497 12.5266
44.598 12.5429
44.6461 12.4567
44.6945 12.4226
44.7426 12.3991
44.791 12.3127
44.8391 12.346
44.8875 12.2686
44.9357 12.2426
44.984 12.1515
45.0322 12.1254
45.0806 12.049
45.1288 12.0168
45.1773 11.9621
45.2257 11.9556
45.2739 11.9369
45.3224 11.8939
45.3706 11.8369
45.4191 11.7381
45.4673 11.7196
45.5158 11.712
45.5641 11.6608
45.6126 11.6241
45.6609 11.607
45.7094 11.5376
45.7577 11.4662
45.8063 11.4159
45.8546 11.4263
45.9031 11.4034
45.9515 11.2952
46.0001 11.2686
46.0484 11.2345
46.097 11.2274
46.1454 11.183
46.194 11.1482
46.2424 11.0878
46.291 11.0223
46.3395 11.0253
46.3881 10.9171
46.4365 10.9227
46.4852 10.9294
46.5337 10.8492
46.5823 10.811
46.631 10.7605
46.6795 10.7313
46.7282 10.7195
46.7767 10.6314
46.8254 10.6168
46.8739 10.5756
46.9226 10.4986
46.9712 10.5166
47.0199 10.4611
47.0685 10.3986
47.1173 10.3952
47.1658 10.3178
47.2146 10.3121
47.2632 10.2427
47.312 10.2566
47.3606 10.1743
47.4095 10.1142
47.4581 10.0875
47.5069 10.0612
47.5556 10.0447
47.6044 9.95291
47.6531 9.96583
47.702 9.9023
47.7507 9.89714
47.7996 9.8646
47.8483 9.77521
47.8972 9.7796
47.9461 9.71903
47.9948 9.71767
48.0438 9.70226
48.0925 9.63826
48.1415 9.60964
48.1902 9.54715
48.2392 9.55726
48.288 9.51478
48.337 9.43894
48.3858 9.44198
48.4348 9.39831
48.4837 9.3843
48.5327 9.37525
48.5815 9.29023
48.6306 9.25161
48.6795 9.2283
48.7285 9.21042
48.7774 9.20463
48.8265 9.14408
48.8754 9.11121
48.9245 9.10794
48.9734 9.03602
49.0226 9.04024
49.0715 8.96108
49.1206 8.94332
49.1696 8.83426
49.2188 8.85234
49.2679 8.80952
49.3169 8.75474
49.3661 8.74859
49.4151 8.72355
49.4643 8.70103
49.5134 8.68919
49.5626 8.59605
49.6117 8.56386
49.6609 8.55353
49.71 8.50355
49.7592 8.47973
49.8083 8.46703
49.8576 8.42626
49.9067 8.42997
49.956 8.37443
50.0052 8.34395
50.0545 8.30602
50.1036 8.26857
50.153 8.22197
50.2022 8.18255
50.2515 8.12537
50.3007 8.17828
50.3501 8.10879
50.3993 8.06938
50.4487 8.05563
50.498 8.03192
50.5474 7.99041
50.5966 7.94108
50.6461 7.93995
50.6955 7.90444
50.7448 7.86965
50.7943 7.83751
50.8436 7.78144
50.8931 7.7822
50.9424 7.7414
50.9919 7.69537
51.0413 7.7041
51.0908 7.65873
51.1402 7.62863
51.1897 7.57003
51.2391 7.53698
51.2887 7.51915
51.3381 7.47594
51.3877 7.46689
51.4371 7.43872
51.4867 7.40403
51.5362 7.37982
51.5858 7.35393
51.6353 7.28817
51.6849 7.27884
51.7344 7.25294
51.7841 7.21182
51.8336 7.20739
51.8833 7.17512
51.9328 7.126
51.9826 7.11728
52.0323 7.065
52.0818 7.05637
52.1316 7.03217
52.1812 6.99673
52.231 6.95252
52.2806 6.91439
52.3304 6.91895
52.38 6.87893
52.4298 6.85831
52.4794 6.81057
52.5293 6.76365
52.5789 6.76335
52.6288 6.73124
52.6785 6.69273
52.7284 6.66994
52.7781 6.68465
52.828 6.5673
52.8777 6.5752
52.9276 6.5914
52.9774 6.58092
53.0273 6.49805
53.0771 6.48649
53.1271 6.44372
53.1769 6.45185
53.2269 6.40466
53.2767 6.37309
53.3267 6.36236
53.3765 6.35026
53.4266 6.31355
53.4766 6.28021
53.5265 6.22643
53.5765 6.20004
53.6264 6.17536
53.6765 6.18454
53.7264 6.08651
53.7765 6.12582
53.8265 6.09538
53.8766 6.02364
53.9266 6.00402
53.9767 5.97968
54.0267 5.99388
54.0769 5.95133
54.1269 5.92218
54.1771 5.90441
54.2271 5.86791
54.2773 5.83368
54.3274 5.8032
54.3776 5.72102
54.4277 5.71912
54.478 5.71848
54.528 5.66832
54.5783 5.63122
54.6285 5.60852
54.6788 5.56236
54.7289 5.49272
54.7792 5.50402
54.8296 5.40693
54.8798 5.34671
54.9301 5.41876
54.9803 5.33586
55.0307 5.31309
55.0809 5.21157
55.1314 5.26941
55.1816 5.15072
55.232 5.14232
55.2823 5.14115
55.3328 5.03202
55.383 4.97702
55.4335 4.97168
55.4838 4.88431
55.5344 4.88689
55.5847 4.807
55.6352 4.79318
55.6856 4.74844
55.7361 4.6847