File: XRD/Ni3Fe_FD0392.xy
TT I
1.27165 7.43998
1.31627 7.03824
1.36089 6.6488
1.40551 5.66963
1.45013 6.32751
1.49476 5.9683
1.53938 5.57342
1.584 5.04126
1.62863 5.57277
1.67325 5.76173
1.71787 5.2851
1.7625 5.02199
1.80712 5.01635
1.85174 4.95429
1.89636 4.63655
1.94099 4.89448
1.98562 4.96217
2.03025 4.43495
2.07487 4.699
2.11949 4.81686
2.16411 5.07752
2.20874 14.2169
2.25338 23.194
2.298 5.94929
2.34263 4.84548
2.38725 4.89968
2.43188 5.03982
2.4765 5.7804
2.52115 6.06129
2.56577 5.99733
2.6104 6.93333
2.65503 7.01519
2.69965 6.99222
2.7443 7.34917
2.78893 7.90047
2.83356 8.05766
2.87818 8.20088
2.92281 8.71105
2.96744 9.75157
3.01209 10.0585
3.05672 11.3967
3.10135 12.484
3.14599 13.3349
3.19062 14.1613
3.23527 14.7509
3.2799 15.9036
3.32454 17.1174
3.36917 18.0002
3.4138 18.8312
3.45844 20.1648
3.50309 20.9524
3.54773 22.2633
3.59237 24.8517
3.637 97.7041
3.68164 61.217
3.7263 26.9825
3.77094 26.3069
3.81558 27.8464
3.86022 27.7172
3.90486 29.3314
3.9495 30.6701
3.99416 31.4049
4.0388 32.9864
4.08344 34.0361
4.12809 35.4221
4.17273 37.8922
4.21738 44.9056
4.26204 260.627
4.30669 227.576
4.35133 49.6575
4.39598 45.5874
4.44063 55.3196
4.4853 67.5929
4.52995 52.7082
4.5746 52.7309
4.61925 54.6915
4.6639 56.3493
4.70855 59.1841
4.75322 62.3299
4.79788 65.2794
4.84253 68.7036
4.88719 73.2301
4.93184 77.0648
4.97652 82.7654
5.02118 89.8067
5.06583 98.0219
5.11049 111.691
5.15515 190.3
5.19981 450.977
5.24449 3118.77
5.28916 11590.8
5.33382 3539.79
5.37848 224.341
5.42315 139.178
5.46783 120.256
5.5125 110.345
5.55716 105.163
5.60183 101.295
5.6465 99.2855
5.69117 96.6384
5.73586 95.3981
5.78053 95.2437
5.8252 94.9155
5.86988 95.8866
5.91455 98.7121
5.95924 108.976
6.00392 243.984
6.0486 1085.44
6.09328 4013.82
6.13795 3512.98
6.18263 299.279
6.22733 101.12
6.27201 87.0405
6.3167 106.629
6.36138 83.2493
6.40606 71.3116
6.45075 69.5101
6.49545 67.5272
6.54014 65.6402
6.58483 64.5651
6.62952 64.5697
6.67421 97.59
6.71892 150.743
6.76361 70.9932
6.8083 60.2172
6.853 58.8556
6.89769 58.484
6.94239 58.2773
6.98711 57.0151
7.03181 56.9629
7.07651 56.6133
7.12121 56.9408
7.16591 57.3209
7.21063 57.2606
7.25533 72.7449
7.30004 188.776
7.34475 95.1826
7.38945 58.0601
7.43416 55.8081
7.47889 55.9009
7.5236 56.0097
7.56831 56.3251
7.61303 58.5475
7.65774 59.0267
7.70247 57.4777
7.74719 57.6359
7.79191 58.0048
7.83663 57.9657
7.88135 59.1893
7.92607 59.8645
7.97081 61.268
8.01553 61.8741
8.06026 63.6551
8.10498 65.2958
8.14971 75.6983
8.19446 74.0226
8.23919 71.4616
8.28392 73.832
8.32865 75.885
8.37339 80.456
8.41812 87.944
8.46288 119.7
8.50761 182.195
8.55235 431.614
8.59709 1129.65
8.64183 2135.19
8.68658 1147.78
8.73134 198.987
8.77609 105.011
8.82083 96.134
8.86558 92.4521
8.91033 92.7127
8.9551 94.7728
8.99985 87.5999
9.04461 85.7028
9.08936 85.1479
9.13412 84.1462
9.17888 84.1178
9.22365 84.8603
9.26841 84.4255
9.31318 85.0677
9.35794 85.1989
9.4027 85.2398
9.44749 86.0921
9.49226 86.3943
9.53703 87.6422
9.5818 89.5752
9.62657 94.5865
9.67134 101.789
9.71614 96.0431
9.76091 96.3178
9.80569 99.4119
9.85047 102.783
9.89525 128.159
9.94005 142.673
9.98484 192.143
10.0296 380.03
10.0744 797.953
10.1192 1593.35
10.164 1713.18
10.2088 500.362
10.2536 141.739
10.2984 118.418
10.3432 119.158
10.388 108.203
10.4328 124.959
10.4776 170.837
10.5224 277.124
10.5672 478.003
10.612 527.3
10.6568 229.092
10.7017 102.538
10.7465 89.2961
10.7913 85.524
10.8361 83.1869
10.8809 81.1464
10.9257 80.8476
10.9706 81.3518
11.0154 77.0591
11.0602 74.5482
11.105 73.8177
11.1499 78.5365
11.1947 86.4042
11.2395 76.771
11.2844 72.6277
11.3292 68.786
11.374 67.8619
11.4189 67.0474
11.4637 66.5492
11.5086 67.0141
11.5534 70.2084
11.5983 67.3486
11.6431 65.2925
11.688 64.6496
11.7328 64.2576
11.7777 64.524
11.8225 64.0161
11.8674 63.7843
11.9122 64.4387
11.9571 64.5464
12.002 65.3138
12.0468 70.2843
12.0917 83.286
12.1366 105.176
12.1814 148.285
12.2263 198.091
12.2712 179.923
12.3161 107.675
12.3609 73.692
12.4058 66.4636
12.4507 65.7851
12.4956 66.1344
12.5405 66.1748
12.5853 67.2523
12.6302 75.6309
12.6751 81.9475
12.72 72.1081
12.7649 69.7074
12.8098 70.1322
12.8547 71.4187
12.8996 72.824
12.9445 74.0807
12.9894 75.8577
13.0343 77.5946
13.0792 81.0074
13.1242 91.1065
13.1691 118.447
13.214 155.702
13.2589 233.943
13.3038 346.913
13.3487 426.394
13.3937 296.649
13.4386 138.885
13.4835 111.495
13.5285 128.176
13.5734 162.215
13.6183 237.635
13.6633 328.788
13.7082 349.682
13.7531 211.384
13.7981 106.547
13.843 84.4228
13.888 82.1207
13.9329 79.233
13.9779 77.6154
14.0228 76.0591
14.0678 75.0482
14.1127 74.6096
14.1577 74.4371
14.2027 73.5067
14.2476 72.0788
14.2926 72.4607
14.3376 73.7224
14.3825 72.0896
14.4275 70.5318
14.4725 70.5262
14.5175 70.695
14.5624 70.7043
14.6074 73.1629
14.6524 73.6316
14.6974 72.2096
14.7424 74.2167
14.7874 81.7066
14.8324 93.1381
14.8774 113.149
14.9224 150.065
14.9674 197.691
15.0124 219.356
15.0574 164.354
15.1024 100.149
15.1474 75.1154
15.1924 72.5763
15.2374 73.2346
15.2824 72.39
15.3274 70.0196
15.3725 68.7703
15.4175 68.1047
15.4625 67.765
15.5076 67.9973
15.5526 67.9539
15.5976 67.5514
15.6426 68.6955
15.6877 75.068
15.7327 83.5302
15.7778 97.5665
15.8228 124.684
15.8679 163.262
15.9129 192.844
15.958 169.018
16.003 106.901
16.0481 72.0401
16.0931 66.8972
16.1382 64.5036
16.1833 62.2704
16.2283 60.638
16.2734 60.0687
16.3185 60.4243
16.3636 61.3089
16.4086 59.4365
16.4537 57.8968
16.4988 57.0212
16.5439 56.9658
16.589 56.5615
16.6341 56.4195
16.6792 55.9472
16.7243 56.5514
16.7694 56.2155
16.8145 56.21
16.8596 56.7117
16.9047 58.5779
16.9498 58.6151
16.9949 57.378
17.04 57.3098
17.0851 58.774
17.1302 60.4245
17.1754 63.4468
17.2205 67.8971
17.2656 74.5365
17.3108 82.3592
17.3559 84.3012
17.401 74.7466
17.4462 64.6879
17.4913 61.0427
17.5365 60.6334
17.5815 60.8957
17.6268 61.0662
17.6718 61.8603
17.7171 62.4882
17.7622 62.8451
17.8074 63.6252
17.8525 66.1649
17.8977 70.6326
17.9428 76.3988
17.9881 84.341
18.0331 99.3421
18.0784 117.649
18.1237 137.583
18.1688 137.289
18.214 111.991
18.2591 90.9505
18.3044 90.596
18.3495 98.7936
18.3948 106.639
18.4399 100.683
18.4852 82.276
18.5303 68.9748
18.5756 64.0498
18.6207 63.0288
18.666 62.1149
18.7112 61.3155
18.7565 60.6417
18.8016 60.1796
18.8469 59.7297
18.892 59.3605
18.9374 58.7442
18.9825 58.6895
19.0278 58.5276
19.073 58.495
19.1183 59.1943
19.1635 60.105
19.2088 61.2166
19.254 63.4877
19.2993 67.1708
19.3447 72.3897
19.3898 77.0167
19.4352 74.5765
19.4804 66.5519
19.5257 59.1613
19.5709 55.8444
19.6163 55.3392
19.6615 55.156
19.7068 54.7807
19.752 54.6874
19.7974 55.0747
19.8426 55.8954
19.888 56.6909
19.9332 57.9844
19.9786 60.2074
20.0238 63.1972
20.0692 67.5414
20.1144 70.7446
20.1598 70.7141
20.205 66.2068
20.2504 63.7964
20.2957 64.2677
20.3411 66.2754
20.3863 65.8088
20.4318 61.0932
20.477 55.8125
20.5224 53.465
20.5677 52.4818
20.6131 51.5757
20.6586 50.9729
20.7038 50.8605
20.7493 50.5332
20.7945 50.4184
20.84 50.2551
20.8853 50.0781
20.9307 49.9606
20.976 49.9478
21.0215 49.9145
21.0668 50.4341
21.1122 50.653
21.1575 51.2347
21.203 51.8644
21.2483 52.451
21.2938 52.8738
21.3391 51.61
21.3846 50.4554
21.4299 49.8661
21.4754 49.6324
21.5207 49.835
21.5662 50.1237
21.6116 50.6008
21.6571 51.4317
21.7024 52.4032
21.7479 53.8639
21.7933 56.2531
21.8388 59.6077
21.8843 63.1186
21.9297 65.5944
21.9752 65.4398
22.0206 62.0866
22.0661 58.2537
22.1115 57.2099
22.157 57.2207
22.2024 56.0565
22.248 53.3555
22.2933 51.466
22.3389 50.3648
22.3843 50.3169
22.4299 50.2885
22.4753 50.3903
22.5208 50.0105
22.5662 49.7712
22.6118 50.0952
22.6572 50.2709
22.7028 50.6837
22.7483 51.1659
22.7939 51.8635
22.8393 53.0609
22.8849 54.7389
22.9303 56.7292
22.9759 58.5984
23.0214 58.9497
23.067 56.6157
23.1126 53.0311
23.1581 50.7216
23.2037 50.1469
23.2492 50.2839
23.2948 50.1894
23.3403 50.4812
23.3859 51.1516
23.4314 52.0604
23.477 53.4897
23.5225 55.2179
23.5682 57.4192
23.6137 58.6772
23.6593 57.5613
23.7048 53.7085
23.7505 50.1505
23.796 48.054
23.8417 47.2108
23.8872 46.7923
23.9329 46.5735
23.9784 46.0099
24.0241 45.8217
24.0697 45.5906
24.1154 45.32
24.1609 45.2243
24.2066 45.0052
24.2522 44.9294
24.2979 44.6838
24.3434 44.4506
24.3892 44.2793
24.4349 44.3515
24.4805 44.0404
24.5262 44.19
24.5718 43.9997
24.6175 43.9784
24.6631 43.9708
24.7089 43.6275
24.7545 43.5974
24.8002 43.3912
24.8458 43.4187
24.8916 43.2017
24.9372 43.2027
24.983 43.5839
25.0286 43.8798
25.0744 44.3395
25.12 44.827
25.1658 45.294
25.2114 45.7498
25.2572 45.8298
25.3029 45.9672
25.3487 45.9263
25.3943 45.7835
25.4402 44.9711
25.4858 43.8045
25.5316 42.7529
25.5773 42.0571
25.6231 41.9486
25.669 41.4586
25.7147 41.6602
25.7605 41.6246
25.8062 41.628
25.8521 41.7427
25.8977 41.6357
25.9436 41.8435
25.9893 41.8779
26.0352 42.4406
26.0809 42.5128
26.1268 42.7293
26.1725 42.4591
26.2184 42.0442
26.2641 41.4647
26.31 41.2771
26.3557 41.1963
26.4017 41.204
26.4474 41.4789
26.4933 41.835
26.5391 42.2106
26.585 42.4716
26.6308 43.045
26.6767 43.1656
26.7225 43.1516
26.7684 42.5658
26.8142 42.0741
26.8601 41.6469
26.9059 41.1563
26.9519 40.6666
26.9979 40.312
27.0437 39.8669
27.0896 39.7525
27.1354 39.7698
27.1814 39.5848
27.2272 39.5206
27.2732 39.5162
27.3191 39.363
27.3651 39.4455
27.4109 39.3144
27.4569 39.4559
27.5027 39.4598
27.5488 39.4766
27.5946 39.2474
27.6407 39.1806
27.6865 39.0484
27.7326 38.7146
27.7784 38.587
27.8245 38.7864
27.8703 38.9257
27.9164 39.1726
27.9623 39.1603
28.0084 39.6317
28.0543 39.929
28.1003 40.0722
28.1462 39.6699
28.1923 39.5072
28.2384 38.8991
28.2843 38.6222
28.3304 38.1824
28.3764 37.7243
28.4225 37.5191
28.4684 37.3107
28.5145 37.0605
28.5605 36.8647
28.6066 36.6999
28.6526 36.468
28.6987 36.6623
28.7447 36.5028
28.7908 36.2993
28.8368 36.2738
28.8829 36.2635
28.9289 36.2473
28.9751 36.1663
29.0211 35.8305
29.0673 35.6171
29.1133 35.4236
29.1595 35.2318
29.2055 35.2058
29.2517 35.2599
29.2977 35.1891
29.3439 35.069
29.3899 35.1341
29.4361 35.0125
29.4824 34.807
29.5284 34.6656
29.5746 34.3418
29.6207 34.0323
29.6669 33.9412
29.713 33.8951
29.7593 33.9185
29.8053 33.7715
29.8516 33.736
29.8977 33.5391
29.9439 33.4843
29.99 33.4706
30.0363 33.2415
30.0824 33.4075
30.1287 33.2802
30.1748 33.2034
30.2211 33.1824
30.2673 33.0277
30.3136 33.1317
30.3597 33.1743
30.406 32.9676
30.4522 32.8319
30.4985 32.8811
30.5447 32.942
30.591 32.9784
30.6372 33.0122
30.6835 32.9114
30.7297 33.0771
30.7761 32.9637
30.8224 32.8905
30.8686 32.6695
30.915 32.4291
30.9612 32.4347
31.0076 32.1986
31.0538 31.963
31.1002 31.9423
31.1464 31.7258
31.1928 31.7041
31.2391 31.7001
31.2855 31.6234
31.3317 31.586
31.3781 31.6417
31.4244 31.6903
31.4708 31.5758
31.5171 31.5504
31.5636 31.6151
31.6098 31.2352
31.6563 31.2308
31.7026 31.0346
31.7491 30.8312
31.7953 30.936
31.8418 30.8997
31.8881 30.8769
31.9346 30.9579
31.9809 30.8773
32.0275 30.6901
32.074 30.6157
32.1203 30.3961
32.1668 30.3181
32.2132 30.1429
32.2597 29.9945
32.306 29.9208
32.3526 29.7508
32.399 29.6277
32.4455 29.5276
32.4919 29.4544
32.5385 29.394
32.5848 29.2011
32.6314 29.1619
32.6778 29.1626
32.7244 29.1197
32.7708 28.8234
32.8174 28.8529
32.8638 28.737
32.9104 28.7965
32.9569 28.7412
33.0035 28.6873
33.0499 28.6179
33.0966 28.5297
33.143 28.3809
33.1897 28.4207
33.2361 28.3246
33.2828 28.3002
33.3293 28.0861
33.3759 28.1192
33.4226 27.978
33.4691 27.8309
33.5158 27.7161
33.5623 27.6485
33.609 27.428
33.6555 27.3831
33.7022 27.2385
33.7487 27.1278
33.7954 27.1705
33.842 27.0412
33.8887 26.995
33.9353 27.0195
33.982 26.7793
34.0286 26.7106
34.0753 26.6556
34.1219 26.5738
34.1687 26.4985
34.2152 26.4461
34.262 26.335
34.3086 26.2235
34.3554 26.1626
34.402 26.0669
34.4488 25.9874
34.4954 25.8957
34.5422 25.8295
34.5889 25.759
34.6357 25.6173
34.6825 25.6128
34.7292 25.4178
34.776 25.394
34.8227 25.3115
34.8695 25.2554
34.9162 25.1451
34.9631 25.07
35.0098 25.0749
35.0566 24.9472
35.1033 24.9092
35.1502 24.9099
35.1969 24.8172
35.2438 24.7609
35.2906 24.6832
35.3375 24.6237
35.3842 24.611
35.4311 24.6327
35.4779 24.5102
35.5248 24.4104
35.5716 24.3621
35.6185 24.3714
35.6653 24.2124
35.7123 24.1057
35.759 24.0793
35.806 23.9506
35.8528 23.8356
35.8998 23.8184
35.9468 23.7059
35.9936 23.5783
36.0406 23.5419
36.0874 23.5906
36.1345 23.5026
36.1813 23.4509
36.2283 23.2952
36.2752 23.1539
36.3222 23.2422
36.3691 23.2018
36.4161 23.0139
36.463 22.9915
36.5101 22.9218
36.557 22.9032
36.6041 22.7958
36.651 22.7148
36.6981 22.7099
36.745 22.5974
36.7921 22.5891
36.839 22.3966
36.8861 22.3276
36.9331 22.2649
36.9802 22.2394
37.0272 22.1696
37.0743 22.0608
37.1213 22.0466
37.1684 21.9507
37.2154 21.9006
37.2626 21.8448
37.3098 21.7464
37.3568 21.6943
37.404 21.6145
37.451 21.5775
37.4982 21.5081
37.5452 21.4123
37.5924 21.3987
37.6395 21.2897
37.6867 21.2991
37.7337 21.0655
37.781 21.0521
37.8281 21.0326
37.8753 20.9257
37.9224 20.838
37.9697 20.7843
38.0168 20.7542
38.064 20.6307
38.1111 20.5867
38.1584 20.5054
38.2056 20.4215
38.2529 20.4241
38.3 20.3247
38.3473 20.2916
38.3945 20.173
38.4418 20.2011
38.489 20.0772
38.5363 19.999
38.5837 19.9758
38.6309 19.9019
38.6782 19.8173
38.7254 19.7455
38.7728 19.6817
38.82 19.6348
38.8674 19.5773
38.9146 19.4614
38.9621 19.4722
39.0093 19.4273
39.0567 19.3605
39.104 19.2575
39.1514 19.1629
39.1987 19.194
39.2461 19.1172
39.2934 19.0794
39.3409 18.8473
39.3882 18.8261
39.4356 18.8204
39.483 18.7721
39.5304 18.7061
39.5778 18.701
39.6253 18.6725
39.6726 18.5898
39.7201 18.5063
39.7675 18.4262
39.815 18.4473
39.8624 18.2952
39.9099 18.296
39.9575 18.2392
40.0049 18.1923
40.0525 18.1427
40.0999 18.0802
40.1474 17.9721
40.1949 17.9801
40.2425 17.8527
40.2899 17.7682
40.3375 17.7642
40.385 17.7111
40.4326 17.613
40.48 17.5597
40.5277 17.5892
40.5752 17.4711
40.6228 17.3689
40.6703 17.3463
40.718 17.3289
40.7655 17.2169
40.8132 17.1842
40.8607 17.1593
40.9084 17.0431
40.9559 17.0543
41.0036 16.989
41.0512 16.9557
41.0989 16.9321
41.1465 16.7692
41.1942 16.7339
41.242 16.6715
41.2896 16.6273
41.3373 16.5211
41.3849 16.5584
41.4327 16.458
41.4803 16.3781
41.5281 16.346
41.5758 16.3286
41.6236 16.2477
41.6712 16.2318
41.7191 16.1657
41.7667 16.0823
41.8146 16.0272
41.8622 15.9573
41.9101 15.9373
41.9578 15.8152
42.0057 15.8016
42.0534 15.7846
42.1013 15.7437
42.149 15.6425
42.1969 15.5955
42.2446 15.5351
42.2925 15.4951
42.3403 15.4438
42.3882 15.4044
42.436 15.3741
42.4839 15.2652
42.5319 15.24
42.5797 15.2164
42.6277 15.1362
42.6755 15.0888
42.7235 15.0134
42.7713 14.9916
42.8193 14.8762
42.8671 14.8212
42.9152 14.7819
42.963 14.7455
43.0111 14.7543
43.0589 14.6975
43.107 14.6469
43.1549 14.5623
43.2029 14.4931
43.2508 14.4826
43.2989 14.4035
43.3468 14.3975
43.3949 14.3228
43.4429 14.2653
43.491 14.2123
43.5389 14.1743
43.5871 14.1377
43.635 14.0832
43.6832 14.0148
43.7312 13.995
43.7793 13.9301
43.8273 13.9054
43.8755 13.8234
43.9237 13.8171
43.9717 13.7336
44.0199 13.6693
44.068 13.6396
44.1162 13.6367
44.1642 13.5581
44.2125 13.4742
44.2606 13.4819
44.3088 13.4022
44.3569 13.3815
44.4052 13.3296
44.4533 13.2727
44.5016 13.2458
44.5497 13.1887
44.598 13.1302
44.6461 13.1129
44.6945 13.0394
44.7426 13.0501
44.791 12.9357
44.8391 12.9003
44.8875 12.9041
44.9357 12.8616
44.984 12.7323
45.0322 12.7355
45.0806 12.6835
45.1288 12.6494
45.1773 12.5907
45.2257 12.5693
45.2739 12.5551
45.3224 12.4628
45.3706 12.4425
45.4191 12.3239
45.4673 12.3566
45.5158 12.2897
45.5641 12.2176
45.6126 12.1943
45.6609 12.1001
45.7094 12.108
45.7577 12.0581
45.8063 12.0404
45.8546 11.9392
45.9031 11.8932
45.9515 11.8975
46.0001 11.8378
46.0484 11.8334
46.097 11.8002
46.1454 11.7246
46.194 11.6888
46.2424 11.6417
46.291 11.5938
46.3395 11.5599
46.3881 11.4831
46.4365 11.4994
46.4852 11.4528
46.5337 11.3555
46.5823 11.3623
46.631 11.3309
46.6795 11.2809
46.7282 11.2331
46.7767 11.1747
46.8254 11.0872
46.8739 11.1015
46.9226 11.0745
46.9712 10.9838
47.0199 10.9519
47.0685 10.9328
47.1173 10.9004
47.1658 10.8089
47.2146 10.814
47.2632 10.7104
47.312 10.7601
47.3606 10.7388
47.4095 10.6379
47.4581 10.5998
47.5069 10.5445
47.5556 10.5343
47.6044 10.4654
47.6531 10.4273
47.702 10.3894
47.7507 10.4004
47.7996 10.3384
47.8483 10.3001
47.8972 10.298
47.9461 10.2104
47.9948 10.1998
48.0438 10.1596
48.0925 10.1492
48.1415 10.0983
48.1902 10.0418
48.2392 10.0385
48.288 10.0181
48.337 9.93761
48.3858 9.91925
48.4348 9.8624
48.4837 9.87894
48.5327 9.79097
48.5815 9.74923
48.6306 9.72329
48.6795 9.671
48.7285 9.62796
48.7774 9.61555
48.8265 9.59954
48.8754 9.57725
48.9245 9.5472
48.9734 9.45294
49.0226 9.45015
49.0715 9.41598
49.1206 9.36669
49.1696 9.30954
49.2188 9.30109
49.2679 9.2683
49.3169 9.20478
49.3661 9.15725
49.4151 9.13656
49.4643 9.17094
49.5134 9.09724
49.5626 9.03396
49.6117 9.02357
49.6609 9.00012
49.71 8.91947
49.7592 8.93855
49.8083 8.86429
49.8576 8.85407
49.9067 8.79949
49.956 8.77444
50.0052 8.75452
50.0545 8.70821
50.1036 8.65323
50.153 8.63942
50.2022 8.64655
50.2515 8.59836
50.3007 8.52429
50.3501 8.53559
50.3993 8.46878
50.4487 8.44082
50.498 8.38836
50.5474 8.38486
50.5966 8.36109
50.6461 8.33795
50.6955 8.27842
50.7448 8.25043
50.7943 8.23208
50.8436 8.20902
50.8931 8.15983
50.9424 8.16219
50.9919 8.10278
51.0413 8.10728
51.0908 8.06
51.1402 7.97847
51.1897 7.96423
51.2391 7.95496
51.2887 7.91677
51.3381 7.89277
51.3877 7.84598
51.4371 7.81099
51.4867 7.76432
51.5362 7.73008
51.5858 7.68718
51.6353 7.65704
51.6849 7.65059
51.7344 7.61982
51.7841 7.55973
51.8336 7.55106
51.8833 7.51493
51.9328 7.50027
51.9826 7.45045
52.0323 7.41853
52.0818 7.39933
52.1316 7.3689
52.1812 7.33053
52.231 7.28978
52.2806 7.26313
52.3304 7.24605
52.38 7.21151
52.4298 7.16326
52.4794 7.1437
52.5293 7.15962
52.5789 7.09465
52.6288 7.0788
52.6785 7.00054
52.7284 7.00529
52.7781 6.9754
52.828 6.97168
52.8777 6.95225
52.9276 6.88816
52.9774 6.89349
53.0273 6.84326
53.0771 6.81121
53.1271 6.84529
53.1769 6.71176
53.2269 6.71111
53.2767 6.69893
53.3267 6.63792
53.3765 6.64381
53.4266 6.59576
53.4766 6.57207
53.5265 6.53782
53.5765 6.50232
53.6264 6.52203
53.6765 6.46582
53.7264 6.40011
53.7765 6.40965
53.8265 6.40095
53.8766 6.34402
53.9266 6.30455
53.9767 6.3368
54.0267 6.2681
54.0769 6.29024
54.1269 6.21838
54.1771 6.1517
54.2271 6.14729
54.2773 6.09105
54.3274 6.09544
54.3776 6.03977
54.4277 6.03091
54.478 5.96407
54.528 5.9368
54.5783 5.93534
54.6285 5.8341
54.6788 5.81713
54.7289 5.7563
54.7792 5.71383
54.8296 5.71816
54.8798 5.71616
54.9301 5.60619
54.9803 5.57212
55.0307 5.59589
55.0809 5.49797
55.1314 5.49596
55.1816 5.45367
55.232 5.37361
55.2823 5.37219
55.3328 5.30165
55.383 5.22952
55.4335 5.20587
55.4838 5.15412
55.5344 5.14129
55.5847 5.00058
55.6352 5.05492
55.6856 4.93223
55.7361 4.88128