File: XRD/Ni3Fe_FD0945.xy
TT I
1.27165 7.52332
1.31627 7.19227
1.36089 6.33542
1.40551 6.34207
1.45013 6.00156
1.49476 6.16031
1.53938 5.60645
1.584 5.80592
1.62863 5.21271
1.67325 4.69822
1.71787 4.82643
1.7625 4.95096
1.80712 5.01444
1.85174 4.76188
1.89636 5.33647
1.94099 5.07527
1.98562 4.87555
2.03025 4.29211
2.07487 4.59428
2.11949 4.84572
2.16411 5.18143
2.20874 7.60291
2.25338 9.1763
2.298 5.51001
2.34263 5.92649
2.38725 5.6757
2.43188 6.23141
2.4765 7.38252
2.52115 7.37478
2.56577 8.06565
2.6104 8.73482
2.65503 7.73331
2.69965 8.25163
2.7443 8.62215
2.78893 8.99143
2.83356 7.63498
2.87818 9.17288
2.92281 8.87093
2.96744 9.79315
3.01209 10.4191
3.05672 11.3568
3.10135 12.5917
3.14599 13.1473
3.19062 14.35
3.23527 15.4198
3.2799 15.9133
3.32454 16.9834
3.36917 17.5784
3.4138 18.6864
3.45844 19.1726
3.50309 20.0832
3.54773 21.3593
3.59237 23.1906
3.637 40.4248
3.68164 32.4582
3.7263 25.1049
3.77094 25.3355
3.81558 26.447
3.86022 26.9823
3.90486 28.6567
3.9495 29.3108
3.99416 30.3271
4.0388 31.7542
4.08344 32.7565
4.12809 33.8361
4.17273 35.4765
4.21738 37.8985
4.26204 95.6728
4.30669 84.4904
4.35133 43.199
4.39598 42.6932
4.44063 47.2636
4.4853 51.7592
4.52995 59.6646
4.5746 60.2441
4.61925 52.9162
4.6639 54.6114
4.70855 57.4548
4.75322 61.5044
4.79788 69.8208
4.84253 68.2725
4.88719 76.2679
4.93184 76.5025
4.97652 79.9855
5.02118 85.8794
5.06583 93.2196
5.11049 105.358
5.15515 152.645
5.19981 371.044
5.24449 2781.97
5.28916 13546.0
5.33382 2704.74
5.37848 199.315
5.42315 131.015
5.46783 121.911
5.5125 114.382
5.55716 101.127
5.60183 96.1854
5.6465 94.8369
5.69117 92.8666
5.73586 91.8537
5.78053 100.123
5.8252 100.353
5.86988 103.991
5.91455 93.9586
5.95924 101.984
6.00392 228.221
6.0486 906.26
6.09328 4611.45
6.13795 3013.02
6.18263 196.057
6.22733 87.5898
6.27201 78.5876
6.3167 79.897
6.36138 72.0515
6.40606 69.3306
6.45075 69.8955
6.49545 64.7325
6.54014 62.279
6.58483 62.0154
6.62952 62.6206
6.67421 68.6094
6.71892 79.4805
6.76361 60.3336
6.8083 59.1936
6.853 60.3979
6.89769 55.9393
6.94239 55.2089
6.98711 54.8139
7.03181 55.2698
7.07651 54.2259
7.12121 53.6001
7.16591 55.8379
7.21063 55.0289
7.25533 58.1775
7.30004 85.5482
7.34475 62.9951
7.38945 53.7156
7.43416 52.8689
7.47889 52.4892
7.5236 53.521
7.56831 54.1474
7.61303 54.4361
7.65774 55.0171
7.70247 56.622
7.74719 55.8847
7.79191 55.4796
7.83663 55.6778
7.88135 56.4214
7.92607 57.5228
7.97081 58.8908
8.01553 60.225
8.06026 61.7958
8.10498 63.458
8.14971 70.0795
8.19446 70.4074
8.23919 68.5022
8.28392 70.8454
8.32865 73.0859
8.37339 77.3579
8.41812 82.187
8.46288 98.6201
8.50761 170.444
8.55235 363.55
8.59709 1203.94
8.64183 2218.01
8.68658 827.767
8.73134 140.411
8.77609 95.6063
8.82083 91.0685
8.86558 92.9075
8.91033 92.7453
8.9551 89.0495
8.99985 84.1498
9.04461 83.2275
9.08936 83.816
9.13412 82.1086
9.17888 81.0012
9.22365 81.1968
9.26841 80.7514
9.31318 84.5574
9.35794 87.3987
9.4027 86.4997
9.44749 84.7962
9.49226 84.1785
9.53703 84.5965
9.5818 89.4797
9.62657 94.6197
9.67134 94.4142
9.71614 91.0837
9.76091 93.7946
9.80569 99.9473
9.85047 100.923
9.89525 108.198
9.94005 122.809
9.98484 184.873
10.0296 330.453
10.0744 827.927
10.1192 1852.0
10.164 1473.09
10.2088 331.152
10.2536 118.531
10.2984 107.094
10.3432 105.405
10.388 103.337
10.4328 119.75
10.4776 158.418
10.5224 288.257
10.5672 548.676
10.612 482.224
10.6568 175.69
10.7017 91.7782
10.7465 84.619
10.7913 81.6695
10.8361 79.7298
10.8809 77.3013
10.9257 76.7532
10.9706 77.2635
11.0154 74.6084
11.0602 72.1236
11.105 70.2922
11.1499 70.3928
11.1947 71.2638
11.2395 68.2631
11.2844 67.1436
11.3292 66.0036
11.374 65.1989
11.4189 64.5939
11.4637 63.6235
11.5086 63.3368
11.5534 64.011
11.5983 62.9362
11.6431 62.4959
11.688 61.7191
11.7328 61.8072
11.7777 61.5765
11.8225 61.8881
11.8674 61.5585
11.9122 61.5868
11.9571 62.2502
12.002 63.521
12.0468 67.6653
12.0917 77.0992
12.1366 101.898
12.1814 160.121
12.2263 210.554
12.2712 153.401
12.3161 84.2629
12.3609 65.082
12.4058 62.9073
12.4507 63.052
12.4956 63.8075
12.5405 64.2641
12.5853 64.238
12.6302 66.3966
12.6751 68.2279
12.72 66.8411
12.7649 66.4656
12.8098 67.5637
12.8547 68.8004
12.8996 70.7274
12.9445 72.1987
12.9894 73.6862
13.0343 74.9756
13.0792 79.2501
13.1242 91.2787
13.1691 108.969
13.214 146.08
13.2589 245.978
13.3038 390.122
13.3487 418.072
13.3937 228.404
13.4386 114.68
13.4835 104.046
13.5285 118.159
13.5734 158.091
13.6183 259.131
13.6633 367.873
13.7082 322.132
13.7531 164.754
13.7981 91.3602
13.843 80.5229
13.888 78.3756
13.9329 76.1861
13.9779 74.5157
14.0228 73.0172
14.0678 71.8664
14.1127 71.2629
14.1577 70.6407
14.2027 70.1825
14.2476 69.2473
14.2926 68.8814
14.3376 68.7407
14.3825 68.4865
14.4275 67.7785
14.4725 67.7411
14.5175 67.6885
14.5624 67.8561
14.6074 68.3461
14.6524 69.2544
14.6974 69.7247
14.7424 72.8313
14.7874 78.2563
14.8324 87.4044
14.8774 110.96
14.9224 159.761
14.9674 220.077
15.0124 214.393
15.0574 136.305
15.1024 83.6908
15.1474 70.6235
15.1924 68.9327
15.2374 68.1065
15.2824 67.1611
15.3274 66.0708
15.3725 65.7386
15.4175 65.2344
15.4625 64.647
15.5076 64.574
15.5526 64.4402
15.5976 64.8496
15.6426 67.2063
15.6877 71.6589
15.7327 78.5289
15.7778 94.2523
15.8228 128.349
15.8679 178.245
15.9129 196.91
15.958 144.587
16.003 86.8947
16.0481 64.7705
16.0931 61.9141
16.1382 60.2166
16.1833 59.1344
16.2283 57.7707
16.2734 57.1008
16.3185 56.7048
16.3636 56.3118
16.4086 55.6266
16.4537 55.0081
16.4988 54.5322
16.5439 54.3632
16.589 54.2238
16.6341 54.1175
16.6792 53.3906
16.7243 53.7868
16.7694 53.8237
16.8145 53.4426
16.8596 53.7978
16.9047 54.2903
16.9498 54.6328
16.9949 54.2615
17.04 55.0927
17.0851 56.2369
17.1302 57.6143
17.1754 60.6417
17.2205 66.3638
17.2656 74.9027
17.3108 83.0773
17.3559 80.3676
17.401 67.491
17.4462 60.3253
17.4913 58.4158
17.5365 58.0298
17.5815 58.2104
17.6268 58.6923
17.6718 59.2909
17.7171 59.5291
17.7622 60.3433
17.8074 61.5197
17.8525 63.9629
17.8977 67.1618
17.9428 72.4076
17.9881 81.9615
18.0331 101.451
18.0784 126.697
18.1237 141.014
18.1688 125.645
18.214 97.0428
18.2591 83.6956
18.3044 90.687
18.3495 101.6
18.3948 104.899
18.4399 90.8629
18.4852 72.7932
18.5303 63.7853
18.5756 61.0019
18.6207 60.1714
18.666 59.2064
18.7112 58.4721
18.7565 57.7413
18.8016 57.6603
18.8469 57.066
18.892 56.7366
18.9374 56.3302
18.9825 55.8569
19.0278 55.8755
19.073 56.1142
19.1183 56.2031
19.1635 56.7182
19.2088 58.134
19.254 61.2954
19.2993 66.2634
19.3447 71.9778
19.3898 74.9804
19.4352 69.1634
19.4804 60.2347
19.5257 55.0241
19.5709 53.1849
19.6163 52.991
19.6615 52.8267
19.7068 52.2755
19.752 52.2086
19.7974 52.6943
19.8426 53.3488
19.888 53.7774
19.9332 55.1602
19.9786 58.2377
20.0238 62.473
20.0692 67.5546
20.1144 69.4572
20.1598 66.5025
20.205 61.6717
20.2504 61.4721
20.2957 64.5041
20.3411 65.308
20.3863 62.3626
20.4318 56.1682
20.477 51.8536
20.5224 50.0104
20.5677 49.6372
20.6131 49.0664
20.6586 48.8421
20.7038 48.7397
20.7493 48.0417
20.7945 48.1966
20.84 48.1398
20.8853 47.9147
20.9307 47.7498
20.976 48.0747
21.0215 47.5704
21.0668 48.2802
21.1122 48.67
21.1575 49.4257
21.203 50.1632
21.2483 50.5345
21.2938 50.3742
21.3391 49.0391
21.3846 48.0636
21.4299 47.5315
21.4754 47.584
21.5207 47.9114
21.5662 48.1942
21.6116 48.6267
21.6571 49.1924
21.7024 50.0965
21.7479 51.9744
21.7933 54.962
21.8388 59.0159
21.8843 63.2944
21.9297 64.244
21.9752 61.2979
22.0206 57.3985
22.0661 55.5033
22.1115 55.486
22.157 54.8838
22.2024 52.7547
22.248 50.1603
22.2933 48.7154
22.3389 48.032
22.3843 47.9803
22.4299 47.7232
22.4753 47.8753
22.5208 47.6366
22.5662 47.7479
22.6118 47.914
22.6572 48.1129
22.7028 48.5505
22.7483 48.8369
22.7939 49.5979
22.8393 51.3414
22.8849 53.5851
22.9303 55.8654
22.9759 57.2339
23.0214 55.9599
23.067 52.8604
23.1126 49.6402
23.1581 48.1877
23.2037 47.8432
23.2492 48.082
23.2948 47.9384
23.3403 48.3022
23.3859 49.064
23.4314 50.0833
23.477 52.1103
23.5225 54.7751
23.5682 57.1626
23.6137 57.3466
23.6593 54.0467
23.7048 49.8821
23.7505 47.058
23.796 45.6811
23.8417 45.2686
23.8872 44.6889
23.9329 44.4922
23.9784 44.0345
24.0241 43.8729
24.0697 43.7275
24.1154 43.285
24.1609 43.2037
24.2066 43.0032
24.2522 43.0069
24.2979 42.7218
24.3434 42.5926
24.3892 42.37
24.4349 42.4325
24.4805 42.2939
24.5262 42.3647
24.5718 42.358
24.6175 42.2395
24.6631 42.1685
24.7089 41.6819
24.7545 41.6337
24.8002 41.5392
24.8458 41.6571
24.8916 41.4145
24.9372 41.5583
24.983 41.853
25.0286 42.2848
25.0744 42.6967
25.12 43.1823
25.1658 43.9162
25.2114 44.0668
25.2572 44.0309
25.3029 44.3259
25.3487 44.4862
25.3943 43.8372
25.4402 42.5136
25.4858 41.5075
25.5316 40.6492
25.5773 40.1079
25.6231 40.121
25.669 39.8867
25.7147 39.8306
25.7605 39.5941
25.8062 39.7335
25.8521 39.9685
25.8977 39.9858
25.9436 40.2397
25.9893 40.3429
26.0352 40.9385
26.0809 40.9891
26.1268 41.0976
26.1725 40.6252
26.2184 39.9141
26.2641 39.4701
26.31 39.3786
26.3557 39.5343
26.4017 39.3234
26.4474 39.8852
26.4933 40.1595
26.5391 40.7747
26.585 41.2129
26.6308 41.6444
26.6767 41.578
26.7225 41.2011
26.7684 40.6841
26.8142 40.1247
26.8601 39.6823
26.9059 39.1877
26.9519 38.6273
26.9979 38.4569
27.0437 38.1807
27.0896 38.0007
27.1354 38.0743
27.1814 37.8453
27.2272 37.8961
27.2732 37.8452
27.3191 37.8231
27.3651 37.9165
27.4109 37.7551
27.4569 37.8808
27.5027 38.1278
27.5488 38.0878
27.5946 37.8655
27.6407 37.4973
27.6865 37.3247
27.7326 37.2501
27.7784 37.243
27.8245 37.2395
27.8703 37.3592
27.9164 37.7241
27.9623 37.8838
28.0084 38.3193
28.0543 38.4563
28.1003 38.4344
28.1462 38.061
28.1923 37.7019
28.2384 37.299
28.2843 36.8981
28.3304 36.3922
28.3764 35.9166
28.4225 35.8672
28.4684 35.6934
28.5145 35.3265
28.5605 35.1531
28.6066 35.1124
28.6526 35.0325
28.6987 35.0219
28.7447 35.0848
28.7908 34.8324
28.8368 34.8777
28.8829 34.9476
28.9289 34.645
28.9751 34.5941
29.0211 34.3062
29.0673 34.0385
29.1133 33.9535
29.1595 33.747
29.2055 33.7117
29.2517 33.7218
29.2977 33.7215
29.3439 33.7755
29.3899 33.6506
29.4361 33.5301
29.4824 33.3572
29.5284 33.0658
29.5746 32.8465
29.6207 32.5838
29.6669 32.6096
29.713 32.4238
29.7593 32.3682
29.8053 32.3523
29.8516 32.3025
29.8977 32.2028
29.9439 32.0313
29.99 31.9732
30.0363 31.9622
30.0824 31.9441
30.1287 31.8776
30.1748 31.8859
30.2211 31.8345
30.2673 31.6191
30.3136 31.7232
30.3597 31.6787
30.406 31.6075
30.4522 31.5756
30.4985 31.5735
30.5447 31.7378
30.591 31.6681
30.6372 31.6626
30.6835 31.7205
30.7297 31.779
30.7761 31.6132
30.8224 31.2653
30.8686 31.3864
30.915 31.1029
30.9612 30.9308
31.0076 30.6635
31.0538 30.626
31.1002 30.6101
31.1464 30.3999
31.1928 30.4741
31.2391 30.4477
31.2855 30.2874
31.3317 30.3054
31.3781 30.4816
31.4244 30.4421
31.4708 30.3266
31.5171 30.3048
31.5636 30.3664
31.6098 29.9643
31.6563 29.8369
31.7026 29.6387
31.7491 29.579
31.7953 29.6224
31.8418 29.6013
31.8881 29.6605
31.9346 29.5978
31.9809 29.5412
32.0275 29.4118
32.074 29.2937
32.1203 29.0758
32.1668 29.0476
32.2132 28.8895
32.2597 28.7911
32.306 28.6853
32.3526 28.4034
32.399 28.3559
32.4455 28.275
32.4919 28.1916
32.5385 28.2266
32.5848 28.0504
32.6314 28.0187
32.6778 27.957
32.7244 27.8289
32.7708 27.7426
32.8174 27.6627
32.8638 27.5509
32.9104 27.6227
32.9569 27.4484
33.0035 27.4197
33.0499 27.3618
33.0966 27.2582
33.143 27.3288
33.1897 27.2253
33.2361 27.1565
33.2828 27.1921
33.3293 26.8742
33.3759 26.8318
33.4226 26.7777
33.4691 26.6964
33.5158 26.5727
33.5623 26.4371
33.609 26.3437
33.6555 26.1503
33.7022 26.1513
33.7487 26.0286
33.7954 26.0028
33.842 25.8697
33.8887 25.8635
33.9353 25.8375
33.982 25.6824
34.0286 25.4874
34.0753 25.5398
34.1219 25.4644
34.1687 25.4023
34.2152 25.332
34.262 25.1982
34.3086 25.1662
34.3554 25.1217
34.402 24.9136
34.4488 24.7827
34.4954 24.8161
34.5422 24.692
34.5889 24.7044
34.6357 24.547
34.6825 24.5512
34.7292 24.3573
34.776 24.291
34.8227 24.2172
34.8695 24.2292
34.9162 24.1309
34.9631 24.0348
35.0098 24.1473
35.0566 23.8766
35.1033 23.9075
35.1502 23.7852
35.1969 23.8202
35.2438 23.8034
35.2906 23.713
35.3375 23.7055
35.3842 23.6206
35.4311 23.6787
35.4779 23.5429
35.5248 23.4761
35.5716 23.3128
35.6185 23.3481
35.6653 23.2237
35.7123 23.1869
35.759 23.048
35.806 22.9907
35.8528 22.8465
35.8998 22.834
35.9468 22.6939
35.9936 22.686
36.0406 22.5633
36.0874 22.5882
36.1345 22.5245
36.1813 22.474
36.2283 22.3296
36.2752 22.1983
36.3222 22.2792
36.3691 22.165
36.4161 22.0257
36.463 22.072
36.5101 22.0143
36.557 22.0052
36.6041 21.7823
36.651 21.843
36.6981 21.7144
36.745 21.6986
36.7921 21.6322
36.839 21.5169
36.8861 21.457
36.9331 21.3962
36.9802 21.2676
37.0272 21.1841
37.0743 21.1382
37.1213 21.1156
37.1684 21.0797
37.2154 20.9337
37.2626 20.9054
37.3098 20.7921
37.3568 20.7771
37.404 20.7258
37.451 20.6051
37.4982 20.5384
37.5452 20.4728
37.5924 20.4335
37.6395 20.4768
37.6867 20.4135
37.7337 20.3146
37.781 20.2402
37.8281 20.0846
37.8753 20.0634
37.9224 19.9381
37.9697 19.9359
38.0168 19.8686
38.064 19.7864
38.1111 19.7692
38.1584 19.6336
38.2056 19.6166
38.2529 19.615
38.3 19.5001
38.3473 19.4476
38.3945 19.3543
38.4418 19.2753
38.489 19.2082
38.5363 19.2508
38.5837 19.0939
38.6309 19.0787
38.6782 18.971
38.7254 18.9096
38.7728 18.8473
38.82 18.7847
38.8674 18.7488
38.9146 18.7553
38.9621 18.6194
39.0093 18.5916
39.0567 18.5563
39.104 18.4864
39.1514 18.4083
39.1987 18.3515
39.2461 18.3281
39.2934 18.263
39.3409 18.1791
39.3882 18.064
39.4356 18.0999
39.483 17.9826
39.5304 17.9536
39.5778 17.9618
39.6253 17.8271
39.6726 17.7647
39.7201 17.7631
39.7675 17.6757
39.815 17.6453
39.8624 17.5492
39.9099 17.5651
39.9575 17.4657
40.0049 17.3814
40.0525 17.3103
40.0999 17.3051
40.1474 17.2349
40.1949 17.1403
40.2425 17.1297
40.2899 17.0153
40.3375 17.0054
40.385 16.9153
40.4326 16.894
40.48 16.7589
40.5277 16.7602
40.5752 16.7709
40.6228 16.646
40.6703 16.6476
40.718 16.5732
40.7655 16.5654
40.8132 16.4894
40.8607 16.4758
40.9084 16.3557
40.9559 16.3103
41.0036 16.2923
41.0512 16.2278
41.0989 16.2421
41.1465 16.1169
41.1942 15.9873
41.242 15.9366
41.2896 15.8854
41.3373 15.8766
41.3849 15.8666
41.4327 15.7741
41.4803 15.7024
41.5281 15.6704
41.5758 15.5985
41.6236 15.5535
41.6712 15.4627
41.7191 15.4656
41.7667 15.4438
41.8146 15.3834
41.8622 15.3025
41.9101 15.295
41.9578 15.155
42.0057 15.1324
42.0534 15.1153
42.1013 15.0845
42.149 15.0604
42.1969 14.9428
42.2446 14.9095
42.2925 14.8702
42.3403 14.7888
42.3882 14.8077
42.436 14.7067
42.4839 14.6051
42.5319 14.6831
42.5797 14.5303
42.6277 14.5298
42.6755 14.5111
42.7235 14.3873
42.7713 14.3814
42.8193 14.3624
42.8671 14.3016
42.9152 14.2107
42.963 14.1627
43.0111 14.1347
43.0589 14.0579
43.107 14.0487
43.1549 13.9938
43.2029 13.9739
43.2508 13.8587
43.2989 13.8145
43.3468 13.7512
43.3949 13.7294
43.4429 13.6824
43.491 13.6549
43.5389 13.6437
43.5871 13.5762
43.635 13.4456
43.6832 13.4284
43.7312 13.3618
43.7793 13.3257
43.8273 13.3199
43.8755 13.2551
43.9237 13.1609
43.9717 13.1838
44.0199 13.1728
44.068 13.1101
44.1162 13.0453
44.1642 13.0582
44.2125 12.9883
44.2606 12.9043
44.3088 12.8361
44.3569 12.8136
44.4052 12.8083
44.4533 12.7399
44.5016 12.6921
44.5497 12.636
44.598 12.6427
44.6461 12.5285
44.6945 12.5204
44.7426 12.5041
44.791 12.4033
44.8391 12.3976
44.8875 12.2914
44.9357 12.3191
44.984 12.235
45.0322 12.2284
45.0806 12.1697
45.1288 12.1462
45.1773 12.066
45.2257 12.0676
45.2739 11.9897
45.3224 11.9573
45.3706 11.9353
45.4191 11.8118
45.4673 11.8033
45.5158 11.8119
45.5641 11.7414
45.6126 11.6996
45.6609 11.6642
45.7094 11.5757
45.7577 11.6088
45.8063 11.5515
45.8546 11.5137
45.9031 11.424
45.9515 11.4091
46.0001 11.3459
46.0484 11.3621
46.097 11.2975
46.1454 11.2968
46.194 11.2175
46.2424 11.1828
46.291 11.112
46.3395 11.0894
46.3881 11.0178
46.4365 11.0371
46.4852 11.0188
46.5337 10.9106
46.5823 10.8981
46.631 10.8568
46.6795 10.8214
46.7282 10.7775
46.7767 10.7377
46.8254 10.6672
46.8739 10.6177
46.9226 10.6091
46.9712 10.5777
47.0199 10.527
47.0685 10.4766
47.1173 10.4594
47.1658 10.4119
47.2146 10.3745
47.2632 10.3223
47.312 10.3097
47.3606 10.2413
47.4095 10.2475
47.4581 10.1882
47.5069 10.1628
47.5556 10.0963
47.6044 10.0614
47.6531 10.0416
47.702 9.96148
47.7507 9.95183
47.7996 9.87619
47.8483 9.89084
47.8972 9.86266
47.9461 9.84824
47.9948 9.77353
48.0438 9.75078
48.0925 9.72204
48.1415 9.67297
48.1902 9.64014
48.2392 9.6196
48.288 9.57957
48.337 9.55137
48.3858 9.49873
48.4348 9.48241
48.4837 9.49289
48.5327 9.4157
48.5815 9.35651
48.6306 9.32003
48.6795 9.29253
48.7285 9.27406
48.7774 9.22125
48.8265 9.21844
48.8754 9.11742
48.9245 9.09008
48.9734 9.0729
49.0226 9.07305
49.0715 9.04191
49.1206 8.97582
49.1696 8.91896
49.2188 8.96586
49.2679 8.9148
49.3169 8.8227
49.3661 8.79177
49.4151 8.7861
49.4643 8.734
49.5134 8.7212
49.5626 8.65846
49.6117 8.66464
49.6609 8.65101
49.71 8.56541
49.7592 8.54436
49.8083 8.51313
49.8576 8.48778
49.9067 8.43659
49.956 8.40451
50.0052 8.36192
50.0545 8.40912
50.1036 8.31393
50.153 8.29453
50.2022 8.2993
50.2515 8.20404
50.3007 8.17109
50.3501 8.19489
50.3993 8.12074
50.4487 8.0855
50.498 8.0491
50.5474 8.02109
50.5966 7.98592
50.6461 7.98509
50.6955 7.97479
50.7448 7.94606
50.7943 7.88939
50.8436 7.87563
50.8931 7.84961
50.9424 7.82553
50.9919 7.7575
51.0413 7.74759
51.0908 7.6729
51.1402 7.68309
51.1897 7.64297
51.2391 7.63734
51.2887 7.61281
51.3381 7.54091
51.3877 7.50556
51.4371 7.47065
51.4867 7.45946
51.5362 7.42905
51.5858 7.38784
51.6353 7.34797
51.6849 7.32828
51.7344 7.31514
51.7841 7.27831
51.8336 7.25925
51.8833 7.21138
51.9328 7.1644
51.9826 7.16276
52.0323 7.11027
52.0818 7.07125
52.1316 7.07077
52.1812 7.03178
52.231 7.00251
52.2806 6.94969
52.3304 6.97627
52.38 6.91218
52.4298 6.90572
52.4794 6.83818
52.5293 6.85428
52.5789 6.82677
52.6288 6.77305
52.6785 6.7726
52.7284 6.7372
52.7781 6.70929
52.828 6.71821
52.8777 6.62679
52.9276 6.62357
52.9774 6.60623
53.0273 6.58889
53.0771 6.54903
53.1271 6.56362
53.1769 6.43858
53.2269 6.4654
53.2767 6.42334
53.3267 6.35426
53.3765 6.37885
53.4266 6.35957
53.4766 6.33824
53.5265 6.27037
53.5765 6.26044
53.6264 6.23407
53.6765 6.23542
53.7264 6.18675
53.7765 6.0927
53.8265 6.09608
53.8766 6.06404
53.9266 6.07984
53.9767 6.02864
54.0267 6.01622
54.0769 5.9959
54.1269 5.94018
54.1771 5.91368
54.2271 5.88897
54.2773 5.86256
54.3274 5.84886
54.3776 5.80226
54.4277 5.77705
54.478 5.76554
54.528 5.71948
54.5783 5.65903
54.6285 5.69058
54.6788 5.57053
54.7289 5.57301
54.7792 5.47912
54.8296 5.44559
54.8798 5.4011
54.9301 5.42164
54.9803 5.3579
55.0307 5.33196
55.0809 5.33256
55.1314 5.26744
55.1816 5.204
55.232 5.1292
55.2823 5.10989
55.3328 5.00035
55.383 4.9845
55.4335 4.98371
55.4838 4.93622
55.5344 4.88077
55.5847 4.84391
55.6352 4.85329
55.6856 4.79063
55.7361 4.74736