File: XRD/Ni3Fe_FD0101.xy
TT I
1.27165 9.29907
1.31627 8.16681
1.36089 7.94542
1.40551 7.21864
1.45013 6.95103
1.49476 6.86087
1.53938 6.35141
1.584 6.09188
1.62863 6.7713
1.67325 6.24957
1.71787 5.99121
1.7625 5.79349
1.80712 5.62688
1.85174 5.77455
1.89636 5.81001
1.94099 6.51255
1.98562 5.30737
2.03025 5.11176
2.07487 5.43702
2.11949 5.22043
2.16411 5.08521
2.20874 5.17913
2.25338 3.85493
2.298 4.45354
2.34263 4.14982
2.38725 4.49857
2.43188 4.62116
2.4765 4.54318
2.52115 4.65839
2.56577 4.37855
2.6104 4.67694
2.65503 4.53804
2.69965 5.15012
2.7443 5.80896
2.78893 6.14143
2.83356 6.83669
2.87818 7.5488
2.92281 8.30784
2.96744 9.58281
3.01209 10.1001
3.05672 10.7668
3.10135 12.5189
3.14599 12.6521
3.19062 14.2092
3.23527 14.84
3.2799 15.5807
3.32454 16.5383
3.36917 17.3982
3.4138 18.8787
3.45844 19.1693
3.50309 20.2156
3.54773 20.7227
3.59237 21.2093
3.637 22.4501
3.68164 22.7596
3.7263 23.7858
3.77094 24.5892
3.81558 25.3501
3.86022 25.8933
3.90486 27.4076
3.9495 28.2968
3.99416 28.9008
4.0388 30.2282
4.08344 31.7597
4.12809 32.4917
4.17273 34.0743
4.21738 35.1876
4.26204 35.876
4.30669 37.0653
4.35133 39.5978
4.39598 40.4808
4.44063 42.8695
4.4853 44.2322
4.52995 46.8418
4.5746 48.5955
4.61925 51.0692
4.6639 53.3678
4.70855 56.1062
4.75322 59.3726
4.79788 62.3014
4.84253 65.4288
4.88719 70.1393
4.93184 75.5583
4.97652 83.912
5.02118 93.3725
5.06583 105.387
5.11049 124.328
5.15515 170.753
5.19981 665.17
5.24449 3792.03
5.28916 6710.91
5.33382 7142.65
5.37848 669.925
5.42315 188.953
5.46783 137.607
5.5125 119.815
5.55716 111.431
5.60183 105.167
5.6465 101.797
5.69117 99.2178
5.73586 97.5695
5.78053 97.3159
5.8252 98.0887
5.86988 102.194
5.91455 111.509
5.95924 136.289
6.00392 337.602
6.0486 1435.47
6.09328 2184.34
6.13795 3823.43
6.18263 910.031
6.22733 145.877
6.27201 95.9757
6.3167 80.9398
6.36138 73.7575
6.40606 68.8463
6.45075 66.7578
6.49545 64.1198
6.54014 61.7377
6.58483 60.3039
6.62952 58.9762
6.67421 57.7934
6.71892 56.7875
6.76361 56.0179
6.8083 54.9132
6.853 54.1244
6.89769 53.515
6.94239 53.3849
6.98711 53.1247
7.03181 52.0114
7.07651 52.0479
7.12121 52.0992
7.16591 51.3978
7.21063 51.1946
7.25533 51.1995
7.30004 51.2502
7.34475 51.4346
7.38945 51.9241
7.43416 50.9537
7.47889 51.5996
7.5236 58.172
7.56831 74.6933
7.61303 58.1004
7.65774 53.1203
7.70247 53.1708
7.74719 53.4625
7.79191 54.1042
7.83663 54.2591
7.88135 55.3625
7.92607 55.9081
7.97081 57.3007
8.01553 58.3865
8.06026 60.0092
8.10498 61.0803
8.14971 62.7683
8.19446 64.4482
8.23919 66.8418
8.28392 70.002
8.32865 73.0093
8.37339 78.0141
8.41812 84.0758
8.46288 98.2582
8.50761 188.612
8.55235 648.73
8.59709 759.294
8.64183 1168.02
8.68658 1752.12
8.73134 553.061
8.77609 128.363
8.82083 100.405
8.86558 91.9163
8.91033 87.8988
8.9551 84.6801
8.99985 83.4275
9.04461 82.369
9.08936 81.5932
9.13412 80.6187
9.17888 81.0813
9.22365 91.8502
9.26841 116.777
9.31318 94.6082
9.35794 82.6427
9.4027 81.1921
9.44749 82.0674
9.49226 82.4082
9.53703 83.4451
9.5818 85.0485
9.62657 85.5586
9.67134 87.7806
9.71614 89.4981
9.76091 91.9268
9.80569 94.7577
9.85047 97.9989
9.89525 104.118
9.94005 115.861
9.98484 199.844
10.0296 587.777
10.0744 672.278
10.1192 784.833
10.164 1478.45
10.2088 1197.56
10.2536 271.91
10.2984 121.668
10.3432 109.456
10.388 105.148
10.4328 124.599
10.4776 227.118
10.5224 244.43
10.5672 264.374
10.612 436.39
10.6568 421.662
10.7017 160.814
10.7465 94.7282
10.7913 83.7792
10.8361 80.0336
10.8809 77.0683
10.9257 74.81
10.9706 73.424
11.0154 71.9535
11.0602 70.363
11.105 69.2382
11.1499 67.299
11.1947 66.5712
11.2395 65.5352
11.2844 65.2137
11.3292 64.2975
11.374 63.496
11.4189 63.199
11.4637 62.3588
11.5086 61.6748
11.5534 61.2112
11.5983 60.9752
11.6431 60.9873
11.688 60.5392
11.7328 60.3064
11.7777 60.1255
11.8225 60.1098
11.8674 60.473
11.9122 62.4584
11.9571 69.3118
12.002 69.0467
12.0468 68.8352
12.0917 92.7402
12.1366 106.778
12.1814 104.366
12.2263 126.575
12.2712 177.473
12.3161 153.417
12.3609 80.754
12.4058 64.0181
12.4507 62.5083
12.4956 62.1788
12.5405 62.273
12.5853 62.8605
12.6302 62.707
12.6751 63.6378
12.72 63.8773
12.7649 64.8494
12.8098 65.6593
12.8547 66.8319
12.8996 68.6025
12.9445 69.8807
12.9894 72.0626
13.0343 74.2363
13.0792 78.7771
13.1242 87.4454
13.1691 138.633
13.214 193.368
13.2589 184.529
13.3038 198.904
13.3487 291.888
13.3937 389.256
13.4386 248.32
13.4835 129.909
13.5285 162.13
13.5734 183.276
13.6183 168.642
13.6633 193.477
13.7082 287.784
13.7531 329.894
13.7981 183.877
13.843 91.8966
13.888 80.1833
13.9329 76.8366
13.9779 75.3286
14.0228 73.6033
14.0678 72.0912
14.1127 72.5407
14.1577 76.3733
14.2027 74.7823
14.2476 70.2628
14.2926 68.4477
14.3376 67.798
14.3825 67.6089
14.4275 67.0299
14.4725 67.0289
14.5175 66.9774
14.5624 67.0079
14.6074 67.3854
14.6524 68.0674
14.6974 68.7254
14.7424 70.5191
14.7874 80.7549
14.8324 109.732
14.8774 119.915
14.9224 113.832
14.9674 124.491
15.0124 164.547
15.0574 206.552
15.1024 158.331
15.1474 87.697
15.1924 71.3108
15.2374 68.209
15.2824 66.7015
15.3274 65.8017
15.3725 65.3586
15.4175 65.1709
15.4625 64.8544
15.5076 64.2149
15.5526 64.283
15.5976 64.6707
15.6426 65.7473
15.6877 74.0417
15.7327 97.3917
15.7778 107.446
15.8228 101.679
15.8679 106.332
15.9129 130.095
15.958 175.498
16.003 168.992
16.0481 100.885
16.0931 68.6296
16.1382 61.9201
16.1833 59.837
16.2283 58.0733
16.2734 57.155
16.3185 56.388
16.3636 55.7094
16.4086 55.0147
16.4537 54.6331
16.4988 54.171
16.5439 54.0577
16.589 53.7894
16.6341 53.3331
16.6792 52.9323
16.7243 53.3896
16.7694 53.1183
16.8145 53.0935
16.8596 53.2167
16.9047 53.9928
16.9498 54.4417
16.9949 54.3978
17.04 54.3814
17.0851 55.9668
17.1302 60.4592
17.1754 63.8363
17.2205 63.0462
17.2656 63.2293
17.3108 67.1268
17.3559 74.0038
17.401 80.9009
17.4462 73.6429
17.4913 62.1419
17.5365 58.2357
17.5815 57.9083
17.6268 58.1028
17.6718 58.651
17.7171 59.037
17.7622 60.4846
17.8074 61.5036
17.8525 62.9947
17.8977 71.9238
17.9428 84.6499
17.9881 87.4977
18.0331 84.6866
18.0784 87.4462
18.1237 101.038
18.1688 130.155
18.214 148.005
18.2591 119.53
18.3044 87.1549
18.3495 80.2976
18.3948 86.3923
18.4399 98.6892
18.4852 99.0022
18.5303 80.9435
18.5756 65.8978
18.6207 61.7432
18.666 60.1677
18.7112 59.1504
18.7565 58.2365
18.8016 58.0335
18.8469 57.2462
18.892 57.0077
18.9374 56.4876
18.9825 56.0699
19.0278 55.7987
19.073 55.9057
19.1183 56.4331
19.1635 59.138
19.2088 61.296
19.254 61.1096
19.2993 60.6822
19.3447 62.0225
19.3898 65.0255
19.4352 70.2242
19.4804 72.9354
19.5257 66.1425
19.5709 56.7958
19.6163 53.6695
19.6615 52.9728
19.7068 52.5924
19.752 52.4194
19.7974 52.5371
19.8426 54.0762
19.888 56.3613
19.9332 57.6353
19.9786 57.3287
20.0238 56.7329
20.0692 58.7577
20.1144 63.5305
20.1598 69.6705
20.205 70.9433
20.2504 65.7055
20.2957 59.3945
20.3411 58.4705
20.3863 61.6197
20.4318 63.9174
20.477 60.3829
20.5224 53.8226
20.5677 50.5662
20.6131 49.3456
20.6586 48.9701
20.7038 48.9075
20.7493 48.5311
20.7945 48.5553
20.84 48.466
20.8853 48.0628
20.9307 47.7849
20.976 48.1056
21.0215 48.1948
21.0668 48.6723
21.1122 48.473
21.1575 48.3354
21.203 48.3317
21.2483 48.8233
21.2938 49.8837
21.3391 50.546
21.3846 50.2327
21.4299 48.5891
21.4754 47.9165
21.5207 48.0322
21.5662 48.1786
21.6116 48.5595
21.6571 50.7604
21.7024 52.7249
21.7479 53.2333
21.7933 52.834
21.8388 53.3596
21.8843 55.5729
21.9297 58.6604
21.9752 62.7281
22.0206 65.3064
22.0661 61.3826
22.1115 55.8803
22.157 53.9208
22.2024 55.087
22.248 55.0725
22.2933 52.6379
22.3389 49.8133
22.3843 48.5573
22.4299 48.2836
22.4753 48.0153
22.5208 47.9469
22.5662 48.0192
22.6118 48.1364
22.6572 48.1421
22.7028 49.516
22.7483 50.8394
22.7939 51.2193
22.8393 50.9156
22.8849 50.764
22.9303 51.2408
22.9759 52.5105
23.0214 54.5279
23.067 57.1481
23.1126 56.6748
23.1581 52.8754
23.2037 49.4961
23.2492 48.7243
23.2948 49.2391
23.3403 50.3804
23.3859 51.315
23.4314 50.7601
23.477 50.2896
23.5225 50.3583
23.5682 51.1815
23.6137 52.8636
23.6593 55.4762
23.7048 57.0005
23.7505 54.4257
23.796 49.6299
23.8417 46.6589
23.8872 45.4648
23.9329 45.0589
23.9784 44.6111
24.0241 44.2112
24.0697 43.9952
24.1154 43.5784
24.1609 43.4717
24.2066 43.2875
24.2522 43.1644
24.2979 42.9203
24.3434 42.773
24.3892 42.7557
24.4349 42.5557
24.4805 42.1716
24.5262 42.4687
24.5718 42.1711
24.6175 42.3657
24.6631 42.4551
24.7089 42.329
24.7545 42.2373
24.8002 41.7706
24.8458 41.6815
24.8916 41.7638
24.9372 42.2324
24.983 41.9873
25.0286 42.2932
25.0744 42.6753
25.12 42.882
25.1658 43.3352
25.2114 43.3267
25.2572 43.7294
25.3029 43.9245
25.3487 43.8298
25.3943 43.6316
25.4402 44.0789
25.4858 44.306
25.5316 43.1446
25.5773 41.3836
25.6231 40.716
25.669 40.2133
25.7147 40.1675
25.7605 40.1192
25.8062 40.4377
25.8521 40.5692
25.8977 40.4418
25.9436 40.299
25.9893 40.0069
26.0352 40.3707
26.0809 40.2484
26.1268 40.5594
26.1725 41.0945
26.2184 41.3854
26.2641 41.0484
26.31 40.5727
26.3557 40.382
26.4017 40.1969
26.4474 40.2765
26.4933 40.0485
26.5391 40.2222
26.585 40.3998
26.6308 40.5881
26.6767 40.8101
26.7225 41.4993
26.7684 41.9684
26.8142 41.6708
26.8601 40.9651
26.9059 40.1628
26.9519 39.8863
26.9979 39.6493
27.0437 39.0723
27.0896 38.5182
27.1354 38.5014
27.1814 38.3512
27.2272 38.2445
27.2732 38.3197
27.3191 38.1022
27.3651 38.2118
27.4109 37.8352
27.4569 37.9466
27.5027 37.9342
27.5488 37.9171
27.5946 38.0398
27.6407 38.0322
27.6865 38.2249
27.7326 38.164
27.7784 38.0821
27.8245 37.8332
27.8703 37.677
27.9164 37.8682
27.9623 37.8343
28.0084 37.8303
28.0543 37.9706
28.1003 38.0447
28.1462 38.4554
28.1923 38.6432
28.2384 38.2431
28.2843 37.891
28.3304 37.4256
28.3764 37.1654
28.4225 36.7421
28.4684 36.3516
28.5145 35.8003
28.5605 35.6619
28.6066 35.4298
28.6526 35.4842
28.6987 35.27
28.7447 35.0753
28.7908 34.8827
28.8368 34.8882
28.8829 34.8039
28.9289 34.8552
28.9751 34.8675
29.0211 34.8369
29.0673 34.705
29.1133 34.5972
29.1595 34.2069
29.2055 34.0716
29.2517 33.8745
29.2977 33.7202
29.3439 33.6439
29.3899 33.6623
29.4361 33.6339
29.4824 33.5713
29.5284 33.6674
29.5746 33.401
29.6207 33.1891
29.6669 32.8202
29.713 32.6135
29.7593 32.5313
29.8053 32.4856
29.8516 32.4399
29.8977 32.4612
29.9439 32.333
29.99 32.1635
30.0363 32.0211
30.0824 32.0551
30.1287 32.0073
30.1748 31.9478
30.2211 31.8919
30.2673 31.8172
30.3136 31.9952
30.3597 32.1166
30.406 31.9309
30.4522 31.9651
30.4985 31.7368
30.5447 31.7544
30.591 31.619
30.6372 31.7488
30.6835 31.5057
30.7297 31.6248
30.7761 31.7193
30.8224 31.7741
30.8686 31.8803
30.915 31.6321
30.9612 31.4348
31.0076 31.1259
31.0538 31.0457
31.1002 30.9555
31.1464 30.7986
31.1928 30.7667
31.2391 30.5889
31.2855 30.6234
31.3317 30.5231
31.3781 30.5024
31.4244 30.4363
31.4708 30.2857
31.5171 30.3171
31.5636 30.5543
31.6098 30.4564
31.6563 30.3637
31.7026 30.2124
31.7491 29.9528
31.7953 29.9916
31.8418 29.8283
31.8881 29.8102
31.9346 29.5759
31.9809 29.6148
32.0275 29.5496
32.074 29.6121
32.1203 29.514
32.1668 29.4738
32.2132 29.2151
32.2597 29.1336
32.306 29.0545
32.3526 28.8243
32.399 28.6893
32.4455 28.4849
32.4919 28.4099
32.5385 28.4285
32.5848 28.1877
32.6314 28.2521
32.6778 28.0678
32.7244 28.0519
32.7708 27.8353
32.8174 27.8571
32.8638 27.7019
32.9104 27.8482
32.9569 27.7494
33.0035 27.5691
33.0499 27.5814
33.0966 27.4232
33.143 27.3498
33.1897 27.2779
33.2361 27.2381
33.2828 27.2678
33.3293 27.1678
33.3759 27.0908
33.4226 27.0328
33.4691 26.935
33.5158 26.7919
33.5623 26.7412
33.609 26.4675
33.6555 26.3945
33.7022 26.2824
33.7487 26.1689
33.7954 26.2386
33.842 26.0335
33.8887 25.9279
33.9353 26.0209
33.982 25.8654
34.0286 25.7648
34.0753 25.7369
34.1219 25.6605
34.1687 25.5187
34.2152 25.5405
34.262 25.3507
34.3086 25.1673
34.3554 25.2301
34.402 25.12
34.4488 25.0293
34.4954 24.9845
34.5422 24.8333
34.5889 24.8109
34.6357 24.6541
34.6825 24.7127
34.7292 24.5521
34.776 24.4324
34.8227 24.4546
34.8695 24.3767
34.9162 24.2917
34.9631 24.2009
35.0098 24.2218
35.0566 24.0562
35.1033 24.0931
35.1502 23.9629
35.1969 23.9447
35.2438 23.8204
35.2906 23.7711
35.3375 23.7982
35.3842 23.6338
35.4311 23.6733
35.4779 23.5836
35.5248 23.5873
35.5716 23.5271
35.6185 23.4614
35.6653 23.4171
35.7123 23.3857
35.759 23.1985
35.806 23.0769
35.8528 23.0029
35.8998 22.946
35.9468 22.8498
35.9936 22.7684
36.0406 22.7403
36.0874 22.6972
36.1345 22.5905
36.1813 22.5061
36.2283 22.3925
36.2752 22.3971
36.3222 22.4179
36.3691 22.3378
36.4161 22.158
36.463 22.2071
36.5101 22.1792
36.557 22.0778
36.6041 22.008
36.651 21.9172
36.6981 21.9033
36.745 21.7669
36.7921 21.7709
36.839 21.6114
36.8861 21.6442
36.9331 21.5212
36.9802 21.4417
37.0272 21.359
37.0743 21.2768
37.1213 21.251
37.1684 21.1138
37.2154 21.0629
37.2626 21.0327
37.3098 20.9899
37.3568 20.9525
37.404 20.8967
37.451 20.7333
37.4982 20.7452
37.5452 20.6354
37.5924 20.5264
37.6395 20.6099
37.6867 20.4483
37.7337 20.3267
37.781 20.2863
37.8281 20.3261
37.8753 20.1725
37.9224 20.067
37.9697 20.0233
38.0168 19.9603
38.064 19.9151
38.1111 19.8687
38.1584 19.7753
38.2056 19.7048
38.2529 19.687
38.3 19.6442
38.3473 19.5995
38.3945 19.4569
38.4418 19.4321
38.489 19.4356
38.5363 19.2765
38.5837 19.238
38.6309 19.146
38.6782 19.0661
38.7254 19.021
38.7728 18.9351
38.82 18.955
38.8674 18.9564
38.9146 18.7923
38.9621 18.7823
39.0093 18.7199
39.0567 18.6465
39.104 18.5665
39.1514 18.5183
39.1987 18.5082
39.2461 18.4392
39.2934 18.341
39.3409 18.2233
39.3882 18.1876
39.4356 18.1615
39.483 18.07
39.5304 17.9991
39.5778 17.9976
39.6253 17.8957
39.6726 17.8691
39.7201 17.8392
39.7675 17.794
39.815 17.6934
39.8624 17.6064
39.9099 17.6251
39.9575 17.5599
40.0049 17.4727
40.0525 17.4623
40.0999 17.4409
40.1474 17.347
40.1949 17.2181
40.2425 17.1915
40.2899 17.1857
40.3375 17.1292
40.385 17.0778
40.4326 16.9776
40.48 16.959
40.5277 16.9362
40.5752 16.827
40.6228 16.768
40.6703 16.7306
40.718 16.7075
40.7655 16.6712
40.8132 16.5402
40.8607 16.5647
40.9084 16.463
40.9559 16.4341
41.0036 16.4033
41.0512 16.3455
41.0989 16.2665
41.1465 16.2369
41.1942 16.1695
41.242 16.1129
41.2896 16.052
41.3373 15.9733
41.3849 15.9681
41.4327 15.8523
41.4803 15.7689
41.5281 15.8506
41.5758 15.6627
41.6236 15.6259
41.6712 15.6317
41.7191 15.555
41.7667 15.5142
41.8146 15.4606
41.8622 15.4584
41.9101 15.3688
41.9578 15.3058
42.0057 15.2658
42.0534 15.18
42.1013 15.1686
42.149 15.1237
42.1969 15.0605
42.2446 15.0423
42.2925 14.9837
42.3403 14.8657
42.3882 14.8646
42.436 14.7943
42.4839 14.759
42.5319 14.6706
42.5797 14.6709
42.6277 14.6146
42.6755 14.6449
42.7235 14.4879
42.7713 14.4665
42.8193 14.4384
42.8671 14.3552
42.9152 14.3487
42.963 14.2787
43.0111 14.2004
43.0589 14.1574
43.107 14.1171
43.1549 14.0444
43.2029 13.9939
43.2508 13.9644
43.2989 13.8904
43.3468 13.8354
43.3949 13.8752
43.4429 13.8125
43.491 13.7413
43.5389 13.6992
43.5871 13.6877
43.635 13.5698
43.6832 13.5534
43.7312 13.475
43.7793 13.4521
43.8273 13.4088
43.8755 13.2908
43.9237 13.2969
43.9717 13.2684
44.0199 13.2403
44.068 13.2145
44.1162 13.1511
44.1642 13.108
44.2125 13.0716
44.2606 12.9876
44.3088 12.945
44.3569 12.9232
44.4052 12.8533
44.4533 12.8126
44.5016 12.7524
44.5497 12.7395
44.598 12.7267
44.6461 12.6102
44.6945 12.5667
44.7426 12.5314
44.791 12.4676
44.8391 12.481
44.8875 12.3996
44.9357 12.3888
44.984 12.3102
45.0322 12.2489
45.0806 12.2579
45.1288 12.1828
45.1773 12.1207
45.2257 12.0993
45.2739 12.0547
45.3224 11.9826
45.3706 11.9715
45.4191 11.9166
45.4673 11.9069
45.5158 11.8497
45.5641 11.818
45.6126 11.7754
45.6609 11.7184
45.7094 11.6928
45.7577 11.6221
45.8063 11.5653
45.8546 11.5446
45.9031 11.5154
45.9515 11.4818
46.0001 11.4074
46.0484 11.3957
46.097 11.3528
46.1454 11.321
46.194 11.2542
46.2424 11.2504
46.291 11.2
46.3395 11.1419
46.3881 11.0983
46.4365 11.1124
46.4852 11.0226
46.5337 10.979
46.5823 10.9795
46.631 10.8738
46.6795 10.8461
46.7282 10.8453
46.7767 10.8026
46.8254 10.7706
46.8739 10.7034
46.9226 10.6321
46.9712 10.6266
47.0199 10.5702
47.0685 10.5659
47.1173 10.4863
47.1658 10.5027
47.2146 10.4298
47.2632 10.4186
47.312 10.4211
47.3606 10.3083
47.4095 10.2724
47.4581 10.2705
47.5069 10.2144
47.5556 10.1998
47.6044 10.0834
47.6531 10.072
47.702 10.0567
47.7507 10.0166
47.7996 9.99461
47.8483 9.94668
47.8972 9.89478
47.9461 9.87184
47.9948 9.83711
48.0438 9.75258
48.0925 9.79527
48.1415 9.72811
48.1902 9.679
48.2392 9.67444
48.288 9.62703
48.337 9.62447
48.3858 9.58141
48.4348 9.53216
48.4837 9.52236
48.5327 9.44675
48.5815 9.43602
48.6306 9.43192
48.6795 9.35696
48.7285 9.30673
48.7774 9.29802
48.8265 9.27951
48.8754 9.22855
48.9245 9.18392
48.9734 9.14929
49.0226 9.16627
49.0715 9.09522
49.1206 9.05799
49.1696 9.00614
49.2188 8.98279
49.2679 8.92438
49.3169 8.91687
49.3661 8.88518
49.4151 8.79638
49.4643 8.81309
49.5134 8.79038
49.5626 8.73394
49.6117 8.71849
49.6609 8.69815
49.71 8.65104
49.7592 8.59485
49.8083 8.5478
49.8576 8.53409
49.9067 8.51547
49.956 8.46927
50.0052 8.45567
50.0545 8.42296
50.1036 8.40731
50.153 8.36267
50.2022 8.37423
50.2515 8.28545
50.3007 8.25798
50.3501 8.22438
50.3993 8.1831
50.4487 8.17979
50.498 8.15504
50.5474 8.09682
50.5966 8.09281
50.6461 8.03886
50.6955 8.00067
50.7448 8.01464
50.7943 7.93478
50.8436 7.92669
50.8931 7.90613
50.9424 7.84892
50.9919 7.83207
51.0413 7.78089
51.0908 7.75251
51.1402 7.73291
51.1897 7.68817
51.2391 7.68352
51.2887 7.6551
51.3381 7.58056
51.3877 7.56913
51.4371 7.52519
51.4867 7.54241
51.5362 7.50183
51.5858 7.42125
51.6353 7.42122
51.6849 7.41203
51.7344 7.35642
51.7841 7.34381
51.8336 7.29324
51.8833 7.29844
51.9328 7.22327
51.9826 7.20733
52.0323 7.18371
52.0818 7.14114
52.1316 7.12631
52.1812 7.08585
52.231 7.06537
52.2806 7.04532
52.3304 7.01385
52.38 6.97578
52.4298 6.92891
52.4794 6.94515
52.5293 6.87694
52.5789 6.87334
52.6288 6.86693
52.6785 6.81646
52.7284 6.76346
52.7781 6.74685
52.828 6.74836
52.8777 6.69615
52.9276 6.66942
52.9774 6.62364
53.0273 6.6265
53.0771 6.59676
53.1271 6.59083
53.1769 6.52542
53.2269 6.50751
53.2767 6.41873
53.3267 6.45263
53.3765 6.42633
53.4266 6.4362
53.4766 6.32898
53.5265 6.30056
53.5765 6.28986
53.6264 6.26748
53.6765 6.27097
53.7264 6.19321
53.7765 6.13544
53.8265 6.17843
53.8766 6.09826
53.9266 6.0936
53.9767 6.06698
54.0267 6.03215
54.0769 5.96489
54.1269 5.98104
54.1771 5.9653
54.2271 5.94029
54.2773 5.86998
54.3274 5.8508
54.3776 5.83261
54.4277 5.75781
54.478 5.69631
54.528 5.68042
54.5783 5.65049
54.6285 5.5916
54.6788 5.54021
54.7289 5.54667
54.7792 5.45507
54.8296 5.43096
54.8798 5.35044
54.9301 5.35578
54.9803 5.31131
55.0307 5.30173
55.0809 5.24139
55.1314 5.21537
55.1816 5.14992
55.232 5.0746
55.2823 5.03152
55.3328 4.97618
55.383 4.89401
55.4335 4.83515
55.4838 4.81287
55.5344 4.77965
55.5847 4.78923
55.6352 4.72157
55.6856 4.68474
55.7361 4.70571