File: XRD/Ni3Fe_FD0212.xy
TT I
1.27165 7.79228
1.31627 7.21333
1.36089 7.15463
1.40551 6.78053
1.45013 7.02897
1.49476 6.7281
1.53938 6.65081
1.584 6.16071
1.62863 6.40271
1.67325 5.84701
1.71787 6.14526
1.7625 5.69398
1.80712 5.56408
1.85174 5.43749
1.89636 5.03499
1.94099 6.09694
1.98562 5.33945
2.03025 4.73695
2.07487 4.81981
2.11949 4.83951
2.16411 4.36689
2.20874 4.43053
2.25338 4.12634
2.298 4.40631
2.34263 4.42315
2.38725 4.85885
2.43188 4.76115
2.4765 4.76886
2.52115 4.90329
2.56577 5.62387
2.6104 5.84122
2.65503 5.63768
2.69965 6.14979
2.7443 6.6564
2.78893 7.01984
2.83356 7.41308
2.87818 7.9329
2.92281 8.6085
2.96744 9.4925
3.01209 10.3847
3.05672 10.8865
3.10135 12.1368
3.14599 12.8032
3.19062 13.9278
3.23527 15.1924
3.2799 16.1406
3.32454 16.4509
3.36917 17.8761
3.4138 19.3544
3.45844 19.4627
3.50309 21.2228
3.54773 21.2469
3.59237 22.5969
3.637 23.4904
3.68164 24.2467
3.7263 25.076
3.77094 26.082
3.81558 26.936
3.86022 27.6426
3.90486 29.3111
3.9495 30.1339
3.99416 31.2946
4.0388 32.4711
4.08344 33.8399
4.12809 34.8441
4.17273 36.0009
4.21738 38.2443
4.26204 38.9885
4.30669 40.705
4.35133 42.415
4.39598 44.6777
4.44063 46.6788
4.4853 48.7691
4.52995 52.0312
4.5746 53.6011
4.61925 55.9616
4.6639 58.3448
4.70855 61.0174
4.75322 64.8638
4.79788 68.2261
4.84253 72.0243
4.88719 76.9458
4.93184 81.7813
4.97652 89.0646
5.02118 97.1144
5.06583 107.571
5.11049 125.892
5.15515 169.825
5.19981 888.186
5.24449 3957.28
5.28916 10597.6
5.33382 4441.27
5.37848 281.684
5.42315 155.66
5.46783 129.952
5.5125 118.715
5.55716 112.978
5.60183 107.064
5.6465 104.728
5.69117 103.093
5.73586 101.316
5.78053 101.779
5.8252 102.174
5.86988 105.153
5.91455 111.743
5.95924 135.02
6.00392 444.106
6.0486 1425.14
6.09328 3578.74
6.13795 3817.61
6.18263 393.528
6.22733 111.861
6.27201 89.8078
6.3167 81.4609
6.36138 77.1543
6.40606 72.7101
6.45075 71.5089
6.49545 68.7278
6.54014 67.1335
6.58483 65.6473
6.62952 64.1526
6.67421 62.7729
6.71892 61.6947
6.76361 61.1301
6.8083 60.2008
6.853 59.291
6.89769 58.7436
6.94239 58.2221
6.98711 57.5621
7.03181 57.451
7.07651 57.0953
7.12121 56.703
7.16591 56.8051
7.21063 56.0586
7.25533 56.1907
7.30004 55.922
7.34475 55.7402
7.38945 56.2705
7.43416 55.3377
7.47889 56.061
7.5236 56.7006
7.56831 58.0913
7.61303 57.2242
7.65774 57.0955
7.70247 58.1224
7.74719 58.4896
7.79191 58.8526
7.83663 59.3062
7.88135 60.3938
7.92607 61.1554
7.97081 62.4556
8.01553 64.243
8.06026 65.3043
8.10498 66.9623
8.14971 68.8181
8.19446 70.2782
8.23919 73.388
8.28392 76.8317
8.32865 79.2572
8.37339 84.3507
8.41812 90.8138
8.46288 109.832
8.50761 291.114
8.55235 594.458
8.59709 1048.16
8.64183 1949.3
8.68658 1266.39
8.73134 231.654
8.77609 111.846
8.82083 100.612
8.86558 96.1917
8.91033 93.3652
8.9551 91.0276
8.99985 89.6664
9.04461 88.686
9.08936 88.0446
9.13412 87.0167
9.17888 86.8076
9.22365 87.7728
9.26841 88.5513
9.31318 88.7187
9.35794 88.3945
9.4027 88.3255
9.44749 89.1608
9.49226 89.8539
9.53703 91.002
9.5818 92.9926
9.62657 94.1722
9.67134 95.7025
9.71614 97.8062
9.76091 100.311
9.80569 103.315
9.85047 107.142
9.89525 112.896
9.94005 135.101
9.98484 303.286
10.0296 525.302
10.0744 792.293
10.1192 1428.83
10.164 1731.7
10.2088 593.464
10.2536 153.192
10.2984 118.296
10.3432 113.675
10.388 114.419
10.4328 159.667
10.4776 214.196
10.5224 279.798
10.5672 436.835
10.612 531.942
10.6568 259.844
10.7017 108.451
10.7465 92.7735
10.7913 88.5244
10.8361 85.7382
10.8809 83.0882
10.9257 80.9666
10.9706 79.6808
11.0154 77.8779
11.0602 76.6081
11.105 74.9197
11.1499 73.6508
11.1947 72.3435
11.2395 71.3892
11.2844 70.8657
11.3292 69.8583
11.374 69.0601
11.4189 68.9282
11.4637 68.1374
11.5086 67.1581
11.5534 66.7857
11.5983 66.641
11.6431 66.5034
11.688 66.0975
11.7328 65.6555
11.7777 65.6366
11.8225 65.4923
11.8674 65.4861
11.9122 66.0367
11.9571 66.7504
12.002 68.7857
12.0468 80.1964
12.0917 95.2117
12.1366 108.5
12.1814 138.03
12.2263 189.161
12.2712 185.965
12.3161 105.18
12.3609 70.6313
12.4058 67.4588
12.4507 67.2513
12.4956 67.6685
12.5405 67.7817
12.5853 68.1261
12.6302 68.4732
12.6751 69.1998
12.72 69.9687
12.7649 70.9813
12.8098 71.8154
12.8547 73.4773
12.8996 75.0094
12.9445 76.5575
12.9894 78.9087
13.0343 80.9109
13.0792 86.1889
13.1242 110.211
13.1691 149.332
13.214 175.628
13.2589 225.992
13.3038 314.641
13.3487 419.436
13.3937 317.194
13.4386 152.737
13.4835 134.786
13.5285 155.312
13.5734 173.768
13.6183 222.476
13.6633 307.087
13.7082 360.137
13.7531 234.037
13.7981 114.369
13.843 87.7695
13.888 84.4517
13.9329 81.674
13.9779 80.2184
14.0228 78.7869
14.0678 77.1138
14.1127 76.3442
14.1577 75.6462
14.2027 74.8834
14.2476 74.2232
14.2926 73.6649
14.3376 73.181
14.3825 72.8326
14.4275 72.5292
14.4725 72.5989
14.5175 72.6401
14.5624 72.6769
14.6074 73.3503
14.6524 73.7273
14.6974 74.8853
14.7424 80.6875
14.7874 95.505
14.8324 107.782
14.8774 119.323
14.9224 143.189
14.9674 183.785
15.0124 222.177
15.0574 177.375
15.1024 105.481
15.1474 77.5379
15.1924 74.0781
15.2374 72.4838
15.2824 71.5886
15.3274 70.8286
15.3725 70.0513
15.4175 69.9333
15.4625 69.6934
15.5076 69.446
15.5526 69.482
15.5976 70.0341
15.6426 74.7941
15.6877 86.8717
15.7327 95.7548
15.7778 103.838
15.8228 121.25
15.8679 150.656
15.9129 188.041
15.958 178.612
16.003 115.332
16.0481 74.1714
16.0931 65.9009
16.1382 64.3105
16.1833 63.0898
16.2283 61.9352
16.2734 61.1782
16.3185 60.4823
16.3636 59.7344
16.4086 59.1463
16.4537 58.6642
16.4988 58.1859
16.5439 58.004
16.589 57.9903
16.6341 57.4876
16.6792 57.1623
16.7243 57.3546
16.7694 57.297
16.8145 57.1456
16.8596 57.6161
16.9047 57.5402
16.9498 57.8782
16.9949 57.8205
17.04 59.3816
17.0851 61.8727
17.1302 63.9611
17.1754 65.696
17.2205 68.9045
17.2656 73.6184
17.3108 81.255
17.3559 85.1418
17.401 78.0239
17.4462 67.3654
17.4913 62.5293
17.5365 62.3585
17.5815 62.5235
17.6268 62.6566
17.6718 63.4155
17.7171 63.7628
17.7622 64.6478
17.8074 66.5468
17.8525 72.2905
17.8977 78.5809
17.9428 83.1943
17.9881 88.0943
18.0331 98.5717
18.0784 113.866
18.1237 137.433
18.1688 146.021
18.214 121.187
18.2591 94.5767
18.3044 90.1119
18.3495 96.4368
18.3948 106.343
18.4399 103.328
18.4852 85.3495
18.5303 70.869
18.5756 65.7263
18.6207 64.6505
18.666 63.582
18.7112 62.7783
18.7565 62.2448
18.8016 61.814
18.8469 61.0913
18.892 60.78
18.9374 60.3501
18.9825 59.8651
19.0278 59.6569
19.073 60.6699
19.1183 61.7006
19.1635 62.3056
19.2088 63.2777
19.254 64.6651
19.2993 67.2277
19.3447 71.1178
19.3898 76.3202
19.4352 76.6085
19.4804 69.4625
19.5257 61.0096
19.5709 57.2423
19.6163 56.6659
19.6615 56.6584
19.7068 56.0858
19.752 56.281
19.7974 57.0319
19.8426 58.441
19.888 59.0671
19.9332 59.7569
19.9786 61.5117
20.0238 63.9903
20.0692 68.0949
20.1144 72.393
20.1598 73.4128
20.205 68.3213
20.2504 64.4123
20.2957 64.3533
20.3411 66.7533
20.3863 67.4505
20.4318 63.0478
20.477 57.2107
20.5224 54.1489
20.5677 53.0996
20.6131 52.6786
20.6586 52.0744
20.7038 52.0791
20.7493 51.539
20.7945 51.3979
20.84 51.4315
20.8853 51.2826
20.9307 51.3551
20.976 51.4495
21.0215 51.209
21.0668 51.7243
21.1122 51.9597
21.1575 52.1839
21.203 52.7557
21.2483 53.4457
21.2938 54.2944
21.3391 53.0345
21.3846 51.7617
21.4299 51.1678
21.4754 51.0799
21.5207 51.2504
21.5662 51.8209
21.6116 52.9356
21.6571 53.9153
21.7024 54.7129
21.7479 55.5989
21.7933 57.3833
21.8388 59.993
21.8843 63.2205
21.9297 66.4931
21.9752 67.1843
22.0206 63.5826
22.0661 59.133
22.1115 57.8321
22.157 58.3732
22.2024 57.7672
22.248 54.9864
22.2933 52.8433
22.3389 51.6031
22.3843 51.2451
22.4299 51.0615
22.4753 50.9266
22.5208 51.1162
22.5662 51.0682
22.6118 51.4668
22.6572 52.0431
22.7028 52.5305
22.7483 52.878
22.7939 53.3599
22.8393 54.2706
22.8849 55.5849
22.9303 57.0735
22.9759 59.1733
23.0214 60.0901
23.067 58.3776
23.1126 54.7893
23.1581 52.289
23.2037 51.469
23.2492 51.9293
23.2948 52.1778
23.3403 52.5482
23.3859 52.7787
23.4314 53.2901
23.477 54.2303
23.5225 55.7265
23.5682 57.3864
23.6137 59.5208
23.6593 59.1535
23.7048 55.6054
23.7505 51.749
23.796 49.3424
23.8417 48.4975
23.8872 47.8336
23.9329 47.6263
23.9784 47.2445
24.0241 46.9387
24.0697 46.7117
24.1154 46.288
24.1609 46.1874
24.2066 45.8861
24.2522 45.8615
24.2979 45.645
24.3434 45.4632
24.3892 45.232
24.4349 45.2241
24.4805 44.9995
24.5262 45.1293
24.5718 45.0359
24.6175 45.032
24.6631 44.9739
24.7089 44.6532
24.7545 44.5911
24.8002 44.5231
24.8458 44.4746
24.8916 44.316
24.9372 44.5988
24.983 44.7921
25.0286 45.2518
25.0744 45.4189
25.12 45.697
25.1658 46.3486
25.2114 46.5972
25.2572 46.6369
25.3029 46.6
25.3487 46.512
25.3943 46.7907
25.4402 46.0645
25.4858 44.9845
25.5316 43.7139
25.5773 43.0491
25.6231 42.8962
25.669 42.7416
25.7147 42.7007
25.7605 42.6607
25.8062 42.6337
25.8521 42.7213
25.8977 42.5326
25.9436 42.747
25.9893 42.8151
26.0352 43.1918
26.0809 43.3528
26.1268 43.8251
26.1725 43.5638
26.2184 43.0503
26.2641 42.6243
26.31 42.394
26.3557 42.3702
26.4017 42.2565
26.4474 42.5367
26.4933 42.6626
26.5391 43.0106
26.585 43.3184
26.6308 43.6681
26.6767 43.9846
26.7225 44.0509
26.7684 43.4951
26.8142 42.895
26.8601 42.4777
26.9059 42.0902
26.9519 41.5909
26.9979 41.285
27.0437 40.7836
27.0896 40.7398
27.1354 40.774
27.1814 40.6316
27.2272 40.5559
27.2732 40.5173
27.3191 40.3367
27.3651 40.3033
27.4109 40.2967
27.4569 40.389
27.5027 40.2797
27.5488 40.4675
27.5946 40.3715
27.6407 40.1793
27.6865 40.0898
27.7326 39.9393
27.7784 39.8851
27.8245 39.6764
27.8703 39.8666
27.9164 39.9917
27.9623 39.9817
28.0084 40.37
28.0543 40.6555
28.1003 40.8813
28.1462 40.6088
28.1923 40.2791
28.2384 39.9
28.2843 39.5948
28.3304 38.9868
28.3764 38.6675
28.4225 38.2391
28.4684 38.015
28.5145 37.7367
28.5605 37.5461
28.6066 37.4008
28.6526 37.3224
28.6987 37.3127
28.7447 37.2351
28.7908 37.0904
28.8368 37.0947
28.8829 36.9814
28.9289 37.1176
28.9751 36.8272
29.0211 36.7281
29.0673 36.4148
29.1133 36.253
29.1595 36.2216
29.2055 35.9778
29.2517 35.9492
29.2977 35.8533
29.3439 35.8317
29.3899 35.818
29.4361 35.8351
29.4824 35.6046
29.5284 35.4458
29.5746 35.1867
29.6207 34.7911
29.6669 34.6407
29.713 34.6445
29.7593 34.501
29.8053 34.4547
29.8516 34.4851
29.8977 34.375
29.9439 34.3491
29.99 34.0846
30.0363 34.168
30.0824 34.0565
30.1287 33.9615
30.1748 33.9713
30.2211 33.9131
30.2673 33.877
30.3136 33.9555
30.3597 33.8756
30.406 33.8197
30.4522 33.6153
30.4985 33.6404
30.5447 33.7792
30.591 33.6483
30.6372 33.6814
30.6835 33.5754
30.7297 33.6522
30.7761 33.5813
30.8224 33.6441
30.8686 33.5371
30.915 33.2001
30.9612 33.1077
31.0076 32.8579
31.0538 32.6978
31.1002 32.6336
31.1464 32.5473
31.1928 32.5138
31.2391 32.443
31.2855 32.3574
31.3317 32.2882
31.3781 32.4177
31.4244 32.3286
31.4708 32.2738
31.5171 32.3305
31.5636 32.2401
31.6098 32.0106
31.6563 32.0082
31.7026 31.7914
31.7491 31.6264
31.7953 31.5729
31.8418 31.5659
31.8881 31.618
31.9346 31.4448
31.9809 31.5621
32.0275 31.3569
32.074 31.2006
32.1203 31.0394
32.1668 30.9988
32.2132 30.8445
32.2597 30.6678
32.306 30.5717
32.3526 30.3783
32.399 30.3563
32.4455 30.2004
32.4919 30.181
32.5385 30.0354
32.5848 29.8264
32.6314 29.9343
32.6778 29.7837
32.7244 29.6812
32.7708 29.518
32.8174 29.6344
32.8638 29.314
32.9104 29.4132
32.9569 29.4489
33.0035 29.1416
33.0499 29.2435
33.0966 29.1039
33.143 29.2095
33.1897 28.997
33.2361 29.0431
33.2828 28.8902
33.3293 28.7805
33.3759 28.7178
33.4226 28.5412
33.4691 28.4576
33.5158 28.3444
33.5623 28.1325
33.609 28.1002
33.6555 27.9379
33.7022 27.8792
33.7487 27.7844
33.7954 27.7545
33.842 27.7456
33.8887 27.6272
33.9353 27.5843
33.982 27.369
34.0286 27.2761
34.0753 27.3094
34.1219 27.1413
34.1687 27.0421
34.2152 27.0591
34.262 26.853
34.3086 26.7846
34.3554 26.6981
34.402 26.607
34.4488 26.4723
34.4954 26.486
34.5422 26.3322
34.5889 26.2841
34.6357 26.1636
34.6825 26.1728
34.7292 26.0925
34.776 25.9496
34.8227 25.926
34.8695 25.846
34.9162 25.7837
34.9631 25.6566
35.0098 25.5619
35.0566 25.5714
35.1033 25.4659
35.1502 25.4496
35.1969 25.3737
35.2438 25.3083
35.2906 25.1891
35.3375 25.2281
35.3842 25.1251
35.4311 25.0769
35.4779 25.0776
35.5248 25.0491
35.5716 24.9353
35.6185 24.8432
35.6653 24.7275
35.7123 24.6477
35.759 24.5834
35.806 24.4994
35.8528 24.3474
35.8998 24.3044
35.9468 24.2722
35.9936 24.1827
36.0406 24.1444
36.0874 24.112
36.1345 24.03
36.1813 23.9063
36.2283 23.8237
36.2752 23.7398
36.3222 23.7411
36.3691 23.7332
36.4161 23.4443
36.463 23.4453
36.5101 23.4768
36.557 23.4317
36.6041 23.2741
36.651 23.2512
36.6981 23.177
36.745 23.1617
36.7921 23.0609
36.839 22.8612
36.8861 22.8893
36.9331 22.7935
36.9802 22.6777
37.0272 22.5251
37.0743 22.5322
37.1213 22.4753
37.1684 22.4773
37.2154 22.3337
37.2626 22.2777
37.3098 22.2757
37.3568 22.1577
37.404 22.1184
37.451 21.9153
37.4982 21.9441
37.5452 21.8346
37.5924 21.8262
37.6395 21.9105
37.6867 21.7084
37.7337 21.6193
37.781 21.553
37.8281 21.4207
37.8753 21.3906
37.9224 21.3678
37.9697 21.2434
38.0168 21.1786
38.064 21.0253
38.1111 21.0419
38.1584 21.0179
38.2056 20.8967
38.2529 20.8326
38.3 20.82
38.3473 20.7989
38.3945 20.6744
38.4418 20.5865
38.489 20.6008
38.5363 20.4217
38.5837 20.3619
38.6309 20.3292
38.6782 20.2404
38.7254 20.2575
38.7728 20.1816
38.82 20.037
38.8674 20.0482
38.9146 19.9015
38.9621 19.9025
39.0093 19.8313
39.0567 19.7239
39.104 19.6967
39.1514 19.6258
39.1987 19.5884
39.2461 19.5862
39.2934 19.4238
39.3409 19.3552
39.3882 19.2779
39.4356 19.1924
39.483 19.1919
39.5304 19.1223
39.5778 19.1094
39.6253 19.0753
39.6726 18.92
39.7201 18.948
39.7675 18.8283
39.815 18.8311
39.8624 18.6637
39.9099 18.6991
39.9575 18.5911
40.0049 18.4601
40.0525 18.4576
40.0999 18.4236
40.1474 18.3698
40.1949 18.2945
40.2425 18.2452
40.2899 18.1943
40.3375 18.1317
40.385 18.095
40.4326 17.9515
40.48 17.9658
40.5277 17.9168
40.5752 17.808
40.6228 17.7391
40.6703 17.688
40.718 17.6561
40.7655 17.6272
40.8132 17.6017
40.8607 17.5669
40.9084 17.4573
40.9559 17.3865
41.0036 17.3688
41.0512 17.2866
41.0989 17.2107
41.1465 17.1477
41.1942 17.1114
41.242 17.024
41.2896 16.9342
41.3373 16.9344
41.3849 16.9193
41.4327 16.776
41.4803 16.7263
41.5281 16.6978
41.5758 16.6632
41.6236 16.616
41.6712 16.5038
41.7191 16.476
41.7667 16.436
41.8146 16.3835
41.8622 16.3429
41.9101 16.3304
41.9578 16.1898
42.0057 16.1538
42.0534 16.0725
42.1013 16.0784
42.149 16.0143
42.1969 15.9519
42.2446 15.8639
42.2925 15.8377
42.3403 15.7645
42.3882 15.7691
42.436 15.7235
42.4839 15.6278
42.5319 15.5505
42.5797 15.5452
42.6277 15.449
42.6755 15.4307
42.7235 15.3828
42.7713 15.3312
42.8193 15.2052
42.8671 15.1599
42.9152 15.189
42.963 15.0973
43.0111 15.0113
43.0589 14.9762
43.107 14.9203
43.1549 14.8971
43.2029 14.8496
43.2508 14.7788
43.2989 14.6863
43.3468 14.6737
43.3949 14.6676
43.4429 14.6001
43.491 14.5382
43.5389 14.4618
43.5871 14.4314
43.635 14.3414
43.6832 14.3625
43.7312 14.3135
43.7793 14.2186
43.8273 14.2135
43.8755 14.1394
43.9237 14.0578
43.9717 14.1017
44.0199 13.9627
44.068 13.9506
44.1162 13.8789
44.1642 13.8419
44.2125 13.8039
44.2606 13.7543
44.3088 13.7368
44.3569 13.653
44.4052 13.6352
44.4533 13.6055
44.5016 13.4775
44.5497 13.4826
44.598 13.3636
44.6461 13.382
44.6945 13.3104
44.7426 13.2215
44.791 13.2309
44.8391 13.127
44.8875 13.121
44.9357 13.1063
44.984 13.0513
45.0322 12.9501
45.0806 12.9488
45.1288 12.913
45.1773 12.8526
45.2257 12.8272
45.2739 12.8027
45.3224 12.7506
45.3706 12.7187
45.4191 12.6243
45.4673 12.6063
45.5158 12.5327
45.5641 12.5035
45.6126 12.4721
45.6609 12.402
45.7094 12.3564
45.7577 12.2992
45.8063 12.2293
45.8546 12.2465
45.9031 12.1801
45.9515 12.1376
46.0001 12.0971
46.0484 12.0425
46.097 12.0199
46.1454 11.9698
46.194 11.9062
46.2424 11.8696
46.291 11.8277
46.3395 11.8116
46.3881 11.7178
46.4365 11.7119
46.4852 11.6206
46.5337 11.5975
46.5823 11.5778
46.631 11.5683
46.6795 11.5311
46.7282 11.4287
46.7767 11.3848
46.8254 11.3336
46.8739 11.3145
46.9226 11.3072
46.9712 11.2052
47.0199 11.1826
47.0685 11.1341
47.1173 11.0777
47.1658 11.079
47.2146 11.0408
47.2632 10.9542
47.312 10.9437
47.3606 10.9144
47.4095 10.8808
47.4581 10.8155
47.5069 10.7914
47.5556 10.7701
47.6044 10.7184
47.6531 10.6689
47.702 10.5948
47.7507 10.6219
47.7996 10.5345
47.8483 10.5368
47.8972 10.4762
47.9461 10.4278
47.9948 10.3895
48.0438 10.3571
48.0925 10.3194
48.1415 10.2651
48.1902 10.2557
48.2392 10.2522
48.288 10.1616
48.337 10.1169
48.3858 10.0928
48.4348 10.0719
48.4837 10.0591
48.5327 9.98888
48.5815 9.97537
48.6306 9.9645
48.6795 9.90787
48.7285 9.89349
48.7774 9.80282
48.8265 9.76415
48.8754 9.73489
48.9245 9.73632
48.9734 9.715
49.0226 9.6448
49.0715 9.58807
49.1206 9.57432
49.1696 9.50035
49.2188 9.48087
49.2679 9.46973
49.3169 9.3938
49.3661 9.34747
49.4151 9.31901
49.4643 9.31505
49.5134 9.2747
49.5626 9.21163
49.6117 9.22946
49.6609 9.16081
49.71 9.13342
49.7592 9.07929
49.8083 9.05694
49.8576 9.00489
49.9067 8.9655
49.956 8.95709
50.0052 8.95565
50.0545 8.88327
50.1036 8.84493
50.153 8.83413
50.2022 8.78878
50.2515 8.73823
50.3007 8.71402
50.3501 8.66816
50.3993 8.64981
50.4487 8.60031
50.498 8.58709
50.5474 8.52852
50.5966 8.49225
50.6461 8.49997
50.6955 8.45456
50.7448 8.40791
50.7943 8.38596
50.8436 8.35493
50.8931 8.29054
50.9424 8.28457
50.9919 8.24356
51.0413 8.25635
51.0908 8.17995
51.1402 8.17233
51.1897 8.10917
51.2391 8.12347
51.2887 8.0622
51.3381 7.98681
51.3877 7.98712
51.4371 7.94277
51.4867 7.93846
51.5362 7.90325
51.5858 7.87176
51.6353 7.79716
51.6849 7.82058
51.7344 7.78377
51.7841 7.75873
51.8336 7.71408
51.8833 7.67221
51.9328 7.62313
51.9826 7.57411
52.0323 7.56563
52.0818 7.51218
52.1316 7.46131
52.1812 7.48075
52.231 7.43175
52.2806 7.43573
52.3304 7.42224
52.38 7.37984
52.4298 7.34959
52.4794 7.29501
52.5293 7.26237
52.5789 7.22126
52.6288 7.22493
52.6785 7.15856
52.7284 7.1537
52.7781 7.13932
52.828 7.13608
52.8777 7.05632
52.9276 7.03798
52.9774 6.97067
53.0273 6.99376
53.0771 6.96799
53.1271 6.87035
53.1769 6.89542
53.2269 6.86298
53.2767 6.82236
53.3267 6.79173
53.3765 6.74294
53.4266 6.72814
53.4766 6.70234
53.5265 6.67076
53.5765 6.67487
53.6264 6.60602
53.6765 6.64021
53.7264 6.55364
53.7765 6.51128
53.8265 6.4978
53.8766 6.47495
53.9266 6.44339
53.9767 6.40578
54.0267 6.38587
54.0769 6.33605
54.1269 6.32352
54.1771 6.29969
54.2271 6.2565
54.2773 6.20172
54.3274 6.16839
54.3776 6.17273
54.4277 6.07916
54.478 6.12456
54.528 6.00613
54.5783 5.94699
54.6285 5.91883
54.6788 5.89634
54.7289 5.86126
54.7792 5.8273
54.8296 5.72664
54.8798 5.69017
54.9301 5.70703
54.9803 5.64437
55.0307 5.62497
55.0809 5.57449
55.1314 5.58505
55.1816 5.51559
55.232 5.41107
55.2823 5.38706
55.3328 5.34688
55.383 5.23046
55.4335 5.2244
55.4838 5.12385
55.5344 5.13384
55.5847 5.07313
55.6352 5.01775
55.6856 5.02116
55.7361 4.97398