File: XRD/Ni3Fe_FD0635.xy
TT I
1.27165 7.35263
1.31627 6.65155
1.36089 6.75012
1.40551 5.17948
1.45013 6.34733
1.49476 6.24402
1.53938 5.73021
1.584 5.67685
1.62863 5.23084
1.67325 4.99715
1.71787 5.01128
1.7625 4.6497
1.80712 4.84403
1.85174 4.9557
1.89636 4.89771
1.94099 4.76015
1.98562 4.70051
2.03025 4.14661
2.07487 5.36731
2.11949 4.97996
2.16411 5.60922
2.20874 14.9208
2.25338 25.6806
2.298 6.53472
2.34263 5.21028
2.38725 6.03015
2.43188 5.68103
2.4765 6.92755
2.52115 6.74201
2.56577 7.85748
2.6104 7.77005
2.65503 7.51307
2.69965 7.47632
2.7443 8.31624
2.78893 8.27198
2.83356 8.68179
2.87818 8.61262
2.92281 8.58677
2.96744 9.96052
3.01209 10.1202
3.05672 10.9169
3.10135 11.7959
3.14599 13.0232
3.19062 14.0096
3.23527 15.3082
3.2799 16.0798
3.32454 16.642
3.36917 18.2223
3.4138 19.0136
3.45844 19.5864
3.50309 21.1254
3.54773 22.1671
3.59237 24.2984
3.637 104.003
3.68164 66.1362
3.7263 26.9398
3.77094 26.3378
3.81558 27.0152
3.86022 27.7412
3.90486 29.4142
3.9495 29.7741
3.99416 31.2
4.0388 32.7663
4.08344 33.9362
4.12809 35.3773
4.17273 37.7723
4.21738 43.5173
4.26204 280.567
4.30669 251.437
4.35133 50.3882
4.39598 44.8911
4.44063 55.7768
4.4853 69.231
4.52995 50.3511
4.5746 51.1022
4.61925 53.2709
4.6639 55.4103
4.70855 57.756
4.75322 60.729
4.79788 63.2126
4.84253 66.9782
4.88719 71.3167
4.93184 74.8294
4.97652 80.4671
5.02118 86.8631
5.06583 93.9245
5.11049 105.186
5.15515 180.661
5.19981 338.022
5.24449 2695.48
5.28916 12535.3
5.33382 3049.12
5.37848 196.563
5.42315 130.711
5.46783 113.704
5.5125 106.242
5.55716 102.704
5.60183 98.4848
5.6465 96.886
5.69117 94.2986
5.73586 92.58
5.78053 91.2707
5.8252 90.5011
5.86988 91.354
5.91455 93.8338
5.95924 100.614
6.00392 194.522
6.0486 928.862
6.09328 4407.2
6.13795 3562.35
6.18263 265.223
6.22733 94.8442
6.27201 83.4355
6.3167 107.507
6.36138 82.729
6.40606 69.6402
6.45075 67.5047
6.49545 66.0804
6.54014 64.0007
6.58483 63.3306
6.62952 63.3404
6.67421 99.0053
6.71892 160.169
6.76361 71.3595
6.8083 59.1757
6.853 57.8608
6.89769 57.4348
6.94239 56.7358
6.98711 56.2889
7.03181 55.8089
7.07651 55.7055
7.12121 55.3728
7.16591 55.565
7.21063 55.8766
7.25533 72.3898
7.30004 202.223
7.34475 99.0905
7.38945 57.6979
7.43416 54.7577
7.47889 54.7658
7.5236 55.2833
7.56831 55.8176
7.61303 57.3353
7.65774 58.2032
7.70247 56.1885
7.74719 56.1775
7.79191 56.9536
7.83663 57.2693
7.88135 57.8962
7.92607 58.9392
7.97081 59.8766
8.01553 61.2184
8.06026 62.1378
8.10498 64.1023
8.14971 74.6175
8.19446 73.5201
8.23919 69.5813
8.28392 71.7323
8.32865 73.8838
8.37339 78.1161
8.41812 85.074
8.46288 117.104
8.50761 156.966
8.55235 367.535
8.59709 1125.39
8.64183 2215.56
8.68658 1036.8
8.73134 176.634
8.77609 100.519
8.82083 92.9746
8.86558 89.9162
8.91033 89.9518
8.9551 93.0138
8.99985 85.4872
9.04461 83.9698
9.08936 82.7139
9.13412 82.0223
9.17888 82.1596
9.22365 83.1654
9.26841 82.382
9.31318 82.4127
9.35794 82.7859
9.4027 82.9831
9.44749 84.0752
9.49226 84.7832
9.53703 85.3479
9.5818 87.2249
9.62657 92.424
9.67134 100.039
9.71614 94.3033
9.76091 94.2828
9.80569 96.2924
9.85047 99.7674
9.89525 126.922
9.94005 140.137
9.98484 168.567
10.0296 327.311
10.0744 773.994
10.1192 1704.99
10.164 1662.47
10.2088 437.125
10.2536 130.759
10.2984 114.864
10.3432 117.378
10.388 105.045
10.4328 115.494
10.4776 155.039
10.5224 269.921
10.5672 500.023
10.612 521.106
10.6568 214.688
10.7017 98.7285
10.7465 87.112
10.7913 83.5177
10.8361 81.5684
10.8809 79.124
10.9257 79.0558
10.9706 79.5159
11.0154 75.3476
11.0602 73.1526
11.105 72.1736
11.1499 77.3594
11.1947 86.4764
11.2395 75.8484
11.2844 71.2609
11.3292 67.7272
11.374 66.3167
11.4189 65.9675
11.4637 65.2154
11.5086 66.0191
11.5534 69.4677
11.5983 66.3527
11.6431 63.8285
11.688 63.234
11.7328 63.2808
11.7777 63.0596
11.8225 62.5293
11.8674 62.5596
11.9122 62.9061
11.9571 63.1405
12.002 63.5214
12.0468 67.0403
12.0917 78.1638
12.1366 100.81
12.1814 147.354
12.2263 203.752
12.2712 172.197
12.3161 101.672
12.3609 72.2669
12.4058 65.4122
12.4507 64.6287
12.4956 64.715
12.5405 64.9623
12.5853 65.6894
12.6302 74.8283
12.6751 81.1487
12.72 70.8829
12.7649 68.0417
12.8098 68.5453
12.8547 69.6971
12.8996 71.164
12.9445 72.2981
12.9894 73.8846
13.0343 75.697
13.0792 78.6884
13.1242 86.5409
13.1691 109.42
13.214 144.542
13.2589 230.633
13.3038 363.451
13.3487 431.367
13.3937 275.839
13.4386 128.157
13.4835 104.63
13.5285 118.115
13.5734 155.078
13.6183 241.302
13.6633 346.283
13.7082 346.196
13.7531 196.892
13.7981 100.946
13.843 82.4172
13.888 80.0424
13.9329 77.5172
13.9779 76.0239
14.0228 74.7435
14.0678 72.9894
14.1127 72.9173
14.1577 72.8883
14.2027 71.6311
14.2476 70.8411
14.2926 70.8328
14.3376 72.2126
14.3825 70.4121
14.4275 68.9852
14.4725 68.7038
14.5175 68.9333
14.5624 69.179
14.6074 71.362
14.6524 72.4361
14.6974 70.5473
14.7424 71.7823
14.7874 77.7286
14.8324 87.5157
14.8774 108.352
14.9224 150.174
14.9674 202.458
15.0124 218.11
15.0574 153.304
15.1024 93.3877
15.1474 72.8761
15.1924 70.902
15.2374 71.6313
15.2824 70.8937
15.3274 68.6911
15.3725 67.2882
15.4175 66.4596
15.4625 66.1997
15.5076 66.4272
15.5526 66.5445
15.5976 66.0349
15.6426 66.5136
15.6877 71.5393
15.7327 78.6948
15.7778 93.1838
15.8228 122.94
15.8679 165.5
15.9129 194.568
15.958 160.825
16.003 101.195
16.0481 69.6637
16.0931 65.428
16.1382 63.458
16.1833 61.059
16.2283 59.1169
16.2734 58.7679
16.3185 58.9847
16.3636 60.1174
16.4086 58.4943
16.4537 56.5946
16.4988 55.6903
16.5439 55.5557
16.589 55.4848
16.6341 55.0922
16.6792 54.6515
16.7243 55.2929
16.7694 55.2349
16.8145 54.9944
16.8596 55.4411
16.9047 57.2567
16.9498 57.7368
16.9949 55.988
17.04 56.0991
17.0851 57.0608
17.1302 58.8164
17.1754 61.5831
17.2205 66.3977
17.2656 73.6298
17.3108 82.4292
17.3559 82.9879
17.401 72.486
17.4462 62.6036
17.4913 59.5117
17.5365 59.1064
17.5815 59.1733
17.6268 59.6419
17.6718 60.637
17.7171 61.1548
17.7622 61.378
17.8074 62.0651
17.8525 63.8468
17.8977 67.6676
17.9428 73.1898
17.9881 81.5499
18.0331 97.6207
18.0784 119.62
18.1237 138.606
18.1688 132.46
18.214 105.753
18.2591 87.0719
18.3044 90.2376
18.3495 99.5941
18.3948 106.137
18.4399 98.191
18.4852 79.7775
18.5303 66.986
18.5756 62.6225
18.6207 61.5652
18.666 60.7098
18.7112 59.7913
18.7565 59.1788
18.8016 58.8981
18.8469 58.279
18.892 57.773
18.9374 57.416
18.9825 57.1758
19.0278 57.2096
19.073 57.2165
19.1183 57.6209
19.1635 58.3961
19.2088 59.6865
19.254 61.8655
19.2993 66.4447
19.3447 72.5301
19.3898 76.7623
19.4352 73.0622
19.4804 64.5007
19.5257 57.2866
19.5709 54.4437
19.6163 53.8466
19.6615 53.9515
19.7068 53.5227
19.752 53.3238
19.7974 53.6287
19.8426 54.4228
19.888 55.0927
19.9332 56.1182
19.9786 58.6889
20.0238 61.9594
20.0692 67.0904
20.1144 69.626
20.1598 68.6916
20.205 63.7169
20.2504 62.4084
20.2957 63.7351
20.3411 65.8669
20.3863 64.8084
20.4318 59.1265
20.477 54.1771
20.5224 52.0139
20.5677 51.3727
20.6131 50.3697
20.6586 49.8859
20.7038 49.8115
20.7493 49.2532
20.7945 49.2941
20.84 48.9463
20.8853 48.8712
20.9307 48.7098
20.976 48.986
21.0215 48.8445
21.0668 49.1965
21.1122 49.531
21.1575 50.2472
21.203 51.0991
21.2483 51.4704
21.2938 51.391
21.3391 50.3544
21.3846 49.0769
21.4299 48.6376
21.4754 48.5295
21.5207 48.5056
21.5662 48.8306
21.6116 49.4162
21.6571 49.9092
21.7024 50.9326
21.7479 52.6166
21.7933 55.2297
21.8388 58.5218
21.8843 62.4906
21.9297 64.641
21.9752 63.6842
22.0206 60.2206
22.0661 56.9308
22.1115 56.3115
22.157 56.2403
22.2024 54.7833
22.248 52.0024
22.2933 50.096
22.3389 49.4143
22.3843 49.3096
22.4299 49.1887
22.4753 49.2348
22.5208 48.8357
22.5662 48.7084
22.6118 48.6237
22.6572 49.0143
22.7028 49.4424
22.7483 49.8174
22.7939 50.3724
22.8393 51.824
22.8849 53.9163
22.9303 56.0472
22.9759 57.792
23.0214 57.8511
23.067 55.1535
23.1126 51.6317
23.1581 49.5751
23.2037 49.0561
23.2492 48.8992
23.2948 48.9659
23.3403 49.2126
23.3859 49.7112
23.4314 50.6058
23.477 52.5576
23.5225 54.7843
23.5682 56.9231
23.6137 58.24
23.6593 56.1036
23.7048 52.1117
23.7505 48.6681
23.796 46.8941
23.8417 46.1455
23.8872 45.7665
23.9329 45.3448
23.9784 45.0818
24.0241 44.9107
24.0697 44.6994
24.1154 44.3844
24.1609 44.1959
24.2066 43.9973
24.2522 43.8584
24.2979 43.6746
24.3434 43.5197
24.3892 43.3437
24.4349 43.225
24.4805 43.0054
24.5262 43.2363
24.5718 42.9929
24.6175 43.0955
24.6631 43.0618
24.7089 42.6144
24.7545 42.6379
24.8002 42.4573
24.8458 42.2545
24.8916 42.2702
24.9372 42.3096
24.983 42.583
25.0286 42.9528
25.0744 43.3863
25.12 43.733
25.1658 44.4154
25.2114 44.732
25.2572 44.9464
25.3029 45.0315
25.3487 45.186
25.3943 44.8432
25.4402 43.8637
25.4858 42.6135
25.5316 41.7389
25.5773 41.0494
25.6231 41.237
25.669 40.6889
25.7147 40.6323
25.7605 40.5809
25.8062 40.7163
25.8521 40.8424
25.8977 40.8241
25.9436 41.0278
25.9893 41.0153
26.0352 41.6443
26.0809 41.7117
26.1268 41.8062
26.1725 41.4606
26.2184 41.027
26.2641 40.673
26.31 40.2214
26.3557 40.2382
26.4017 40.3723
26.4474 40.5632
26.4933 40.8813
26.5391 41.4268
26.585 41.8676
26.6308 42.1747
26.6767 42.2582
26.7225 42.2432
26.7684 41.6522
26.8142 41.1543
26.8601 40.5968
26.9059 40.1914
26.9519 39.682
26.9979 39.3549
27.0437 38.9331
27.0896 38.8595
27.1354 38.901
27.1814 38.7147
27.2272 38.6723
27.2732 38.6286
27.3191 38.4019
27.3651 38.4595
27.4109 38.5425
27.4569 38.6497
27.5027 38.7086
27.5488 38.8163
27.5946 38.4906
27.6407 38.1698
27.6865 38.171
27.7326 37.9725
27.7784 37.9198
27.8245 37.8575
27.8703 38.0687
27.9164 38.3796
27.9623 38.43
28.0084 38.8232
28.0543 39.1574
28.1003 39.0506
28.1462 38.9987
28.1923 38.549
28.2384 38.1452
28.2843 37.7069
28.3304 37.4042
28.3764 36.9457
28.4225 36.4583
28.4684 36.4748
28.5145 36.0832
28.5605 35.9998
28.6066 35.8108
28.6526 35.8646
28.6987 35.7998
28.7447 35.5686
28.7908 35.6406
28.8368 35.5208
28.8829 35.5574
28.9289 35.4679
28.9751 35.334
29.0211 35.0876
29.0673 34.8805
29.1133 34.7479
29.1595 34.5435
29.2055 34.5268
29.2517 34.5271
29.2977 34.4048
29.3439 34.3847
29.3899 34.3327
29.4361 34.3199
29.4824 34.0279
29.5284 34.0261
29.5746 33.5859
29.6207 33.3432
29.6669 33.2482
29.713 33.0989
29.7593 32.98
29.8053 32.9897
29.8516 32.9671
29.8977 32.9036
29.9439 32.7748
29.99 32.6317
30.0363 32.6328
30.0824 32.6408
30.1287 32.513
30.1748 32.4753
30.2211 32.5942
30.2673 32.4791
30.3136 32.4999
30.3597 32.3405
30.406 32.3187
30.4522 32.2639
30.4985 32.1323
30.5447 32.2769
30.591 32.2049
30.6372 32.3134
30.6835 32.1883
30.7297 32.3182
30.7761 32.3281
30.8224 32.086
30.8686 32.0482
30.915 31.8114
30.9612 31.6776
31.0076 31.4103
31.0538 31.3285
31.1002 31.1796
31.1464 31.1292
31.1928 31.0743
31.2391 31.0497
31.2855 31.0811
31.3317 30.9728
31.3781 31.1067
31.4244 31.0038
31.4708 30.8403
31.5171 30.8838
31.5636 30.9458
31.6098 30.6079
31.6563 30.4562
31.7026 30.3654
31.7491 30.225
31.7953 30.2853
31.8418 30.304
31.8881 30.3019
31.9346 30.1974
31.9809 30.1419
32.0275 30.0727
32.074 30.0106
32.1203 29.7925
32.1668 29.6323
32.2132 29.5722
32.2597 29.3892
32.306 29.3071
32.3526 29.0589
32.399 28.9457
32.4455 28.8887
32.4919 28.8796
32.5385 28.7267
32.5848 28.5808
32.6314 28.5751
32.6778 28.595
32.7244 28.4092
32.7708 28.2484
32.8174 28.309
32.8638 28.0574
32.9104 28.1699
32.9569 28.0808
33.0035 28.0191
33.0499 27.9728
33.0966 27.9128
33.143 27.8719
33.1897 27.7885
33.2361 27.8105
33.2828 27.632
33.3293 27.4917
33.3759 27.5563
33.4226 27.3576
33.4691 27.1624
33.5158 27.1784
33.5623 27.0652
33.609 26.8812
33.6555 26.8202
33.7022 26.7154
33.7487 26.6183
33.7954 26.5986
33.842 26.424
33.8887 26.4915
33.9353 26.382
33.982 26.2122
34.0286 26.1685
34.0753 26.0467
34.1219 26.0559
34.1687 25.9076
34.2152 25.9561
34.262 25.7404
34.3086 25.7121
34.3554 25.6928
34.402 25.5308
34.4488 25.4712
34.4954 25.4023
34.5422 25.2612
34.5889 25.1384
34.6357 25.0634
34.6825 25.0373
34.7292 24.9697
34.776 24.8894
34.8227 24.7871
34.8695 24.8741
34.9162 24.7031
34.9631 24.531
35.0098 24.6315
35.0566 24.4808
35.1033 24.3683
35.1502 24.3352
35.1969 24.3395
35.2438 24.2595
35.2906 24.2386
35.3375 24.1457
35.3842 24.1175
35.4311 24.1556
35.4779 24.048
35.5248 24.0313
35.5716 23.8781
35.6185 23.7859
35.6653 23.779
35.7123 23.6637
35.759 23.5766
35.806 23.4029
35.8528 23.3706
35.8998 23.3466
35.9468 23.2628
35.9936 23.1806
36.0406 23.126
36.0874 23.1437
36.1345 23.0574
36.1813 22.9081
36.2283 22.7955
36.2752 22.6645
36.3222 22.7346
36.3691 22.6939
36.4161 22.5254
36.463 22.5087
36.5101 22.4917
36.557 22.4542
36.6041 22.2473
36.651 22.2549
36.6981 22.1952
36.745 22.1784
36.7921 22.1241
36.839 21.9172
36.8861 21.9251
36.9331 21.7474
36.9802 21.7751
37.0272 21.6383
37.0743 21.6476
37.1213 21.576
37.1684 21.5347
37.2154 21.4409
37.2626 21.4098
37.3098 21.2799
37.3568 21.2593
37.404 21.2154
37.451 21.1154
37.4982 21.108
37.5452 20.9893
37.5924 20.9245
37.6395 20.9813
37.6867 20.7815
37.7337 20.719
37.781 20.6103
37.8281 20.6205
37.8753 20.4866
37.9224 20.4147
37.9697 20.4091
38.0168 20.3848
38.064 20.2317
38.1111 20.258
38.1584 20.0713
38.2056 20.1143
38.2529 20.0205
38.3 19.9265
38.3473 19.9346
38.3945 19.79
38.4418 19.7978
38.489 19.7007
38.5363 19.6262
38.5837 19.5435
38.6309 19.53
38.6782 19.4151
38.7254 19.2985
38.7728 19.3121
38.82 19.2478
38.8674 19.2501
38.9146 19.1404
38.9621 19.095
39.0093 19.0276
39.0567 18.9635
39.104 18.8645
39.1514 18.7858
39.1987 18.8023
39.2461 18.7687
39.2934 18.6585
39.3409 18.5444
39.3882 18.4351
39.4356 18.4371
39.483 18.4165
39.5304 18.351
39.5778 18.3169
39.6253 18.2848
39.6726 18.2086
39.7201 18.209
39.7675 18.0901
39.815 17.9527
39.8624 17.9239
39.9099 17.9763
39.9575 17.8695
40.0049 17.7273
40.0525 17.7448
40.0999 17.6727
40.1474 17.6337
40.1949 17.5393
40.2425 17.5048
40.2899 17.4299
40.3375 17.4196
40.385 17.3154
40.4326 17.2363
40.48 17.1751
40.5277 17.1959
40.5752 17.1201
40.6228 17.0315
40.6703 17.0105
40.718 16.9666
40.7655 16.9151
40.8132 16.8446
40.8607 16.8465
40.9084 16.7426
40.9559 16.7304
41.0036 16.6992
41.0512 16.5909
41.0989 16.5532
41.1465 16.447
41.1942 16.4147
41.242 16.3102
41.2896 16.2839
41.3373 16.2232
41.3849 16.1834
41.4327 16.1643
41.4803 16.0457
41.5281 16.0787
41.5758 15.9217
41.6236 15.904
41.6712 15.8673
41.7191 15.8215
41.7667 15.778
41.8146 15.7633
41.8622 15.6333
41.9101 15.5913
41.9578 15.5452
42.0057 15.5115
42.0534 15.4773
42.1013 15.379
42.149 15.3577
42.1969 15.2527
42.2446 15.2323
42.2925 15.2286
42.3403 15.1793
42.3882 15.0919
42.436 15.1378
42.4839 14.9942
42.5319 14.9723
42.5797 14.9272
42.6277 14.8479
42.6755 14.772
42.7235 14.7324
42.7713 14.7036
42.8193 14.6335
42.8671 14.5891
42.9152 14.5459
42.963 14.5045
43.0111 14.4518
43.0589 14.3763
43.107 14.332
43.1549 14.2975
43.2029 14.234
43.2508 14.2165
43.2989 14.1874
43.3468 14.088
43.3949 14.036
43.4429 13.9962
43.491 13.997
43.5389 13.8943
43.5871 13.8155
43.635 13.7855
43.6832 13.7591
43.7312 13.722
43.7793 13.6382
43.8273 13.6147
43.8755 13.566
43.9237 13.5522
43.9717 13.4659
44.0199 13.4323
44.068 13.4002
44.1162 13.3437
44.1642 13.2958
44.2125 13.2669
44.2606 13.2391
44.3088 13.1907
44.3569 13.1378
44.4052 13.0845
44.4533 13.0198
44.5016 12.969
44.5497 12.9479
44.598 12.8767
44.6461 12.8567
44.6945 12.8028
44.7426 12.7493
44.791 12.6822
44.8391 12.7077
44.8875 12.6355
44.9357 12.5489
44.984 12.4853
45.0322 12.467
45.0806 12.4716
45.1288 12.4303
45.1773 12.2986
45.2257 12.3151
45.2739 12.2801
45.3224 12.2517
45.3706 12.2083
45.4191 12.1267
45.4673 12.118
45.5158 12.0541
45.5641 11.9736
45.6126 11.9855
45.6609 11.9169
45.7094 11.8584
45.7577 11.8324
45.8063 11.7513
45.8546 11.73
45.9031 11.7075
45.9515 11.6166
46.0001 11.6147
46.0484 11.5542
46.097 11.5209
46.1454 11.5266
46.194 11.4986
46.2424 11.4431
46.291 11.3972
46.3395 11.3223
46.3881 11.3014
46.4365 11.2989
46.4852 11.2275
46.5337 11.1421
46.5823 11.1755
46.631 11.0572
46.6795 11.0564
46.7282 11.0361
46.7767 10.9514
46.8254 10.9196
46.8739 10.9059
46.9226 10.8296
46.9712 10.8036
47.0199 10.768
47.0685 10.7161
47.1173 10.6757
47.1658 10.6063
47.2146 10.6119
47.2632 10.5486
47.312 10.5576
47.3606 10.4742
47.4095 10.4041
47.4581 10.4758
47.5069 10.3968
47.5556 10.3286
47.6044 10.3014
47.6531 10.2536
47.702 10.2256
47.7507 10.2138
47.7996 10.1546
47.8483 10.1364
47.8972 10.0957
47.9461 9.9996
47.9948 9.97511
48.0438 9.9732
48.0925 9.95487
48.1415 9.89481
48.1902 9.8466
48.2392 9.83533
48.288 9.78594
48.337 9.77803
48.3858 9.71534
48.4348 9.6697
48.4837 9.69553
48.5327 9.64497
48.5815 9.57715
48.6306 9.56694
48.6795 9.51238
48.7285 9.4789
48.7774 9.43072
48.8265 9.39548
48.8754 9.34687
48.9245 9.32189
48.9734 9.26978
49.0226 9.28539
49.0715 9.22384
49.1206 9.19313
49.1696 9.15309
49.2188 9.14193
49.2679 9.11085
49.3169 9.02538
49.3661 8.97862
49.4151 8.98669
49.4643 8.97015
49.5134 8.88487
49.5626 8.84977
49.6117 8.84931
49.6609 8.82648
49.71 8.75414
49.7592 8.76078
49.8083 8.69612
49.8576 8.67765
49.9067 8.6046
49.956 8.59384
50.0052 8.5951
50.0545 8.52903
50.1036 8.53851
50.153 8.48528
50.2022 8.41996
50.2515 8.39938
50.3007 8.36261
50.3501 8.32368
50.3993 8.32351
50.4487 8.28275
50.498 8.26829
50.5474 8.2034
50.5966 8.13478
50.6461 8.14191
50.6955 8.13449
50.7448 8.12089
50.7943 8.03887
50.8436 8.02469
50.8931 7.99149
50.9424 7.96112
50.9919 7.93419
51.0413 7.91037
51.0908 7.87888
51.1402 7.83905
51.1897 7.80674
51.2391 7.75376
51.2887 7.76915
51.3381 7.72242
51.3877 7.69895
51.4371 7.63551
51.4867 7.55492
51.5362 7.58743
51.5858 7.53361
51.6353 7.51277
51.6849 7.50879
51.7344 7.48326
51.7841 7.4562
51.8336 7.40523
51.8833 7.3681
51.9328 7.35218
51.9826 7.30292
52.0323 7.25586
52.0818 7.25721
52.1316 7.17542
52.1812 7.16801
52.231 7.14738
52.2806 7.11371
52.3304 7.11079
52.38 7.04515
52.4298 7.03121
52.4794 7.01315
52.5293 7.00815
52.5789 6.9527
52.6288 6.95368
52.6785 6.85671
52.7284 6.85179
52.7781 6.82006
52.828 6.79231
52.8777 6.77415
52.9276 6.74166
52.9774 6.69915
53.0273 6.692
53.0771 6.68091
53.1271 6.6002
53.1769 6.61026
53.2269 6.58344
53.2767 6.56026
53.3267 6.49662
53.3765 6.49275
53.4266 6.45812
53.4766 6.44613
53.5265 6.37865
53.5765 6.37049
53.6264 6.34412
53.6765 6.3197
53.7264 6.27788
53.7765 6.29614
53.8265 6.25037
53.8766 6.18531
53.9266 6.19886
53.9767 6.14383
54.0267 6.18506
54.0769 6.07732
54.1269 6.10178
54.1771 6.05247
54.2271 6.02299
54.2773 5.98915
54.3274 5.95203
54.3776 5.91298
54.4277 5.90972
54.478 5.8726
54.528 5.84346
54.5783 5.79745
54.6285 5.79176
54.6788 5.7401
54.7289 5.68717
54.7792 5.59517
54.8296 5.6341
54.8798 5.52242
54.9301 5.479
54.9803 5.50452
55.0307 5.40914
55.0809 5.40584
55.1314 5.45496
55.1816 5.26945
55.232 5.24242
55.2823 5.27047
55.3328 5.2092
55.383 5.12271
55.4335 5.05576
55.4838 5.01471
55.5344 4.98626
55.5847 4.91398
55.6352 4.9423
55.6856 4.9115
55.7361 4.88022