File: XRD/Ni3Fe_FD0981.xy
TT I
1.27165 7.19809
1.31627 6.96049
1.36089 6.85371
1.40551 6.06693
1.45013 6.25929
1.49476 6.22468
1.53938 5.61295
1.584 5.51422
1.62863 4.63928
1.67325 4.94167
1.71787 5.14496
1.7625 5.01928
1.80712 4.3148
1.85174 4.58499
1.89636 5.02852
1.94099 4.02551
1.98562 5.01113
2.03025 4.75265
2.07487 4.65511
2.11949 5.21276
2.16411 5.25687
2.20874 15.1033
2.25338 23.8685
2.298 6.30703
2.34263 5.68497
2.38725 6.64084
2.43188 6.8946
2.4765 7.57767
2.52115 7.62381
2.56577 8.75893
2.6104 8.93274
2.65503 8.39617
2.69965 8.60758
2.7443 9.24011
2.78893 8.33504
2.83356 9.08998
2.87818 9.02159
2.92281 9.55209
2.96744 10.3257
3.01209 10.8293
3.05672 11.2683
3.10135 12.5233
3.14599 12.8151
3.19062 14.0983
3.23527 15.375
3.2799 15.4137
3.32454 16.7799
3.36917 17.6857
3.4138 18.9348
3.45844 19.6472
3.50309 20.9132
3.54773 21.6481
3.59237 23.8205
3.637 94.6583
3.68164 61.5937
3.7263 26.1181
3.77094 25.5814
3.81558 26.857
3.86022 27.4895
3.90486 28.6877
3.9495 29.2789
3.99416 30.2234
4.0388 31.937
4.08344 32.8314
4.12809 34.3667
4.17273 36.4085
4.21738 42.6238
4.26204 256.553
4.30669 231.369
4.35133 48.2259
4.39598 44.0062
4.44063 53.6191
4.4853 66.0947
4.52995 49.3423
4.5746 50.4918
4.61925 52.3763
4.6639 54.4025
4.70855 56.7757
4.75322 59.7887
4.79788 62.6313
4.84253 66.0868
4.88719 69.1232
4.93184 73.3151
4.97652 77.9372
5.02118 84.0547
5.06583 90.706
5.11049 100.465
5.15515 163.634
5.19981 269.739
5.24449 2278.71
5.28916 13386.9
5.33382 2781.85
5.37848 172.576
5.42315 123.431
5.46783 109.744
5.5125 102.515
5.55716 99.451
5.60183 96.1881
5.6465 94.3903
5.69117 91.5649
5.73586 89.5783
5.78053 88.7895
5.8252 88.2524
5.86988 88.7409
5.91455 90.458
5.95924 95.2922
6.00392 165.164
6.0486 770.641
6.09328 4604.15
6.13795 3236.77
6.18263 216.507
6.22733 88.7858
6.27201 80.5937
6.3167 101.635
6.36138 79.693
6.40606 67.8902
6.45075 66.5315
6.49545 64.3239
6.54014 62.8755
6.58483 61.9137
6.62952 61.8852
6.67421 93.6222
6.71892 146.894
6.76361 68.7204
6.8083 58.089
6.853 56.3085
6.89769 55.9562
6.94239 55.5936
6.98711 54.7433
7.03181 54.9984
7.07651 54.4286
7.12121 54.2028
7.16591 54.3747
7.21063 54.695
7.25533 70.6977
7.30004 185.333
7.34475 93.7065
7.38945 56.1079
7.43416 53.9829
7.47889 53.7052
7.5236 54.2433
7.56831 54.4507
7.61303 56.2432
7.65774 56.5035
7.70247 55.1988
7.74719 55.1188
7.79191 55.4896
7.83663 55.9443
7.88135 56.7564
7.92607 57.2742
7.97081 58.4278
8.01553 59.7405
8.06026 61.1411
8.10498 62.6393
8.14971 72.3707
8.19446 71.3817
8.23919 67.942
8.28392 70.2298
8.32865 72.3491
8.37339 75.8677
8.41812 82.4775
8.46288 110.355
8.50761 139.859
8.55235 322.065
8.59709 1117.36
8.64183 2322.59
8.68658 941.029
8.73134 161.249
8.77609 96.2048
8.82083 90.4048
8.86558 87.1182
8.91033 88.0135
8.9551 90.2109
8.99985 83.5067
9.04461 81.3828
9.08936 81.0926
9.13412 80.2023
9.17888 80.3734
9.22365 81.2786
9.26841 80.4987
9.31318 80.6146
9.35794 80.651
9.4027 81.4034
9.44749 81.8343
9.49226 82.6559
9.53703 83.4631
9.5818 85.2434
9.62657 90.252
9.67134 96.7438
9.71614 91.7497
9.76091 91.7031
9.80569 93.717
9.85047 97.3159
9.89525 121.476
9.94005 132.888
9.98484 151.828
10.0296 290.476
10.0744 746.879
10.1192 1766.67
10.164 1562.51
10.2088 372.343
10.2536 122.846
10.2984 111.021
10.3432 112.593
10.388 102.22
10.4328 109.584
10.4776 143.92
10.5224 266.262
10.5672 528.831
10.612 507.358
10.6568 200.384
10.7017 94.7319
10.7465 84.7478
10.7913 81.1802
10.8361 79.1987
10.8809 77.0175
10.9257 77.003
10.9706 77.5789
11.0154 73.458
11.0602 71.3273
11.105 70.4381
11.1499 74.9505
11.1947 83.0376
11.2395 73.7206
11.2844 69.0587
11.3292 66.1363
11.374 64.6127
11.4189 64.2729
11.4637 63.5514
11.5086 64.1176
11.5534 67.1038
11.5983 64.5061
11.6431 62.3452
11.688 61.4806
11.7328 61.5048
11.7777 61.4687
11.8225 61.2367
11.8674 61.02
11.9122 61.6623
11.9571 61.807
12.002 61.6036
12.0468 64.6221
12.0917 74.4105
12.1366 97.0355
12.1814 151.899
12.2263 204.688
12.2712 162.525
12.3161 94.6655
12.3609 69.5326
12.4058 63.2152
12.4507 62.7724
12.4956 62.9327
12.5405 63.3413
12.5853 64.1771
12.6302 72.3655
12.6751 77.796
12.72 68.9946
12.7649 66.4315
12.8098 66.6484
12.8547 67.8638
12.8996 69.308
12.9445 70.4437
12.9894 72.0498
13.0343 73.9517
13.0792 76.634
13.1242 83.0951
13.1691 102.829
13.214 135.973
13.2589 228.754
13.3038 377.697
13.3487 428.908
13.3937 252.39
13.4386 120.716
13.4835 99.5293
13.5285 111.366
13.5734 147.069
13.6183 242.119
13.6633 358.817
13.7082 335.665
13.7531 178.35
13.7981 94.7295
13.843 79.9339
13.888 77.4918
13.9329 75.3785
13.9779 73.8827
14.0228 72.5249
14.0678 71.4242
14.1127 71.0476
14.1577 70.8365
14.2027 69.8573
14.2476 68.9244
14.2926 68.8544
14.3376 70.2601
14.3825 69.1056
14.4275 67.5289
14.4725 67.1285
14.5175 67.429
14.5624 67.3876
14.6074 69.7503
14.6524 70.3072
14.6974 68.861
14.7424 69.4874
14.7874 74.3682
14.8324 83.4638
14.8774 104.293
14.9224 150.21
14.9674 213.571
15.0124 218.95
15.0574 149.986
15.1024 88.6194
15.1474 71.0019
15.1924 69.0382
15.2374 69.7862
15.2824 68.8554
15.3274 66.9648
15.3725 65.1878
15.4175 64.7573
15.4625 64.7229
15.5076 64.7905
15.5526 64.8347
15.5976 63.927
15.6426 64.5999
15.6877 68.5526
15.7327 74.9517
15.7778 89.146
15.8228 121.964
15.8679 172.255
15.9129 197.918
15.958 153.791
16.003 94.8157
16.0481 66.9888
16.0931 63.4912
16.1382 61.5468
16.1833 59.1658
16.2283 57.611
16.2734 57.2577
16.3185 57.5572
16.3636 58.2569
16.4086 56.6606
16.4537 54.9971
16.4988 54.4773
16.5439 54.2277
16.589 53.886
16.6341 53.7286
16.6792 53.4161
16.7243 53.5608
16.7694 53.83
16.8145 53.6506
16.8596 54.0271
16.9047 55.7729
16.9498 55.6633
16.9949 54.495
17.04 54.4673
17.0851 55.2031
17.1302 56.8764
17.1754 59.7893
17.2205 64.6624
17.2656 73.1192
17.3108 82.3184
17.3559 80.3229
17.401 68.7965
17.4462 60.3639
17.4913 57.7053
17.5365 57.7371
17.5815 57.8386
17.6268 58.2873
17.6718 58.8683
17.7171 59.341
17.7622 59.8319
17.8074 60.22
17.8525 61.8975
17.8977 65.3705
17.9428 70.321
17.9881 78.936
18.0331 96.8
18.0784 121.18
18.1237 138.58
18.1688 126.37
18.214 99.4446
18.2591 83.62
18.3044 89.0674
18.3495 100.268
18.3948 106.368
18.4399 94.6876
18.4852 75.5395
18.5303 64.6825
18.5756 60.9181
18.6207 59.9076
18.666 59.0024
18.7112 58.3642
18.7565 57.5909
18.8016 57.3341
18.8469 56.6999
18.892 56.4304
18.9374 55.831
18.9825 55.7805
19.0278 55.6264
19.073 55.5491
19.1183 55.9508
19.1635 56.6051
19.2088 57.8843
19.254 60.3906
19.2993 65.2352
19.3447 72.1059
19.3898 75.3747
19.4352 70.2775
19.4804 61.4653
19.5257 55.5975
19.5709 52.9883
19.6163 52.9014
19.6615 52.6488
19.7068 52.143
19.752 52.063
19.7974 52.1073
19.8426 53.011
19.888 53.6975
19.9332 54.6799
19.9786 57.1697
20.0238 61.3031
20.0692 66.3385
20.1144 68.7503
20.1598 66.3517
20.205 62.0649
20.2504 60.8982
20.2957 63.2167
20.3411 65.0386
20.3863 62.8139
20.4318 57.1832
20.477 52.5973
20.5224 50.6943
20.5677 50.1144
20.6131 49.4314
20.6586 48.7254
20.7038 48.6039
20.7493 48.0996
20.7945 47.9333
20.84 47.7399
20.8853 47.7202
20.9307 47.3801
20.976 47.5997
21.0215 47.5643
21.0668 47.9117
21.1122 48.2244
21.1575 49.0368
21.203 50.0572
21.2483 50.5278
21.2938 50.3195
21.3391 48.9567
21.3846 47.888
21.4299 47.4402
21.4754 47.4545
21.5207 47.4015
21.5662 47.6411
21.6116 47.8844
21.6571 48.496
21.7024 49.3544
21.7479 51.1014
21.7933 53.8994
21.8388 57.9181
21.8843 61.8991
21.9297 63.5605
21.9752 61.6641
22.0206 58.2099
22.0661 55.6228
22.1115 55.2746
22.157 54.9696
22.2024 52.8005
22.248 50.2621
22.2933 48.7265
22.3389 48.3138
22.3843 48.0376
22.4299 47.8798
22.4753 47.9803
22.5208 47.5105
22.5662 47.4224
22.6118 47.5844
22.6572 47.6942
22.7028 48.0229
22.7483 48.3789
22.7939 49.1934
22.8393 50.5208
22.8849 52.9164
22.9303 55.5149
22.9759 57.2255
23.0214 56.5175
23.067 53.5554
23.1126 49.9631
23.1581 48.2459
23.2037 47.715
23.2492 47.7397
23.2948 47.681
23.3403 47.8557
23.3859 48.5428
23.4314 49.5241
23.477 51.431
23.5225 54.0652
23.5682 56.4568
23.6137 57.1734
23.6593 54.4704
23.7048 50.2775
23.7505 47.2827
23.796 45.5421
23.8417 45.0615
23.8872 44.7159
23.9329 44.2746
23.9784 44.0041
24.0241 43.8088
24.0697 43.6633
24.1154 43.3169
24.1609 43.1296
24.2066 42.9984
24.2522 42.8845
24.2979 42.5543
24.3434 42.368
24.3892 42.1995
24.4349 42.3185
24.4805 42.0229
24.5262 42.3493
24.5718 42.1664
24.6175 42.0713
24.6631 42.0465
24.7089 41.7152
24.7545 41.6807
24.8002 41.4169
24.8458 41.3462
24.8916 41.2142
24.9372 41.2371
24.983 41.5755
25.0286 41.8773
25.0744 42.3587
25.12 42.9486
25.1658 43.4103
25.2114 43.7488
25.2572 43.8559
25.3029 44.1526
25.3487 44.3112
25.3943 43.7528
25.4402 42.6302
25.4858 41.67
25.5316 40.5385
25.5773 40.15
25.6231 40.1089
25.669 39.6546
25.7147 39.65
25.7605 39.5751
25.8062 39.568
25.8521 39.7414
25.8977 39.6562
25.9436 39.9298
25.9893 40.2537
26.0352 40.5946
26.0809 40.8657
26.1268 40.9521
26.1725 40.533
26.2184 39.9233
26.2641 39.4587
26.31 39.2232
26.3557 39.3683
26.4017 39.1865
26.4474 39.5524
26.4933 39.9483
26.5391 40.5204
26.585 40.7936
26.6308 41.3945
26.6767 41.3886
26.7225 41.1527
26.7684 40.6138
26.8142 40.0883
26.8601 39.73
26.9059 39.2813
26.9519 38.6384
26.9979 38.3557
27.0437 38.1237
27.0896 37.9793
27.1354 37.8721
27.1814 37.8365
27.2272 37.7821
27.2732 37.7567
27.3191 37.6034
27.3651 37.6932
27.4109 37.5497
27.4569 37.6678
27.5027 37.844
27.5488 37.7857
27.5946 37.6716
27.6407 37.44
27.6865 37.3177
27.7326 37.0068
27.7784 37.1386
27.8245 36.9285
27.8703 37.1586
27.9164 37.5827
27.9623 37.6019
28.0084 38.0686
28.0543 38.4172
28.1003 38.2134
28.1462 37.9462
28.1923 37.7218
28.2384 37.3354
28.2843 36.8988
28.3304 36.5234
28.3764 35.9848
28.4225 35.7491
28.4684 35.6089
28.5145 35.2463
28.5605 35.0596
28.6066 35.0729
28.6526 34.8626
28.6987 34.8526
28.7447 34.8265
28.7908 34.7261
28.8368 34.7608
28.8829 34.7921
28.9289 34.6383
28.9751 34.4741
29.0211 34.261
29.0673 34.0482
29.1133 33.8929
29.1595 33.7267
29.2055 33.6593
29.2517 33.7522
29.2977 33.6171
29.3439 33.6018
29.3899 33.6582
29.4361 33.5769
29.4824 33.3454
29.5284 33.0282
29.5746 32.6925
29.6207 32.4765
29.6669 32.3433
29.713 32.3831
29.7593 32.2049
29.8053 32.3232
29.8516 32.1204
29.8977 32.1347
29.9439 32.0016
29.99 31.9709
30.0363 31.747
30.0824 31.9253
30.1287 31.7976
30.1748 31.7647
30.2211 31.905
30.2673 31.636
30.3136 31.7928
30.3597 31.6597
30.406 31.492
30.4522 31.3811
30.4985 31.2956
30.5447 31.4105
30.591 31.5
30.6372 31.5426
30.6835 31.5691
30.7297 31.6174
30.7761 31.5545
30.8224 31.3519
30.8686 31.2644
30.915 31.0339
30.9612 30.8658
31.0076 30.7203
31.0538 30.5027
31.1002 30.5764
31.1464 30.3178
31.1928 30.3318
31.2391 30.3071
31.2855 30.2174
31.3317 30.2456
31.3781 30.3169
31.4244 30.3654
31.4708 30.1968
31.5171 30.1479
31.5636 30.1755
31.6098 29.8962
31.6563 29.7717
31.7026 29.6674
31.7491 29.5191
31.7953 29.5368
31.8418 29.5608
31.8881 29.5596
31.9346 29.5712
31.9809 29.4986
32.0275 29.3993
32.074 29.234
32.1203 29.0013
32.1668 28.9632
32.2132 28.7842
32.2597 28.6883
32.306 28.5877
32.3526 28.3939
32.399 28.301
32.4455 28.3194
32.4919 28.1399
32.5385 28.0288
32.5848 27.9489
32.6314 27.8592
32.6778 27.8279
32.7244 27.7265
32.7708 27.62
32.8174 27.6317
32.8638 27.3884
32.9104 27.5565
32.9569 27.4672
33.0035 27.2155
33.0499 27.3585
33.0966 27.3179
33.143 27.2676
33.1897 27.209
33.2361 27.1192
33.2828 27.0171
33.3293 26.8922
33.3759 26.8576
33.4226 26.696
33.4691 26.4703
33.5158 26.4956
33.5623 26.3572
33.609 26.3029
33.6555 26.1834
33.7022 26.1341
33.7487 25.9501
33.7954 25.9805
33.842 25.8405
33.8887 25.8374
33.9353 25.741
33.982 25.5729
34.0286 25.5911
34.0753 25.4863
34.1219 25.3537
34.1687 25.3512
34.2152 25.2648
34.262 25.1608
34.3086 25.0931
34.3554 25.0103
34.402 24.8509
34.4488 24.7757
34.4954 24.7524
34.5422 24.7225
34.5889 24.5565
34.6357 24.451
34.6825 24.4882
34.7292 24.3615
34.776 24.269
34.8227 24.2137
34.8695 24.1559
34.9162 24.0518
34.9631 24.066
35.0098 24.0015
35.0566 23.8788
35.1033 23.8719
35.1502 23.8106
35.1969 23.7432
35.2438 23.7132
35.2906 23.6548
35.3375 23.5492
35.3842 23.4904
35.4311 23.5776
35.4779 23.5452
35.5248 23.4653
35.5716 23.3876
35.6185 23.1973
35.6653 23.1983
35.7123 23.0858
35.759 23.0517
35.806 22.9043
35.8528 22.8419
35.8998 22.7991
35.9468 22.6521
35.9936 22.7266
36.0406 22.5791
36.0874 22.5747
36.1345 22.4744
36.1813 22.4437
36.2283 22.2725
36.2752 22.1901
36.3222 22.2077
36.3691 22.0814
36.4161 22.0352
36.463 22.0663
36.5101 22.0512
36.557 21.9278
36.6041 21.8466
36.651 21.7832
36.6981 21.7354
36.745 21.681
36.7921 21.5302
36.839 21.468
36.8861 21.4269
36.9331 21.3093
36.9802 21.3023
37.0272 21.2705
37.0743 21.1245
37.1213 21.1261
37.1684 21.0347
37.2154 20.9562
37.2626 20.8266
37.3098 20.8897
37.3568 20.7302
37.404 20.6958
37.451 20.6421
37.4982 20.5472
37.5452 20.4112
37.5924 20.4754
37.6395 20.4958
37.6867 20.3698
37.7337 20.2491
37.781 20.1252
37.8281 20.1327
37.8753 19.9796
37.9224 19.9792
37.9697 19.8858
38.0168 19.8072
38.064 19.7779
38.1111 19.6704
38.1584 19.7206
38.2056 19.6014
38.2529 19.5857
38.3 19.4778
38.3473 19.436
38.3945 19.3871
38.4418 19.2958
38.489 19.1993
38.5363 19.1252
38.5837 19.0733
38.6309 19.0432
38.6782 18.9772
38.7254 18.893
38.7728 18.9454
38.82 18.7544
38.8674 18.7865
38.9146 18.7271
38.9621 18.6774
39.0093 18.6069
39.0567 18.53
39.104 18.415
39.1514 18.4066
39.1987 18.3167
39.2461 18.3832
39.2934 18.1736
39.3409 18.1453
39.3882 18.1512
39.4356 17.9795
39.483 17.9737
39.5304 17.9017
39.5778 17.9233
39.6253 17.8507
39.6726 17.7458
39.7201 17.7858
39.7675 17.6642
39.815 17.6152
39.8624 17.5359
39.9099 17.5171
39.9575 17.3811
40.0049 17.3497
40.0525 17.3247
40.0999 17.2821
40.1474 17.1891
40.1949 17.0893
40.2425 17.0898
40.2899 17.0692
40.3375 16.9642
40.385 16.9139
40.4326 16.8197
40.48 16.7754
40.5277 16.8165
40.5752 16.7182
40.6228 16.6114
40.6703 16.6058
40.718 16.5917
40.7655 16.5605
40.8132 16.4571
40.8607 16.4256
40.9084 16.3841
40.9559 16.3238
41.0036 16.2628
41.0512 16.2268
41.0989 16.1613
41.1465 16.1476
41.1942 16.105
41.242 15.901
41.2896 15.9358
41.3373 15.8446
41.3849 15.9012
41.4327 15.8155
41.4803 15.7306
41.5281 15.6622
41.5758 15.5829
41.6236 15.5425
41.6712 15.4716
41.7191 15.4499
41.7667 15.3814
41.8146 15.3838
41.8622 15.3488
41.9101 15.2558
41.9578 15.1655
42.0057 15.1463
42.0534 15.1015
42.1013 15.0317
42.149 14.9856
42.1969 14.9647
42.2446 14.9041
42.2925 14.8327
42.3403 14.8364
42.3882 14.7741
42.436 14.6931
42.4839 14.662
42.5319 14.5726
42.5797 14.545
42.6277 14.5218
42.6755 14.4736
42.7235 14.4355
42.7713 14.366
42.8193 14.3286
42.8671 14.2727
42.9152 14.2467
42.963 14.21
43.0111 14.1146
43.0589 14.0708
43.107 14.0457
43.1549 14.0517
43.2029 13.9327
43.2508 13.8944
43.2989 13.8546
43.3468 13.7924
43.3949 13.722
43.4429 13.6696
43.491 13.6265
43.5389 13.6193
43.5871 13.6003
43.635 13.4553
43.6832 13.5004
43.7312 13.3533
43.7793 13.4045
43.8273 13.3196
43.8755 13.282
43.9237 13.2786
43.9717 13.1979
44.0199 13.1337
44.068 13.127
44.1162 13.0253
44.1642 13.0395
44.2125 12.9325
44.2606 12.94
44.3088 12.9012
44.3569 12.814
44.4052 12.7947
44.4533 12.7211
44.5016 12.7155
44.5497 12.6417
44.598 12.5924
44.6461 12.538
44.6945 12.4892
44.7426 12.4528
44.791 12.4217
44.8391 12.3669
44.8875 12.4093
44.9357 12.3132
44.984 12.2484
45.0322 12.2104
45.0806 12.1558
45.1288 12.1521
45.1773 12.1038
45.2257 12.0496
45.2739 11.9771
45.3224 11.9834
45.3706 11.9187
45.4191 11.8876
45.4673 11.8599
45.5158 11.7631
45.5641 11.722
45.6126 11.6805
45.6609 11.6199
45.7094 11.591
45.7577 11.6138
45.8063 11.4581
45.8546 11.4748
45.9031 11.4221
45.9515 11.4507
46.0001 11.3767
46.0484 11.3106
46.097 11.2862
46.1454 11.2928
46.194 11.224
46.2424 11.134
46.291 11.099
46.3395 11.1249
46.3881 11.0049
46.4365 11.0077
46.4852 10.9912
46.5337 10.901
46.5823 10.8962
46.631 10.8082
46.6795 10.7861
46.7282 10.8226
46.7767 10.6927
46.8254 10.6855
46.8739 10.6349
46.9226 10.6026
46.9712 10.5659
47.0199 10.5524
47.0685 10.446
47.1173 10.4371
47.1658 10.4237
47.2146 10.3693
47.2632 10.3498
47.312 10.282
47.3606 10.2365
47.4095 10.21
47.4581 10.1709
47.5069 10.1118
47.5556 10.0796
47.6044 10.0395
47.6531 9.99987
47.702 9.96842
47.7507 10.0024
47.7996 9.87113
47.8483 9.88098
47.8972 9.87844
47.9461 9.81839
47.9948 9.76692
48.0438 9.73666
48.0925 9.70286
48.1415 9.6799
48.1902 9.61985
48.2392 9.62073
48.288 9.6067
48.337 9.54366
48.3858 9.46464
48.4348 9.47798
48.4837 9.45728
48.5327 9.41802
48.5815 9.34982
48.6306 9.30572
48.6795 9.26889
48.7285 9.27114
48.7774 9.25056
48.8265 9.17418
48.8754 9.15807
48.9245 9.13167
48.9734 9.07521
49.0226 9.08725
49.0715 9.02714
49.1206 8.96833
49.1696 8.95454
49.2188 8.93486
49.2679 8.84108
49.3169 8.80003
49.3661 8.8153
49.4151 8.79102
49.4643 8.76288
49.5134 8.69824
49.5626 8.65505
49.6117 8.64781
49.6609 8.59901
49.71 8.54527
49.7592 8.53031
49.8083 8.50243
49.8576 8.45312
49.9067 8.45726
49.956 8.4015
50.0052 8.3741
50.0545 8.34539
50.1036 8.28517
50.153 8.26461
50.2022 8.2579
50.2515 8.23376
50.3007 8.15049
50.3501 8.12078
50.3993 8.11631
50.4487 8.10038
50.498 8.10154
50.5474 8.02301
50.5966 8.00083
50.6461 7.97909
50.6955 7.95659
50.7448 7.91497
50.7943 7.89492
50.8436 7.86173
50.8931 7.84706
50.9424 7.79265
50.9919 7.74186
51.0413 7.71049
51.0908 7.70086
51.1402 7.66007
51.1897 7.63564
51.2391 7.62751
51.2887 7.53524
51.3381 7.54709
51.3877 7.54268
51.4371 7.47035
51.4867 7.42953
51.5362 7.43747
51.5858 7.42061
51.6353 7.34446
51.6849 7.33244
51.7344 7.26091
51.7841 7.27734
51.8336 7.24089
51.8833 7.20673
51.9328 7.18403
51.9826 7.16073
52.0323 7.11128
52.0818 7.10814
52.1316 7.07697
52.1812 7.03939
52.231 7.0141
52.2806 6.97549
52.3304 6.94726
52.38 6.88452
52.4298 6.91766
52.4794 6.84994
52.5293 6.79513
52.5789 6.81168
52.6288 6.76897
52.6785 6.74139
52.7284 6.77809
52.7781 6.70717
52.828 6.64173
52.8777 6.62123
52.9276 6.59572
52.9774 6.59247
53.0273 6.57331
53.0771 6.51944
53.1271 6.50169
53.1769 6.45408
53.2269 6.47016
53.2767 6.37818
53.3267 6.37869
53.3765 6.37574
53.4266 6.32529
53.4766 6.27826
53.5265 6.24309
53.5765 6.2735
53.6264 6.25067
53.6765 6.18912
53.7264 6.18687
53.7765 6.1862
53.8265 6.12101
53.8766 6.0902
53.9266 6.02118
53.9767 6.04617
54.0267 6.03435
54.0769 6.01826
54.1269 5.98108
54.1771 5.90182
54.2271 5.91586
54.2773 5.85872
54.3274 5.8289
54.3776 5.79408
54.4277 5.80828
54.478 5.75529
54.528 5.73195
54.5783 5.65377
54.6285 5.63861
54.6788 5.62528
54.7289 5.58742
54.7792 5.47866
54.8296 5.48098
54.8798 5.41448
54.9301 5.3695
54.9803 5.36318
55.0307 5.30054
55.0809 5.27308
55.1314 5.27636
55.1816 5.18176
55.232 5.14383
55.2823 5.08688
55.3328 5.03855
55.383 5.02924
55.4335 4.98571
55.4838 4.87739
55.5344 4.89561
55.5847 4.85237
55.6352 4.79618
55.6856 4.78505
55.7361 4.76513