File: XRD/Ni3Fe_FD0898.xy
TT I
1.27165 7.0631
1.31627 6.62458
1.36089 6.52342
1.40551 6.23692
1.45013 6.25658
1.49476 6.16075
1.53938 5.35298
1.584 5.50931
1.62863 4.78238
1.67325 5.11858
1.71787 4.92018
1.7625 5.17965
1.80712 4.51644
1.85174 4.98853
1.89636 5.18409
1.94099 4.44124
1.98562 4.9282
2.03025 4.34723
2.07487 4.27875
2.11949 5.11275
2.16411 5.32733
2.20874 12.379
2.25338 18.2163
2.298 5.8124
2.34263 5.68546
2.38725 6.13389
2.43188 6.3143
2.4765 7.29134
2.52115 7.47728
2.56577 8.20706
2.6104 8.53982
2.65503 8.28267
2.69965 8.62757
2.7443 8.31829
2.78893 8.06473
2.83356 9.0774
2.87818 8.9157
2.92281 9.53384
2.96744 9.78187
3.01209 11.0089
3.05672 11.5057
3.10135 12.694
3.14599 13.0852
3.19062 14.6915
3.23527 15.1496
3.2799 15.9139
3.32454 16.7728
3.36917 17.8603
3.4138 18.6468
3.45844 19.0942
3.50309 20.6785
3.54773 21.6073
3.59237 23.4064
3.637 75.3884
3.68164 49.8402
3.7263 25.8064
3.77094 25.8332
3.81558 26.7288
3.86022 26.8199
3.90486 28.5829
3.9495 29.4846
3.99416 30.6548
4.0388 31.5282
4.08344 33.5369
4.12809 34.2428
4.17273 35.9744
4.21738 40.6057
4.26204 196.364
4.30669 171.729
4.35133 46.0037
4.39598 43.9027
4.44063 51.7882
4.4853 60.4617
4.52995 50.0163
4.5746 50.6464
4.61925 52.9923
4.6639 54.7822
4.70855 57.0485
4.75322 60.1466
4.79788 62.9427
4.84253 66.4891
4.88719 70.8287
4.93184 74.1636
4.97652 79.7191
5.02118 85.7667
5.06583 93.0332
5.11049 103.282
5.15515 157.241
5.19981 320.893
5.24449 2639.42
5.28916 13626.7
5.33382 2539.2
5.37848 168.442
5.42315 123.672
5.46783 109.795
5.5125 103.458
5.55716 99.6029
5.60183 96.597
5.6465 94.8709
5.69117 92.6914
5.73586 90.927
5.78053 90.5996
5.8252 89.7877
5.86988 90.5608
5.91455 92.2975
5.95924 100.37
6.00392 195.552
6.0486 897.658
6.09328 4545.74
6.13795 3011.64
6.18263 194.245
6.22733 88.1358
6.27201 79.828
6.3167 92.5679
6.36138 76.8016
6.40606 67.511
6.45075 66.4943
6.49545 64.5618
6.54014 62.4615
6.58483 62.0693
6.62952 61.2634
6.67421 85.1623
6.71892 119.628
6.76361 65.0763
6.8083 57.3722
6.853 56.7108
6.89769 55.9015
6.94239 55.3819
6.98711 54.8744
7.03181 54.4608
7.07651 54.3762
7.12121 54.0471
7.16591 54.4516
7.21063 54.5794
7.25533 66.2024
7.30004 144.532
7.34475 80.056
7.38945 54.9155
7.43416 53.7362
7.47889 53.5251
7.5236 54.0863
7.56831 54.4982
7.61303 55.648
7.65774 55.8674
7.70247 55.3455
7.74719 55.1956
7.79191 55.8938
7.83663 55.8036
7.88135 57.108
7.92607 57.8211
7.97081 58.9039
8.01553 59.5686
8.06026 60.9695
8.10498 62.5578
8.14971 70.4918
8.19446 69.9891
8.23919 68.1854
8.28392 70.8056
8.32865 73.1744
8.37339 77.0897
8.41812 83.2056
8.46288 106.86
8.50761 158.382
8.55235 359.712
8.59709 1185.73
8.64183 2269.11
8.68658 858.964
8.73134 143.234
8.77609 95.7852
8.82083 90.1601
8.86558 87.5955
8.91033 87.8798
8.9551 88.6002
8.99985 83.3754
9.04461 81.694
9.08936 81.7942
9.13412 80.5394
9.17888 80.6175
9.22365 81.3338
9.26841 80.6084
9.31318 81.2399
9.35794 81.5599
9.4027 82.0219
9.44749 82.5594
9.49226 83.182
9.53703 84.1572
9.5818 85.8458
9.62657 90.0907
9.67134 95.1468
9.71614 91.8726
9.76091 92.1277
9.80569 95.2495
9.85047 97.8286
9.89525 117.166
9.94005 129.725
9.98484 170.318
10.0296 321.882
10.0744 798.846
10.1192 1846.96
10.164 1473.29
10.2088 329.0
10.2536 117.778
10.2984 109.007
10.3432 109.531
10.388 102.75
10.4328 115.93
10.4776 155.921
10.5224 283.085
10.5672 537.325
10.612 491.638
10.6568 179.611
10.7017 92.2587
10.7465 84.6527
10.7913 81.4202
10.8361 79.3759
10.8809 77.6328
10.9257 76.5861
10.9706 76.7976
11.0154 73.6984
11.0602 71.2513
11.105 70.3936
11.1499 73.6752
11.1947 78.4116
11.2395 71.2961
11.2844 68.4984
11.3292 66.1987
11.374 64.7232
11.4189 64.213
11.4637 63.5554
11.5086 63.9486
11.5534 65.853
11.5983 63.7995
11.6431 62.6239
11.688 61.6785
11.7328 61.6834
11.7777 61.5015
11.8225 61.4196
11.8674 61.0813
11.9122 61.4973
11.9571 61.7838
12.002 62.6219
12.0468 66.3068
12.0917 76.4755
12.1366 100.222
12.1814 157.207
12.2263 218.27
12.2712 157.669
12.3161 87.8953
12.3609 67.1944
12.4058 63.0989
12.4507 63.1265
12.4956 62.9761
12.5405 63.2349
12.5853 64.1844
12.6302 69.6371
12.6751 74.0156
12.72 68.115
12.7649 66.5874
12.8098 66.9686
12.8547 68.0484
12.8996 69.9099
12.9445 71.1369
12.9894 72.7998
13.0343 74.7352
13.0792 77.8256
13.1242 86.7912
13.1691 107.983
13.214 143.509
13.2589 238.988
13.3038 391.459
13.3487 423.201
13.3937 234.58
13.4386 114.385
13.4835 102.08
13.5285 115.917
13.5734 153.635
13.6183 254.916
13.6633 369.49
13.7082 328.944
13.7531 164.893
13.7981 91.0076
13.843 79.8741
13.888 77.8202
13.9329 75.4776
13.9779 74.4246
14.0228 72.8188
14.0678 71.7112
14.1127 71.167
14.1577 70.9795
14.2027 69.9066
14.2476 69.1429
14.2926 68.9894
14.3376 69.6517
14.3825 68.9068
14.4275 67.5858
14.4725 67.4486
14.5175 67.52
14.5624 67.6798
14.6074 69.4615
14.6524 69.6881
14.6974 69.058
14.7424 70.6707
14.7874 76.8961
14.8324 86.3936
14.8774 108.631
14.9224 156.186
14.9674 219.856
15.0124 215.743
15.0574 135.747
15.1024 84.0276
15.1474 70.1624
15.1924 68.8816
15.2374 69.1134
15.2824 68.394
15.3274 66.3902
15.3725 65.4771
15.4175 65.0495
15.4625 64.8171
15.5076 64.7608
15.5526 64.793
15.5976 64.4729
15.6426 65.6793
15.6877 70.6623
15.7327 77.4923
15.7778 92.0863
15.8228 126.865
15.8679 176.283
15.9129 195.696
15.958 148.122
16.003 88.94
16.0481 65.3526
16.0931 62.6205
16.1382 60.987
16.1833 59.2919
16.2283 57.7318
16.2734 57.1332
16.3185 57.3066
16.3636 57.6229
16.4086 56.1756
16.4537 55.0624
16.4988 54.2937
16.5439 54.5292
16.589 54.0495
16.6341 53.9362
16.6792 53.4804
16.7243 53.799
16.7694 53.8329
16.8145 53.6495
16.8596 54.0845
16.9047 55.133
16.9498 55.4859
16.9949 54.6798
17.04 54.7953
17.0851 55.7907
17.1302 57.505
17.1754 60.4289
17.2205 65.8245
17.2656 74.2231
17.3108 83.4741
17.3559 80.8388
17.401 67.7432
17.4462 59.9867
17.4913 57.8618
17.5365 57.7717
17.5815 57.9865
17.6268 58.3761
17.6718 59.2479
17.7171 59.5641
17.7622 60.3101
17.8074 60.6922
17.8525 63.0833
17.8977 66.5993
17.9428 71.8655
17.9881 80.81
18.0331 99.5949
18.0784 124.934
18.1237 139.356
18.1688 125.104
18.214 96.1484
18.2591 83.0049
18.3044 90.1229
18.3495 101.835
18.3948 105.934
18.4399 91.5743
18.4852 73.2646
18.5303 63.7163
18.5756 60.7864
18.6207 60.0181
18.666 59.0739
18.7112 58.5142
18.7565 57.6746
18.8016 57.3553
18.8469 56.8411
18.892 56.6426
18.9374 56.1102
18.9825 55.9086
19.0278 55.7699
19.073 55.9345
19.1183 56.248
19.1635 56.7644
19.2088 58.282
19.254 60.9752
19.2993 65.7784
19.3447 72.3461
19.3898 75.7017
19.4352 69.4581
19.4804 60.4639
19.5257 55.0223
19.5709 53.0509
19.6163 52.9864
19.6615 52.6788
19.7068 52.3951
19.752 52.3753
19.7974 52.519
19.8426 53.4361
19.888 54.0532
19.9332 55.15
19.9786 57.9289
20.0238 61.8593
20.0692 67.3309
20.1144 69.0721
20.1598 66.2823
20.205 61.4359
20.2504 61.0951
20.2957 64.0145
20.3411 65.5759
20.3863 62.5686
20.4318 56.2226
20.477 52.199
20.5224 50.2896
20.5677 49.8406
20.6131 49.3524
20.6586 48.9682
20.7038 48.6163
20.7493 48.0895
20.7945 48.113
20.84 48.0425
20.8853 47.7291
20.9307 47.6248
20.976 47.8492
21.0215 47.743
21.0668 48.1173
21.1122 48.4962
21.1575 49.1744
21.203 50.1639
21.2483 50.7477
21.2938 50.4208
21.3391 48.9064
21.3846 47.9179
21.4299 47.387
21.4754 47.4987
21.5207 47.6913
21.5662 47.867
21.6116 48.2862
21.6571 48.8161
21.7024 49.893
21.7479 51.6885
21.7933 54.6917
21.8388 58.9412
21.8843 62.9164
21.9297 64.1304
21.9752 61.3824
22.0206 57.699
22.0661 55.201
22.1115 55.5905
22.157 55.0528
22.2024 52.6365
22.248 50.0544
22.2933 48.6168
22.3389 48.1943
22.3843 48.0202
22.4299 47.8658
22.4753 47.9958
22.5208 47.7765
22.5662 47.4877
22.6118 47.8267
22.6572 47.951
22.7028 48.3542
22.7483 48.7287
22.7939 49.4897
22.8393 51.1356
22.8849 53.4088
22.9303 56.0446
22.9759 57.521
23.0214 56.3563
23.067 52.8546
23.1126 49.6829
23.1581 48.0009
23.2037 47.8786
23.2492 47.8967
23.2948 47.9762
23.3403 48.1761
23.3859 48.7563
23.4314 49.886
23.477 51.9021
23.5225 54.6344
23.5682 56.9182
23.6137 57.3183
23.6593 54.236
23.7048 49.968
23.7505 47.1175
23.796 45.6538
23.8417 45.1659
23.8872 44.5489
23.9329 44.3759
23.9784 44.0479
24.0241 43.6423
24.0697 43.632
24.1154 43.3863
24.1609 43.186
24.2066 43.0821
24.2522 42.9679
24.2979 42.5761
24.3434 42.4823
24.3892 42.3782
24.4349 42.3392
24.4805 42.2073
24.5262 42.4228
24.5718 42.2802
24.6175 42.2605
24.6631 42.0034
24.7089 41.7522
24.7545 41.5048
24.8002 41.473
24.8458 41.5737
24.8916 41.2938
24.9372 41.4516
24.983 41.8038
25.0286 42.0671
25.0744 42.4844
25.12 43.1934
25.1658 43.6011
25.2114 43.9569
25.2572 43.9982
25.3029 44.2288
25.3487 44.264
25.3943 43.8146
25.4402 42.4115
25.4858 41.3708
25.5316 40.6063
25.5773 40.0646
25.6231 40.151
25.669 39.7386
25.7147 39.7497
25.7605 39.5466
25.8062 39.7846
25.8521 39.8904
25.8977 39.7994
25.9436 40.1028
25.9893 40.2389
26.0352 40.8433
26.0809 41.081
26.1268 40.9649
26.1725 40.5525
26.2184 39.8875
26.2641 39.4842
26.31 39.3493
26.3557 39.4605
26.4017 39.4332
26.4474 39.6703
26.4933 39.9534
26.5391 40.6998
26.585 41.0773
26.6308 41.6061
26.6767 41.5816
26.7225 41.074
26.7684 40.6544
26.8142 40.0523
26.8601 39.7309
26.9059 39.3019
26.9519 38.6624
26.9979 38.4296
27.0437 38.2296
27.0896 38.1038
27.1354 38.0562
27.1814 37.9227
27.2272 37.795
27.2732 37.8827
27.3191 37.657
27.3651 37.7431
27.4109 37.6708
27.4569 37.9688
27.5027 37.9501
27.5488 37.9279
27.5946 37.6729
27.6407 37.3233
27.6865 37.3613
27.7326 37.0912
27.7784 37.1348
27.8245 37.2115
27.8703 37.3198
27.9164 37.6488
27.9623 37.9048
28.0084 38.3288
28.0543 38.4776
28.1003 38.2375
28.1462 38.1095
28.1923 37.7854
28.2384 37.3009
28.2843 36.7991
28.3304 36.5049
28.3764 35.9247
28.4225 35.7411
28.4684 35.5218
28.5145 35.3176
28.5605 35.3149
28.6066 35.0077
28.6526 34.9781
28.6987 34.9954
28.7447 34.7103
28.7908 34.8207
28.8368 34.781
28.8829 34.9331
28.9289 34.8131
28.9751 34.4196
29.0211 34.2443
29.0673 33.9911
29.1133 33.9242
29.1595 33.7848
29.2055 33.701
29.2517 33.6704
29.2977 33.6283
29.3439 33.7472
29.3899 33.6664
29.4361 33.5162
29.4824 33.4478
29.5284 32.9866
29.5746 32.798
29.6207 32.5799
29.6669 32.5909
29.713 32.3698
29.7593 32.3525
29.8053 32.4082
29.8516 32.1962
29.8977 32.1628
29.9439 32.1217
29.99 32.0816
30.0363 31.872
30.0824 31.8825
30.1287 31.8966
30.1748 31.8602
30.2211 31.8311
30.2673 31.7271
30.3136 31.7887
30.3597 31.744
30.406 31.6336
30.4522 31.5129
30.4985 31.4237
30.5447 31.6968
30.591 31.4956
30.6372 31.7141
30.6835 31.6705
30.7297 31.7181
30.7761 31.568
30.8224 31.5072
30.8686 31.2222
30.915 31.0372
30.9612 30.9506
31.0076 30.7495
31.0538 30.6359
31.1002 30.6787
31.1464 30.4335
31.1928 30.4286
31.2391 30.3402
31.2855 30.3345
31.3317 30.2926
31.3781 30.4236
31.4244 30.4014
31.4708 30.2542
31.5171 30.2521
31.5636 30.2499
31.6098 29.9268
31.6563 29.8468
31.7026 29.6329
31.7491 29.5811
31.7953 29.5265
31.8418 29.6498
31.8881 29.7004
31.9346 29.5767
31.9809 29.479
32.0275 29.3715
32.074 29.3605
32.1203 29.0044
32.1668 28.9607
32.2132 28.9277
32.2597 28.6537
32.306 28.629
32.3526 28.5226
32.399 28.2989
32.4455 28.2662
32.4919 28.1036
32.5385 28.1996
32.5848 27.9361
32.6314 28.0313
32.6778 27.9661
32.7244 27.8264
32.7708 27.7033
32.8174 27.6336
32.8638 27.5803
32.9104 27.5405
32.9569 27.4709
33.0035 27.3019
33.0499 27.3766
33.0966 27.3659
33.143 27.3583
33.1897 27.2312
33.2361 27.1847
33.2828 26.992
33.3293 26.9114
33.3759 26.9363
33.4226 26.746
33.4691 26.57
33.5158 26.4637
33.5623 26.3555
33.609 26.2675
33.6555 26.211
33.7022 26.1186
33.7487 26.0452
33.7954 25.98
33.842 25.9367
33.8887 25.9034
33.9353 25.7566
33.982 25.6899
34.0286 25.5943
34.0753 25.5344
34.1219 25.4124
34.1687 25.4396
34.2152 25.3687
34.262 25.2109
34.3086 25.0554
34.3554 25.1068
34.402 24.8993
34.4488 24.9211
34.4954 24.8019
34.5422 24.785
34.5889 24.528
34.6357 24.5062
34.6825 24.4367
34.7292 24.4218
34.776 24.3262
34.8227 24.3132
34.8695 24.2094
34.9162 24.1813
34.9631 24.026
35.0098 24.0995
35.0566 23.9352
35.1033 23.9391
35.1502 23.8845
35.1969 23.7277
35.2438 23.8544
35.2906 23.6558
35.3375 23.6915
35.3842 23.4936
35.4311 23.5803
35.4779 23.5136
35.5248 23.4937
35.5716 23.3889
35.6185 23.2515
35.6653 23.2654
35.7123 23.0814
35.759 23.0789
35.806 22.9341
35.8528 22.7912
35.8998 22.8671
35.9468 22.6875
35.9936 22.7494
36.0406 22.6157
36.0874 22.6085
36.1345 22.4973
36.1813 22.484
36.2283 22.3626
36.2752 22.2497
36.3222 22.2343
36.3691 22.1357
36.4161 22.0161
36.463 22.0836
36.5101 22.1082
36.557 22.0401
36.6041 21.7458
36.651 21.7885
36.6981 21.7209
36.745 21.647
36.7921 21.5136
36.839 21.5508
36.8861 21.4455
36.9331 21.3393
36.9802 21.3456
37.0272 21.2012
37.0743 21.1195
37.1213 21.0913
37.1684 21.0491
37.2154 21.0057
37.2626 20.9004
37.3098 20.9019
37.3568 20.8039
37.404 20.7429
37.451 20.6258
37.4982 20.6323
37.5452 20.5303
37.5924 20.4522
37.6395 20.4255
37.6867 20.3301
37.7337 20.2394
37.781 20.1559
37.8281 20.1513
37.8753 20.0375
37.9224 19.9942
37.9697 19.8478
38.0168 19.843
38.064 19.8274
38.1111 19.7586
38.1584 19.6034
38.2056 19.5928
38.2529 19.5429
38.3 19.4244
38.3473 19.4831
38.3945 19.3771
38.4418 19.3687
38.489 19.2623
38.5363 19.1493
38.5837 19.1501
38.6309 19.0464
38.6782 18.9185
38.7254 18.9068
38.7728 18.8553
38.82 18.7687
38.8674 18.7563
38.9146 18.6269
38.9621 18.6262
39.0093 18.6102
39.0567 18.5443
39.104 18.4747
39.1514 18.3738
39.1987 18.3331
39.2461 18.2976
39.2934 18.2147
39.3409 18.1585
39.3882 18.1051
39.4356 18.098
39.483 17.9956
39.5304 17.8919
39.5778 17.9038
39.6253 17.8622
39.6726 17.7515
39.7201 17.7783
39.7675 17.6615
39.815 17.575
39.8624 17.5319
39.9099 17.5477
39.9575 17.4247
40.0049 17.3636
40.0525 17.2993
40.0999 17.2864
40.1474 17.1631
40.1949 17.1484
40.2425 17.1305
40.2899 17.0738
40.3375 16.9994
40.385 16.9472
40.4326 16.9251
40.48 16.831
40.5277 16.7841
40.5752 16.7059
40.6228 16.6417
40.6703 16.6592
40.718 16.5541
40.7655 16.5834
40.8132 16.4539
40.8607 16.412
40.9084 16.4057
40.9559 16.3566
41.0036 16.2814
41.0512 16.2492
41.0989 16.2434
41.1465 16.1033
41.1942 16.0962
41.242 15.9952
41.2896 16.0128
41.3373 15.8537
41.3849 15.8629
41.4327 15.7734
41.4803 15.6996
41.5281 15.695
41.5758 15.663
41.6236 15.5696
41.6712 15.4749
41.7191 15.452
41.7667 15.4317
41.8146 15.376
41.8622 15.3165
41.9101 15.2771
41.9578 15.1718
42.0057 15.1683
42.0534 15.0957
42.1013 15.0483
42.149 14.9807
42.1969 14.9516
42.2446 14.8888
42.2925 14.9066
42.3403 14.8333
42.3882 14.766
42.436 14.6925
42.4839 14.6279
42.5319 14.6398
42.5797 14.588
42.6277 14.5288
42.6755 14.5213
42.7235 14.3887
42.7713 14.349
42.8193 14.3807
42.8671 14.2634
42.9152 14.2329
42.963 14.1912
43.0111 14.1528
43.0589 14.0753
43.107 14.0468
43.1549 13.9887
43.2029 13.9296
43.2508 13.9038
43.2989 13.8799
43.3468 13.7838
43.3949 13.7282
43.4429 13.7315
43.491 13.6867
43.5389 13.5637
43.5871 13.578
43.635 13.4431
43.6832 13.5122
43.7312 13.4078
43.7793 13.3502
43.8273 13.3114
43.8755 13.2507
43.9237 13.2191
43.9717 13.1782
44.0199 13.1477
44.068 13.1262
44.1162 13.0329
44.1642 13.0136
44.2125 12.982
44.2606 12.9027
44.3088 12.8645
44.3569 12.8359
44.4052 12.8171
44.4533 12.7106
44.5016 12.6987
44.5497 12.6719
44.598 12.6648
44.6461 12.5373
44.6945 12.5292
44.7426 12.4942
44.791 12.3999
44.8391 12.3477
44.8875 12.3242
44.9357 12.2756
44.984 12.2769
45.0322 12.2586
45.0806 12.1403
45.1288 12.1166
45.1773 12.0871
45.2257 12.0174
45.2739 11.957
45.3224 11.9265
45.3706 11.884
45.4191 11.857
45.4673 11.8214
45.5158 11.7798
45.5641 11.7673
45.6126 11.7064
45.6609 11.6237
45.7094 11.5972
45.7577 11.5424
45.8063 11.5448
45.8546 11.4822
45.9031 11.4479
45.9515 11.4244
46.0001 11.3516
46.0484 11.3019
46.097 11.3108
46.1454 11.2776
46.194 11.1885
46.2424 11.1727
46.291 11.1126
46.3395 11.0993
46.3881 10.9967
46.4365 11.0274
46.4852 10.9677
46.5337 10.9438
46.5823 10.8857
46.631 10.8589
46.6795 10.759
46.7282 10.7771
46.7767 10.7088
46.8254 10.696
46.8739 10.6302
46.9226 10.5889
46.9712 10.5947
47.0199 10.5255
47.0685 10.4959
47.1173 10.4515
47.1658 10.4169
47.2146 10.4091
47.2632 10.3352
47.312 10.3152
47.3606 10.2387
47.4095 10.1873
47.4581 10.1681
47.5069 10.1475
47.5556 10.0829
47.6044 10.0893
47.6531 9.99012
47.702 9.99276
47.7507 9.9588
47.7996 9.92104
47.8483 9.92462
47.8972 9.86452
47.9461 9.80391
47.9948 9.78364
48.0438 9.75888
48.0925 9.71733
48.1415 9.65961
48.1902 9.63899
48.2392 9.59848
48.288 9.59153
48.337 9.53636
48.3858 9.49518
48.4348 9.45512
48.4837 9.50582
48.5327 9.38483
48.5815 9.35365
48.6306 9.31029
48.6795 9.28561
48.7285 9.25524
48.7774 9.22098
48.8265 9.22517
48.8754 9.15074
48.9245 9.16867
48.9734 9.08155
49.0226 9.09506
49.0715 9.02826
49.1206 9.0094
49.1696 8.95166
49.2188 8.93609
49.2679 8.89807
49.3169 8.8366
49.3661 8.79782
49.4151 8.81038
49.4643 8.73473
49.5134 8.7328
49.5626 8.67157
49.6117 8.65586
49.6609 8.60546
49.71 8.58025
49.7592 8.54059
49.8083 8.51076
49.8576 8.50832
49.9067 8.44711
49.956 8.42911
50.0052 8.36861
50.0545 8.35072
50.1036 8.31091
50.153 8.28403
50.2022 8.27701
50.2515 8.21668
50.3007 8.17873
50.3501 8.16051
50.3993 8.13834
50.4487 8.09171
50.498 8.03265
50.5474 8.04971
50.5966 8.01083
50.6461 7.97675
50.6955 7.91974
50.7448 7.92066
50.7943 7.8984
50.8436 7.89889
50.8931 7.83227
50.9424 7.83249
50.9919 7.76254
51.0413 7.72501
51.0908 7.70041
51.1402 7.68054
51.1897 7.61541
51.2391 7.60846
51.2887 7.58818
51.3381 7.53439
51.3877 7.5351
51.4371 7.48453
51.4867 7.48207
51.5362 7.44573
51.5858 7.40306
51.6353 7.35517
51.6849 7.32242
51.7344 7.31141
51.7841 7.27783
51.8336 7.27946
51.8833 7.23541
51.9328 7.17737
51.9826 7.14634
52.0323 7.13273
52.0818 7.0817
52.1316 7.04204
52.1812 7.05987
52.231 6.97923
52.2806 7.0152
52.3304 6.95849
52.38 6.90448
52.4298 6.88371
52.4794 6.8585
52.5293 6.81851
52.5789 6.81863
52.6288 6.7968
52.6785 6.74615
52.7284 6.72634
52.7781 6.73984
52.828 6.66825
52.8777 6.61269
52.9276 6.61329
52.9774 6.6253
53.0273 6.59115
53.0771 6.53415
53.1271 6.48347
53.1769 6.48432
53.2269 6.477
53.2767 6.40265
53.3267 6.41584
53.3765 6.36117
53.4266 6.34991
53.4766 6.318
53.5265 6.29979
53.5765 6.28312
53.6264 6.26545
53.6765 6.21562
53.7264 6.18795
53.7765 6.15484
53.8265 6.15412
53.8766 6.06909
53.9266 6.07704
53.9767 6.03752
54.0267 6.02003
54.0769 6.00783
54.1269 5.97033
54.1771 5.88847
54.2271 5.87584
54.2773 5.86496
54.3274 5.86604
54.3776 5.81388
54.4277 5.77403
54.478 5.76079
54.528 5.69622
54.5783 5.66945
54.6285 5.62075
54.6788 5.53013
54.7289 5.54523
54.7792 5.50281
54.8296 5.43983
54.8798 5.44825
54.9301 5.37904
54.9803 5.34195
55.0307 5.32878
55.0809 5.30276
55.1314 5.30593
55.1816 5.1832
55.232 5.14371
55.2823 5.12442
55.3328 5.05186
55.383 4.96334
55.4335 4.98906
55.4838 4.90984
55.5344 4.87046
55.5847 4.82372
55.6352 4.81703
55.6856 4.78073
55.7361 4.73928