File: XRD/Ni3Fe_FD0080.xy
TT I
1.27165 10.7015
1.31627 9.6052
1.36089 9.12173
1.40551 8.33967
1.45013 7.62886
1.49476 7.34092
1.53938 7.91379
1.584 7.40164
1.62863 7.34692
1.67325 6.88882
1.71787 7.66612
1.7625 6.65982
1.80712 6.57294
1.85174 6.5975
1.89636 6.45233
1.94099 6.53171
1.98562 6.56289
2.03025 6.90249
2.07487 5.99013
2.11949 6.27297
2.16411 5.44509
2.20874 5.59232
2.25338 5.62626
2.298 5.31552
2.34263 5.24834
2.38725 5.85752
2.43188 5.5314
2.4765 5.30206
2.52115 4.42109
2.56577 4.97926
2.6104 5.26352
2.65503 5.42324
2.69965 5.25024
2.7443 5.96506
2.78893 5.69569
2.83356 7.29449
2.87818 7.87447
2.92281 9.08136
2.96744 9.52706
3.01209 11.013
3.05672 11.2206
3.10135 12.3498
3.14599 13.4171
3.19062 14.3112
3.23527 15.4406
3.2799 16.1878
3.32454 16.5806
3.36917 17.1948
3.4138 18.5469
3.45844 19.0988
3.50309 20.4043
3.54773 20.79
3.59237 21.2775
3.637 22.6778
3.68164 22.556
3.7263 23.8939
3.77094 24.2747
3.81558 25.2061
3.86022 25.6929
3.90486 27.0745
3.9495 27.7365
3.99416 29.0369
4.0388 29.7157
4.08344 30.918
4.12809 31.9166
4.17273 33.282
4.21738 34.5023
4.26204 35.3336
4.30669 37.417
4.35133 39.1289
4.39598 40.3014
4.44063 41.5147
4.4853 43.7048
4.52995 46.053
4.5746 48.055
4.61925 50.2521
4.6639 53.0611
4.70855 55.5402
4.75322 58.6076
4.79788 61.8889
4.84253 65.8531
4.88719 70.8625
4.93184 77.1493
4.97652 86.3226
5.02118 99.2413
5.06583 114.194
5.11049 137.72
5.15515 199.801
5.19981 756.705
5.24449 3261.08
5.28916 4515.06
5.33382 8214.1
5.37848 1348.29
5.42315 266.131
5.46783 164.347
5.5125 133.754
5.55716 120.864
5.60183 110.805
5.6465 106.827
5.69117 104.888
5.73586 101.924
5.78053 101.49
5.8252 103.918
5.86988 110.375
5.91455 122.34
5.95924 156.943
6.00392 382.841
6.0486 1272.41
6.09328 1416.76
6.13795 3360.94
6.18263 1329.57
6.22733 205.303
6.27201 111.385
6.3167 87.9773
6.36138 76.7917
6.40606 70.483
6.45075 66.8314
6.49545 64.1099
6.54014 61.5931
6.58483 60.03
6.62952 58.1103
6.67421 56.9197
6.71892 55.5465
6.76361 54.9019
6.8083 53.8276
6.853 52.9802
6.89769 52.483
6.94239 52.3682
6.98711 51.5052
7.03181 51.1866
7.07651 51.069
7.12121 50.6702
7.16591 50.826
7.21063 49.9134
7.25533 50.1526
7.30004 50.0231
7.34475 50.254
7.38945 50.4644
7.43416 50.5359
7.47889 52.3908
7.5236 73.0715
7.56831 135.858
7.61303 81.3134
7.65774 54.8115
7.70247 52.7356
7.74719 52.6326
7.79191 52.5892
7.83663 53.0807
7.88135 53.8274
7.92607 54.6895
7.97081 55.9552
8.01553 56.5574
8.06026 58.1091
8.10498 59.4006
8.14971 61.2096
8.19446 62.6111
8.23919 65.4227
8.28392 68.2687
8.32865 71.5283
8.37339 77.1095
8.41812 84.4919
8.46288 101.625
8.50761 200.63
8.55235 607.916
8.59709 552.98
8.64183 704.694
8.68658 1761.23
8.73134 823.606
8.77609 161.356
8.82083 107.359
8.86558 93.9589
8.91033 88.2607
8.9551 84.6435
8.99985 82.9925
9.04461 81.8222
9.08936 81.3337
9.13412 81.2129
9.17888 83.2108
9.22365 116.262
9.26841 216.948
9.31318 145.102
9.35794 87.1993
9.4027 81.5038
9.44749 81.1943
9.49226 81.0254
9.53703 81.6055
9.5818 82.6336
9.62657 83.5738
9.67134 85.2429
9.71614 86.9618
9.76091 89.3536
9.80569 92.2798
9.85047 96.5582
9.89525 103.47
9.94005 118.561
9.98484 209.301
10.0296 559.068
10.0744 533.373
10.1192 445.544
10.164 1125.22
10.2088 1459.07
10.2536 409.756
10.2984 135.209
10.3432 112.514
10.388 106.141
10.4328 125.68
10.4776 220.384
10.5224 207.582
10.5672 174.57
10.612 327.602
10.6568 489.928
10.7017 230.262
10.7465 114.497
10.7913 85.5406
10.8361 78.9322
10.8809 75.4554
10.9257 73.1531
10.9706 71.4813
11.0154 69.5571
11.0602 68.0767
11.105 66.8849
11.1499 65.2501
11.1947 64.7107
11.2395 63.7652
11.2844 62.99
11.3292 62.0799
11.374 61.4115
11.4189 60.9533
11.4637 60.4744
11.5086 59.7956
11.5534 59.289
11.5983 58.9138
11.6431 59.2309
11.688 58.7246
11.7328 58.7376
11.7777 58.7106
11.8225 58.7913
11.8674 59.5569
11.9122 64.7032
11.9571 87.5816
12.002 89.429
12.0468 74.7818
12.0917 90.8656
12.1366 97.6165
12.1814 85.1308
12.2263 92.7316
12.2712 153.111
12.3161 174.531
12.3609 93.7511
12.4058 65.3657
12.4507 61.3059
12.4956 60.4775
12.5405 60.4683
12.5853 60.2365
12.6302 60.4118
12.6751 61.3247
12.72 61.6346
12.7649 62.777
12.8098 63.1036
12.8547 64.2635
12.8996 65.6941
12.9445 67.1891
12.9894 69.3368
13.0343 71.6216
13.0792 78.6822
13.1242 91.5703
13.1691 138.081
13.214 181.246
13.2589 151.538
13.3038 136.849
13.3487 198.985
13.3937 372.406
13.4386 316.71
13.4835 153.377
13.5285 161.512
13.5734 170.104
13.6183 134.233
13.6633 131.815
13.7082 213.746
13.7531 345.374
13.7981 238.713
13.843 102.678
13.888 80.0376
13.9329 75.6115
13.9779 73.4927
14.0228 71.7535
14.0678 70.9064
14.1127 73.92
14.1577 89.5889
14.2027 90.3588
14.2476 75.2548
14.2926 68.1284
14.3376 66.2657
14.3825 65.7589
14.4275 65.0749
14.4725 64.879
14.5175 64.9695
14.5624 64.8831
14.6074 65.4911
14.6524 65.6046
14.6974 66.2143
14.7424 68.7779
14.7874 78.9993
14.8324 106.066
14.8774 110.386
14.9224 94.5074
14.9674 92.6166
15.0124 121.104
15.0574 196.197
15.1024 188.361
15.1474 102.759
15.1924 73.4903
15.2374 67.4809
15.2824 65.3758
15.3274 63.8279
15.3725 63.384
15.4175 62.6413
15.4625 62.3658
15.5076 62.1078
15.5526 62.1887
15.5976 62.366
15.6426 64.0079
15.6877 72.4419
15.7327 93.957
15.7778 100.408
15.8228 86.835
15.8679 81.5784
15.9129 93.9634
15.958 150.075
16.003 185.938
16.0481 126.324
16.0931 79.32
16.1382 65.6407
16.1833 59.6053
16.2283 56.8006
16.2734 55.5863
16.3185 54.8863
16.3636 54.1143
16.4086 53.1617
16.4537 52.9548
16.4988 52.531
16.5439 52.2091
16.589 51.9684
16.6341 51.6879
16.6792 51.2115
16.7243 51.5786
16.7694 51.444
16.8145 51.3516
16.8596 51.5718
16.9047 52.9517
16.9498 55.0606
16.9949 54.7717
17.04 53.6227
17.0851 54.3317
17.1302 58.4401
17.1754 61.0408
17.2205 58.8714
17.2656 57.221
17.3108 58.7243
17.3559 64.3153
17.401 77.1489
17.4462 77.656
17.4913 63.7433
17.5365 56.9239
17.5815 55.9036
17.6268 56.0043
17.6718 56.4361
17.7171 57.156
17.7622 59.4028
17.8074 61.383
17.8525 62.2247
17.8977 69.6457
17.9428 81.3636
17.9881 81.2468
18.0331 74.266
18.0784 72.2361
18.1237 79.2646
18.1688 107.177
18.214 146.954
18.2591 132.795
18.3044 88.7584
18.3495 71.6989
18.3948 73.0072
18.4399 87.6705
18.4852 101.764
18.5303 89.0187
18.5756 69.0294
18.6207 61.762
18.666 59.0882
18.7112 57.4074
18.7565 56.4429
18.8016 55.7997
18.8469 55.2608
18.892 55.0429
18.9374 54.4755
18.9825 54.1818
19.0278 53.8665
19.073 54.1697
19.1183 54.7958
19.1635 57.0372
19.2088 58.9082
19.254 57.9939
19.2993 57.5127
19.3447 59.2815
19.3898 60.594
19.4352 64.495
19.4804 71.8223
19.5257 69.5028
19.5709 58.1267
19.6163 52.6585
19.6615 51.4431
19.7068 50.6773
19.752 50.5627
19.7974 50.8198
19.8426 52.1165
19.888 54.2673
19.9332 55.2871
19.9786 54.0975
20.0238 52.6006
20.0692 53.6326
20.1144 56.9254
20.1598 63.1331
20.205 68.4444
20.2504 65.917
20.2957 57.3881
20.3411 53.5259
20.3863 55.8723
20.4318 61.7614
20.477 61.928
20.5224 54.9557
20.5677 49.4953
20.6131 47.9296
20.6586 47.4038
20.7038 47.2554
20.7493 47.2962
20.7945 47.8871
20.84 47.6429
20.8853 47.0016
20.9307 46.167
20.976 46.2095
21.0215 46.5486
21.0668 46.7634
21.1122 46.6011
21.1575 46.0904
21.203 46.0063
21.2483 46.0597
21.2938 46.9159
21.3391 48.1581
21.3846 48.9688
21.4299 47.6243
21.4754 46.5066
21.5207 46.3962
21.5662 46.318
21.6116 46.7922
21.6571 48.5953
21.7024 50.4207
21.7479 50.5075
21.7933 49.34
21.8388 49.222
21.8843 50.4503
21.9297 52.2289
21.9752 56.6707
22.0206 62.5514
22.0661 61.9858
22.1115 55.7084
22.157 51.5452
22.2024 52.6589
22.248 53.9386
22.2933 52.7513
22.3389 49.1636
22.3843 47.0115
22.4299 46.4353
22.4753 46.3173
22.5208 46.0743
22.5662 45.9834
22.6118 46.0937
22.6572 46.5133
22.7028 47.7689
22.7483 48.8043
22.7939 49.1842
22.8393 48.4429
22.8849 47.7885
22.9303 47.5017
22.9759 48.1331
23.0214 49.6826
23.067 53.7345
23.1126 56.2635
23.1581 53.5205
23.2037 49.0248
23.2492 47.117
23.2948 47.4926
23.3403 48.7876
23.3859 49.4415
23.4314 48.9456
23.477 47.9799
23.5225 47.1689
23.5682 47.0286
23.6137 47.8988
23.6593 50.9188
23.7048 55.149
23.7505 55.4391
23.796 50.5601
23.8417 45.9185
23.8872 44.0704
23.9329 43.4511
23.9784 43.0722
24.0241 42.8015
24.0697 42.5447
24.1154 42.1815
24.1609 41.9457
24.2066 41.8112
24.2522 41.6523
24.2979 41.3673
24.3434 41.2643
24.3892 41.1452
24.4349 40.7909
24.4805 40.7115
24.5262 40.7825
24.5718 40.5001
24.6175 40.7569
24.6631 40.7946
24.7089 41.0331
24.7545 41.0002
24.8002 40.52
24.8458 40.4049
24.8916 40.2892
24.9372 40.3397
24.983 40.4789
25.0286 40.5243
25.0744 40.7494
25.12 40.9941
25.1658 41.0563
25.2114 40.8564
25.2572 41.4531
25.3029 42.1587
25.3487 41.9201
25.3943 41.3153
25.4402 41.7433
25.4858 42.9033
25.5316 42.636
25.5773 40.5842
25.6231 39.6377
25.669 38.827
25.7147 38.717
25.7605 38.6804
25.8062 38.9997
25.8521 39.1166
25.8977 38.9327
25.9436 38.7734
25.9893 38.4143
26.0352 38.3803
26.0809 38.2249
26.1268 38.4883
26.1725 38.9014
26.2184 39.8409
26.2641 40.1534
26.31 39.5778
26.3557 39.0637
26.4017 38.7607
26.4474 38.4846
26.4933 38.4379
26.5391 38.4387
26.585 38.3776
26.6308 38.3839
26.6767 38.5675
26.7225 39.1968
26.7684 40.2482
26.8142 40.47
26.8601 39.6703
26.9059 38.9622
26.9519 38.6502
26.9979 38.6551
27.0437 38.0003
27.0896 37.2535
27.1354 37.22
27.1814 36.9502
27.2272 36.9747
27.2732 36.9352
27.3191 36.6181
27.3651 36.6294
27.4109 36.375
27.4569 36.5083
27.5027 36.3814
27.5488 36.4475
27.5946 36.3977
27.6407 36.4598
27.6865 36.8899
27.7326 36.8989
27.7784 36.6341
27.8245 36.3861
27.8703 36.252
27.9164 36.1551
27.9623 35.9873
28.0084 36.129
28.0543 36.1299
28.1003 36.1208
28.1462 36.4808
28.1923 37.1964
28.2384 37.0104
28.2843 36.5917
28.3304 36.0378
28.3764 35.991
28.4225 35.7875
28.4684 35.3295
28.5145 34.5838
28.5605 34.3953
28.6066 34.2151
28.6526 34.1355
28.6987 33.9479
28.7447 33.804
28.7908 33.5826
28.8368 33.4873
28.8829 33.4475
28.9289 33.4316
28.9751 33.2576
29.0211 33.3954
29.0673 33.4319
29.1133 33.3243
29.1595 33.0365
29.2055 32.607
29.2517 32.5192
29.2977 32.3749
29.3439 32.2554
29.3899 32.2202
29.4361 31.9945
29.4824 32.1146
29.5284 32.4101
29.5746 32.3703
29.6207 32.1129
29.6669 31.7132
29.713 31.4877
29.7593 31.1477
29.8053 31.34
29.8516 31.2276
29.8977 31.1826
29.9439 30.9746
29.99 30.9522
30.0363 30.932
30.0824 30.8069
30.1287 30.7506
30.1748 30.7261
30.2211 30.662
30.2673 30.5262
30.3136 30.8161
30.3597 30.8208
30.406 30.9189
30.4522 30.6797
30.4985 30.4309
30.5447 30.4705
30.591 30.2847
30.6372 30.2003
30.6835 30.1749
30.7297 30.145
30.7761 30.2324
30.8224 30.4223
30.8686 30.583
30.915 30.5383
30.9612 30.198
31.0076 30.0365
31.0538 29.9109
31.1002 29.8318
31.1464 29.5615
31.1928 29.6121
31.2391 29.5094
31.2855 29.3648
31.3317 29.2201
31.3781 29.1693
31.4244 29.1982
31.4708 29.0089
31.5171 29.0182
31.5636 29.1898
31.6098 29.1972
31.6563 29.1918
31.7026 29.0527
31.7491 28.8309
31.7953 28.6845
31.8418 28.6159
31.8881 28.4431
31.9346 28.3907
31.9809 28.3288
32.0275 28.331
32.074 28.4244
32.1203 28.3862
32.1668 28.287
32.2132 28.1483
32.2597 28.006
32.306 27.9544
32.3526 27.6112
32.399 27.6286
32.4455 27.4023
32.4919 27.2507
32.5385 27.3135
32.5848 27.0167
32.6314 27.101
32.6778 26.9741
32.7244 26.9109
32.7708 26.7865
32.8174 26.7184
32.8638 26.5268
32.9104 26.6536
32.9569 26.6064
33.0035 26.5225
33.0499 26.3934
33.0966 26.4073
33.143 26.2558
33.1897 26.0733
33.2361 26.082
33.2828 26.1135
33.3293 26.0449
33.3759 26.062
33.4226 25.9576
33.4691 25.9228
33.5158 25.9032
33.5623 25.7569
33.609 25.457
33.6555 25.4081
33.7022 25.2202
33.7487 25.0864
33.7954 25.1442
33.842 25.0091
33.8887 24.9375
33.9353 24.9345
33.982 24.8335
34.0286 24.8196
34.0753 24.7125
34.1219 24.6519
34.1687 24.6272
34.2152 24.4533
34.262 24.2374
34.3086 24.2731
34.3554 24.172
34.402 24.0672
34.4488 24.07
34.4954 24.054
34.5422 23.9342
34.5889 23.8607
34.6357 23.7972
34.6825 23.6462
34.7292 23.5931
34.776 23.4238
34.8227 23.3667
34.8695 23.3638
34.9162 23.3669
34.9631 23.2097
35.0098 23.1995
35.0566 23.1092
35.1033 23.0805
35.1502 23.0378
35.1969 22.9549
35.2438 22.9867
35.2906 22.8257
35.3375 22.7894
35.3842 22.789
35.4311 22.6807
35.4779 22.6186
35.5248 22.5657
35.5716 22.483
35.6185 22.4222
35.6653 22.4404
35.7123 22.3949
35.759 22.3475
35.806 22.1743
35.8528 22.0388
35.8998 21.978
35.9468 21.9175
35.9936 21.8925
36.0406 21.7528
36.0874 21.8108
36.1345 21.7199
36.1813 21.6671
36.2283 21.5709
36.2752 21.4877
36.3222 21.5026
36.3691 21.4147
36.4161 21.2661
36.463 21.317
36.5101 21.2933
36.557 21.1816
36.6041 21.0277
36.651 20.9126
36.6981 20.9999
36.745 20.9624
36.7921 20.9562
36.839 20.7666
36.8861 20.6718
36.9331 20.6384
36.9802 20.5596
37.0272 20.5297
37.0743 20.4045
37.1213 20.3642
37.1684 20.2644
37.2154 20.2738
37.2626 20.1479
37.3098 20.1395
37.3568 20.0891
37.404 20.0469
37.451 19.916
37.4982 19.8705
37.5452 19.7475
37.5924 19.7408
37.6395 19.7858
37.6867 19.6532
37.7337 19.5453
37.781 19.5214
37.8281 19.4338
37.8753 19.3867
37.9224 19.3238
37.9697 19.2671
38.0168 19.1422
38.064 19.127
38.1111 19.1126
38.1584 18.9422
38.2056 18.8518
38.2529 18.909
38.3 18.7748
38.3473 18.7618
38.3945 18.6951
38.4418 18.6958
38.489 18.5845
38.5363 18.5206
38.5837 18.4593
38.6309 18.4102
38.6782 18.3228
38.7254 18.2984
38.7728 18.2807
38.82 18.1495
38.8674 18.1514
38.9146 18.0725
38.9621 18.0419
39.0093 17.9425
39.0567 17.9283
39.104 17.8709
39.1514 17.7395
39.1987 17.7157
39.2461 17.7108
39.2934 17.6323
39.3409 17.508
39.3882 17.5196
39.4356 17.4301
39.483 17.3607
39.5304 17.3045
39.5778 17.3461
39.6253 17.2334
39.6726 17.1865
39.7201 17.069
39.7675 17.102
39.815 17.0449
39.8624 16.9515
39.9099 16.9761
39.9575 16.8416
40.0049 16.8483
40.0525 16.7953
40.0999 16.7297
40.1474 16.637
40.1949 16.5716
40.2425 16.5553
40.2899 16.4987
40.3375 16.4673
40.385 16.3857
40.4326 16.2629
40.48 16.3402
40.5277 16.2746
40.5752 16.2226
40.6228 16.1107
40.6703 16.1351
40.718 16.0112
40.7655 16.013
40.8132 15.939
40.8607 15.9495
40.9084 15.8631
40.9559 15.8254
41.0036 15.7843
41.0512 15.683
41.0989 15.7057
41.1465 15.589
41.1942 15.554
41.242 15.443
41.2896 15.5032
41.3373 15.3367
41.3849 15.3417
41.4327 15.2722
41.4803 15.1967
41.5281 15.1695
41.5758 15.1154
41.6236 15.0462
41.6712 15.0576
41.7191 14.9558
41.7667 14.9118
41.8146 14.8646
41.8622 14.8385
41.9101 14.7845
41.9578 14.7169
42.0057 14.7231
42.0534 14.6279
42.1013 14.518
42.149 14.4915
42.1969 14.4701
42.2446 14.4012
42.2925 14.3709
42.3403 14.323
42.3882 14.299
42.436 14.2631
42.4839 14.1403
42.5319 14.1344
42.5797 14.1095
42.6277 14.0582
42.6755 14.0279
42.7235 13.9322
42.7713 13.9123
42.8193 13.895
42.8671 13.8121
42.9152 13.7616
42.963 13.6912
43.0111 13.6841
43.0589 13.6347
43.107 13.5603
43.1549 13.5037
43.2029 13.4353
43.2508 13.468
43.2989 13.3713
43.3468 13.3289
43.3949 13.3386
43.4429 13.2425
43.491 13.1821
43.5389 13.1525
43.5871 13.106
43.635 13.111
43.6832 12.9878
43.7312 12.9529
43.7793 12.9369
43.8273 12.8926
43.8755 12.8181
43.9237 12.8023
43.9717 12.7577
44.0199 12.7077
44.068 12.6834
44.1162 12.6346
44.1642 12.5523
44.2125 12.528
44.2606 12.5271
44.3088 12.4437
44.3569 12.3986
44.4052 12.3951
44.4533 12.2835
44.5016 12.2479
44.5497 12.2621
44.598 12.1947
44.6461 12.1596
44.6945 12.0854
44.7426 12.0814
44.791 12.0163
44.8391 12.0313
44.8875 11.9345
44.9357 11.8872
44.984 11.8805
45.0322 11.8302
45.0806 11.7681
45.1288 11.7574
45.1773 11.7104
45.2257 11.6652
45.2739 11.6108
45.3224 11.5811
45.3706 11.5235
45.4191 11.4528
45.4673 11.4583
45.5158 11.4193
45.5641 11.3478
45.6126 11.3341
45.6609 11.2479
45.7094 11.2514
45.7577 11.203
45.8063 11.1514
45.8546 11.1227
45.9031 11.0457
45.9515 11.0526
46.0001 11.0253
46.0484 11.027
46.097 10.9456
46.1454 10.8894
46.194 10.8717
46.2424 10.8049
46.291 10.76
46.3395 10.7352
46.3881 10.6577
46.4365 10.6827
46.4852 10.6164
46.5337 10.5961
46.5823 10.5481
46.631 10.4917
46.6795 10.4597
46.7282 10.4209
46.7767 10.3859
46.8254 10.3671
46.8739 10.3332
46.9226 10.265
46.9712 10.2348
47.0199 10.1938
47.0685 10.153
47.1173 10.0687
47.1658 10.0406
47.2146 10.0213
47.2632 10.0167
47.312 9.98234
47.3606 9.92878
47.4095 9.88533
47.4581 9.88238
47.5069 9.81588
47.5556 9.81447
47.6044 9.69343
47.6531 9.74211
47.702 9.65139
47.7507 9.67123
47.7996 9.59574
47.8483 9.59291
47.8972 9.56109
47.9461 9.52517
47.9948 9.45768
48.0438 9.45834
48.0925 9.41576
48.1415 9.35308
48.1902 9.33509
48.2392 9.30984
48.288 9.26698
48.337 9.26707
48.3858 9.22181
48.4348 9.17648
48.4837 9.17595
48.5327 9.11582
48.5815 9.06682
48.6306 9.06305
48.6795 9.02539
48.7285 8.98073
48.7774 8.9849
48.8265 8.91332
48.8754 8.87533
48.9245 8.85648
48.9734 8.8169
49.0226 8.78775
49.0715 8.75019
49.1206 8.71856
49.1696 8.67755
49.2188 8.65184
49.2679 8.60709
49.3169 8.58656
49.3661 8.48875
49.4151 8.51643
49.4643 8.50552
49.5134 8.51156
49.5626 8.42783
49.6117 8.42741
49.6609 8.37948
49.71 8.30389
49.7592 8.30884
49.8083 8.22598
49.8576 8.24629
49.9067 8.18184
49.956 8.19626
50.0052 8.13038
50.0545 8.13595
50.1036 8.08914
50.153 8.03507
50.2022 8.0112
50.2515 7.9996
50.3007 7.9332
50.3501 7.91618
50.3993 7.9164
50.4487 7.87614
50.498 7.82388
50.5474 7.81795
50.5966 7.79242
50.6461 7.76918
50.6955 7.7352
50.7448 7.68758
50.7943 7.68795
50.8436 7.64876
50.8931 7.60592
50.9424 7.59434
50.9919 7.54338
51.0413 7.51502
51.0908 7.49101
51.1402 7.49061
51.1897 7.40555
51.2391 7.40524
51.2887 7.36232
51.3381 7.36733
51.3877 7.32784
51.4371 7.27379
51.4867 7.23224
51.5362 7.24212
51.5858 7.21082
51.6353 7.13926
51.6849 7.10681
51.7344 7.08197
51.7841 7.0552
51.8336 7.03533
51.8833 7.03533
51.9328 6.96506
51.9826 6.95432
52.0323 6.93206
52.0818 6.9114
52.1316 6.86968
52.1812 6.84414
52.231 6.81965
52.2806 6.75932
52.3304 6.75692
52.38 6.74916
52.4298 6.72943
52.4794 6.64627
52.5293 6.61396
52.5789 6.60212
52.6288 6.58392
52.6785 6.53517
52.7284 6.52542
52.7781 6.54712
52.828 6.47104
52.8777 6.45133
52.9276 6.42371
52.9774 6.38222
53.0273 6.33852
53.0771 6.34438
53.1271 6.34247
53.1769 6.29227
53.2269 6.2706
53.2767 6.26801
53.3267 6.18841
53.3765 6.15647
53.4266 6.1617
53.4766 6.1094
53.5265 6.12064
53.5765 6.05031
53.6264 6.05624
53.6765 6.04624
53.7264 5.97281
53.7765 5.97716
53.8265 5.92621
53.8766 5.88692
53.9266 5.87199
53.9767 5.83593
54.0267 5.81792
54.0769 5.82104
54.1269 5.72884
54.1771 5.73031
54.2271 5.70132
54.2773 5.60204
54.3274 5.63259
54.3776 5.5766
54.4277 5.53785
54.478 5.51579
54.528 5.46643
54.5783 5.40862
54.6285 5.31978
54.6788 5.30148
54.7289 5.29061
54.7792 5.23842
54.8296 5.21752
54.8798 5.11612
54.9301 5.04792
54.9803 5.06111
55.0307 5.04659
55.0809 4.98216
55.1314 4.90584
55.1816 4.90152
55.232 4.90468
55.2823 4.787
55.3328 4.72182
55.383 4.67945
55.4335 4.70446
55.4838 4.64202
55.5344 4.58721
55.5847 4.57589
55.6352 4.52726
55.6856 4.5286
55.7361 4.51001