File: XRD/Ni3Fe_FD0806.xy
TT I
1.27165 7.63796
1.31627 6.7623
1.36089 6.84438
1.40551 5.44335
1.45013 6.52024
1.49476 6.24743
1.53938 5.35211
1.584 5.1472
1.62863 5.47984
1.67325 5.08415
1.71787 5.34621
1.7625 5.09179
1.80712 5.13022
1.85174 4.74266
1.89636 4.58185
1.94099 4.70436
1.98562 4.57155
2.03025 5.32532
2.07487 4.37033
2.11949 4.94889
2.16411 4.57349
2.20874 8.95055
2.25338 12.5706
2.298 5.32677
2.34263 5.48036
2.38725 6.27093
2.43188 6.31605
2.4765 6.54857
2.52115 6.83544
2.56577 8.28523
2.6104 8.74417
2.65503 8.2474
2.69965 9.15554
2.7443 8.47306
2.78893 8.32676
2.83356 8.03345
2.87818 8.62078
2.92281 8.76298
2.96744 10.2901
3.01209 10.4661
3.05672 11.2855
3.10135 12.8068
3.14599 12.6487
3.19062 14.603
3.23527 14.7881
3.2799 15.7664
3.32454 16.69
3.36917 17.6271
3.4138 18.6947
3.45844 18.9835
3.50309 20.9822
3.54773 21.171
3.59237 22.9994
3.637 54.3453
3.68164 39.2387
3.7263 25.132
3.77094 25.6678
3.81558 26.5696
3.86022 27.2154
3.90486 28.3355
3.9495 29.3254
3.99416 30.6675
4.0388 31.8815
4.08344 33.0272
4.12809 34.2755
4.17273 35.9019
4.21738 39.3615
4.26204 136.223
4.30669 117.551
4.35133 44.4849
4.39598 43.6024
4.44063 48.8299
4.4853 55.5208
4.52995 54.9327
4.5746 55.5922
4.61925 53.2098
4.6639 55.1625
4.70855 58.1712
4.75322 61.1911
4.79788 66.8849
4.84253 67.9818
4.88719 74.2407
4.93184 75.7389
4.97652 80.486
5.02118 86.888
5.06583 94.1065
5.11049 105.721
5.15515 156.554
5.19981 392.712
5.24449 2842.97
5.28916 12321.4
5.33382 2514.91
5.37848 186.971
5.42315 128.345
5.46783 116.663
5.5125 110.076
5.55716 101.451
5.60183 97.5316
5.6465 95.5639
5.69117 93.8393
5.73586 92.549
5.78053 95.9819
5.8252 95.7538
5.86988 98.1734
5.91455 94.6856
5.95924 103.849
6.00392 237.965
6.0486 975.79
6.09328 4539.56
6.13795 2987.21
6.18263 202.034
6.22733 89.4177
6.27201 79.7739
6.3167 86.285
6.36138 74.4773
6.40606 69.2798
6.45075 68.5949
6.49545 64.5275
6.54014 62.9725
6.58483 62.3213
6.62952 62.3973
6.67421 75.6624
6.71892 96.0733
6.76361 62.3282
6.8083 58.6079
6.853 59.0092
6.89769 56.4686
6.94239 56.2253
6.98711 55.3472
7.03181 55.4687
7.07651 54.7705
7.12121 54.0313
7.16591 55.4507
7.21063 54.8063
7.25533 61.7829
7.30004 108.905
7.34475 70.557
7.38945 54.7371
7.43416 53.4749
7.47889 53.5163
7.5236 53.9474
7.56831 54.2862
7.61303 55.3208
7.65774 56.251
7.70247 56.3009
7.74719 55.8709
7.79191 55.77
7.83663 56.5008
7.88135 57.2579
7.92607 58.0475
7.97081 59.1413
8.01553 60.2595
8.06026 62.0062
8.10498 63.6146
8.14971 70.747
8.19446 70.4448
8.23919 68.9149
8.28392 71.3602
8.32865 73.8673
8.37339 77.9526
8.41812 83.682
8.46288 103.958
8.50761 177.734
8.55235 386.159
8.59709 1212.38
8.64183 2177.56
8.68658 850.271
8.73134 146.562
8.77609 96.6703
8.82083 91.5974
8.86558 91.1578
8.91033 90.6888
8.9551 89.1733
8.99985 84.8007
9.04461 83.1221
9.08936 83.4856
9.13412 82.1804
9.17888 81.3917
9.22365 81.8182
9.26841 81.8009
9.31318 83.7051
9.35794 85.2674
9.4027 84.7341
9.44749 84.2556
9.49226 84.2571
9.53703 84.9608
9.5818 88.7185
9.62657 92.8363
9.67134 94.6658
9.71614 92.6103
9.76091 93.997
9.80569 98.209
9.85047 100.457
9.89525 112.888
9.94005 127.571
9.98484 189.448
10.0296 346.338
10.0744 843.589
10.1192 1820.81
10.164 1509.39
10.2088 346.329
10.2536 119.947
10.2984 108.971
10.3432 107.883
10.388 104.184
10.4328 121.851
10.4776 161.713
10.5224 293.51
10.5672 536.104
10.612 478.873
10.6568 182.704
10.7017 93.6263
10.7465 85.6703
10.7913 82.6506
10.8361 80.5759
10.8809 77.98
10.9257 77.3053
10.9706 77.5519
11.0154 74.1171
11.0602 72.3966
11.105 70.5648
11.1499 72.229
11.1947 74.9817
11.2395 69.8882
11.2844 68.1371
11.3292 66.2877
11.374 65.5566
11.4189 64.9702
11.4637 64.3686
11.5086 64.3139
11.5534 65.3219
11.5983 63.6312
11.6431 62.7629
11.688 62.5095
11.7328 62.0392
11.7777 62.1124
11.8225 62.136
11.8674 61.9738
11.9122 61.9469
11.9571 62.4618
12.002 63.83
12.0468 68.4935
12.0917 78.0318
12.1366 102.485
12.1814 158.271
12.2263 216.666
12.2712 165.577
12.3161 88.0487
12.3609 66.5706
12.4058 63.3786
12.4507 63.4803
12.4956 64.0567
12.5405 64.4365
12.5853 64.5646
12.6302 68.2527
12.6751 71.1881
12.72 68.1361
12.7649 67.1041
12.8098 67.82
12.8547 69.3307
12.8996 70.6346
12.9445 72.1724
12.9894 74.0079
13.0343 75.4316
13.0792 79.525
13.1242 91.499
13.1691 111.802
13.214 149.617
13.2589 248.499
13.3038 392.233
13.3487 414.586
13.3937 235.887
13.4386 117.978
13.4835 106.063
13.5285 120.272
13.5734 160.711
13.6183 259.082
13.6633 365.955
13.7082 329.151
13.7531 168.029
13.7981 92.8758
13.843 80.6462
13.888 78.8946
13.9329 76.3884
13.9779 75.0791
14.0228 73.5802
14.0678 72.4208
14.1127 71.9033
14.1577 71.2897
14.2027 70.3312
14.2476 69.6778
14.2926 69.5466
14.3376 69.735
14.3825 69.16
14.4275 68.3689
14.4725 67.9902
14.5175 68.1803
14.5624 68.3476
14.6074 69.4672
14.6524 70.0482
14.6974 69.9292
14.7424 72.9322
14.7874 79.5025
14.8324 88.5964
14.8774 111.993
14.9224 159.515
14.9674 218.441
15.0124 219.324
15.0574 139.035
15.1024 85.6314
15.1474 70.9574
15.1924 69.4095
15.2374 69.3284
15.2824 68.0416
15.3274 66.9299
15.3725 66.1961
15.4175 65.9715
15.4625 65.3513
15.5076 65.2362
15.5526 65.5677
15.5976 65.3681
15.6426 67.4872
15.6877 72.3995
15.7327 79.4654
15.7778 95.4382
15.8228 129.896
15.8679 177.739
15.9129 195.617
15.958 145.978
16.003 89.8838
16.0481 65.9042
16.0931 62.5909
16.1382 60.9961
16.1833 59.7073
16.2283 58.2924
16.2734 57.7651
16.3185 57.4063
16.3636 57.2451
16.4086 56.3834
16.4537 55.5473
16.4988 54.9214
16.5439 54.9246
16.589 54.4312
16.6341 54.2723
16.6792 53.8764
16.7243 54.1529
16.7694 54.2855
16.8145 54.1362
16.8596 54.4971
16.9047 55.3587
16.9498 55.3355
16.9949 54.8523
17.04 55.4327
17.0851 56.6152
17.1302 58.1146
17.1754 61.3244
17.2205 66.8728
17.2656 75.2014
17.3108 83.5677
17.3559 80.5868
17.401 68.3561
17.4462 60.7661
17.4913 58.6415
17.5365 58.6035
17.5815 58.645
17.6268 59.0818
17.6718 59.7386
17.7171 60.0257
17.7622 60.864
17.8074 61.6624
17.8525 64.717
17.8977 68.1369
17.9428 73.288
17.9881 83.0268
18.0331 101.72
18.0784 125.363
18.1237 141.09
18.1688 127.286
18.214 98.77
18.2591 84.7624
18.3044 91.7077
18.3495 101.999
18.3948 105.491
18.4399 92.1657
18.4852 74.1642
18.5303 64.4148
18.5756 61.3519
18.6207 60.5581
18.666 59.7553
18.7112 58.9478
18.7565 58.3055
18.8016 57.94
18.8469 57.4454
18.892 57.2336
18.9374 56.6437
18.9825 56.4737
19.0278 56.2574
19.073 56.5214
19.1183 56.6672
19.1635 57.4115
19.2088 58.7719
19.254 61.6753
19.2993 66.6852
19.3447 72.4107
19.3898 75.5728
19.4352 70.0287
19.4804 60.9864
19.5257 55.5071
19.5709 53.5851
19.6163 53.215
19.6615 53.2001
19.7068 52.7463
19.752 53.002
19.7974 53.2383
19.8426 53.8044
19.888 54.2488
19.9332 55.7386
19.9786 58.7011
20.0238 62.6565
20.0692 67.847
20.1144 69.5189
20.1598 67.0333
20.205 62.2098
20.2504 61.6934
20.2957 63.9975
20.3411 65.3856
20.3863 62.6934
20.4318 56.618
20.477 52.6583
20.5224 50.58
20.5677 50.1423
20.6131 49.7217
20.6586 49.1484
20.7038 48.9891
20.7493 48.4896
20.7945 48.6072
20.84 48.4127
20.8853 48.2904
20.9307 48.1411
20.976 48.3883
21.0215 47.9357
21.0668 48.4379
21.1122 49.1053
21.1575 49.7473
21.203 50.5729
21.2483 51.178
21.2938 50.8259
21.3391 49.3598
21.3846 48.3732
21.4299 48.0218
21.4754 47.9965
21.5207 48.2024
21.5662 48.4652
21.6116 48.9329
21.6571 49.5152
21.7024 50.4842
21.7479 52.4407
21.7933 55.4506
21.8388 59.2579
21.8843 63.0735
21.9297 64.3241
21.9752 61.8298
22.0206 58.1101
22.0661 55.8218
22.1115 55.9114
22.157 55.3451
22.2024 53.1054
22.248 50.4991
22.2933 49.2427
22.3389 48.4094
22.3843 48.3597
22.4299 48.2917
22.4753 48.1918
22.5208 47.8911
22.5662 48.1544
22.6118 48.3226
22.6572 48.6474
22.7028 48.8641
22.7483 49.2544
22.7939 50.0336
22.8393 51.6925
22.8849 54.0759
22.9303 56.1441
22.9759 57.4466
23.0214 56.6146
23.067 53.3256
23.1126 50.191
23.1581 48.5371
23.2037 48.3928
23.2492 48.3575
23.2948 48.4199
23.3403 48.6263
23.3859 49.3624
23.4314 50.5897
23.477 52.4267
23.5225 54.8507
23.5682 57.114
23.6137 57.6278
23.6593 54.3564
23.7048 50.2108
23.7505 47.431
23.796 45.895
23.8417 45.279
23.8872 45.1176
23.9329 44.7662
23.9784 44.4478
24.0241 44.0545
24.0697 43.9857
24.1154 43.6424
24.1609 43.4855
24.2066 43.3411
24.2522 43.2102
24.2979 42.9229
24.3434 42.8693
24.3892 42.8356
24.4349 42.6323
24.4805 42.5468
24.5262 42.7405
24.5718 42.5505
24.6175 42.4429
24.6631 42.4782
24.7089 41.9797
24.7545 41.9953
24.8002 41.8667
24.8458 41.8132
24.8916 41.4497
24.9372 41.8669
24.983 42.2108
25.0286 42.5275
25.0744 42.9072
25.12 43.484
25.1658 43.8919
25.2114 44.2011
25.2572 44.2494
25.3029 44.4306
25.3487 44.4982
25.3943 43.9587
25.4402 42.9566
25.4858 41.783
25.5316 40.9053
25.5773 40.5093
25.6231 40.4645
25.669 40.1572
25.7147 40.2374
25.7605 39.9871
25.8062 40.0719
25.8521 40.0947
25.8977 40.2472
25.9436 40.4501
25.9893 40.5609
26.0352 41.0667
26.0809 41.2019
26.1268 41.2939
26.1725 40.9204
26.2184 40.2993
26.2641 39.7672
26.31 39.7041
26.3557 39.7249
26.4017 39.6868
26.4474 39.9932
26.4933 40.4417
26.5391 40.8775
26.585 41.3443
26.6308 41.8043
26.6767 41.7284
26.7225 41.4243
26.7684 40.8834
26.8142 40.3131
26.8601 40.0844
26.9059 39.588
26.9519 39.0235
26.9979 38.8422
27.0437 38.4598
27.0896 38.39
27.1354 38.3911
27.1814 38.2035
27.2272 38.3203
27.2732 38.094
27.3191 37.9585
27.3651 37.9819
27.4109 37.97
27.4569 38.1276
27.5027 38.1916
27.5488 38.2516
27.5946 37.9897
27.6407 37.8508
27.6865 37.7461
27.7326 37.4271
27.7784 37.4647
27.8245 37.4416
27.8703 37.5959
27.9164 37.8376
27.9623 38.068
28.0084 38.5909
28.0543 38.7924
28.1003 38.6144
28.1462 38.3445
28.1923 38.1113
28.2384 37.5053
28.2843 37.2286
28.3304 36.7162
28.3764 36.2757
28.4225 35.859
28.4684 35.7799
28.5145 35.5155
28.5605 35.3159
28.6066 35.2961
28.6526 35.3389
28.6987 35.281
28.7447 35.1431
28.7908 35.163
28.8368 35.033
28.8829 35.1514
28.9289 34.9477
28.9751 34.7447
29.0211 34.5405
29.0673 34.3546
29.1133 34.2441
29.1595 34.2057
29.2055 33.9681
29.2517 34.0136
29.2977 33.8769
29.3439 33.9764
29.3899 33.9881
29.4361 33.7699
29.4824 33.636
29.5284 33.3629
29.5746 33.0702
29.6207 32.8385
29.6669 32.6326
29.713 32.5312
29.7593 32.5668
29.8053 32.5675
29.8516 32.5509
29.8977 32.4458
29.9439 32.1983
29.99 32.1938
30.0363 32.1329
30.0824 32.2285
30.1287 32.0926
30.1748 32.1676
30.2211 32.1035
30.2673 31.9926
30.3136 32.0277
30.3597 31.7937
30.406 31.7901
30.4522 31.7754
30.4985 31.743
30.5447 31.942
30.591 31.8191
30.6372 31.9024
30.6835 31.8769
30.7297 31.8473
30.7761 31.8211
30.8224 31.6463
30.8686 31.5739
30.915 31.2495
30.9612 31.1561
31.0076 30.9761
31.0538 30.8774
31.1002 30.8804
31.1464 30.5207
31.1928 30.6699
31.2391 30.6179
31.2855 30.5528
31.3317 30.5803
31.3781 30.6583
31.4244 30.6605
31.4708 30.5739
31.5171 30.4943
31.5636 30.4194
31.6098 30.2294
31.6563 30.0058
31.7026 29.8808
31.7491 29.7779
31.7953 29.8823
31.8418 29.9102
31.8881 29.8164
31.9346 29.7712
31.9809 29.6573
32.0275 29.5662
32.074 29.4852
32.1203 29.2607
32.1668 29.2409
32.2132 29.0625
32.2597 29.052
32.306 28.8419
32.3526 28.7268
32.399 28.6132
32.4455 28.5014
32.4919 28.403
32.5385 28.4069
32.5848 28.3008
32.6314 28.1891
32.6778 28.1292
32.7244 27.9808
32.7708 27.8
32.8174 27.8925
32.8638 27.7619
32.9104 27.7917
32.9569 27.7078
33.0035 27.5081
33.0499 27.5872
33.0966 27.555
33.143 27.5247
33.1897 27.5149
33.2361 27.4155
33.2828 27.2036
33.3293 27.131
33.3759 27.076
33.4226 26.9003
33.4691 26.7696
33.5158 26.8405
33.5623 26.714
33.609 26.4705
33.6555 26.4405
33.7022 26.3688
33.7487 26.2878
33.7954 26.265
33.842 26.0771
33.8887 26.0443
33.9353 25.9989
33.982 25.8582
34.0286 25.7491
34.0753 25.6558
34.1219 25.7566
34.1687 25.5556
34.2152 25.5787
34.262 25.4188
34.3086 25.3145
34.3554 25.2681
34.402 25.1813
34.4488 25.0692
34.4954 24.9638
34.5422 24.907
34.5889 24.7726
34.6357 24.6467
34.6825 24.6428
34.7292 24.5953
34.776 24.5139
34.8227 24.4124
34.8695 24.3769
34.9162 24.2907
34.9631 24.2528
35.0098 24.2687
35.0566 24.1203
35.1033 23.9946
35.1502 24.0607
35.1969 23.909
35.2438 23.9567
35.2906 23.8678
35.3375 23.8016
35.3842 23.8631
35.4311 23.7345
35.4779 23.7234
35.5248 23.6528
35.5716 23.5724
35.6185 23.4845
35.6653 23.3378
35.7123 23.2574
35.759 23.3066
35.806 23.0883
35.8528 23.0465
35.8998 22.9843
35.9468 22.8635
35.9936 22.9034
36.0406 22.73
36.0874 22.7323
36.1345 22.7122
36.1813 22.546
36.2283 22.4675
36.2752 22.3927
36.3222 22.4356
36.3691 22.3824
36.4161 22.3255
36.463 22.201
36.5101 22.2189
36.557 22.1501
36.6041 21.9404
36.651 21.9817
36.6981 21.9519
36.745 21.8652
36.7921 21.7561
36.839 21.7266
36.8861 21.648
36.9331 21.559
36.9802 21.4121
37.0272 21.3546
37.0743 21.3113
37.1213 21.2519
37.1684 21.2226
37.2154 21.0905
37.2626 21.036
37.3098 20.9722
37.3568 20.9334
37.404 20.8517
37.451 20.6685
37.4982 20.777
37.5452 20.6311
37.5924 20.5981
37.6395 20.6148
37.6867 20.4918
37.7337 20.483
37.781 20.3193
37.8281 20.3103
37.8753 20.1813
37.9224 20.132
37.9697 20.0828
38.0168 19.9489
38.064 19.9512
38.1111 19.875
38.1584 19.8196
38.2056 19.735
38.2529 19.7566
38.3 19.6554
38.3473 19.6057
38.3945 19.4278
38.4418 19.4927
38.489 19.3477
38.5363 19.2637
38.5837 19.2199
38.6309 19.2152
38.6782 19.0897
38.7254 19.0
38.7728 19.0169
38.82 18.9222
38.8674 18.8995
38.9146 18.8415
38.9621 18.7131
39.0093 18.7873
39.0567 18.605
39.104 18.5905
39.1514 18.5614
39.1987 18.5083
39.2461 18.4797
39.2934 18.4082
39.3409 18.3124
39.3882 18.1818
39.4356 18.2007
39.483 18.1472
39.5304 18.0524
39.5778 18.013
39.6253 17.9869
39.6726 18.0096
39.7201 17.8999
39.7675 17.8149
39.815 17.7147
39.8624 17.6707
39.9099 17.6547
39.9575 17.5485
40.0049 17.4976
40.0525 17.4171
40.0999 17.444
40.1474 17.3423
40.1949 17.3082
40.2425 17.2819
40.2899 17.1981
40.3375 17.1074
40.385 17.0752
40.4326 17.0386
40.48 16.9501
40.5277 16.9472
40.5752 16.8946
40.6228 16.762
40.6703 16.7279
40.718 16.6933
40.7655 16.6614
40.8132 16.5161
40.8607 16.5845
40.9084 16.5357
40.9559 16.3945
41.0036 16.4077
41.0512 16.3478
41.0989 16.2937
41.1465 16.2346
41.1942 16.156
41.242 16.0923
41.2896 16.0796
41.3373 16.0322
41.3849 16.0082
41.4327 15.8817
41.4803 15.7791
41.5281 15.7986
41.5758 15.7049
41.6236 15.6944
41.6712 15.622
41.7191 15.5678
41.7667 15.4699
41.8146 15.5656
41.8622 15.4123
41.9101 15.3932
41.9578 15.304
42.0057 15.2897
42.0534 15.2397
42.1013 15.1021
42.149 15.1281
42.1969 15.1001
42.2446 15.057
42.2925 14.9667
42.3403 14.906
42.3882 14.8803
42.436 14.7892
42.4839 14.7397
42.5319 14.7544
42.5797 14.6748
42.6277 14.6235
42.6755 14.5716
42.7235 14.5089
42.7713 14.4965
42.8193 14.4213
42.8671 14.3796
42.9152 14.3213
42.963 14.241
43.0111 14.2284
43.0589 14.2117
43.107 14.0953
43.1549 14.0544
43.2029 14.0472
43.2508 14.0205
43.2989 13.9366
43.3468 13.8796
43.3949 13.8634
43.4429 13.7286
43.491 13.7806
43.5389 13.6837
43.5871 13.6959
43.635 13.641
43.6832 13.5723
43.7312 13.5184
43.7793 13.4012
43.8273 13.424
43.8755 13.3773
43.9237 13.293
43.9717 13.3132
44.0199 13.2206
44.068 13.2222
44.1162 13.1074
44.1642 13.069
44.2125 13.0718
44.2606 12.9902
44.3088 12.9229
44.3569 12.8921
44.4052 12.9201
44.4533 12.8107
44.5016 12.762
44.5497 12.779
44.598 12.7032
44.6461 12.6517
44.6945 12.5985
44.7426 12.5294
44.791 12.4935
44.8391 12.468
44.8875 12.4223
44.9357 12.3817
44.984 12.33
45.0322 12.2575
45.0806 12.2549
45.1288 12.1692
45.1773 12.1988
45.2257 12.0748
45.2739 12.0539
45.3224 12.0276
45.3706 12.0162
45.4191 11.9248
45.4673 11.93
45.5158 11.8749
45.5641 11.7918
45.6126 11.783
45.6609 11.7206
45.7094 11.6915
45.7577 11.6423
45.8063 11.57
45.8546 11.5682
45.9031 11.5018
45.9515 11.4924
46.0001 11.4417
46.0484 11.4323
46.097 11.3558
46.1454 11.3533
46.194 11.2971
46.2424 11.2585
46.291 11.1683
46.3395 11.1456
46.3881 11.1225
46.4365 11.1346
46.4852 11.0483
46.5337 10.9748
46.5823 10.9952
46.631 10.8971
46.6795 10.9071
46.7282 10.8206
46.7767 10.8234
46.8254 10.7372
46.8739 10.7419
46.9226 10.6566
46.9712 10.6538
47.0199 10.6133
47.0685 10.5567
47.1173 10.5546
47.1658 10.5181
47.2146 10.457
47.2632 10.4061
47.312 10.375
47.3606 10.3739
47.4095 10.2698
47.4581 10.2992
47.5069 10.2595
47.5556 10.137
47.6044 10.1523
47.6531 10.062
47.702 10.053
47.7507 10.0057
47.7996 9.985
47.8483 9.96568
47.8972 9.92322
47.9461 9.90112
47.9948 9.84633
48.0438 9.81884
48.0925 9.8044
48.1415 9.73944
48.1902 9.68776
48.2392 9.72623
48.288 9.68296
48.337 9.59229
48.3858 9.51485
48.4348 9.51719
48.4837 9.51552
48.5327 9.45746
48.5815 9.43199
48.6306 9.44069
48.6795 9.3505
48.7285 9.32783
48.7774 9.31085
48.8265 9.27753
48.8754 9.20138
48.9245 9.16007
48.9734 9.13971
49.0226 9.09435
49.0715 9.07396
49.1206 9.04415
49.1696 9.00953
49.2188 8.97886
49.2679 8.95645
49.3169 8.90724
49.3661 8.85961
49.4151 8.82878
49.4643 8.8198
49.5134 8.78807
49.5626 8.69552
49.6117 8.7327
49.6609 8.66221
49.71 8.61837
49.7592 8.63461
49.8083 8.53265
49.8576 8.56102
49.9067 8.49899
49.956 8.4644
50.0052 8.45223
50.0545 8.41116
50.1036 8.37064
50.153 8.32466
50.2022 8.33839
50.2515 8.27875
50.3007 8.21858
50.3501 8.2397
50.3993 8.19369
50.4487 8.11582
50.498 8.11578
50.5474 8.0707
50.5966 8.07728
50.6461 8.01923
50.6955 8.03429
50.7448 7.96621
50.7943 7.92602
50.8436 7.9156
50.8931 7.8953
50.9424 7.86691
50.9919 7.80311
51.0413 7.80582
51.0908 7.7814
51.1402 7.71563
51.1897 7.66628
51.2391 7.67018
51.2887 7.6417
51.3381 7.60106
51.3877 7.56244
51.4371 7.53003
51.4867 7.50744
51.5362 7.50403
51.5858 7.44953
51.6353 7.44893
51.6849 7.35879
51.7344 7.34247
51.7841 7.33032
51.8336 7.26556
51.8833 7.26114
51.9328 7.23284
51.9826 7.21246
52.0323 7.17237
52.0818 7.13521
52.1316 7.10329
52.1812 7.067
52.231 7.07427
52.2806 7.03651
52.3304 6.98513
52.38 6.96196
52.4298 6.90667
52.4794 6.89235
52.5293 6.87725
52.5789 6.83585
52.6288 6.84499
52.6785 6.78026
52.7284 6.75876
52.7781 6.7273
52.828 6.70209
52.8777 6.71834
52.9276 6.65987
52.9774 6.67647
53.0273 6.62128
53.0771 6.57709
53.1271 6.5449
53.1769 6.52614
53.2269 6.47978
53.2767 6.46144
53.3267 6.39984
53.3765 6.37878
53.4266 6.40166
53.4766 6.34368
53.5265 6.33697
53.5765 6.29351
53.6264 6.27847
53.6765 6.26849
53.7264 6.22623
53.7765 6.22021
53.8265 6.12994
53.8766 6.11189
53.9266 6.0993
53.9767 6.09449
54.0267 6.06931
54.0769 6.00853
54.1269 5.99631
54.1771 5.9519
54.2271 5.93182
54.2773 5.87118
54.3274 5.88071
54.3776 5.85811
54.4277 5.83708
54.478 5.77656
54.528 5.74265
54.5783 5.69095
54.6285 5.64598
54.6788 5.66199
54.7289 5.58215
54.7792 5.53207
54.8296 5.48973
54.8798 5.46255
54.9301 5.42319
54.9803 5.3656
55.0307 5.38915
55.0809 5.30473
55.1314 5.22683
55.1816 5.24769
55.232 5.19613
55.2823 5.16632
55.3328 5.09965
55.383 5.09555
55.4335 5.00967
55.4838 4.92692
55.5344 4.88457
55.5847 4.86382
55.6352 4.85732
55.6856 4.81537
55.7361 4.72457