File: XRD/Ni3Fe_FD0654.xy
TT I
1.27165 7.07752
1.31627 6.56453
1.36089 6.81082
1.40551 6.89482
1.45013 6.33279
1.49476 6.0079
1.53938 6.42624
1.584 5.36324
1.62863 5.13171
1.67325 5.09991
1.71787 5.69849
1.7625 4.85064
1.80712 5.03525
1.85174 4.60842
1.89636 4.71991
1.94099 5.31692
1.98562 4.77688
2.03025 4.53224
2.07487 4.48642
2.11949 5.49049
2.16411 5.03026
2.20874 16.6029
2.25338 29.9359
2.298 6.68556
2.34263 5.81588
2.38725 6.07559
2.43188 6.46081
2.4765 6.99032
2.52115 7.18908
2.56577 7.87634
2.6104 8.39123
2.65503 7.53217
2.69965 8.3151
2.7443 8.32462
2.78893 7.86644
2.83356 8.6346
2.87818 8.86665
2.92281 8.92028
2.96744 10.1816
3.01209 10.3692
3.05672 10.4933
3.10135 12.4461
3.14599 12.9787
3.19062 14.0545
3.23527 15.0918
3.2799 15.6869
3.32454 16.9542
3.36917 17.7112
3.4138 19.2062
3.45844 19.9197
3.50309 20.7599
3.54773 22.4062
3.59237 24.985
3.637 117.653
3.68164 73.8087
3.7263 26.7025
3.77094 26.6883
3.81558 27.5533
3.86022 27.8283
3.90486 29.4673
3.9495 29.8952
3.99416 31.285
4.0388 32.6644
4.08344 34.2832
4.12809 35.1864
4.17273 37.2592
4.21738 44.6656
4.26204 323.545
4.30669 293.402
4.35133 51.3458
4.39598 45.1556
4.44063 57.0546
4.4853 72.4682
4.52995 51.0343
4.5746 51.2032
4.61925 53.5105
4.6639 55.0765
4.70855 58.1345
4.75322 60.445
4.79788 62.9829
4.84253 67.1084
4.88719 70.6282
4.93184 74.2767
4.97652 79.9168
5.02118 86.004
5.06583 93.3346
5.11049 104.418
5.15515 188.419
5.19981 326.543
5.24449 2561.01
5.28916 12699.0
5.33382 3248.59
5.37848 197.478
5.42315 130.533
5.46783 113.979
5.5125 105.981
5.55716 102.066
5.60183 98.5815
5.6465 96.9177
5.69117 93.9814
5.73586 91.5353
5.78053 91.2303
5.8252 90.8333
5.86988 91.2935
5.91455 92.9007
5.95924 99.4571
6.00392 184.521
6.0486 880.345
6.09328 4270.15
6.13795 3521.99
6.18263 268.43
6.22733 94.975
6.27201 84.2249
6.3167 112.814
6.36138 84.8272
6.40606 69.3138
6.45075 67.4419
6.49545 65.6078
6.54014 64.335
6.58483 63.6014
6.62952 63.4753
6.67421 104.356
6.71892 178.913
6.76361 73.6787
6.8083 59.1835
6.853 58.1349
6.89769 57.5315
6.94239 56.9302
6.98711 56.252
7.03181 56.4706
7.07651 56.0169
7.12121 55.6913
7.16591 56.3399
7.21063 56.817
7.25533 74.8211
7.30004 228.167
7.34475 108.368
7.38945 57.9451
7.43416 55.3095
7.47889 55.0855
7.5236 54.9269
7.56831 55.7916
7.61303 58.1864
7.65774 58.5416
7.70247 56.6742
7.74719 56.4951
7.79191 56.9512
7.83663 57.2017
7.88135 58.2437
7.92607 58.9117
7.97081 60.1828
8.01553 60.9669
8.06026 62.3524
8.10498 64.1447
8.14971 76.3492
8.19446 74.8918
8.23919 69.4685
8.28392 71.7628
8.32865 73.8916
8.37339 77.782
8.41812 85.7288
8.46288 122.114
8.50761 155.577
8.55235 356.946
8.59709 1069.11
8.64183 2170.52
8.68658 1052.88
8.73134 180.753
8.77609 100.469
8.82083 93.2337
8.86558 89.6244
8.91033 90.5083
8.9551 94.0223
8.99985 85.6502
9.04461 83.3848
9.08936 82.6181
9.13412 81.8905
9.17888 81.9787
9.22365 83.0081
9.26841 81.8659
9.31318 82.2844
9.35794 82.8979
9.4027 82.8555
9.44749 83.7892
9.49226 84.4588
9.53703 85.1939
9.5818 86.8134
9.62657 92.8086
9.67134 101.937
9.71614 94.4239
9.76091 93.9229
9.80569 96.0081
9.85047 99.5307
9.89525 129.974
9.94005 145.593
9.98484 165.384
10.0296 313.144
10.0744 737.976
10.1192 1657.58
10.164 1691.52
10.2088 458.501
10.2536 132.5
10.2984 115.893
10.3432 119.971
10.388 106.064
10.4328 114.199
10.4776 152.127
10.5224 260.623
10.5672 483.437
10.612 532.415
10.6568 222.194
10.7017 99.4947
10.7465 86.8034
10.7913 83.348
10.8361 81.089
10.8809 79.3559
10.9257 79.0739
10.9706 80.642
11.0154 75.19
11.0602 73.0844
11.105 72.0963
11.1499 78.4876
11.1947 89.6461
11.2395 77.6075
11.2844 71.6262
11.3292 67.6063
11.374 66.267
11.4189 65.8472
11.4637 65.2191
11.5086 65.8355
11.5534 70.4201
11.5983 66.8973
11.6431 63.8533
11.688 63.0261
11.7328 62.9926
11.7777 63.4646
11.8225 62.8766
11.8674 62.6497
11.9122 62.7233
11.9571 63.0181
12.002 63.4772
12.0468 66.9304
12.0917 77.8596
12.1366 100.31
12.1814 145.072
12.2263 202.775
12.2712 176.327
12.3161 104.939
12.3609 73.4589
12.4058 65.698
12.4507 64.5019
12.4956 64.6997
12.5405 65.0675
12.5853 65.9221
12.6302 76.0188
12.6751 84.3078
12.72 71.9254
12.7649 68.1809
12.8098 68.4538
12.8547 69.6639
12.8996 70.7645
12.9445 72.146
12.9894 73.8916
13.0343 75.3978
13.0792 78.3418
13.1242 85.5787
13.1691 108.566
13.214 142.417
13.2589 222.544
13.3038 352.93
13.3487 439.152
13.3937 287.952
13.4386 131.21
13.4835 104.341
13.5285 116.627
13.5734 150.966
13.6183 232.363
13.6633 335.792
13.7082 351.865
13.7531 201.196
13.7981 100.806
13.843 82.2684
13.888 79.6746
13.9329 77.2063
13.9779 76.0104
14.0228 74.4353
14.0678 73.1659
14.1127 72.8079
14.1577 72.9904
14.2027 72.0199
14.2476 70.7046
14.2926 70.6332
14.3376 72.6813
14.3825 70.889
14.4275 69.0036
14.4725 68.7563
14.5175 68.9525
14.5624 69.0741
14.6074 71.989
14.6524 72.784
14.6974 70.6381
14.7424 71.1245
14.7874 77.0831
14.8324 86.4629
14.8774 105.893
14.9224 145.671
14.9674 199.111
15.0124 221.478
15.0574 158.178
15.1024 94.7485
15.1474 73.1364
15.1924 71.0179
15.2374 72.3
15.2824 71.2321
15.3274 68.5977
15.3725 67.0286
15.4175 66.3497
15.4625 66.1519
15.5076 66.6047
15.5526 66.5391
15.5976 65.7353
15.6426 66.3272
15.6877 70.831
15.7327 78.0428
15.7778 91.6412
15.8228 120.175
15.8679 162.549
15.9129 195.364
15.958 165.511
16.003 103.526
16.0481 69.6777
16.0931 65.9906
16.1382 63.9098
16.1833 61.1754
16.2283 59.2028
16.2734 58.6303
16.3185 59.3157
16.3636 60.6374
16.4086 58.8418
16.4537 56.5084
16.4988 55.8703
16.5439 55.7003
16.589 55.5089
16.6341 54.9716
16.6792 54.5338
16.7243 55.018
16.7694 55.1341
16.8145 54.8845
16.8596 55.613
16.9047 57.4171
16.9498 57.9294
16.9949 56.2037
17.04 55.7522
17.0851 56.7921
17.1302 58.3956
17.1754 61.1363
17.2205 65.7714
17.2656 73.0762
17.3108 82.2801
17.3559 83.6206
17.401 72.5698
17.4462 62.8204
17.4913 59.276
17.5365 59.0864
17.5815 59.4379
17.6268 59.7142
17.6718 60.4461
17.7171 61.0725
17.7622 61.2049
17.8074 61.6566
17.8525 63.6456
17.8977 67.3233
17.9428 72.4627
17.9881 80.3681
18.0331 95.9505
18.0784 117.331
18.1237 138.266
18.1688 135.031
18.214 106.664
18.2591 86.6092
18.3044 88.5827
18.3495 98.7555
18.3948 106.634
18.4399 99.5907
18.4852 79.885
18.5303 66.9065
18.5756 62.4865
18.6207 61.4052
18.666 60.5459
18.7112 59.7036
18.7565 58.9164
18.8016 58.8268
18.8469 58.2188
18.892 57.806
18.9374 57.469
18.9825 57.2488
19.0278 57.2584
19.073 57.0563
19.1183 57.5715
19.1635 58.338
19.2088 59.5735
19.254 61.4535
19.2993 65.7757
19.3447 71.8643
19.3898 77.2178
19.4352 74.0272
19.4804 64.8253
19.5257 57.2349
19.5709 54.3955
19.6163 54.0338
19.6615 53.8698
19.7068 53.545
19.752 53.3532
19.7974 53.6005
19.8426 54.4098
19.888 55.2401
19.9332 55.9325
19.9786 58.1628
20.0238 61.5758
20.0692 66.4627
20.1144 69.8742
20.1598 68.9596
20.205 63.9304
20.2504 62.0005
20.2957 63.3902
20.3411 65.6019
20.3863 64.8898
20.4318 59.5927
20.477 54.3463
20.5224 52.0947
20.5677 51.4727
20.6131 50.5182
20.6586 49.8561
20.7038 49.6249
20.7493 49.2531
20.7945 49.2495
20.84 49.0179
20.8853 48.7983
20.9307 48.5574
20.976 48.554
21.0215 48.9326
21.0668 49.1049
21.1122 49.5057
21.1575 49.9087
21.203 50.7529
21.2483 51.3987
21.2938 51.8211
21.3391 50.3178
21.3846 49.2405
21.4299 48.6258
21.4754 48.4858
21.5207 48.5498
21.5662 48.7799
21.6116 49.0697
21.6571 49.7573
21.7024 50.631
21.7479 52.4123
21.7933 54.868
21.8388 58.1326
21.8843 62.041
21.9297 64.6219
21.9752 64.0816
22.0206 60.423
22.0661 56.7923
22.1115 56.3163
22.157 56.4849
22.2024 54.7583
22.248 52.1396
22.2933 50.0918
22.3389 49.2945
22.3843 49.1093
22.4299 49.2857
22.4753 49.1749
22.5208 48.6968
22.5662 48.7029
22.6118 48.8472
22.6572 48.8435
22.7028 49.2747
22.7483 49.755
22.7939 50.2809
22.8393 51.5929
22.8849 53.5574
22.9303 55.8445
22.9759 57.8609
23.0214 58.2303
23.067 55.3369
23.1126 51.7402
23.1581 49.6419
23.2037 48.8796
23.2492 48.8953
23.2948 49.0013
23.3403 49.1576
23.3859 49.6471
23.4314 50.6263
23.477 52.2981
23.5225 54.3124
23.5682 56.6671
23.6137 58.2678
23.6593 56.5781
23.7048 52.565
23.7505 48.7952
23.796 46.9741
23.8417 46.1295
23.8872 45.7611
23.9329 45.2503
23.9784 44.9305
24.0241 44.8654
24.0697 44.7067
24.1154 44.3253
24.1609 44.1411
24.2066 44.1429
24.2522 43.9787
24.2979 43.5558
24.3434 43.4806
24.3892 43.3967
24.4349 43.3763
24.4805 43.0214
24.5262 43.1637
24.5718 43.0399
24.6175 43.0126
24.6631 42.9782
24.7089 42.665
24.7545 42.5773
24.8002 42.4626
24.8458 42.2151
24.8916 42.1487
24.9372 42.2233
24.983 42.4652
25.0286 42.8494
25.0744 43.3277
25.12 43.7324
25.1658 44.4013
25.2114 44.6586
25.2572 44.7429
25.3029 44.9379
25.3487 45.1042
25.3943 44.937
25.4402 43.9405
25.4858 42.8935
25.5316 41.7217
25.5773 41.1388
25.6231 41.0763
25.669 40.7716
25.7147 40.6357
25.7605 40.5906
25.8062 40.6717
25.8521 40.6605
25.8977 40.7906
25.9436 40.9152
25.9893 40.9774
26.0352 41.5341
26.0809 41.6383
26.1268 41.8134
26.1725 41.6417
26.2184 40.9735
26.2641 40.467
26.31 40.1956
26.3557 40.2606
26.4017 40.2683
26.4474 40.5024
26.4933 40.7723
26.5391 41.2213
26.585 41.701
26.6308 42.0847
26.6767 42.3333
26.7225 42.1955
26.7684 41.6135
26.8142 41.0627
26.8601 40.5219
26.9059 40.2412
26.9519 39.7188
26.9979 39.3653
27.0437 39.0055
27.0896 38.8773
27.1354 38.7851
27.1814 38.7474
27.2272 38.6989
27.2732 38.6772
27.3191 38.4797
27.3651 38.5553
27.4109 38.4453
27.4569 38.5806
27.5027 38.5983
27.5488 38.6698
27.5946 38.5033
27.6407 38.2063
27.6865 38.1763
27.7326 37.9611
27.7784 37.9821
27.8245 37.8959
27.8703 38.0757
27.9164 38.3193
27.9623 38.3579
28.0084 38.6194
28.0543 39.1885
28.1003 39.1275
28.1462 39.0072
28.1923 38.6449
28.2384 38.2159
28.2843 37.8592
28.3304 37.3832
28.3764 36.9708
28.4225 36.5636
28.4684 36.4424
28.5145 36.1435
28.5605 36.0912
28.6066 35.6739
28.6526 35.7917
28.6987 35.7443
28.7447 35.6369
28.7908 35.6223
28.8368 35.499
28.8829 35.5056
28.9289 35.5271
28.9751 35.2724
29.0211 35.0942
29.0673 34.8417
29.1133 34.7724
29.1595 34.4676
29.2055 34.4197
29.2517 34.4303
29.2977 34.3997
29.3439 34.3408
29.3899 34.3189
29.4361 34.2027
29.4824 34.1221
29.5284 33.9604
29.5746 33.5375
29.6207 33.2694
29.6669 33.1429
29.713 32.9131
29.7593 32.9852
29.8053 33.0595
29.8516 32.9425
29.8977 32.8376
29.9439 32.7054
29.99 32.729
30.0363 32.5257
30.0824 32.686
30.1287 32.5445
30.1748 32.5161
30.2211 32.5181
30.2673 32.4342
30.3136 32.5068
30.3597 32.3806
30.406 32.2714
30.4522 32.2624
30.4985 32.1501
30.5447 32.2157
30.591 32.2255
30.6372 32.2347
30.6835 32.1979
30.7297 32.3147
30.7761 32.2836
30.8224 32.1133
30.8686 31.9929
30.915 31.7774
30.9612 31.6791
31.0076 31.4216
31.0538 31.3161
31.1002 31.213
31.1464 30.945
31.1928 30.9267
31.2391 31.0636
31.2855 30.9487
31.3317 31.026
31.3781 31.0584
31.4244 30.9868
31.4708 30.9301
31.5171 30.9424
31.5636 30.9014
31.6098 30.6628
31.6563 30.531
31.7026 30.3951
31.7491 30.2654
31.7953 30.2612
31.8418 30.2511
31.8881 30.2262
31.9346 30.1051
31.9809 30.138
32.0275 30.0893
32.074 30.0273
32.1203 29.8201
32.1668 29.6515
32.2132 29.4877
32.2597 29.329
32.306 29.2725
32.3526 29.1818
32.399 29.1052
32.4455 28.9241
32.4919 28.7818
32.5385 28.8168
32.5848 28.6526
32.6314 28.5554
32.6778 28.5707
32.7244 28.4087
32.7708 28.3028
32.8174 28.2674
32.8638 28.1227
32.9104 28.1154
32.9569 28.0839
33.0035 27.9718
33.0499 27.9764
33.0966 27.8957
33.143 27.8437
33.1897 27.7706
33.2361 27.6049
33.2828 27.686
33.3293 27.5299
33.3759 27.5147
33.4226 27.3173
33.4691 27.3132
33.5158 27.1929
33.5623 26.9724
33.609 26.8522
33.6555 26.7623
33.7022 26.7382
33.7487 26.6811
33.7954 26.5991
33.842 26.4627
33.8887 26.4447
33.9353 26.4347
33.982 26.1852
34.0286 26.2087
34.0753 26.1706
34.1219 25.9781
34.1687 26.0017
34.2152 25.864
34.262 25.7027
34.3086 25.712
34.3554 25.6516
34.402 25.4482
34.4488 25.4041
34.4954 25.3795
34.5422 25.2298
34.5889 25.1662
34.6357 25.1093
34.6825 24.9902
34.7292 24.9498
34.776 24.8757
34.8227 24.7982
34.8695 24.8009
34.9162 24.644
34.9631 24.5485
35.0098 24.6052
35.0566 24.4672
35.1033 24.4363
35.1502 24.3765
35.1969 24.2647
35.2438 24.2465
35.2906 24.2092
35.3375 24.1262
35.3842 24.1348
35.4311 24.0525
35.4779 24.0135
35.5248 23.9939
35.5716 23.8455
35.6185 23.8122
35.6653 23.7013
35.7123 23.6542
35.759 23.5218
35.806 23.4812
35.8528 23.4132
35.8998 23.2753
35.9468 23.232
35.9936 23.2153
36.0406 23.1219
36.0874 23.1227
36.1345 22.9298
36.1813 22.938
36.2283 22.8006
36.2752 22.8087
36.3222 22.7491
36.3691 22.5945
36.4161 22.5588
36.463 22.5274
36.5101 22.4562
36.557 22.4068
36.6041 22.2928
36.651 22.2369
36.6981 22.1497
36.745 22.1702
36.7921 22.0188
36.839 21.9229
36.8861 21.9191
36.9331 21.8962
36.9802 21.7499
37.0272 21.6726
37.0743 21.6039
37.1213 21.5913
37.1684 21.4897
37.2154 21.3986
37.2626 21.3626
37.3098 21.2772
37.3568 21.2123
37.404 21.1758
37.451 21.092
37.4982 21.0347
37.5452 20.9707
37.5924 20.8997
37.6395 20.9044
37.6867 20.7795
37.7337 20.678
37.781 20.6543
37.8281 20.5404
37.8753 20.4988
37.9224 20.4188
37.9697 20.3755
38.0168 20.354
38.064 20.1692
38.1111 20.1491
38.1584 20.1084
38.2056 19.9956
38.2529 19.9977
38.3 19.9276
38.3473 19.9562
38.3945 19.7946
38.4418 19.7104
38.489 19.6785
38.5363 19.6038
38.5837 19.5516
38.6309 19.499
38.6782 19.4715
38.7254 19.2989
38.7728 19.2484
38.82 19.2347
38.8674 19.1958
38.9146 19.1085
38.9621 19.0241
39.0093 19.0241
39.0567 18.9552
39.104 18.8918
39.1514 18.7986
39.1987 18.7487
39.2461 18.7533
39.2934 18.6673
39.3409 18.5522
39.3882 18.5035
39.4356 18.4756
39.483 18.3951
39.5304 18.3429
39.5778 18.3591
39.6253 18.1908
39.6726 18.1919
39.7201 18.1559
39.7675 18.1072
39.815 18.0131
39.8624 18.0084
39.9099 17.9072
39.9575 17.8019
40.0049 17.845
40.0525 17.7211
40.0999 17.6734
40.1474 17.6328
40.1949 17.5353
40.2425 17.4653
40.2899 17.4548
40.3375 17.3685
40.385 17.3596
40.4326 17.311
40.48 17.2112
40.5277 17.1707
40.5752 17.0644
40.6228 17.001
40.6703 16.9733
40.718 16.9523
40.7655 16.9185
40.8132 16.7778
40.8607 16.8259
40.9084 16.8159
40.9559 16.7018
41.0036 16.6532
41.0512 16.6083
41.0989 16.5353
41.1465 16.4899
41.1942 16.4309
41.242 16.3275
41.2896 16.25
41.3373 16.2686
41.3849 16.2071
41.4327 16.0827
41.4803 16.0753
41.5281 16.0504
41.5758 15.9518
41.6236 15.9382
41.6712 15.8481
41.7191 15.7605
41.7667 15.7664
41.8146 15.695
41.8622 15.6867
41.9101 15.6435
41.9578 15.5175
42.0057 15.4736
42.0534 15.4491
42.1013 15.4035
42.149 15.3734
42.1969 15.285
42.2446 15.2544
42.2925 15.2029
42.3403 15.1142
42.3882 15.1559
42.436 15.0893
42.4839 15.0091
42.5319 14.9022
42.5797 14.8592
42.6277 14.8115
42.6755 14.8273
42.7235 14.6893
42.7713 14.6874
42.8193 14.6113
42.8671 14.6314
42.9152 14.5563
42.963 14.4963
43.0111 14.408
43.0589 14.4004
43.107 14.3404
43.1549 14.3216
43.2029 14.213
43.2508 14.24
43.2989 14.1663
43.3468 14.0576
43.3949 14.0253
43.4429 13.9929
43.491 13.9763
43.5389 13.9462
43.5871 13.8484
43.635 13.7814
43.6832 13.716
43.7312 13.6889
43.7793 13.6597
43.8273 13.6157
43.8755 13.5666
43.9237 13.4669
43.9717 13.516
44.0199 13.4183
44.068 13.4023
44.1162 13.3794
44.1642 13.3171
44.2125 13.2258
44.2606 13.1847
44.3088 13.1134
44.3569 13.1163
44.4052 13.0626
44.4533 13.0152
44.5016 12.9348
44.5497 13.0012
44.598 12.8941
44.6461 12.8605
44.6945 12.7648
44.7426 12.7524
44.791 12.6911
44.8391 12.653
44.8875 12.6359
44.9357 12.6088
44.984 12.5103
45.0322 12.492
45.0806 12.4255
45.1288 12.3837
45.1773 12.3173
45.2257 12.3255
45.2739 12.2692
45.3224 12.2382
45.3706 12.2417
45.4191 12.0713
45.4673 12.0595
45.5158 12.0726
45.5641 11.9875
45.6126 11.9399
45.6609 11.8928
45.7094 11.8402
45.7577 11.8155
45.8063 11.7798
45.8546 11.7925
45.9031 11.6822
45.9515 11.6806
46.0001 11.6671
46.0484 11.567
46.097 11.5346
46.1454 11.5178
46.194 11.4719
46.2424 11.3897
46.291 11.3477
46.3395 11.3703
46.3881 11.2854
46.4365 11.2908
46.4852 11.2203
46.5337 11.1972
46.5823 11.1351
46.631 11.0831
46.6795 11.0796
46.7282 11.0531
46.7767 10.9832
46.8254 10.9078
46.8739 10.8714
46.9226 10.8218
46.9712 10.8325
47.0199 10.756
47.0685 10.7356
47.1173 10.7021
47.1658 10.648
47.2146 10.6117
47.2632 10.5383
47.312 10.552
47.3606 10.5013
47.4095 10.4279
47.4581 10.3982
47.5069 10.3631
47.5556 10.3822
47.6044 10.2926
47.6531 10.2692
47.702 10.207
47.7507 10.1909
47.7996 10.1826
47.8483 10.1048
47.8972 10.0782
47.9461 10.0369
47.9948 9.99861
48.0438 9.95366
48.0925 9.94739
48.1415 9.90049
48.1902 9.87693
48.2392 9.87838
48.288 9.80459
48.337 9.72887
48.3858 9.70594
48.4348 9.70492
48.4837 9.67211
48.5327 9.60261
48.5815 9.59716
48.6306 9.54605
48.6795 9.51425
48.7285 9.48276
48.7774 9.47646
48.8265 9.42201
48.8754 9.36732
48.9245 9.35637
48.9734 9.30772
49.0226 9.29434
49.0715 9.20175
49.1206 9.1756
49.1696 9.17763
49.2188 9.09813
49.2679 9.06742
49.3169 9.05854
49.3661 9.02311
49.4151 8.98223
49.4643 8.96569
49.5134 8.91245
49.5626 8.85803
49.6117 8.83397
49.6609 8.83029
49.71 8.75859
49.7592 8.71938
49.8083 8.69915
49.8576 8.67758
49.9067 8.64682
49.956 8.63696
50.0052 8.59808
50.0545 8.55154
50.1036 8.52224
50.153 8.48974
50.2022 8.43578
50.2515 8.40498
50.3007 8.35691
50.3501 8.38716
50.3993 8.35192
50.4487 8.27467
50.498 8.22609
50.5474 8.22305
50.5966 8.19418
50.6461 8.15693
50.6955 8.12025
50.7448 8.10063
50.7943 8.06797
50.8436 8.04993
50.8931 8.00584
50.9424 7.95902
50.9919 7.93701
51.0413 7.92998
51.0908 7.87569
51.1402 7.84676
51.1897 7.81482
51.2391 7.7785
51.2887 7.74899
51.3381 7.69487
51.3877 7.66698
51.4371 7.62713
51.4867 7.60765
51.5362 7.57233
51.5858 7.55133
51.6353 7.50836
51.6849 7.5024
51.7344 7.47775
51.7841 7.45063
51.8336 7.39424
51.8833 7.34954
51.9328 7.33754
51.9826 7.28723
52.0323 7.27185
52.0818 7.20478
52.1316 7.20149
52.1812 7.21496
52.231 7.13011
52.2806 7.07776
52.3304 7.11912
52.38 7.01809
52.4298 7.06038
52.4794 6.99733
52.5293 6.975
52.5789 6.96659
52.6288 6.93955
52.6785 6.91669
52.7284 6.86782
52.7781 6.86586
52.828 6.83254
52.8777 6.74804
52.9276 6.76447
52.9774 6.72586
53.0273 6.69285
53.0771 6.68009
53.1271 6.67545
53.1769 6.63095
53.2269 6.60452
53.2767 6.55603
53.3267 6.55973
53.3765 6.4636
53.4266 6.49605
53.4766 6.45869
53.5265 6.40217
53.5765 6.39138
53.6264 6.36076
53.6765 6.36025
53.7264 6.30698
53.7765 6.30658
53.8265 6.24322
53.8766 6.21883
53.9266 6.20057
53.9767 6.20949
54.0267 6.17323
54.0769 6.14247
54.1269 6.0782
54.1771 6.0669
54.2271 6.06091
54.2773 5.988
54.3274 5.99371
54.3776 5.93053
54.4277 5.91648
54.478 5.88141
54.528 5.87369
54.5783 5.77923
54.6285 5.76573
54.6788 5.69253
54.7289 5.68606
54.7792 5.63324
54.8296 5.54747
54.8798 5.5488
54.9301 5.4845
54.9803 5.46778
55.0307 5.43671
55.0809 5.41902
55.1314 5.36417
55.1816 5.30363
55.232 5.30355
55.2823 5.27415
55.3328 5.15794
55.383 5.13659
55.4335 5.10423
55.4838 5.0194
55.5344 4.99439
55.5847 4.93426
55.6352 4.93381
55.6856 4.82553
55.7361 4.82942