File: XRD/Ni3Fe_FD1016.xy
TT I
1.27165 6.81451
1.31627 6.19924
1.36089 6.96662
1.40551 6.58626
1.45013 5.58134
1.49476 6.18802
1.53938 5.65149
1.584 5.22136
1.62863 4.81696
1.67325 4.57792
1.71787 4.45506
1.7625 4.65196
1.80712 4.16193
1.85174 4.28608
1.89636 4.6647
1.94099 4.39253
1.98562 4.49373
2.03025 4.24208
2.07487 4.02374
2.11949 4.8981
2.16411 4.22968
2.20874 5.15414
2.25338 6.80761
2.298 5.48637
2.34263 5.7149
2.38725 6.42482
2.43188 6.32018
2.4765 7.22498
2.52115 7.36937
2.56577 8.65953
2.6104 8.90279
2.65503 8.24122
2.69965 8.98011
2.7443 8.90537
2.78893 8.51341
2.83356 8.85578
2.87818 8.6084
2.92281 8.59506
2.96744 9.77945
3.01209 10.2954
3.05672 10.9414
3.10135 12.3765
3.14599 12.9613
3.19062 14.0709
3.23527 15.0488
3.2799 15.0928
3.32454 16.1834
3.36917 17.6891
3.4138 17.993
3.45844 19.0998
3.50309 20.0143
3.54773 20.7184
3.59237 21.6101
3.637 28.5946
3.68164 27.3476
3.7263 24.4336
3.77094 24.5489
3.81558 25.0934
3.86022 26.3708
3.90486 27.2683
3.9495 28.0012
3.99416 29.4032
4.0388 30.432
4.08344 31.8568
4.12809 32.0707
4.17273 33.2917
4.21738 35.1543
4.26204 54.0126
4.30669 59.0582
4.35133 40.7658
4.39598 40.652
4.44063 42.7546
4.4853 45.8862
4.52995 46.3698
4.5746 47.8597
4.61925 49.84
4.6639 52.2044
4.70855 54.7728
4.75322 57.7682
4.79788 60.0902
4.84253 63.1778
4.88719 67.5598
4.93184 70.8048
4.97652 76.553
5.02118 82.1139
5.06583 88.1349
5.11049 96.5805
5.15515 116.603
5.19981 224.556
5.24449 2275.53
5.28916 13586.1
5.33382 3483.34
5.37848 241.355
5.42315 126.269
5.46783 108.464
5.5125 100.141
5.55716 97.0
5.60183 92.673
5.6465 90.4011
5.69117 89.0302
5.73586 86.8395
5.78053 85.7187
5.8252 85.3033
5.86988 85.5129
5.91455 87.233
5.95924 93.1082
6.00392 156.292
6.0486 788.903
6.09328 4340.03
6.13795 3516.06
6.18263 244.283
6.22733 86.7729
6.27201 75.3979
6.3167 72.4367
6.36138 68.3414
6.40606 63.7545
6.45075 63.0251
6.49545 61.4872
6.54014 59.459
6.58483 58.6229
6.62952 57.4843
6.67421 58.4028
6.71892 64.5104
6.76361 56.3167
6.8083 53.8107
6.853 53.31
6.89769 52.7952
6.94239 52.7784
6.98711 51.8195
7.03181 51.6036
7.07651 51.6207
7.12121 51.8205
7.16591 51.39
7.21063 50.7311
7.25533 51.621
7.30004 62.7576
7.34475 56.6523
7.38945 51.4217
7.43416 50.8379
7.47889 51.8238
7.5236 63.153
7.56831 85.8974
7.61303 59.8364
7.65774 52.779
7.70247 52.5872
7.74719 52.8281
7.79191 53.0637
7.83663 53.2769
7.88135 54.4222
7.92607 55.0346
7.97081 56.3191
8.01553 56.7442
8.06026 58.2044
8.10498 59.3082
8.14971 61.6652
8.19446 63.4542
8.23919 64.9161
8.28392 67.1398
8.32865 69.4455
8.37339 73.1774
8.41812 76.5665
8.46288 84.8953
8.50761 123.806
8.55235 328.864
8.59709 1042.56
8.64183 2298.29
8.68658 1112.68
8.73134 179.669
8.77609 94.6531
8.82083 87.2676
8.86558 84.6647
8.91033 82.773
8.9551 81.596
8.99985 79.9783
9.04461 79.4221
9.08936 79.055
9.13412 78.5144
9.17888 79.4311
9.22365 99.1558
9.26841 134.916
9.31318 95.632
9.35794 80.2555
9.4027 79.1491
9.44749 79.7128
9.49226 80.1255
9.53703 80.7066
9.5818 82.6123
9.62657 83.4117
9.67134 85.7697
9.71614 86.6968
9.76091 88.1958
9.80569 90.4562
9.85047 92.8379
9.89525 97.357
9.94005 104.879
9.98484 141.345
10.0296 310.518
10.0744 715.582
10.1192 1720.17
10.164 1695.49
10.2088 458.764
10.2536 125.853
10.2984 102.077
10.3432 99.4768
10.388 96.394
10.4328 105.338
10.4776 149.276
10.5224 252.223
10.5672 489.89
10.612 528.968
10.6568 221.778
10.7017 108.154
10.7465 87.912
10.7913 79.3651
10.8361 76.8437
10.8809 74.4003
10.9257 72.6864
10.9706 71.8982
11.0154 69.9833
11.0602 68.5318
11.105 67.4228
11.1499 66.3377
11.1947 66.4085
11.2395 65.0178
11.2844 64.0458
11.3292 63.0238
11.374 62.3162
11.4189 61.869
11.4637 61.0324
11.5086 60.6105
11.5534 60.3115
11.5983 60.0041
11.6431 59.8421
11.688 59.2029
11.7328 59.5587
11.7777 59.0344
11.8225 59.1042
11.8674 59.3372
11.9122 62.9544
11.9571 72.8878
12.002 69.7764
12.0468 64.1327
12.0917 73.3391
12.1366 93.6626
12.1814 141.566
12.2263 200.527
12.2712 170.63
12.3161 94.1031
12.3609 63.8479
12.4058 60.557
12.4507 60.3212
12.4956 60.4732
12.5405 60.6678
12.5853 61.1223
12.6302 61.7511
12.6751 63.4126
12.72 63.1151
12.7649 63.4612
12.8098 64.2984
12.8547 65.4981
12.8996 66.6639
12.9445 67.9584
12.9894 69.8401
13.0343 71.6042
13.0792 75.9006
13.1242 81.89
13.1691 102.821
13.214 136.572
13.2589 216.801
13.3038 359.897
13.3487 439.502
13.3937 278.572
13.4386 127.471
13.4835 96.9866
13.5285 113.839
13.5734 146.725
13.6183 227.793
13.6633 352.534
13.7082 360.859
13.7531 202.917
13.7981 99.6154
13.843 78.7248
13.888 75.9758
13.9329 73.8548
13.9779 72.63
14.0228 71.281
14.0678 70.2343
14.1127 72.3378
14.1577 78.5602
14.2027 75.7357
14.2476 68.9214
14.2926 66.7831
14.3376 66.465
14.3825 66.3162
14.4275 65.5005
14.4725 65.3628
14.5175 65.6985
14.5624 65.4539
14.6074 65.6458
14.6524 66.4503
14.6974 66.5226
14.7424 67.5659
14.7874 72.696
14.8324 84.923
14.8774 104.208
14.9224 142.995
14.9674 204.801
15.0124 224.547
15.0574 158.28
15.1024 93.9258
15.1474 70.7431
15.1924 67.2361
15.2374 65.8017
15.2824 64.7456
15.3274 63.8177
15.3725 63.4265
15.4175 63.2075
15.4625 62.6307
15.5076 62.3566
15.5526 62.372
15.5976 62.5856
15.6426 62.8322
15.6877 66.8659
15.7327 75.8781
15.7778 89.2848
15.8228 117.667
15.8679 166.852
15.9129 202.72
15.958 169.791
16.003 103.03
16.0481 69.7671
16.0931 63.2911
16.1382 59.7217
16.1833 57.7695
16.2283 56.1491
16.2734 55.5545
16.3185 55.0575
16.3636 54.5194
16.4086 53.7491
16.4537 53.3568
16.4988 52.6776
16.5439 52.5909
16.589 52.3753
16.6341 52.3767
16.6792 51.8791
16.7243 51.9358
16.7694 52.0621
16.8145 52.0366
16.8596 52.0089
16.9047 53.3784
16.9498 54.1557
16.9949 53.7064
17.04 52.9968
17.0851 53.9127
17.1302 55.7301
17.1754 58.6321
17.2205 63.1121
17.2656 71.1925
17.3108 81.4487
17.3559 81.642
17.401 71.1539
17.4462 60.6228
17.4913 56.768
17.5365 56.1618
17.5815 56.3488
17.6268 56.5975
17.6718 57.3823
17.7171 58.1596
17.7622 59.3765
17.8074 60.4125
17.8525 60.9541
17.8977 64.679
17.9428 70.3674
17.9881 78.1116
18.0331 94.1705
18.0784 118.374
18.1237 140.096
18.1688 137.251
18.214 107.792
18.2591 86.4053
18.3044 86.8118
18.3495 97.8024
18.3948 105.762
18.4399 98.0779
18.4852 78.3883
18.5303 65.1558
18.5756 60.8849
18.6207 59.6186
18.666 58.1844
18.7112 57.3502
18.7565 56.6645
18.8016 56.3279
18.8469 55.74
18.892 55.4906
18.9374 55.0365
18.9825 54.5462
19.0278 54.4633
19.073 54.2407
19.1183 54.3206
19.1635 55.1983
19.2088 56.5294
19.254 59.3174
19.2993 64.5472
19.3447 71.74
19.3898 75.8204
19.4352 71.8238
19.4804 62.8225
19.5257 55.2908
19.5709 52.3515
19.6163 51.705
19.6615 51.3337
19.7068 51.088
19.752 51.251
19.7974 51.1198
19.8426 51.6968
19.888 52.678
19.9332 53.818
19.9786 56.0203
20.0238 59.8115
20.0692 65.5682
20.1144 69.4505
20.1598 68.2238
20.205 63.0102
20.2504 60.6129
20.2957 62.582
20.3411 64.6322
20.3863 63.6635
20.4318 57.6096
20.477 52.2318
20.5224 49.4292
20.5677 48.7251
20.6131 48.0178
20.6586 47.7085
20.7038 47.6642
20.7493 47.5073
20.7945 47.5303
20.84 47.4289
20.8853 47.1752
20.9307 46.6613
20.976 46.654
21.0215 46.739
21.0668 47.1326
21.1122 47.3641
21.1575 47.9366
21.203 48.7504
21.2483 49.7006
21.2938 49.7806
21.3391 48.5619
21.3846 47.3049
21.4299 46.4018
21.4754 46.5947
21.5207 46.6684
21.5662 46.8483
21.6116 47.1393
21.6571 47.8959
21.7024 48.9846
21.7479 50.579
21.7933 52.9887
21.8388 56.9214
21.8843 61.715
21.9297 64.3089
21.9752 63.2997
22.0206 58.95
22.0661 55.6867
22.1115 55.2921
22.157 55.4016
22.2024 53.763
22.248 50.4842
22.2933 48.4663
22.3389 47.2967
22.3843 47.062
22.4299 46.7743
22.4753 46.9126
22.5208 46.7462
22.5662 46.6301
22.6118 46.8394
22.6572 46.9752
22.7028 47.5867
22.7483 48.197
22.7939 48.9176
22.8393 50.3235
22.8849 52.3391
22.9303 54.9137
22.9759 56.9177
23.0214 56.7552
23.067 53.921
23.1126 50.3683
23.1581 48.0135
23.2037 47.1842
23.2492 46.9093
23.2948 46.9674
23.3403 47.5792
23.3859 48.5369
23.4314 49.5539
23.477 51.2923
23.5225 53.6157
23.5682 56.5785
23.6137 58.0075
23.6593 55.9061
23.7048 51.528
23.7505 47.6118
23.796 45.2391
23.8417 44.5121
23.8872 44.1038
23.9329 43.6887
23.9784 43.344
24.0241 43.1731
24.0697 42.9415
24.1154 42.6198
24.1609 42.4766
24.2066 42.2671
24.2522 42.2467
24.2979 41.8903
24.3434 41.6983
24.3892 41.6261
24.4349 41.6487
24.4805 41.4223
24.5262 41.5461
24.5718 41.5306
24.6175 41.7044
24.6631 41.48
24.7089 41.1259
24.7545 40.8195
24.8002 40.7297
24.8458 40.7407
24.8916 40.6343
24.9372 40.5992
24.983 41.0165
25.0286 41.4168
25.0744 42.0496
25.12 42.5101
25.1658 43.1725
25.2114 43.6573
25.2572 43.7373
25.3029 44.0127
25.3487 44.042
25.3943 43.9306
25.4402 42.7337
25.4858 41.5473
25.5316 40.4147
25.5773 39.6988
25.6231 39.5939
25.669 39.1539
25.7147 39.1729
25.7605 38.9937
25.8062 39.2153
25.8521 39.2847
25.8977 39.297
25.9436 39.4005
25.9893 39.5341
26.0352 40.2129
26.0809 40.4285
26.1268 40.7953
26.1725 40.3805
26.2184 39.8513
26.2641 39.2567
26.31 38.907
26.3557 38.9187
26.4017 38.8184
26.4474 39.2073
26.4933 39.4173
26.5391 39.9517
26.585 40.651
26.6308 41.1282
26.6767 41.3226
26.7225 41.2159
26.7684 40.6971
26.8142 40.0188
26.8601 39.5336
26.9059 39.0431
26.9519 38.5713
26.9979 38.1827
27.0437 37.8268
27.0896 37.549
27.1354 37.6026
27.1814 37.381
27.2272 37.4916
27.2732 37.3785
27.3191 37.1522
27.3651 37.247
27.4109 37.3178
27.4569 37.3979
27.5027 37.5645
27.5488 37.5588
27.5946 37.4028
27.6407 37.1462
27.6865 37.0319
27.7326 36.7859
27.7784 36.7887
27.8245 36.7112
27.8703 36.8346
27.9164 37.1666
27.9623 37.4101
28.0084 37.9836
28.0543 38.4371
28.1003 38.2983
28.1462 38.0748
28.1923 37.9281
28.2384 37.2712
28.2843 36.9026
28.3304 36.3903
28.3764 35.8562
28.4225 35.3755
28.4684 35.2253
28.5145 34.9412
28.5605 34.8985
28.6066 34.6404
28.6526 34.571
28.6987 34.7047
28.7447 34.4986
28.7908 34.381
28.8368 34.4325
28.8829 34.3043
28.9289 34.2449
28.9751 34.3043
29.0211 33.8898
29.0673 33.6841
29.1133 33.5846
29.1595 33.3931
29.2055 33.2319
29.2517 33.3433
29.2977 33.2793
29.3439 33.2515
29.3899 33.281
29.4361 33.1773
29.4824 33.0916
29.5284 32.8938
29.5746 32.5756
29.6207 32.1736
29.6669 32.0934
29.713 31.9263
29.7593 31.8369
29.8053 31.8448
29.8516 31.7545
29.8977 31.8139
29.9439 31.6397
29.99 31.5593
30.0363 31.5197
30.0824 31.5883
30.1287 31.5067
30.1748 31.4112
30.2211 31.5484
30.2673 31.4444
30.3136 31.4679
30.3597 31.3509
30.406 31.3388
30.4522 31.1218
30.4985 31.1458
30.5447 31.1406
30.591 31.2454
30.6372 31.3647
30.6835 31.3427
30.7297 31.478
30.7761 31.4568
30.8224 31.1865
30.8686 31.1121
30.915 30.9056
30.9612 30.7068
31.0076 30.4723
31.0538 30.3203
31.1002 30.2412
31.1464 30.064
31.1928 30.1455
31.2391 30.033
31.2855 29.9821
31.3317 30.0214
31.3781 30.0432
31.4244 30.0941
31.4708 29.9855
31.5171 30.0399
31.5636 29.9669
31.6098 29.7546
31.6563 29.6491
31.7026 29.4542
31.7491 29.3414
31.7953 29.3444
31.8418 29.3604
31.8881 29.2776
31.9346 29.4161
31.9809 29.249
32.0275 29.1724
32.074 29.0618
32.1203 28.9415
32.1668 28.7069
32.2132 28.5722
32.2597 28.4697
32.306 28.3957
32.3526 28.232
32.399 28.1107
32.4455 27.9728
32.4919 27.8919
32.5385 27.78
32.5848 27.782
32.6314 27.7588
32.6778 27.6094
32.7244 27.4708
32.7708 27.3226
32.8174 27.4081
32.8638 27.2551
32.9104 27.1925
32.9569 27.2284
33.0035 27.0046
33.0499 27.0792
33.0966 27.0432
33.143 27.0809
33.1897 27.058
33.2361 26.8839
33.2828 26.8558
33.3293 26.6558
33.3759 26.7108
33.4226 26.4397
33.4691 26.3788
33.5158 26.2399
33.5623 26.185
33.609 25.9589
33.6555 26.0072
33.7022 25.7963
33.7487 25.8165
33.7954 25.7431
33.842 25.6284
33.8887 25.5566
33.9353 25.5183
33.982 25.3855
34.0286 25.3425
34.0753 25.2579
34.1219 25.1944
34.1687 25.0941
34.2152 24.985
34.262 24.9734
34.3086 24.8262
34.3554 24.7846
34.402 24.6384
34.4488 24.555
34.4954 24.5528
34.5422 24.3791
34.5889 24.4537
34.6357 24.2086
34.6825 24.1269
34.7292 24.068
34.776 24.0528
34.8227 24.0314
34.8695 23.9005
34.9162 23.9844
34.9631 23.7614
35.0098 23.7893
35.0566 23.7512
35.1033 23.5442
35.1502 23.5655
35.1969 23.4622
35.2438 23.4672
35.2906 23.418
35.3375 23.3757
35.3842 23.3886
35.4311 23.4009
35.4779 23.3794
35.5248 23.3754
35.5716 23.1785
35.6185 23.0616
35.6653 22.935
35.7123 22.9023
35.759 22.8878
35.806 22.6927
35.8528 22.616
35.8998 22.5641
35.9468 22.5429
35.9936 22.4338
36.0406 22.4141
36.0874 22.3557
36.1345 22.2567
36.1813 22.1811
36.2283 22.0379
36.2752 22.0306
36.3222 21.9797
36.3691 21.9411
36.4161 21.7987
36.463 21.8265
36.5101 21.8084
36.557 21.7243
36.6041 21.6138
36.651 21.6509
36.6981 21.5265
36.745 21.4673
36.7921 21.3774
36.839 21.2424
36.8861 21.2157
36.9331 21.1691
36.9802 21.0584
37.0272 20.9846
37.0743 20.8763
37.1213 20.8049
37.1684 20.8233
37.2154 20.7441
37.2626 20.6414
37.3098 20.6486
37.3568 20.5372
37.404 20.5278
37.451 20.3715
37.4982 20.3649
37.5452 20.2181
37.5924 20.2085
37.6395 20.2518
37.6867 20.0714
37.7337 20.077
37.781 19.9671
37.8281 19.9991
37.8753 19.7981
37.9224 19.747
37.9697 19.7243
38.0168 19.585
38.064 19.6205
38.1111 19.5741
38.1584 19.4869
38.2056 19.4183
38.2529 19.349
38.3 19.25
38.3473 19.2241
38.3945 19.1084
38.4418 19.0713
38.489 19.0393
38.5363 18.9603
38.5837 18.8584
38.6309 18.857
38.6782 18.7971
38.7254 18.7771
38.7728 18.6637
38.82 18.6193
38.8674 18.5729
38.9146 18.4399
38.9621 18.3864
39.0093 18.3672
39.0567 18.3825
39.104 18.2393
39.1514 18.1369
39.1987 18.1583
39.2461 18.0717
39.2934 18.0181
39.3409 17.9509
39.3882 17.8255
39.4356 17.7822
39.483 17.7923
39.5304 17.7558
39.5778 17.7338
39.6253 17.5454
39.6726 17.5702
39.7201 17.599
39.7675 17.4368
39.815 17.4033
39.8624 17.3473
39.9099 17.2801
39.9575 17.1769
40.0049 17.177
40.0525 17.115
40.0999 17.1019
40.1474 17.0224
40.1949 16.9982
40.2425 16.9281
40.2899 16.8936
40.3375 16.8301
40.385 16.7328
40.4326 16.6983
40.48 16.6586
40.5277 16.6106
40.5752 16.4994
40.6228 16.4983
40.6703 16.4189
40.718 16.3989
40.7655 16.4176
40.8132 16.2049
40.8607 16.2273
40.9084 16.1939
40.9559 16.0769
41.0036 16.0467
41.0512 16.0891
41.0989 15.9763
41.1465 15.9255
41.1942 15.8471
41.242 15.8549
41.2896 15.7263
41.3373 15.7474
41.3849 15.7061
41.4327 15.5955
41.4803 15.5131
41.5281 15.5093
41.5758 15.4929
41.6236 15.4152
41.6712 15.3734
41.7191 15.268
41.7667 15.254
41.8146 15.2002
41.8622 15.1924
41.9101 15.1048
41.9578 15.0379
42.0057 14.9657
42.0534 14.9388
42.1013 14.9426
42.149 14.8187
42.1969 14.785
42.2446 14.776
42.2925 14.7023
42.3403 14.6742
42.3882 14.5886
42.436 14.5744
42.4839 14.4569
42.5319 14.4703
42.5797 14.4034
42.6277 14.3804
42.6755 14.3174
42.7235 14.2428
42.7713 14.2003
42.8193 14.1386
42.8671 14.0736
42.9152 14.0892
42.963 14.0226
43.0111 13.9235
43.0589 13.866
43.107 13.9102
43.1549 13.8194
43.2029 13.7819
43.2508 13.733
43.2989 13.7169
43.3468 13.5739
43.3949 13.5509
43.4429 13.5483
43.491 13.4646
43.5389 13.4644
43.5871 13.3969
43.635 13.3438
43.6832 13.3117
43.7312 13.2447
43.7793 13.1796
43.8273 13.1632
43.8755 13.1448
43.9237 13.0299
43.9717 13.0756
44.0199 12.9704
44.068 12.9693
44.1162 12.8985
44.1642 12.8329
44.2125 12.7959
44.2606 12.7412
44.3088 12.719
44.3569 12.6619
44.4052 12.6403
44.4533 12.5808
44.5016 12.5301
44.5497 12.4955
44.598 12.4683
44.6461 12.3988
44.6945 12.3581
44.7426 12.3059
44.791 12.2247
44.8391 12.3194
44.8875 12.2332
44.9357 12.1647
44.984 12.0685
45.0322 12.0431
45.0806 11.9885
45.1288 11.9302
45.1773 11.9294
45.2257 11.9163
45.2739 11.8856
45.3224 11.7613
45.3706 11.7754
45.4191 11.7053
45.4673 11.7091
45.5158 11.6317
45.5641 11.6489
45.6126 11.5656
45.6609 11.5163
45.7094 11.4856
45.7577 11.4381
45.8063 11.3796
45.8546 11.3533
45.9031 11.3148
45.9515 11.2658
46.0001 11.2468
46.0484 11.1909
46.097 11.1638
46.1454 11.1106
46.194 11.0761
46.2424 11.018
46.291 11.0113
46.3395 10.9591
46.3881 10.8749
46.4365 10.9169
46.4852 10.8381
46.5337 10.767
46.5823 10.7758
46.631 10.7337
46.6795 10.702
46.7282 10.631
46.7767 10.6328
46.8254 10.5671
46.8739 10.5756
46.9226 10.4941
46.9712 10.4396
47.0199 10.4439
47.0685 10.3948
47.1173 10.3457
47.1658 10.3058
47.2146 10.2556
47.2632 10.1588
47.312 10.1683
47.3606 10.149
47.4095 10.0602
47.4581 10.0849
47.5069 10.009
47.5556 9.97519
47.6044 9.9274
47.6531 9.94945
47.702 9.85801
47.7507 9.85132
47.7996 9.78516
47.8483 9.75482
47.8972 9.76493
47.9461 9.71564
47.9948 9.67239
48.0438 9.59745
48.0925 9.63499
48.1415 9.55529
48.1902 9.54316
48.2392 9.5084
48.288 9.47191
48.337 9.43204
48.3858 9.42202
48.4348 9.36308
48.4837 9.3195
48.5327 9.30268
48.5815 9.23359
48.6306 9.25438
48.6795 9.184
48.7285 9.19278
48.7774 9.12622
48.8265 9.12147
48.8754 9.05344
48.9245 9.05104
48.9734 9.01431
49.0226 8.97262
49.0715 8.90158
49.1206 8.8899
49.1696 8.83118
49.2188 8.81902
49.2679 8.78811
49.3169 8.73341
49.3661 8.70718
49.4151 8.66176
49.4643 8.67274
49.5134 8.62581
49.5626 8.55147
49.6117 8.55875
49.6609 8.4961
49.71 8.4487
49.7592 8.45465
49.8083 8.38997
49.8576 8.39558
49.9067 8.33126
49.956 8.32869
50.0052 8.28735
50.0545 8.27897
50.1036 8.18649
50.153 8.22362
50.2022 8.14611
50.2515 8.11968
50.3007 8.11177
50.3501 8.09181
50.3993 8.03334
50.4487 8.02348
50.498 7.99427
50.5474 7.94919
50.5966 7.89479
50.6461 7.89273
50.6955 7.8418
50.7448 7.81743
50.7943 7.79231
50.8436 7.80742
50.8931 7.75646
50.9424 7.71474
50.9919 7.6904
51.0413 7.66814
51.0908 7.6157
51.1402 7.56417
51.1897 7.52974
51.2391 7.53324
51.2887 7.49212
51.3381 7.48002
51.3877 7.42336
51.4371 7.40574
51.4867 7.35403
51.5362 7.33691
51.5858 7.30269
51.6353 7.26417
51.6849 7.27346
51.7344 7.25326
51.7841 7.23488
51.8336 7.13373
51.8833 7.1253
51.9328 7.07455
51.9826 7.08494
52.0323 7.05241
52.0818 7.0359
52.1316 6.98219
52.1812 6.9817
52.231 6.90922
52.2806 6.91378
52.3304 6.87251
52.38 6.86855
52.4298 6.8122
52.4794 6.77254
52.5293 6.74085
52.5789 6.7288
52.6288 6.72827
52.6785 6.67139
52.7284 6.67923
52.7781 6.59063
52.828 6.58154
52.8777 6.57539
52.9276 6.51106
52.9774 6.49516
53.0273 6.46987
53.0771 6.44773
53.1271 6.48858
53.1769 6.38386
53.2269 6.37973
53.2767 6.3422
53.3267 6.31636
53.3765 6.28122
53.4266 6.26255
53.4766 6.19475
53.5265 6.22293
53.5765 6.2087
53.6264 6.13171
53.6765 6.17478
53.7264 6.09417
53.7765 6.09963
53.8265 6.07201
53.8766 6.00411
53.9266 6.04627
53.9767 5.98344
54.0267 5.94976
54.0769 5.95138
54.1269 5.85896
54.1771 5.84867
54.2271 5.81607
54.2773 5.78342
54.3274 5.82416
54.3776 5.73213
54.4277 5.68133
54.478 5.72036
54.528 5.65192
54.5783 5.63298
54.6285 5.60655
54.6788 5.5205
54.7289 5.54376
54.7792 5.39484
54.8296 5.39074
54.8798 5.34892
54.9301 5.28359
54.9803 5.31063
55.0307 5.33458
55.0809 5.24148
55.1314 5.18473
55.1816 5.15448
55.232 5.14431
55.2823 5.05264
55.3328 5.00172
55.383 4.93031
55.4335 4.9545
55.4838 4.87653
55.5344 4.86354
55.5847 4.85385
55.6352 4.72264
55.6856 4.73148
55.7361 4.66798