File: XRD/Ni3Fe_FD0093.xy
TT I
1.27165 9.09887
1.31627 7.89252
1.36089 8.04565
1.40551 6.97007
1.45013 7.30777
1.49476 7.33818
1.53938 7.09296
1.584 6.6385
1.62863 6.40066
1.67325 6.16529
1.71787 6.49339
1.7625 6.23068
1.80712 5.9646
1.85174 5.60721
1.89636 6.10116
1.94099 5.89518
1.98562 5.68475
2.03025 5.1609
2.07487 5.0361
2.11949 4.51421
2.16411 5.43056
2.20874 5.01658
2.25338 4.6708
2.298 5.22412
2.34263 4.68514
2.38725 4.90832
2.43188 4.00589
2.4765 4.26934
2.52115 4.40678
2.56577 4.05615
2.6104 5.29231
2.65503 4.8188
2.69965 4.55322
2.7443 5.59146
2.78893 6.10254
2.83356 6.36119
2.87818 7.70313
2.92281 8.2754
2.96744 8.82126
3.01209 10.1234
3.05672 11.5029
3.10135 11.6369
3.14599 13.1494
3.19062 14.2468
3.23527 14.8733
3.2799 15.859
3.32454 16.7378
3.36917 17.4599
3.4138 18.5671
3.45844 19.4158
3.50309 20.4514
3.54773 21.0145
3.59237 21.5221
3.637 22.4818
3.68164 22.7572
3.7263 24.0346
3.77094 25.1605
3.81558 25.1408
3.86022 26.001
3.90486 27.3263
3.9495 28.287
3.99416 29.4941
4.0388 30.309
4.08344 31.1884
4.12809 32.8136
4.17273 33.4841
4.21738 35.1943
4.26204 36.0633
4.30669 37.6252
4.35133 39.1933
4.39598 40.9177
4.44063 42.8361
4.4853 44.3089
4.52995 46.991
4.5746 48.4735
4.61925 50.8582
4.6639 53.422
4.70855 56.4337
4.75322 59.4488
4.79788 61.9958
4.84253 66.3867
4.88719 70.837
4.93184 76.4178
4.97652 85.0289
5.02118 94.9668
5.06583 107.932
5.11049 128.854
5.15515 179.199
5.19981 709.454
5.24449 3766.13
5.28916 6089.97
5.33382 7490.58
5.37848 803.216
5.42315 204.549
5.46783 144.474
5.5125 123.853
5.55716 114.448
5.60183 106.671
5.6465 103.016
5.69117 101.514
5.73586 99.644
5.78053 99.058
5.8252 100.5
5.86988 104.665
5.91455 115.251
5.95924 142.569
6.00392 356.001
6.0486 1445.41
6.09328 1972.93
6.13795 3803.35
6.18263 1046.15
6.22733 160.639
6.27201 99.7136
6.3167 83.263
6.36138 74.8131
6.40606 69.9264
6.45075 67.3691
6.49545 64.6841
6.54014 62.6275
6.58483 60.239
6.62952 59.5641
6.67421 57.7611
6.71892 56.9263
6.76361 56.0489
6.8083 54.9848
6.853 54.495
6.89769 53.8063
6.94239 53.5757
6.98711 52.6396
7.03181 52.4509
7.07651 52.1958
7.12121 51.8839
7.16591 51.7714
7.21063 51.1032
7.25533 51.228
7.30004 50.8502
7.34475 51.3418
7.38945 51.6744
7.43416 51.0786
7.47889 51.6839
7.5236 61.0985
7.56831 84.2507
7.61303 61.6841
7.65774 53.637
7.70247 53.2474
7.74719 53.5522
7.79191 54.0368
7.83663 54.3794
7.88135 55.3507
7.92607 56.1369
7.97081 57.217
8.01553 58.5331
8.06026 59.9896
8.10498 61.0519
8.14971 62.8711
8.19446 64.4985
8.23919 67.3781
8.28392 70.1028
8.32865 73.2916
8.37339 78.4592
8.41812 84.6478
8.46288 99.8872
8.50761 195.918
8.55235 662.899
8.59709 716.199
8.64183 1037.12
8.68658 1768.62
8.73134 618.401
8.77609 136.713
8.82083 102.595
8.86558 93.1933
8.91033 88.6545
8.9551 85.5714
8.99985 83.6983
9.04461 83.0865
9.08936 82.0421
9.13412 81.5156
9.17888 81.8284
9.22365 96.4629
9.26841 131.733
9.31318 101.571
9.35794 83.3841
9.4027 81.7366
9.44749 82.4338
9.49226 82.7824
9.53703 83.528
9.5818 84.7548
9.62657 85.5931
9.67134 87.7086
9.71614 89.7378
9.76091 91.9204
9.80569 95.2387
9.85047 98.5141
9.89525 104.781
9.94005 117.644
9.98484 206.403
10.0296 602.608
10.0744 649.931
10.1192 688.355
10.164 1395.35
10.2088 1293.19
10.2536 308.745
10.2984 125.825
10.3432 111.125
10.388 106.334
10.4328 126.343
10.4776 231.666
10.5224 239.339
10.5672 240.15
10.612 410.24
10.6568 449.679
10.7017 175.354
10.7465 98.2365
10.7913 84.3973
10.8361 79.9837
10.8809 77.188
10.9257 74.6203
10.9706 73.5359
11.0154 71.6818
11.0602 70.2859
11.105 69.2025
11.1499 67.5683
11.1947 66.5634
11.2395 65.8566
11.2844 65.0846
11.3292 64.2751
11.374 63.6429
11.4189 62.8915
11.4637 62.5174
11.5086 61.7196
11.5534 61.4123
11.5983 60.998
11.6431 61.176
11.688 60.4902
11.7328 60.5904
11.7777 60.2335
11.8225 60.4309
11.8674 60.6078
11.9122 62.9735
11.9571 72.362
12.002 72.1355
12.0468 70.2937
12.0917 93.8222
12.1366 106.272
12.1814 99.8514
12.2263 117.566
12.2712 174.151
12.3161 163.22
12.3609 84.5505
12.4058 64.7225
12.4507 62.9363
12.4956 62.2413
12.5405 61.852
12.5853 62.5219
12.6302 62.4986
12.6751 63.3463
12.72 63.8136
12.7649 64.9137
12.8098 65.5472
12.8547 67.1036
12.8996 68.3951
12.9445 69.97
12.9894 72.1119
13.0343 74.0189
13.0792 79.2994
13.1242 88.6297
13.1691 141.415
13.214 195.665
13.2589 178.301
13.3038 182.263
13.3487 268.108
13.3937 392.064
13.4386 273.709
13.4835 137.824
13.5285 165.467
13.5734 184.427
13.6183 160.454
13.6633 176.061
13.7082 271.136
13.7531 340.523
13.7981 197.885
13.843 94.9421
13.888 80.7535
13.9329 76.9214
13.9779 75.0686
14.0228 73.5953
14.0678 72.093
14.1127 73.2052
14.1577 79.019
14.2027 77.325
14.2476 71.278
14.2926 68.781
14.3376 68.1549
14.3825 67.4267
14.4275 67.0516
14.4725 67.0915
14.5175 67.0255
14.5624 67.267
14.6074 67.5544
14.6524 67.8979
14.6974 68.7841
14.7424 70.6919
14.7874 81.3785
14.8324 111.421
14.8774 119.815
14.9224 109.563
14.9674 116.333
15.0124 153.957
15.0574 208.161
15.1024 168.462
15.1474 92.0353
15.1924 72.4132
15.2374 68.5036
15.2824 67.2507
15.3274 66.0668
15.3725 65.2664
15.4175 65.2457
15.4625 64.7208
15.5076 64.4112
15.5526 64.3133
15.5976 64.6536
15.6426 65.7122
15.6877 74.2142
15.7327 98.6306
15.7778 108.208
15.8228 98.8158
15.8679 99.7976
15.9129 120.367
15.958 171.211
16.003 175.686
16.0481 108.19
16.0931 71.2029
16.1382 62.8688
16.1833 60.1706
16.2283 58.1064
16.2734 57.404
16.3185 56.5458
16.3636 55.7796
16.4086 55.3047
16.4537 54.7381
16.4988 54.1464
16.5439 53.8629
16.589 53.6549
16.6341 53.3014
16.6792 53.0994
16.7243 53.3189
16.7694 53.1087
16.8145 53.1829
16.8596 53.2934
16.9047 53.8201
16.9498 55.005
16.9949 54.7445
17.04 54.6906
17.0851 56.0038
17.1302 60.76
17.1754 64.0559
17.2205 62.7158
17.2656 62.0737
17.3108 65.1588
17.3559 71.9421
17.401 81.2631
17.4462 76.249
17.4913 63.4033
17.5365 58.4208
17.5815 57.8704
17.6268 58.0794
17.6718 58.563
17.7171 59.3317
17.7622 60.5728
17.8074 61.885
17.8525 63.2427
17.8977 72.5685
17.9428 85.6532
17.9881 87.5512
18.0331 82.9915
18.0784 83.974
18.1237 95.2703
18.1688 125.646
18.214 150.918
18.2591 125.491
18.3044 88.4964
18.3495 78.5869
18.3948 83.6735
18.4399 96.8945
18.4852 101.038
18.5303 83.8686
18.5756 66.8447
18.6207 62.1964
18.666 60.1473
18.7112 59.1747
18.7565 58.2802
18.8016 57.8969
18.8469 57.2386
18.892 56.8949
18.9374 56.4639
18.9825 55.9633
19.0278 55.8638
19.073 55.8395
19.1183 56.5277
19.1635 59.2586
19.2088 61.6041
19.254 60.8823
19.2993 60.4326
19.3447 61.4779
19.3898 63.6457
19.4352 69.203
19.4804 73.7193
19.5257 67.6933
19.5709 57.861
19.6163 53.8075
19.6615 52.9599
19.7068 52.661
19.752 52.4289
19.7974 52.6671
19.8426 54.0041
19.888 56.4574
19.9332 57.6484
19.9786 56.9302
20.0238 56.1126
20.0692 58.048
20.1144 62.3054
20.1598 68.7225
20.205 71.3861
20.2504 66.3934
20.2957 59.4045
20.3411 57.2911
20.3863 60.5604
20.4318 64.3256
20.477 61.7473
20.5224 54.6161
20.5677 50.8454
20.6131 49.5882
20.6586 48.9764
20.7038 48.8939
20.7493 48.641
20.7945 48.7838
20.84 48.6351
20.8853 48.1406
20.9307 47.8802
20.976 48.081
21.0215 48.2524
21.0668 48.7635
21.1122 48.5487
21.1575 48.1293
21.203 48.1416
21.2483 48.6034
21.2938 49.5601
21.3391 50.4747
21.3846 50.3021
21.4299 49.1176
21.4754 48.0561
21.5207 47.8084
21.5662 48.1149
21.6116 48.6576
21.6571 50.7754
21.7024 52.7481
21.7479 53.1818
21.7933 52.3674
21.8388 52.8765
21.8843 54.7748
21.9297 57.3718
21.9752 61.8654
22.0206 65.3703
22.0661 62.4335
22.1115 56.2902
22.157 53.6556
22.2024 55.0218
22.248 55.552
22.2933 53.4032
22.3389 50.1903
22.3843 48.6988
22.4299 47.9727
22.4753 47.9061
22.5208 47.9521
22.5662 47.9176
22.6118 47.8958
22.6572 48.2665
22.7028 49.6945
22.7483 50.9606
22.7939 51.3677
22.8393 50.6662
22.8849 50.544
22.9303 50.7227
22.9759 51.6537
23.0214 53.6255
23.067 56.9627
23.1126 57.0842
23.1581 53.6382
23.2037 49.9695
23.2492 48.8217
23.2948 49.1158
23.3403 50.7516
23.3859 51.3629
23.4314 50.7387
23.477 50.1602
23.5225 49.9124
23.5682 50.3024
23.6137 52.0268
23.6593 54.7149
23.7048 57.3881
23.7505 55.2903
23.796 50.3238
23.8417 46.8724
23.8872 45.4981
23.9329 45.0341
23.9784 44.6525
24.0241 44.34
24.0697 43.9956
24.1154 43.6962
24.1609 43.4349
24.2066 43.3179
24.2522 43.1011
24.2979 42.9093
24.3434 42.8209
24.3892 42.6579
24.4349 42.5067
24.4805 42.2057
24.5262 42.4393
24.5718 41.9933
24.6175 42.2685
24.6631 42.3834
24.7089 42.3406
24.7545 42.1308
24.8002 41.8629
24.8458 41.8907
24.8916 41.9365
24.9372 42.0736
24.983 42.0416
25.0286 42.1865
25.0744 42.595
25.12 42.9909
25.1658 42.9389
25.2114 43.0272
25.2572 43.6887
25.3029 43.8141
25.3487 43.751
25.3943 43.403
25.4402 43.8217
25.4858 44.2494
25.5316 43.4333
25.5773 41.7106
25.6231 40.8248
25.669 40.1329
25.7147 40.072
25.7605 40.1784
25.8062 40.4289
25.8521 40.4691
25.8977 40.3946
25.9436 40.2462
25.9893 40.092
26.0352 40.2997
26.0809 40.105
26.1268 40.5079
26.1725 40.9637
26.2184 41.2748
26.2641 41.2496
26.31 40.7369
26.3557 40.3947
26.4017 40.233
26.4474 40.1631
26.4933 40.0874
26.5391 40.2497
26.585 40.3382
26.6308 40.3398
26.6767 40.5756
26.7225 41.2976
26.7684 41.9698
26.8142 41.7257
26.8601 40.8818
26.9059 40.1945
26.9519 39.985
26.9979 39.6569
27.0437 39.0643
27.0896 38.6303
27.1354 38.5694
27.1814 38.3111
27.2272 38.2544
27.2732 38.3163
27.3191 38.1644
27.3651 38.2554
27.4109 37.7547
27.4569 37.901
27.5027 37.8763
27.5488 37.9492
27.5946 37.8904
27.6407 38.0267
27.6865 38.2994
27.7326 38.0643
27.7784 37.994
27.8245 37.6941
27.8703 37.6593
27.9164 37.7929
27.9623 37.5209
28.0084 37.7627
28.0543 37.8516
28.1003 37.9156
28.1462 38.3769
28.1923 38.563
28.2384 38.3301
28.2843 37.8528
28.3304 37.4226
28.3764 37.2098
28.4225 36.9182
28.4684 36.5018
28.5145 35.7552
28.5605 35.6204
28.6066 35.4096
28.6526 35.2644
28.6987 35.285
28.7447 35.0368
28.7908 34.9821
28.8368 34.9226
28.8829 34.9058
28.9289 34.8535
28.9751 34.6889
29.0211 34.7313
29.0673 34.6979
29.1133 34.5228
29.1595 34.2518
29.2055 33.9765
29.2517 33.9141
29.2977 33.7678
29.3439 33.6479
29.3899 33.6091
29.4361 33.4868
29.4824 33.5237
29.5284 33.6908
29.5746 33.485
29.6207 33.084
29.6669 32.8918
29.713 32.664
29.7593 32.4977
29.8053 32.521
29.8516 32.4323
29.8977 32.3422
29.9439 32.2526
29.99 32.2106
30.0363 31.9656
30.0824 32.1344
30.1287 31.9398
30.1748 31.9084
30.2211 31.7638
30.2673 31.7352
30.3136 31.9764
30.3597 32.0467
30.406 32.0817
30.4522 31.8287
30.4985 31.8033
30.5447 31.7596
30.591 31.6119
30.6372 31.5664
30.6835 31.383
30.7297 31.4968
30.7761 31.7133
30.8224 31.7091
30.8686 31.6568
30.915 31.5634
30.9612 31.3704
31.0076 31.1066
31.0538 31.0227
31.1002 30.9024
31.1464 30.7448
31.1928 30.7222
31.2391 30.713
31.2855 30.4952
31.3317 30.3933
31.3781 30.4801
31.4244 30.3405
31.4708 30.2694
31.5171 30.2843
31.5636 30.51
31.6098 30.3295
31.6563 30.3666
31.7026 30.1134
31.7491 29.9626
31.7953 29.8942
31.8418 29.7574
31.8881 29.7021
31.9346 29.6362
31.9809 29.6256
32.0275 29.4754
32.074 29.5569
32.1203 29.3992
32.1668 29.49
32.2132 29.2905
32.2597 29.0778
32.306 29.0098
32.3526 28.7173
32.399 28.5958
32.4455 28.5277
32.4919 28.4645
32.5385 28.2998
32.5848 28.1822
32.6314 28.2294
32.6778 28.0367
32.7244 27.9254
32.7708 27.8031
32.8174 27.8224
32.8638 27.8912
32.9104 27.8167
32.9569 27.6985
33.0035 27.553
33.0499 27.5728
33.0966 27.4234
33.143 27.3302
33.1897 27.2524
33.2361 27.1655
33.2828 27.1947
33.3293 27.0419
33.3759 27.0651
33.4226 27.0065
33.4691 27.0328
33.5158 26.8626
33.5623 26.7011
33.609 26.5067
33.6555 26.3487
33.7022 26.2633
33.7487 26.208
33.7954 26.2637
33.842 26.0773
33.8887 25.9758
33.9353 25.9572
33.982 25.8193
34.0286 25.7502
34.0753 25.7729
34.1219 25.6349
34.1687 25.4772
34.2152 25.4912
34.262 25.2846
34.3086 25.2324
34.3554 25.1608
34.402 25.0482
34.4488 25.0426
34.4954 25.0623
34.5422 24.9246
34.5889 24.7511
34.6357 24.6438
34.6825 24.6086
34.7292 24.5575
34.776 24.4794
34.8227 24.3785
34.8695 24.3646
34.9162 24.2292
34.9631 24.2547
35.0098 24.1609
35.0566 24.0526
35.1033 24.0106
35.1502 23.9731
35.1969 23.9355
35.2438 23.8037
35.2906 23.7333
35.3375 23.6857
35.3842 23.6661
35.4311 23.6227
35.4779 23.5663
35.5248 23.5246
35.5716 23.4858
35.6185 23.4992
35.6653 23.404
35.7123 23.3294
35.759 23.2937
35.806 23.1113
35.8528 22.9791
35.8998 22.8553
35.9468 22.7851
35.9936 22.7999
36.0406 22.6941
36.0874 22.753
36.1345 22.6114
36.1813 22.5932
36.2283 22.4109
36.2752 22.3768
36.3222 22.4263
36.3691 22.2632
36.4161 22.1458
36.463 22.1185
36.5101 22.0847
36.557 22.0842
36.6041 21.8704
36.651 21.9058
36.6981 21.8269
36.745 21.8029
36.7921 21.6792
36.839 21.6482
36.8861 21.5455
36.9331 21.524
36.9802 21.3746
37.0272 21.3438
37.0743 21.2517
37.1213 21.1647
37.1684 21.1183
37.2154 21.0983
37.2626 21.0002
37.3098 20.9285
37.3568 20.9243
37.404 20.8239
37.451 20.7232
37.4982 20.6849
37.5452 20.667
37.5924 20.4871
37.6395 20.5585
37.6867 20.4567
37.7337 20.3645
37.781 20.3475
37.8281 20.2329
37.8753 20.1666
37.9224 20.0881
37.9697 19.989
38.0168 19.9554
38.064 19.8947
38.1111 19.8609
38.1584 19.7909
38.2056 19.6948
38.2529 19.6547
38.3 19.563
38.3473 19.531
38.3945 19.4089
38.4418 19.3887
38.489 19.3738
38.5363 19.23
38.5837 19.2501
38.6309 19.1239
38.6782 19.1185
38.7254 19.0147
38.7728 18.9716
38.82 18.9184
38.8674 18.8568
38.9146 18.8128
38.9621 18.7669
39.0093 18.7296
39.0567 18.6339
39.104 18.5713
39.1514 18.4785
39.1987 18.4267
39.2461 18.4201
39.2934 18.3376
39.3409 18.1945
39.3882 18.1817
39.4356 18.1941
39.483 18.1259
39.5304 18.0781
39.5778 17.9936
39.6253 17.9002
39.6726 17.8812
39.7201 17.8249
39.7675 17.7697
39.815 17.6983
39.8624 17.6033
39.9099 17.64
39.9575 17.5198
40.0049 17.4522
40.0525 17.4405
40.0999 17.3637
40.1474 17.3069
40.1949 17.1967
40.2425 17.1338
40.2899 17.2382
40.3375 17.1179
40.385 17.0571
40.4326 17.0176
40.48 16.8957
40.5277 16.8951
40.5752 16.7997
40.6228 16.7841
40.6703 16.7267
40.718 16.7007
40.7655 16.6408
40.8132 16.575
40.8607 16.5331
40.9084 16.503
40.9559 16.4301
41.0036 16.3594
41.0512 16.3212
41.0989 16.3066
41.1465 16.208
41.1942 16.1678
41.242 16.0358
41.2896 16.0075
41.3373 15.987
41.3849 15.966
41.4327 15.9036
41.4803 15.8048
41.5281 15.7507
41.5758 15.7069
41.6236 15.6423
41.6712 15.6732
41.7191 15.5464
41.7667 15.5285
41.8146 15.4926
41.8622 15.3707
41.9101 15.3491
41.9578 15.3404
42.0057 15.2773
42.0534 15.1607
42.1013 15.1906
42.149 15.0213
42.1969 15.0169
42.2446 15.0239
42.2925 14.9517
42.3403 14.8372
42.3882 14.8512
42.436 14.8157
42.4839 14.7355
42.5319 14.6922
42.5797 14.6818
42.6277 14.6051
42.6755 14.5281
42.7235 14.486
42.7713 14.4506
42.8193 14.4219
42.8671 14.2913
42.9152 14.3237
42.963 14.231
43.0111 14.1625
43.0589 14.1539
43.107 14.1136
43.1549 14.0956
43.2029 14.0045
43.2508 13.9983
43.2989 13.9199
43.3468 13.8197
43.3949 13.8322
43.4429 13.744
43.491 13.7281
43.5389 13.6829
43.5871 13.6281
43.635 13.5968
43.6832 13.5342
43.7312 13.4491
43.7793 13.4536
43.8273 13.3844
43.8755 13.3571
43.9237 13.2964
43.9717 13.3134
44.0199 13.2449
44.068 13.2034
44.1162 13.1162
44.1642 13.0693
44.2125 13.05
44.2606 12.9877
44.3088 12.973
44.3569 12.9043
44.4052 12.8863
44.4533 12.771
44.5016 12.7381
44.5497 12.7191
44.598 12.6762
44.6461 12.6432
44.6945 12.5301
44.7426 12.5457
44.791 12.4949
44.8391 12.4434
44.8875 12.3805
44.9357 12.3991
44.984 12.3454
45.0322 12.2878
45.0806 12.1889
45.1288 12.2125
45.1773 12.1626
45.2257 12.12
45.2739 12.0611
45.3224 11.9999
45.3706 12.0195
45.4191 11.9368
45.4673 11.9314
45.5158 11.8777
45.5641 11.796
45.6126 11.7383
45.6609 11.7396
45.7094 11.6698
45.7577 11.6194
45.8063 11.5988
45.8546 11.584
45.9031 11.5221
45.9515 11.4789
46.0001 11.4053
46.0484 11.4055
46.097 11.4002
46.1454 11.297
46.194 11.2457
46.2424 11.233
46.291 11.2458
46.3395 11.1465
46.3881 11.0865
46.4365 11.1161
46.4852 11.0492
46.5337 11.0052
46.5823 10.9763
46.631 10.8923
46.6795 10.8765
46.7282 10.8465
46.7767 10.8057
46.8254 10.7176
46.8739 10.6804
46.9226 10.668
46.9712 10.6133
47.0199 10.5676
47.0685 10.529
47.1173 10.4897
47.1658 10.48
47.2146 10.4208
47.2632 10.3813
47.312 10.354
47.3606 10.3211
47.4095 10.2737
47.4581 10.2114
47.5069 10.1868
47.5556 10.1772
47.6044 10.1442
47.6531 10.1087
47.702 10.0359
47.7507 10.0234
47.7996 10.0165
47.8483 9.92459
47.8972 9.92463
47.9461 9.8798
47.9948 9.79688
48.0438 9.76904
48.0925 9.80097
48.1415 9.76712
48.1902 9.71728
48.2392 9.64728
48.288 9.66725
48.337 9.60482
48.3858 9.53719
48.4348 9.53399
48.4837 9.52016
48.5327 9.46727
48.5815 9.4611
48.6306 9.40742
48.6795 9.31801
48.7285 9.32347
48.7774 9.28417
48.8265 9.23741
48.8754 9.20373
48.9245 9.21301
48.9734 9.16294
49.0226 9.137
49.0715 9.09684
49.1206 9.07342
49.1696 9.02208
49.2188 8.9783
49.2679 8.95532
49.3169 8.90385
49.3661 8.89634
49.4151 8.8485
49.4643 8.79544
49.5134 8.78965
49.5626 8.71676
49.6117 8.7182
49.6609 8.71508
49.71 8.62988
49.7592 8.59907
49.8083 8.54693
49.8576 8.5515
49.9067 8.5101
49.956 8.47731
50.0052 8.47359
50.0545 8.44108
50.1036 8.39472
50.153 8.35453
50.2022 8.34088
50.2515 8.27061
50.3007 8.27992
50.3501 8.18784
50.3993 8.18706
50.4487 8.15056
50.498 8.1442
50.5474 8.08429
50.5966 8.06896
50.6461 8.02438
50.6955 8.02582
50.7448 7.95668
50.7943 7.93877
50.8436 7.93644
50.8931 7.90653
50.9424 7.85034
50.9919 7.83305
51.0413 7.82416
51.0908 7.76474
51.1402 7.74097
51.1897 7.70467
51.2391 7.65244
51.2887 7.66158
51.3381 7.59455
51.3877 7.58194
51.4371 7.54845
51.4867 7.51204
51.5362 7.49109
51.5858 7.46505
51.6353 7.39758
51.6849 7.41276
51.7344 7.3523
51.7841 7.34642
51.8336 7.2944
51.8833 7.25403
51.9328 7.23028
51.9826 7.21335
52.0323 7.19112
52.0818 7.16406
52.1316 7.10221
52.1812 7.07754
52.231 7.03653
52.2806 7.03136
52.3304 7.03479
52.38 6.945
52.4298 6.95342
52.4794 6.91879
52.5293 6.88746
52.5789 6.87571
52.6288 6.77387
52.6785 6.81074
52.7284 6.77269
52.7781 6.76669
52.828 6.72684
52.8777 6.63769
52.9276 6.68881
52.9774 6.6509
53.0273 6.60189
53.0771 6.57935
53.1271 6.55882
53.1769 6.51425
53.2269 6.48286
53.2767 6.46099
53.3267 6.44477
53.3765 6.41417
53.4266 6.38543
53.4766 6.3745
53.5265 6.3175
53.5765 6.30078
53.6264 6.27727
53.6765 6.26444
53.7264 6.22624
53.7765 6.22655
53.8265 6.17361
53.8766 6.10323
53.9266 6.11078
53.9767 6.05836
54.0267 6.04482
54.0769 5.98037
54.1269 5.97244
54.1771 5.93577
54.2271 5.94668
54.2773 5.86954
54.3274 5.86148
54.3776 5.8339
54.4277 5.7798
54.478 5.72514
54.528 5.69866
54.5783 5.61294
54.6285 5.53553
54.6788 5.53653
54.7289 5.4891
54.7792 5.4905
54.8296 5.39531
54.8798 5.35329
54.9301 5.33274
54.9803 5.31896
55.0307 5.32656
55.0809 5.22027
55.1314 5.18882
55.1816 5.11259
55.232 5.04164
55.2823 5.01365
55.3328 4.95222
55.383 4.92079
55.4335 4.83848
55.4838 4.8135
55.5344 4.79472
55.5847 4.69505
55.6352 4.7413
55.6856 4.69136
55.7361 4.67296