File: XRD/Ni3Fe_FD0995.xy
TT I
1.27165 7.35404
1.31627 6.64069
1.36089 6.7084
1.40551 5.60292
1.45013 5.79429
1.49476 5.77751
1.53938 5.24967
1.584 5.04174
1.62863 4.9645
1.67325 5.2953
1.71787 4.94507
1.7625 4.73686
1.80712 4.8401
1.85174 4.90817
1.89636 5.00153
1.94099 5.04898
1.98562 5.09777
2.03025 4.30846
2.07487 4.92152
2.11949 5.04576
2.16411 5.23663
2.20874 15.5226
2.25338 26.7802
2.298 6.40578
2.34263 6.31064
2.38725 6.067
2.43188 6.32297
2.4765 8.05059
2.52115 7.83996
2.56577 7.44168
2.6104 8.46252
2.65503 7.82593
2.69965 8.88461
2.7443 8.67627
2.78893 8.6075
2.83356 8.32653
2.87818 8.54201
2.92281 9.40364
2.96744 9.70248
3.01209 10.3276
3.05672 11.2581
3.10135 12.0957
3.14599 13.1039
3.19062 14.7688
3.23527 14.9921
3.2799 15.5823
3.32454 17.1064
3.36917 17.5995
3.4138 18.9387
3.45844 19.7907
3.50309 20.8657
3.54773 21.6631
3.59237 23.8815
3.637 103.947
3.68164 66.0412
3.7263 26.2932
3.77094 26.306
3.81558 26.5961
3.86022 27.0028
3.90486 28.8927
3.9495 29.4621
3.99416 30.9634
4.0388 31.9149
4.08344 33.263
4.12809 34.5069
4.17273 36.5759
4.21738 43.1461
4.26204 283.11
4.30669 255.527
4.35133 49.7641
4.39598 44.5717
4.44063 54.5326
4.4853 69.0703
4.52995 50.0627
4.5746 50.4465
4.61925 52.2695
4.6639 54.4961
4.70855 56.8072
4.75322 59.513
4.79788 62.561
4.84253 65.6227
4.88719 69.8423
4.93184 73.064
4.97652 77.7353
5.02118 83.9078
5.06583 90.2108
5.11049 100.024
5.15515 170.096
5.19981 267.362
5.24449 2181.59
5.28916 13398.5
5.33382 2766.06
5.37848 173.576
5.42315 123.678
5.46783 110.114
5.5125 102.892
5.55716 99.5482
5.60183 95.6595
5.6465 94.7315
5.69117 91.757
5.73586 89.8097
5.78053 89.1311
5.8252 87.8195
5.86988 88.4008
5.91455 89.4162
5.95924 94.6698
6.00392 160.982
6.0486 751.507
6.09328 4522.4
6.13795 3250.13
6.18263 214.752
6.22733 89.0645
6.27201 81.1492
6.3167 105.186
6.36138 81.1769
6.40606 67.4366
6.45075 65.7511
6.49545 64.1899
6.54014 62.9045
6.58483 61.5179
6.62952 62.2222
6.67421 97.7921
6.71892 159.129
6.76361 70.0366
6.8083 58.1933
6.853 56.7917
6.89769 56.0875
6.94239 55.6505
6.98711 55.0386
7.03181 54.6381
7.07651 54.9222
7.12121 54.1158
7.16591 54.3622
7.21063 54.8048
7.25533 71.5557
7.30004 199.186
7.34475 99.49
7.38945 56.3498
7.43416 53.9324
7.47889 53.6298
7.5236 53.8915
7.56831 54.7575
7.61303 56.4523
7.65774 56.8699
7.70247 55.2252
7.74719 55.2759
7.79191 56.0494
7.83663 55.7978
7.88135 56.8479
7.92607 57.3452
7.97081 58.8125
8.01553 59.3313
8.06026 61.3254
8.10498 62.844
8.14971 73.1996
8.19446 72.2036
8.23919 68.1365
8.28392 69.8495
8.32865 71.8906
8.37339 76.0384
8.41812 82.6123
8.46288 113.52
8.50761 138.742
8.55235 310.666
8.59709 1101.4
8.64183 2361.5
8.68658 962.544
8.73134 163.085
8.77609 96.3516
8.82083 90.4667
8.86558 87.2037
8.91033 88.1639
8.9551 90.8927
8.99985 84.3133
9.04461 81.4985
9.08936 80.935
9.13412 79.8972
9.17888 80.4649
9.22365 80.93
9.26841 80.1688
9.31318 80.6326
9.35794 80.771
9.4027 80.8726
9.44749 82.0054
9.49226 82.4712
9.53703 83.6056
9.5818 85.1257
9.62657 90.8925
9.67134 98.154
9.71614 91.6791
9.76091 91.7097
9.80569 93.7848
9.85047 97.0848
9.89525 123.885
9.94005 136.276
9.98484 150.392
10.0296 282.078
10.0744 725.792
10.1192 1770.2
10.164 1594.64
10.2088 373.069
10.2536 122.917
10.2984 111.598
10.3432 113.711
10.388 102.068
10.4328 109.102
10.4776 143.009
10.5224 261.718
10.5672 528.198
10.612 515.457
10.6568 197.847
10.7017 94.8439
10.7465 84.6952
10.7913 81.3362
10.8361 79.6449
10.8809 77.5374
10.9257 77.5204
10.9706 78.2758
11.0154 73.5266
11.0602 71.406
11.105 70.5587
11.1499 75.865
11.1947 85.1259
11.2395 74.5931
11.2844 69.8329
11.3292 65.7241
11.374 64.8544
11.4189 64.3698
11.4637 63.6776
11.5086 64.5199
11.5534 68.0446
11.5983 64.891
11.6431 62.2358
11.688 61.8464
11.7328 61.4015
11.7777 61.7583
11.8225 61.1935
11.8674 61.224
11.9122 61.4054
11.9571 61.3252
12.002 61.7146
12.0468 64.6069
12.0917 74.3713
12.1366 96.9319
12.1814 148.235
12.2263 205.414
12.2712 162.523
12.3161 95.0277
12.3609 69.9563
12.4058 63.7418
12.4507 63.147
12.4956 63.1112
12.5405 63.2565
12.5853 64.2746
12.6302 73.3965
12.6751 80.124
12.72 69.2916
12.7649 66.2294
12.8098 66.8413
12.8547 67.9402
12.8996 69.2689
12.9445 70.5239
12.9894 72.1031
13.0343 73.5132
13.0792 76.6478
13.1242 82.5796
13.1691 101.883
13.214 134.165
13.2589 222.032
13.3038 375.157
13.3487 437.301
13.3937 256.154
13.4386 121.396
13.4835 98.796
13.5285 110.419
13.5734 144.63
13.6183 235.91
13.6633 355.258
13.7082 338.093
13.7531 180.611
13.7981 94.7057
13.843 79.9558
13.888 77.7032
13.9329 75.1661
13.9779 74.0545
14.0228 72.4948
14.0678 71.23
14.1127 70.8511
14.1577 70.9655
14.2027 70.251
14.2476 68.8916
14.2926 69.0922
14.3376 70.6438
14.3825 68.6825
14.4275 67.1853
14.4725 67.1219
14.5175 67.1957
14.5624 67.3589
14.6074 69.9903
14.6524 70.4362
14.6974 69.0465
14.7424 69.4112
14.7874 74.0019
14.8324 82.7729
14.8774 102.573
14.9224 146.067
14.9674 210.842
15.0124 219.428
15.0574 150.79
15.1024 89.1114
15.1474 70.9203
15.1924 68.9078
15.2374 70.0488
15.2824 69.0896
15.3274 67.0322
15.3725 65.3547
15.4175 65.0261
15.4625 64.5718
15.5076 64.8702
15.5526 64.6984
15.5976 64.1636
15.6426 64.4278
15.6877 68.3482
15.7327 74.6653
15.7778 88.2868
15.8228 118.739
15.8679 169.849
15.9129 196.474
15.958 153.896
16.003 94.6066
16.0481 67.0747
16.0931 63.932
16.1382 61.7319
16.1833 59.377
16.2283 57.8056
16.2734 57.0332
16.3185 57.4472
16.3636 58.5123
16.4086 56.9468
16.4537 55.1474
16.4988 54.447
16.5439 54.3413
16.589 53.8567
16.6341 53.6198
16.6792 53.3375
16.7243 53.8649
16.7694 53.9276
16.8145 53.7666
16.8596 54.2868
16.9047 55.7813
16.9498 55.9962
16.9949 54.5421
17.04 54.274
17.0851 55.2322
17.1302 56.6552
17.1754 59.4309
17.2205 64.4424
17.2656 72.4968
17.3108 81.6864
17.3559 80.5724
17.401 69.1059
17.4462 60.4638
17.4913 57.7063
17.5365 57.6762
17.5815 57.7894
17.6268 57.8959
17.6718 59.0633
17.7171 59.6005
17.7622 59.5783
17.8074 60.1243
17.8525 61.7063
17.8977 65.096
17.9428 69.9115
17.9881 78.2867
18.0331 95.6816
18.0784 120.23
18.1237 138.89
18.1688 127.995
18.214 100.044
18.2591 83.3524
18.3044 87.9022
18.3495 99.4655
18.3948 106.359
18.4399 94.614
18.4852 75.7398
18.5303 64.4729
18.5756 60.9579
18.6207 59.8434
18.666 59.0539
18.7112 58.452
18.7565 57.7781
18.8016 57.3827
18.8469 56.6563
18.892 56.6827
18.9374 55.9424
18.9825 55.6217
19.0278 55.7532
19.073 55.6173
19.1183 56.0402
19.1635 56.5427
19.2088 57.8737
19.254 60.0102
19.2993 64.7316
19.3447 71.4482
19.3898 75.4894
19.4352 70.8923
19.4804 61.5153
19.5257 55.5734
19.5709 53.032
19.6163 52.7823
19.6615 52.6254
19.7068 52.0345
19.752 52.001
19.7974 52.3282
19.8426 53.0845
19.888 53.569
19.9332 54.5661
19.9786 56.8924
20.0238 60.8734
20.0692 66.3256
20.1144 69.0343
20.1598 66.6279
20.205 62.0098
20.2504 60.6348
20.2957 63.0121
20.3411 65.0105
20.3863 62.9326
20.4318 57.2386
20.477 52.4067
20.5224 50.7916
20.5677 49.9347
20.6131 49.2363
20.6586 48.7724
20.7038 48.4103
20.7493 48.0572
20.7945 47.943
20.84 47.8751
20.8853 47.8211
20.9307 47.4995
20.976 47.5144
21.0215 47.4849
21.0668 47.9415
21.1122 48.2547
21.1575 48.9397
21.203 49.9551
21.2483 50.4453
21.2938 50.37
21.3391 48.9035
21.3846 47.9095
21.4299 47.3041
21.4754 47.4109
21.5207 47.4586
21.5662 47.6657
21.6116 47.7733
21.6571 48.3288
21.7024 49.1883
21.7479 50.9168
21.7933 53.6298
21.8388 57.4961
21.8843 61.7487
21.9297 63.5398
21.9752 61.6937
22.0206 57.9992
22.0661 55.379
22.1115 55.2986
22.157 55.0908
22.2024 53.1793
22.248 50.3263
22.2933 48.9254
22.3389 48.1109
22.3843 48.0143
22.4299 47.9322
22.4753 47.923
22.5208 47.5558
22.5662 47.342
22.6118 47.5728
22.6572 47.5161
22.7028 47.9595
22.7483 48.2271
22.7939 49.0787
22.8393 50.3369
22.8849 52.904
22.9303 55.1336
22.9759 57.0177
23.0214 56.5053
23.067 53.3161
23.1126 50.0
23.1581 48.0732
23.2037 47.7899
23.2492 47.6645
23.2948 47.572
23.3403 47.6676
23.3859 48.4489
23.4314 49.3829
23.477 51.1848
23.5225 53.8376
23.5682 56.3069
23.6137 57.2934
23.6593 54.6687
23.7048 50.5815
23.7505 47.2945
23.796 45.7976
23.8417 45.1502
23.8872 44.5273
23.9329 44.3096
23.9784 43.9925
24.0241 43.805
24.0697 43.5215
24.1154 43.3612
24.1609 43.0556
24.2066 42.8575
24.2522 42.8234
24.2979 42.5283
24.3434 42.3062
24.3892 42.2573
24.4349 42.2394
24.4805 41.9971
24.5262 42.2373
24.5718 42.0257
24.6175 42.0849
24.6631 41.8999
24.7089 41.7462
24.7545 41.4521
24.8002 41.3784
24.8458 41.2597
24.8916 41.0509
24.9372 41.2308
24.983 41.538
25.0286 41.7849
25.0744 42.3635
25.12 42.7361
25.1658 43.4192
25.2114 43.7461
25.2572 43.8359
25.3029 44.1034
25.3487 44.2498
25.3943 43.7213
25.4402 42.6431
25.4858 41.5799
25.5316 40.5673
25.5773 40.0334
25.6231 40.0646
25.669 39.7341
25.7147 39.6709
25.7605 39.6225
25.8062 39.6762
25.8521 39.7599
25.8977 39.6788
25.9436 39.9225
25.9893 39.9938
26.0352 40.7656
26.0809 40.7386
26.1268 40.9032
26.1725 40.7185
26.2184 39.9745
26.2641 39.3819
26.31 39.1657
26.3557 39.2837
26.4017 39.2605
26.4474 39.5622
26.4933 39.8081
26.5391 40.3013
26.585 40.8315
26.6308 41.2584
26.6767 41.3334
26.7225 41.1686
26.7684 40.5412
26.8142 39.9947
26.8601 39.6834
26.9059 39.3647
26.9519 38.7082
26.9979 38.5051
27.0437 38.0781
27.0896 37.8611
27.1354 37.9783
27.1814 37.8332
27.2272 37.6654
27.2732 37.6233
27.3191 37.4807
27.3651 37.6447
27.4109 37.5001
27.4569 37.6383
27.5027 37.7462
27.5488 37.7749
27.5946 37.5472
27.6407 37.3752
27.6865 37.3189
27.7326 36.993
27.7784 37.028
27.8245 36.9074
27.8703 37.2386
27.9164 37.3016
27.9623 37.578
28.0084 37.9661
28.0543 38.4747
28.1003 38.2176
28.1462 38.0068
28.1923 37.7256
28.2384 37.203
28.2843 36.8668
28.3304 36.3803
28.3764 36.0733
28.4225 35.644
28.4684 35.615
28.5145 35.2486
28.5605 35.1423
28.6066 34.9797
28.6526 34.9171
28.6987 34.8275
28.7447 34.8838
28.7908 34.8061
28.8368 34.7344
28.8829 34.7856
28.9289 34.6997
28.9751 34.5492
29.0211 34.2804
29.0673 33.9418
29.1133 33.8956
29.1595 33.6107
29.2055 33.6776
29.2517 33.6455
29.2977 33.6358
29.3439 33.6666
29.3899 33.6393
29.4361 33.4655
29.4824 33.2951
29.5284 33.1014
29.5746 32.6725
29.6207 32.4064
29.6669 32.3467
29.713 32.2895
29.7593 32.2619
29.8053 32.31
29.8516 32.1635
29.8977 32.1268
29.9439 31.9477
29.99 31.9895
30.0363 31.8061
30.0824 31.935
30.1287 31.8309
30.1748 31.8332
30.2211 31.8668
30.2673 31.6058
30.3136 31.6648
30.3597 31.545
30.406 31.473
30.4522 31.4866
30.4985 31.4339
30.5447 31.4535
30.591 31.5128
30.6372 31.5973
30.6835 31.5331
30.7297 31.5074
30.7761 31.4816
30.8224 31.2168
30.8686 31.2228
30.915 31.0074
30.9612 30.8805
31.0076 30.72
31.0538 30.4937
31.1002 30.4417
31.1464 30.3335
31.1928 30.3025
31.2391 30.3237
31.2855 30.2337
31.3317 30.1731
31.3781 30.31
31.4244 30.3045
31.4708 30.2384
31.5171 30.2108
31.5636 30.1086
31.6098 29.9201
31.6563 29.7465
31.7026 29.6505
31.7491 29.4177
31.7953 29.5365
31.8418 29.4825
31.8881 29.5889
31.9346 29.5316
31.9809 29.5336
32.0275 29.232
32.074 29.2007
32.1203 29.0892
32.1668 28.9517
32.2132 28.8047
32.2597 28.5824
32.306 28.5852
32.3526 28.3812
32.399 28.3035
32.4455 28.217
32.4919 28.1116
32.5385 28.1013
32.5848 27.871
32.6314 27.8547
32.6778 27.8984
32.7244 27.691
32.7708 27.5805
32.8174 27.5676
32.8638 27.4465
32.9104 27.5969
32.9569 27.4905
33.0035 27.3244
33.0499 27.2901
33.0966 27.2896
33.143 27.2892
33.1897 27.2338
33.2361 27.0374
33.2828 27.0741
33.3293 26.8922
33.3759 26.8153
33.4226 26.7199
33.4691 26.5789
33.5158 26.4793
33.5623 26.3935
33.609 26.2812
33.6555 26.2125
33.7022 26.1248
33.7487 25.9711
33.7954 26.0328
33.842 25.8283
33.8887 25.7975
33.9353 25.7074
33.982 25.5338
34.0286 25.5576
34.0753 25.4233
34.1219 25.36
34.1687 25.2621
34.2152 25.2906
34.262 25.097
34.3086 24.9689
34.3554 25.0996
34.402 24.8965
34.4488 24.8309
34.4954 24.7583
34.5422 24.676
34.5889 24.4969
34.6357 24.5426
34.6825 24.4126
34.7292 24.3074
34.776 24.28
34.8227 24.1793
34.8695 24.1818
34.9162 24.143
34.9631 23.9879
35.0098 23.9603
35.0566 23.8717
35.1033 23.8077
35.1502 23.7742
35.1969 23.6986
35.2438 23.712
35.2906 23.6556
35.3375 23.5588
35.3842 23.5137
35.4311 23.4889
35.4779 23.5115
35.5248 23.4228
35.5716 23.3215
35.6185 23.2655
35.6653 23.1978
35.7123 23.127
35.759 22.9965
35.806 22.8406
35.8528 22.8323
35.8998 22.8591
35.9468 22.6729
35.9936 22.6524
36.0406 22.5294
36.0874 22.5488
36.1345 22.5373
36.1813 22.3815
36.2283 22.2524
36.2752 22.2221
36.3222 22.251
36.3691 22.1296
36.4161 22.0072
36.463 21.9959
36.5101 22.043
36.557 21.9177
36.6041 21.7484
36.651 21.8194
36.6981 21.7359
36.745 21.6162
36.7921 21.6057
36.839 21.3819
36.8861 21.3686
36.9331 21.3837
36.9802 21.2436
37.0272 21.1914
37.0743 21.0348
37.1213 20.9236
37.1684 21.0023
37.2154 20.9487
37.2626 20.8088
37.3098 20.8346
37.3568 20.7636
37.404 20.6895
37.451 20.5882
37.4982 20.5152
37.5452 20.427
37.5924 20.3937
37.6395 20.4476
37.6867 20.3359
37.7337 20.2515
37.781 20.1546
37.8281 20.0737
37.8753 20.0397
37.9224 19.965
37.9697 19.868
38.0168 19.7993
38.064 19.7514
38.1111 19.6994
38.1584 19.5689
38.2056 19.6022
38.2529 19.5565
38.3 19.4837
38.3473 19.5318
38.3945 19.323
38.4418 19.2866
38.489 19.1975
38.5363 19.1263
38.5837 19.1158
38.6309 19.0211
38.6782 18.9956
38.7254 18.8723
38.7728 18.8482
38.82 18.7681
38.8674 18.7277
38.9146 18.6555
38.9621 18.6223
39.0093 18.6051
39.0567 18.5175
39.104 18.4573
39.1514 18.4049
39.1987 18.248
39.2461 18.2832
39.2934 18.2085
39.3409 18.1861
39.3882 18.0919
39.4356 17.9965
39.483 17.9534
39.5304 17.8879
39.5778 17.858
39.6253 17.8136
39.6726 17.8421
39.7201 17.7184
39.7675 17.6886
39.815 17.5929
39.8624 17.4874
39.9099 17.5576
39.9575 17.4448
40.0049 17.3819
40.0525 17.3195
40.0999 17.2791
40.1474 17.2084
40.1949 17.1046
40.2425 17.1244
40.2899 16.999
40.3375 16.9788
40.385 16.9329
40.4326 16.862
40.48 16.8306
40.5277 16.7973
40.5752 16.6799
40.6228 16.6663
40.6703 16.6222
40.718 16.5618
40.7655 16.5132
40.8132 16.4611
40.8607 16.4069
40.9084 16.3194
40.9559 16.3181
41.0036 16.2655
41.0512 16.2372
41.0989 16.1697
41.1465 16.0614
41.1942 16.0538
41.242 15.9778
41.2896 15.8758
41.3373 15.8331
41.3849 15.7904
41.4327 15.7468
41.4803 15.6927
41.5281 15.6613
41.5758 15.6072
41.6236 15.5276
41.6712 15.4806
41.7191 15.4249
41.7667 15.3707
41.8146 15.3503
41.8622 15.2842
41.9101 15.2464
41.9578 15.1643
42.0057 15.1435
42.0534 15.0969
42.1013 15.0672
42.149 15.0406
42.1969 14.9664
42.2446 14.879
42.2925 14.8201
42.3403 14.8056
42.3882 14.8011
42.436 14.678
42.4839 14.6358
42.5319 14.6273
42.5797 14.5923
42.6277 14.4159
42.6755 14.4595
42.7235 14.3754
42.7713 14.364
42.8193 14.3128
42.8671 14.2412
42.9152 14.1679
42.963 14.1149
43.0111 14.1026
43.0589 14.0545
43.107 13.9811
43.1549 14.0
43.2029 13.8622
43.2508 13.8677
43.2989 13.8279
43.3468 13.7935
43.3949 13.7168
43.4429 13.715
43.491 13.6348
43.5389 13.5264
43.5871 13.5583
43.635 13.5016
43.6832 13.4527
43.7312 13.3486
43.7793 13.3289
43.8273 13.2887
43.8755 13.2815
43.9237 13.2024
43.9717 13.2032
44.0199 13.1319
44.068 13.081
44.1162 13.0643
44.1642 13.0283
44.2125 12.9834
44.2606 12.8973
44.3088 12.7987
44.3569 12.8301
44.4052 12.7749
44.4533 12.7426
44.5016 12.6437
44.5497 12.6078
44.598 12.6327
44.6461 12.5242
44.6945 12.477
44.7426 12.4569
44.791 12.3783
44.8391 12.3966
44.8875 12.3525
44.9357 12.2562
44.984 12.2191
45.0322 12.1515
45.0806 12.1434
45.1288 12.1246
45.1773 12.0602
45.2257 12.032
45.2739 11.9877
45.3224 11.955
45.3706 11.921
45.4191 11.8402
45.4673 11.8289
45.5158 11.7403
45.5641 11.6977
45.6126 11.6842
45.6609 11.6037
45.7094 11.6126
45.7577 11.5544
45.8063 11.5521
45.8546 11.5082
45.9031 11.4681
45.9515 11.4064
46.0001 11.3504
46.0484 11.3136
46.097 11.3
46.1454 11.2686
46.194 11.2075
46.2424 11.1617
46.291 11.1348
46.3395 11.0759
46.3881 11.0455
46.4365 11.0098
46.4852 10.9344
46.5337 10.9402
46.5823 10.8704
46.631 10.8575
46.6795 10.7934
46.7282 10.7742
46.7767 10.6978
46.8254 10.6635
46.8739 10.632
46.9226 10.6093
46.9712 10.5664
47.0199 10.5124
47.0685 10.4946
47.1173 10.4514
47.1658 10.3765
47.2146 10.3839
47.2632 10.3105
47.312 10.2867
47.3606 10.238
47.4095 10.2415
47.4581 10.1267
47.5069 10.1254
47.5556 10.1092
47.6044 10.0435
47.6531 10.0052
47.702 9.94895
47.7507 9.96675
47.7996 9.90496
47.8483 9.87654
47.8972 9.86617
47.9461 9.80262
47.9948 9.76386
48.0438 9.74415
48.0925 9.72354
48.1415 9.70241
48.1902 9.61889
48.2392 9.61962
48.288 9.60266
48.337 9.58041
48.3858 9.46989
48.4348 9.46276
48.4837 9.42822
48.5327 9.41008
48.5815 9.36421
48.6306 9.35767
48.6795 9.33876
48.7285 9.232
48.7774 9.24725
48.8265 9.19413
48.8754 9.15975
48.9245 9.1206
48.9734 9.06972
49.0226 9.09216
49.0715 9.02765
49.1206 8.97494
49.1696 8.93691
49.2188 8.92535
49.2679 8.8841
49.3169 8.8405
49.3661 8.7855
49.4151 8.78288
49.4643 8.72552
49.5134 8.74748
49.5626 8.63642
49.6117 8.64343
49.6609 8.59059
49.71 8.56338
49.7592 8.58532
49.8083 8.48087
49.8576 8.47768
49.9067 8.43877
49.956 8.39851
50.0052 8.38513
50.0545 8.3434
50.1036 8.29128
50.153 8.31395
50.2022 8.22508
50.2515 8.23158
50.3007 8.15321
50.3501 8.14752
50.3993 8.09934
50.4487 8.08451
50.498 8.09145
50.5474 8.04803
50.5966 7.98138
50.6461 7.92618
50.6955 7.9412
50.7448 7.91135
50.7943 7.90137
50.8436 7.82304
50.8931 7.80594
50.9424 7.79835
50.9919 7.76184
51.0413 7.7521
51.0908 7.69832
51.1402 7.66295
51.1897 7.65045
51.2391 7.62829
51.2887 7.56439
51.3381 7.53726
51.3877 7.52112
51.4371 7.46079
51.4867 7.46448
51.5362 7.42536
51.5858 7.38592
51.6353 7.37487
51.6849 7.3533
51.7344 7.32245
51.7841 7.29415
51.8336 7.25221
51.8833 7.2263
51.9328 7.15794
51.9826 7.11648
52.0323 7.1282
52.0818 7.12101
52.1316 7.05599
52.1812 7.03511
52.231 6.97853
52.2806 7.01785
52.3304 6.93827
52.38 6.91788
52.4298 6.87173
52.4794 6.85921
52.5293 6.83796
52.5789 6.80938
52.6288 6.78039
52.6785 6.73561
52.7284 6.70095
52.7781 6.71224
52.828 6.69567
52.8777 6.62357
52.9276 6.59742
52.9774 6.60826
53.0273 6.56986
53.0771 6.53139
53.1271 6.51095
53.1769 6.45252
53.2269 6.45641
53.2767 6.41676
53.3267 6.41025
53.3765 6.42372
53.4266 6.34085
53.4766 6.31233
53.5265 6.24359
53.5765 6.23444
53.6264 6.22787
53.6765 6.21022
53.7264 6.15584
53.7765 6.18505
53.8265 6.12917
53.8766 6.06235
53.9266 6.09908
53.9767 6.0463
54.0267 6.00667
54.0769 5.94922
54.1269 5.94667
54.1771 5.91768
54.2271 5.90547
54.2773 5.81384
54.3274 5.86767
54.3776 5.79285
54.4277 5.78667
54.478 5.77642
54.528 5.71444
54.5783 5.66302
54.6285 5.6574
54.6788 5.59916
54.7289 5.5645
54.7792 5.5255
54.8296 5.51918
54.8798 5.4431
54.9301 5.39721
54.9803 5.35539
55.0307 5.3237
55.0809 5.24135
55.1314 5.22871
55.1816 5.18921
55.232 5.11561
55.2823 5.15098
55.3328 5.09709
55.383 4.97328
55.4335 4.93643
55.4838 4.90436
55.5344 4.90286
55.5847 4.79211
55.6352 4.86361
55.6856 4.8041
55.7361 4.72065