File: XRD/Ni3Fe_FD1026.xy
TT I
1.27165 6.70313
1.31627 6.32684
1.36089 6.45518
1.40551 5.90235
1.45013 6.01627
1.49476 5.53557
1.53938 5.79953
1.584 4.78167
1.62863 5.23146
1.67325 4.9819
1.71787 5.06103
1.7625 4.78822
1.80712 4.79234
1.85174 4.31077
1.89636 4.84102
1.94099 4.41483
1.98562 4.43202
2.03025 4.33932
2.07487 4.04077
2.11949 4.49073
2.16411 4.28214
2.20874 5.73825
2.25338 6.85869
2.298 5.42385
2.34263 5.05603
2.38725 6.19546
2.43188 6.43083
2.4765 6.9725
2.52115 7.2181
2.56577 7.9378
2.6104 8.57297
2.65503 8.43154
2.69965 8.52315
2.7443 8.65819
2.78893 8.63385
2.83356 8.53493
2.87818 9.0563
2.92281 9.17332
2.96744 9.63989
3.01209 10.3109
3.05672 11.1595
3.10135 12.3141
3.14599 12.7947
3.19062 14.0566
3.23527 14.9516
3.2799 15.5417
3.32454 16.096
3.36917 17.4233
3.4138 18.2703
3.45844 19.2121
3.50309 20.2057
3.54773 20.3831
3.59237 21.458
3.637 28.0821
3.68164 26.9774
3.7263 24.1967
3.77094 24.5095
3.81558 25.2849
3.86022 26.3828
3.90486 27.257
3.9495 28.4972
3.99416 28.6862
4.0388 30.2108
4.08344 31.1637
4.12809 32.1475
4.17273 33.6275
4.21738 35.6844
4.26204 52.6035
4.30669 57.4379
4.35133 40.8785
4.39598 40.8848
4.44063 42.8747
4.4853 46.3262
4.52995 46.2408
4.5746 48.6089
4.61925 50.2938
4.6639 52.68
4.70855 55.3215
4.75322 57.7282
4.79788 60.2676
4.84253 64.2192
4.88719 67.9746
4.93184 71.1369
4.97652 76.8786
5.02118 83.0521
5.06583 89.0903
5.11049 97.2083
5.15515 117.85
5.19981 229.851
5.24449 2413.91
5.28916 13266.4
5.33382 3342.99
5.37848 226.126
5.42315 124.816
5.46783 108.081
5.5125 100.811
5.55716 97.0144
5.60183 92.5959
5.6465 90.9165
5.69117 89.5191
5.73586 87.3565
5.78053 86.7834
5.8252 86.1638
5.86988 86.6144
5.91455 88.9014
5.95924 94.5657
6.00392 160.756
6.0486 851.913
6.09328 4420.41
6.13795 3478.25
6.18263 245.844
6.22733 87.4657
6.27201 75.1218
6.3167 73.1158
6.36138 68.3126
6.40606 64.5575
6.45075 63.1361
6.49545 61.2512
6.54014 60.1929
6.58483 58.5668
6.62952 57.7617
6.67421 58.8912
6.71892 64.4627
6.76361 56.1254
6.8083 53.8238
6.853 53.9952
6.89769 53.3014
6.94239 53.0459
6.98711 52.2702
7.03181 52.2959
7.07651 51.7883
7.12121 51.9039
7.16591 51.3607
7.21063 50.802
7.25533 51.7231
7.30004 62.1218
7.34475 56.4032
7.38945 51.8766
7.43416 51.1958
7.47889 51.481
7.5236 60.8971
7.56831 79.1669
7.61303 57.9186
7.65774 52.5927
7.70247 53.0092
7.74719 53.1637
7.79191 53.6906
7.83663 53.7543
7.88135 54.7331
7.92607 55.4738
7.97081 56.2385
8.01553 57.2659
8.06026 59.1597
8.10498 59.8676
8.14971 62.2798
8.19446 63.5748
8.23919 65.4413
8.28392 68.0288
8.32865 70.1521
8.37339 73.4669
8.41812 77.3029
8.46288 86.209
8.50761 126.998
8.55235 356.296
8.59709 1066.96
8.64183 2273.63
8.68658 1078.51
8.73134 177.79
8.77609 94.6811
8.82083 87.9939
8.86558 84.7783
8.91033 83.3014
8.9551 82.1591
8.99985 80.5948
9.04461 79.6948
9.08936 79.3449
9.13412 78.6055
9.17888 79.1629
9.22365 95.3106
9.26841 123.99
9.31318 92.1811
9.35794 80.2662
9.4027 79.7717
9.44749 79.9746
9.49226 80.5697
9.53703 81.5479
9.5818 82.9942
9.62657 84.4078
9.67134 85.8866
9.71614 87.2158
9.76091 89.0518
9.80569 90.7168
9.85047 93.2487
9.89525 98.415
9.94005 105.738
9.98484 145.182
10.0296 333.807
10.0744 750.094
10.1192 1740.86
10.164 1672.99
10.2088 445.436
10.2536 125.679
10.2984 102.615
10.3432 100.257
10.388 97.2329
10.4328 106.983
10.4776 156.405
10.5224 261.529
10.5672 497.898
10.612 533.714
10.6568 222.827
10.7017 106.617
10.7465 86.4875
10.7913 79.1285
10.8361 77.1622
10.8809 74.626
10.9257 73.1044
10.9706 72.2321
11.0154 70.134
11.0602 69.0118
11.105 67.7808
11.1499 66.7347
11.1947 66.9999
11.2395 65.1478
11.2844 64.4936
11.3292 63.4451
11.374 62.6737
11.4189 62.2709
11.4637 61.5576
11.5086 60.9322
11.5534 60.987
11.5983 60.3252
11.6431 60.3123
11.688 59.8408
11.7328 59.5287
11.7777 59.5258
11.8225 59.4698
11.8674 59.5347
11.9122 62.459
11.9571 70.5613
12.002 68.187
12.0468 64.4221
12.0917 75.6054
12.1366 96.8297
12.1814 144.73
12.2263 201.989
12.2712 172.565
12.3161 94.4442
12.3609 64.246
12.4058 60.7248
12.4507 60.8881
12.4956 60.7571
12.5405 60.7274
12.5853 61.5328
12.6302 62.0203
12.6751 63.8184
12.72 63.6522
12.7649 64.2666
12.8098 64.8313
12.8547 66.0359
12.8996 67.4109
12.9445 68.6284
12.9894 70.3375
13.0343 72.3073
13.0792 76.1918
13.1242 82.0157
13.1691 105.828
13.214 143.18
13.2589 222.757
13.3038 361.266
13.3487 440.374
13.3937 279.52
13.4386 126.165
13.4835 98.2423
13.5285 117.283
13.5734 152.334
13.6183 232.521
13.6633 353.434
13.7082 361.317
13.7531 204.099
13.7981 99.546
13.843 78.8202
13.888 76.3917
13.9329 74.302
13.9779 73.0864
14.0228 71.6183
14.0678 70.4509
14.1127 72.0757
14.1577 76.7471
14.2027 74.4423
14.2476 69.2319
14.2926 67.4445
14.3376 66.8691
14.3825 66.6477
14.4275 66.0101
14.4725 65.8347
14.5175 66.239
14.5624 65.7497
14.6074 66.2824
14.6524 66.702
14.6974 67.1994
14.7424 68.1092
14.7874 73.7126
14.8324 86.9811
14.8774 107.086
14.9224 145.31
14.9674 206.696
15.0124 226.473
15.0574 158.385
15.1024 93.111
15.1474 70.6717
15.1924 67.335
15.2374 66.0969
15.2824 65.3199
15.3274 64.5511
15.3725 63.8374
15.4175 63.5865
15.4625 63.0852
15.5076 62.8723
15.5526 63.2581
15.5976 63.0062
15.6426 63.6998
15.6877 67.8077
15.7327 77.6649
15.7778 92.1178
15.8228 120.118
15.8679 167.052
15.9129 200.238
15.958 166.89
16.003 102.361
16.0481 69.6475
16.0931 63.2346
16.1382 59.7935
16.1833 57.9312
16.2283 56.5414
16.2734 55.9477
16.3185 55.2679
16.3636 54.817
16.4086 54.1227
16.4537 53.6964
16.4988 53.0139
16.5439 53.2145
16.589 52.8979
16.6341 52.5355
16.6792 52.2875
16.7243 52.4074
16.7694 52.3076
16.8145 52.2928
16.8596 52.563
16.9047 53.2855
16.9498 54.1274
16.9949 53.9914
17.04 53.5894
17.0851 54.277
17.1302 56.5743
17.1754 59.439
17.2205 64.0807
17.2656 71.9668
17.3108 81.5913
17.3559 82.0649
17.401 70.9103
17.4462 61.2192
17.4913 57.1185
17.5365 56.7431
17.5815 56.8807
17.6268 57.4801
17.6718 57.6138
17.7171 58.5041
17.7622 59.5075
17.8074 60.4634
17.8525 61.3099
17.8977 65.685
17.9428 72.0569
17.9881 80.2749
18.0331 96.0419
18.0784 119.261
18.1237 140.75
18.1688 136.516
18.214 107.87
18.2591 87.1187
18.3044 87.8066
18.3495 98.6253
18.3948 106.149
18.4399 97.2757
18.4852 78.5198
18.5303 65.387
18.5756 61.0881
18.6207 59.7891
18.666 58.6012
18.7112 57.637
18.7565 57.0451
18.8016 56.5983
18.8469 56.0105
18.892 55.8293
18.9374 55.3698
18.9825 54.9976
19.0278 54.5703
19.073 54.7116
19.1183 54.9234
19.1635 55.6568
19.2088 57.5276
19.254 59.8657
19.2993 65.2569
19.3447 71.8047
19.3898 75.6989
19.4352 71.9524
19.4804 62.8542
19.5257 55.6128
19.5709 52.7413
19.6163 52.1746
19.6615 52.1105
19.7068 51.4852
19.752 51.5536
19.7974 51.6704
19.8426 52.1911
19.888 53.2019
19.9332 54.3356
19.9786 56.8152
20.0238 60.2316
20.0692 65.9608
20.1144 69.6885
20.1598 68.6038
20.205 63.5931
20.2504 61.1775
20.2957 62.8193
20.3411 65.0918
20.3863 64.005
20.4318 58.0626
20.477 52.607
20.5224 49.633
20.5677 48.8932
20.6131 48.4953
20.6586 47.9811
20.7038 47.8243
20.7493 47.7778
20.7945 48.0122
20.84 47.706
20.8853 47.2845
20.9307 47.1211
20.976 47.039
21.0215 47.0599
21.0668 47.3756
21.1122 47.7467
21.1575 48.3014
21.203 49.226
21.2483 50.1507
21.2938 50.267
21.3391 48.8583
21.3846 47.494
21.4299 46.9791
21.4754 46.8015
21.5207 47.0938
21.5662 47.2403
21.6116 47.5293
21.6571 48.4
21.7024 49.6117
21.7479 51.3445
21.7933 53.7499
21.8388 57.4466
21.8843 62.2466
21.9297 64.8573
21.9752 63.5575
22.0206 59.2197
22.0661 55.9779
22.1115 55.6651
22.157 55.8079
22.2024 53.9325
22.248 50.7888
22.2933 48.7951
22.3389 47.6313
22.3843 47.3481
22.4299 47.2496
22.4753 47.1261
22.5208 47.0693
22.5662 47.0245
22.6118 47.1886
22.6572 47.1313
22.7028 47.9363
22.7483 48.5014
22.7939 49.2881
22.8393 50.7712
22.8849 52.7763
22.9303 55.3226
22.9759 57.2141
23.0214 57.3211
23.067 54.2707
23.1126 50.6873
23.1581 48.2213
23.2037 47.5756
23.2492 47.4622
23.2948 47.4569
23.3403 48.0528
23.3859 48.919
23.4314 50.0565
23.477 51.6475
23.5225 53.9928
23.5682 56.877
23.6137 58.0578
23.6593 56.0801
23.7048 51.8147
23.7505 47.7932
23.796 45.8397
23.8417 44.93
23.8872 44.2604
23.9329 43.8966
23.9784 43.6181
24.0241 43.611
24.0697 43.2484
24.1154 42.8126
24.1609 42.6669
24.2066 42.4621
24.2522 42.4515
24.2979 42.1539
24.3434 42.0144
24.3892 41.8115
24.4349 41.8659
24.4805 41.7028
24.5262 41.8755
24.5718 41.8186
24.6175 41.7929
24.6631 41.7106
24.7089 41.4401
24.7545 41.1595
24.8002 40.9588
24.8458 41.0451
24.8916 40.8764
24.9372 40.9747
24.983 41.329
25.0286 41.7691
25.0744 42.2347
25.12 42.9763
25.1658 43.506
25.2114 43.9541
25.2572 44.0055
25.3029 44.2616
25.3487 44.3072
25.3943 44.1046
25.4402 42.8675
25.4858 41.7294
25.5316 40.6
25.5773 39.8388
25.6231 39.9123
25.669 39.4763
25.7147 39.5051
25.7605 39.4592
25.8062 39.4892
25.8521 39.586
25.8977 39.4488
25.9436 39.8071
25.9893 39.9799
26.0352 40.6362
26.0809 40.7429
26.1268 41.1172
26.1725 40.6854
26.2184 40.0207
26.2641 39.4836
26.31 39.0865
26.3557 39.0842
26.4017 39.1121
26.4474 39.4031
26.4933 39.7491
26.5391 40.3342
26.585 40.9181
26.6308 41.4759
26.6767 41.6575
26.7225 41.471
26.7684 40.9294
26.8142 40.1915
26.8601 39.8868
26.9059 39.3173
26.9519 38.7749
26.9979 38.4474
27.0437 38.0901
27.0896 37.8625
27.1354 37.7198
27.1814 37.5963
27.2272 37.5797
27.2732 37.5594
27.3191 37.4227
27.3651 37.6221
27.4109 37.4433
27.4569 37.7374
27.5027 37.6856
27.5488 37.7238
27.5946 37.5477
27.6407 37.3509
27.6865 37.2972
27.7326 37.0148
27.7784 37.0657
27.8245 37.0123
27.8703 37.0969
27.9164 37.5015
27.9623 37.6966
28.0084 38.1113
28.0543 38.5394
28.1003 38.6273
28.1462 38.433
28.1923 38.0971
28.2384 37.5561
28.2843 37.1008
28.3304 36.594
28.3764 36.0889
28.4225 35.6033
28.4684 35.4502
28.5145 35.1697
28.5605 35.0613
28.6066 34.889
28.6526 34.9444
28.6987 34.727
28.7447 34.7069
28.7908 34.5517
28.8368 34.7068
28.8829 34.7335
28.9289 34.5335
28.9751 34.362
29.0211 34.089
29.0673 33.9284
29.1133 33.6667
29.1595 33.5936
29.2055 33.5177
29.2517 33.5176
29.2977 33.4912
29.3439 33.4107
29.3899 33.5009
29.4361 33.4508
29.4824 33.2529
29.5284 33.0192
29.5746 32.6629
29.6207 32.372
29.6669 32.3037
29.713 32.0937
29.7593 32.0913
29.8053 32.0854
29.8516 32.0039
29.8977 31.9328
29.9439 31.7607
29.99 31.7851
30.0363 31.7267
30.0824 31.8382
30.1287 31.5601
30.1748 31.6282
30.2211 31.5936
30.2673 31.4989
30.3136 31.6602
30.3597 31.5429
30.406 31.4294
30.4522 31.3717
30.4985 31.3599
30.5447 31.4226
30.591 31.3788
30.6372 31.486
30.6835 31.4529
30.7297 31.6854
30.7761 31.6579
30.8224 31.3604
30.8686 31.1998
30.915 30.9312
30.9612 30.9342
31.0076 30.6823
31.0538 30.5647
31.1002 30.4182
31.1464 30.2927
31.1928 30.281
31.2391 30.3071
31.2855 30.209
31.3317 30.2339
31.3781 30.2144
31.4244 30.2042
31.4708 30.264
31.5171 30.2252
31.5636 30.2054
31.6098 30.0145
31.6563 29.8158
31.7026 29.6954
31.7491 29.4595
31.7953 29.4498
31.8418 29.463
31.8881 29.5335
31.9346 29.5232
31.9809 29.4724
32.0275 29.409
32.074 29.2854
32.1203 28.9035
32.1668 28.8747
32.2132 28.8194
32.2597 28.6609
32.306 28.5438
32.3526 28.3909
32.399 28.2662
32.4455 28.2131
32.4919 28.0389
32.5385 27.9448
32.5848 27.9128
32.6314 27.8303
32.6778 27.7663
32.7244 27.585
32.7708 27.5309
32.8174 27.5196
32.8638 27.3876
32.9104 27.5684
32.9569 27.3042
33.0035 27.2078
33.0499 27.2941
33.0966 27.2164
33.143 27.2122
33.1897 27.1619
33.2361 26.9486
33.2828 27.0577
33.3293 26.9068
33.3759 26.808
33.4226 26.6349
33.4691 26.5214
33.5158 26.4467
33.5623 26.3182
33.609 26.1259
33.6555 26.1322
33.7022 25.9573
33.7487 25.8254
33.7954 26.0013
33.842 25.7571
33.8887 25.7531
33.9353 25.681
33.982 25.5539
34.0286 25.5195
34.0753 25.4647
34.1219 25.28
34.1687 25.255
34.2152 25.1526
34.262 25.0274
34.3086 24.9727
34.3554 24.9954
34.402 24.8696
34.4488 24.6904
34.4954 24.684
34.5422 24.5846
34.5889 24.4359
34.6357 24.313
34.6825 24.3228
34.7292 24.2854
34.776 24.2397
34.8227 24.0884
34.8695 24.1151
34.9162 23.9423
34.9631 23.9374
35.0098 23.8955
35.0566 23.812
35.1033 23.7535
35.1502 23.6505
35.1969 23.6651
35.2438 23.6755
35.2906 23.4707
35.3375 23.5484
35.3842 23.4457
35.4311 23.5001
35.4779 23.4691
35.5248 23.4338
35.5716 23.2622
35.6185 23.1541
35.6653 23.0999
35.7123 23.0802
35.759 23.0385
35.806 22.8781
35.8528 22.728
35.8998 22.6818
35.9468 22.6184
35.9936 22.588
36.0406 22.5027
36.0874 22.4531
36.1345 22.3744
36.1813 22.3845
36.2283 22.1849
36.2752 22.2291
36.3222 22.198
36.3691 22.0986
36.4161 21.9873
36.463 22.0121
36.5101 21.9605
36.557 21.8617
36.6041 21.6958
36.651 21.7212
36.6981 21.6703
36.745 21.5364
36.7921 21.4861
36.839 21.3437
36.8861 21.4024
36.9331 21.2193
36.9802 21.2073
37.0272 21.1088
37.0743 21.0054
37.1213 20.9932
37.1684 20.885
37.2154 20.8549
37.2626 20.8099
37.3098 20.722
37.3568 20.7243
37.404 20.571
37.451 20.4958
37.4982 20.5001
37.5452 20.349
37.5924 20.3544
37.6395 20.3281
37.6867 20.2963
37.7337 20.1204
37.781 20.0834
37.8281 20.0218
37.8753 19.9137
37.9224 19.8851
37.9697 19.8476
38.0168 19.7093
38.064 19.6175
38.1111 19.6847
38.1584 19.5235
38.2056 19.5159
38.2529 19.446
38.3 19.4067
38.3473 19.4022
38.3945 19.2355
38.4418 19.2104
38.489 19.1624
38.5363 19.1124
38.5837 19.0297
38.6309 18.9639
38.6782 18.9074
38.7254 18.8843
38.7728 18.7717
38.82 18.7033
38.8674 18.7126
38.9146 18.6074
38.9621 18.5846
39.0093 18.4643
39.0567 18.3923
39.104 18.372
39.1514 18.3285
39.1987 18.2712
39.2461 18.186
39.2934 18.1611
39.3409 18.0619
39.3882 17.9297
39.4356 17.9529
39.483 17.9222
39.5304 17.8676
39.5778 17.8477
39.6253 17.7764
39.6726 17.6608
39.7201 17.6499
39.7675 17.6044
39.815 17.5238
39.8624 17.4439
39.9099 17.4366
39.9575 17.3251
40.0049 17.344
40.0525 17.1891
40.0999 17.2134
40.1474 17.0383
40.1949 17.0758
40.2425 16.9978
40.2899 16.9487
40.3375 16.9841
40.385 16.8965
40.4326 16.8024
40.48 16.7553
40.5277 16.7028
40.5752 16.6375
40.6228 16.6477
40.6703 16.5372
40.718 16.4987
40.7655 16.4796
40.8132 16.3615
40.8607 16.402
40.9084 16.2728
40.9559 16.2591
41.0036 16.1827
41.0512 16.1267
41.0989 16.141
41.1465 16.0081
41.1942 15.9735
41.242 15.8577
41.2896 15.8504
41.3373 15.8173
41.3849 15.7468
41.4327 15.6984
41.4803 15.5971
41.5281 15.6461
41.5758 15.4992
41.6236 15.4908
41.6712 15.4234
41.7191 15.3969
41.7667 15.3534
41.8146 15.3323
41.8622 15.2416
41.9101 15.2598
41.9578 15.1465
42.0057 15.1377
42.0534 14.9826
42.1013 14.9693
42.149 14.9429
42.1969 14.8845
42.2446 14.8107
42.2925 14.7721
42.3403 14.798
42.3882 14.751
42.436 14.6397
42.4839 14.5043
42.5319 14.5813
42.5797 14.5
42.6277 14.4293
42.6755 14.4069
42.7235 14.3373
42.7713 14.3152
42.8193 14.223
42.8671 14.175
42.9152 14.1684
42.963 14.0919
43.0111 14.0576
43.0589 14.0217
43.107 13.9377
43.1549 13.9313
43.2029 13.8232
43.2508 13.8657
43.2989 13.7789
43.3468 13.6908
43.3949 13.6692
43.4429 13.6286
43.491 13.5723
43.5389 13.531
43.5871 13.4942
43.635 13.3933
43.6832 13.3943
43.7312 13.3338
43.7793 13.2839
43.8273 13.2824
43.8755 13.2254
43.9237 13.1678
43.9717 13.1311
44.0199 13.0701
44.068 13.0543
44.1162 13.0112
44.1642 12.9523
44.2125 12.9354
44.2606 12.8372
44.3088 12.8378
44.3569 12.7468
44.4052 12.7316
44.4533 12.6957
44.5016 12.6052
44.5497 12.5943
44.598 12.5669
44.6461 12.4921
44.6945 12.4274
44.7426 12.4203
44.791 12.3338
44.8391 12.3594
44.8875 12.2724
44.9357 12.2019
44.984 12.2159
45.0322 12.1193
45.0806 12.1127
45.1288 12.0508
45.1773 12.0273
45.2257 12.0196
45.2739 11.9689
45.3224 11.8964
45.3706 11.8793
45.4191 11.7854
45.4673 11.7576
45.5158 11.6642
45.5641 11.7028
45.6126 11.6286
45.6609 11.5834
45.7094 11.5523
45.7577 11.5021
45.8063 11.4554
45.8546 11.4832
45.9031 11.3812
45.9515 11.3389
46.0001 11.3425
46.0484 11.2959
46.097 11.219
46.1454 11.2092
46.194 11.1805
46.2424 11.1364
46.291 11.0411
46.3395 11.0539
46.3881 10.9995
46.4365 10.9871
46.4852 10.9031
46.5337 10.8456
46.5823 10.8562
46.631 10.8065
46.6795 10.7382
46.7282 10.7426
46.7767 10.6597
46.8254 10.6525
46.8739 10.5561
46.9226 10.56
46.9712 10.5252
47.0199 10.4964
47.0685 10.4315
47.1173 10.3907
47.1658 10.3601
47.2146 10.2881
47.2632 10.2758
47.312 10.2617
47.3606 10.2188
47.4095 10.1409
47.4581 10.1002
47.5069 10.0855
47.5556 10.0566
47.6044 10.0143
47.6531 10.0108
47.702 9.92292
47.7507 9.92369
47.7996 9.82252
47.8483 9.83837
47.8972 9.80841
47.9461 9.75977
47.9948 9.70697
48.0438 9.70516
48.0925 9.67876
48.1415 9.64859
48.1902 9.58373
48.2392 9.55631
48.288 9.53541
48.337 9.46968
48.3858 9.44919
48.4348 9.45061
48.4837 9.40518
48.5327 9.35464
48.5815 9.35923
48.6306 9.28964
48.6795 9.22973
48.7285 9.21398
48.7774 9.19555
48.8265 9.17431
48.8754 9.09615
48.9245 9.09385
48.9734 9.03793
49.0226 9.01324
49.0715 8.98676
49.1206 8.95441
49.1696 8.87396
49.2188 8.89697
49.2679 8.83969
49.3169 8.78257
49.3661 8.75289
49.4151 8.72233
49.4643 8.71506
49.5134 8.69086
49.5626 8.6099
49.6117 8.59407
49.6609 8.57359
49.71 8.53508
49.7592 8.49599
49.8083 8.45856
49.8576 8.45519
49.9067 8.41106
49.956 8.35672
50.0052 8.32448
50.0545 8.28869
50.1036 8.2855
50.153 8.2375
50.2022 8.224
50.2515 8.17808
50.3007 8.16946
50.3501 8.13789
50.3993 8.08936
50.4487 8.08067
50.498 8.03571
50.5474 7.98339
50.5966 7.95975
50.6461 7.92956
50.6955 7.89897
50.7448 7.87424
50.7943 7.84943
50.8436 7.84076
50.8931 7.74377
50.9424 7.7854
50.9919 7.70972
51.0413 7.71296
51.0908 7.68626
51.1402 7.63307
51.1897 7.59973
51.2391 7.56025
51.2887 7.52646
51.3381 7.54588
51.3877 7.48801
51.4371 7.45606
51.4867 7.41943
51.5362 7.3952
51.5858 7.33274
51.6353 7.32505
51.6849 7.27138
51.7344 7.25858
51.7841 7.23552
51.8336 7.20423
51.8833 7.15971
51.9328 7.13436
51.9826 7.05491
52.0323 7.08447
52.0818 7.06345
52.1316 7.03452
52.1812 7.01197
52.231 6.94877
52.2806 6.9491
52.3304 6.88271
52.38 6.85796
52.4298 6.87651
52.4794 6.82166
52.5293 6.79748
52.5789 6.7712
52.6288 6.73775
52.6785 6.71773
52.7284 6.67231
52.7781 6.6936
52.828 6.66416
52.8777 6.62099
52.9276 6.57258
52.9774 6.53946
53.0273 6.52602
53.0771 6.49809
53.1271 6.51437
53.1769 6.43803
53.2269 6.39648
53.2767 6.37879
53.3267 6.38623
53.3765 6.36704
53.4266 6.28435
53.4766 6.29738
53.5265 6.23069
53.5765 6.21865
53.6264 6.20197
53.6765 6.17856
53.7264 6.16518
53.7765 6.10777
53.8265 6.10734
53.8766 6.04713
53.9266 6.01929
53.9767 5.98326
54.0267 6.0037
54.0769 5.95202
54.1269 5.91248
54.1771 5.89795
54.2271 5.90271
54.2773 5.84437
54.3274 5.82756
54.3776 5.76166
54.4277 5.73624
54.478 5.70394
54.528 5.6537
54.5783 5.57919
54.6285 5.61842
54.6788 5.57141
54.7289 5.51858
54.7792 5.51356
54.8296 5.41948
54.8798 5.441
54.9301 5.37938
54.9803 5.3344
55.0307 5.3179
55.0809 5.25626
55.1314 5.24079
55.1816 5.19652
55.232 5.13948
55.2823 5.14532
55.3328 5.06822
55.383 5.01225
55.4335 4.97707
55.4838 4.90186
55.5344 4.84235
55.5847 4.79993
55.6352 4.81775
55.6856 4.74377
55.7361 4.74112