File: XRD/Ni3Fe_FD0438.xy
TT I
1.27165 7.42397
1.31627 6.21667
1.36089 6.82855
1.40551 6.55405
1.45013 5.951
1.49476 5.80307
1.53938 5.27043
1.584 5.67834
1.62863 5.15504
1.67325 5.0889
1.71787 4.90798
1.7625 4.84514
1.80712 4.37922
1.85174 4.83184
1.89636 4.93469
1.94099 4.36672
1.98562 4.77998
2.03025 4.39031
2.07487 4.83141
2.11949 4.82884
2.16411 4.59159
2.20874 12.8772
2.25338 18.9176
2.298 4.76703
2.34263 5.29502
2.38725 5.56364
2.43188 6.11903
2.4765 5.51402
2.52115 6.50634
2.56577 6.52853
2.6104 7.95173
2.65503 7.0551
2.69965 7.02014
2.7443 7.73015
2.78893 7.62531
2.83356 8.15008
2.87818 8.55869
2.92281 8.86193
2.96744 10.1222
3.01209 10.7576
3.05672 11.1386
3.10135 11.7693
3.14599 12.7129
3.19062 14.4226
3.23527 15.1189
3.2799 15.4032
3.32454 16.5989
3.36917 17.5798
3.4138 18.7045
3.45844 19.7998
3.50309 21.2722
3.54773 21.8089
3.59237 23.6933
3.637 80.066
3.68164 52.0015
3.7263 26.0892
3.77094 26.2504
3.81558 27.1917
3.86022 27.7321
3.90486 28.7981
3.9495 29.9641
3.99416 31.3817
4.0388 32.7992
4.08344 33.6076
4.12809 35.0652
4.17273 37.4172
4.21738 42.0802
4.26204 211.974
4.30669 182.08
4.35133 47.6321
4.39598 45.1668
4.44063 53.1264
4.4853 62.5446
4.52995 51.1131
4.5746 52.2114
4.61925 54.0302
4.6639 56.0615
4.70855 58.7806
4.75322 61.9615
4.79788 64.5657
4.84253 67.9478
4.88719 72.6944
4.93184 77.2488
4.97652 83.0345
5.02118 89.5807
5.06583 98.5417
5.11049 111.563
5.15515 177.936
5.19981 457.77
5.24449 3290.47
5.28916 11749.2
5.33382 3107.63
5.37848 205.734
5.42315 133.455
5.46783 117.009
5.5125 108.6
5.55716 104.007
5.60183 100.769
5.6465 97.8345
5.69117 95.7661
5.73586 94.339
5.78053 93.9824
5.8252 93.9962
5.86988 94.9891
5.91455 98.0223
5.95924 109.595
6.00392 255.596
6.0486 1133.19
6.09328 4226.54
6.13795 3437.09
6.18263 283.422
6.22733 97.2613
6.27201 84.3493
6.3167 98.8133
6.36138 80.0538
6.40606 70.3097
6.45075 68.5645
6.49545 66.2298
6.54014 64.865
6.58483 63.5384
6.62952 63.4845
6.67421 88.3875
6.71892 128.974
6.76361 67.8657
6.8083 59.2189
6.853 57.967
6.89769 57.5106
6.94239 57.3617
6.98711 56.3515
7.03181 56.1168
7.07651 55.5984
7.12121 55.7567
7.16591 55.8376
7.21063 56.0056
7.25533 68.3155
7.30004 154.697
7.34475 84.9438
7.38945 56.6036
7.43416 55.0629
7.47889 54.7266
7.5236 55.5719
7.56831 56.1259
7.61303 57.6174
7.65774 57.8985
7.70247 56.982
7.74719 57.0506
7.79191 57.4712
7.83663 57.4676
7.88135 58.6562
7.92607 59.4701
7.97081 60.9834
8.01553 61.7021
8.06026 63.414
8.10498 64.7764
8.14971 72.798
8.19446 72.2448
8.23919 70.6155
8.28392 73.2352
8.32865 75.3954
8.37339 80.0444
8.41812 87.1504
8.46288 114.444
8.50761 189.879
8.55235 445.792
8.59709 1221.58
8.64183 2122.86
8.68658 1026.48
8.73134 174.18
8.77609 101.721
8.82083 94.0823
8.86558 91.2358
8.91033 90.6703
8.9551 92.0899
8.99985 86.4576
9.04461 84.7866
9.08936 83.9748
9.13412 83.086
9.17888 83.102
9.22365 83.904
9.26841 83.1392
9.31318 83.9906
9.35794 84.04
9.4027 84.3398
9.44749 85.5534
9.49226 86.1416
9.53703 87.0421
9.5818 88.9868
9.62657 92.3597
9.67134 98.5154
9.71614 94.8515
9.76091 95.6977
9.80569 98.3687
9.85047 101.916
9.89525 122.569
9.94005 137.09
9.98484 201.608
10.0296 391.145
10.0744 852.102
10.1192 1709.4
10.164 1632.1
10.2088 431.83
10.2536 132.422
10.2984 114.962
10.3432 115.219
10.388 107.039
10.4328 126.766
10.4776 174.421
10.5224 291.13
10.5672 508.982
10.612 504.983
10.6568 207.514
10.7017 98.1462
10.7465 87.982
10.7913 84.281
10.8361 82.227
10.8809 80.1214
10.9257 79.2341
10.9706 79.3307
11.0154 75.6563
11.0602 73.7039
11.105 72.4225
11.1499 76.0933
11.1947 81.965
11.2395 74.4566
11.2844 71.0598
11.3292 68.0399
11.374 66.6832
11.4189 66.5682
11.4637 65.7818
11.5086 66.099
11.5534 68.4514
11.5983 66.0425
11.6431 64.5847
11.688 63.789
11.7328 63.9427
11.7777 63.5408
11.8225 63.498
11.8674 63.2226
11.9122 64.0386
11.9571 63.949
12.002 64.8998
12.0468 70.4368
12.0917 82.6547
12.1366 106.924
12.1814 153.477
12.2263 203.219
12.2712 171.058
12.3161 96.1574
12.3609 70.6799
12.4058 65.4281
12.4507 65.307
12.4956 65.3116
12.5405 65.4422
12.5853 66.276
12.6302 73.0166
12.6751 77.959
12.72 70.3129
12.7649 68.9312
12.8098 69.2894
12.8547 70.879
12.8996 72.2725
12.9445 73.4344
12.9894 75.1019
13.0343 77.1128
13.0792 80.7768
13.1242 92.6735
13.1691 119.728
13.214 159.157
13.2589 244.222
13.3038 360.514
13.3487 422.698
13.3937 270.592
13.4386 127.317
13.4835 111.458
13.5285 128.466
13.5734 166.992
13.6183 248.744
13.6633 340.331
13.7082 346.506
13.7531 193.953
13.7981 98.6861
13.843 83.2498
13.888 81.054
13.9329 78.3938
13.9779 76.9082
14.0228 75.7033
14.0678 74.3394
14.1127 73.6178
14.1577 73.6076
14.2027 72.5718
14.2476 71.5797
14.2926 71.5204
14.3376 72.4295
14.3825 70.9849
14.4275 69.7113
14.4725 69.8349
14.5175 70.0437
14.5624 70.1821
14.6074 72.0497
14.6524 72.7913
14.6974 71.8199
14.7424 73.9819
14.7874 82.2833
14.8324 93.6811
14.8774 115.83
14.9224 155.08
14.9674 202.257
15.0124 218.192
15.0574 152.978
15.1024 92.0698
15.1474 73.3824
15.1924 71.622
15.2374 71.6793
15.2824 70.916
15.3274 68.9799
15.3725 67.7158
15.4175 67.314
15.4625 67.3305
15.5076 67.3166
15.5526 67.6448
15.5976 66.8459
15.6426 68.7771
15.6877 75.0907
15.7327 83.6238
15.7778 99.3074
15.8228 128.274
15.8679 167.423
15.9129 192.181
15.958 158.987
16.003 97.2267
16.0481 68.9524
16.0931 65.162
16.1382 63.4237
16.1833 61.4492
16.2283 60.0135
16.2734 59.3313
16.3185 59.329
16.3636 59.9444
16.4086 58.2539
16.4537 57.1137
16.4988 56.2995
16.5439 56.5371
16.589 55.8321
16.6341 55.8113
16.6792 55.4355
16.7243 55.7876
16.7694 55.7304
16.8145 55.7179
16.8596 56.0925
16.9047 57.4057
16.9498 57.6729
16.9949 56.5681
17.04 56.9852
17.0851 58.5119
17.1302 60.082
17.1754 63.2634
17.2205 67.9913
17.2656 74.6655
17.3108 82.381
17.3559 82.8443
17.401 72.2926
17.4462 63.325
17.4913 60.0942
17.5365 60.1708
17.5815 60.1439
17.6268 60.5035
17.6718 61.3044
17.7171 61.8524
17.7622 62.2991
17.8074 63.2709
17.8525 66.2027
17.8977 70.6893
17.9428 76.5707
17.9881 85.3049
18.0331 101.471
18.0784 120.832
18.1237 139.075
18.1688 133.288
18.214 106.843
18.2591 88.4795
18.3044 91.4959
18.3495 100.348
18.3948 106.752
18.4399 97.8855
18.4852 78.7086
18.5303 66.9074
18.5756 63.3309
18.6207 62.163
18.666 61.4361
18.7112 60.7006
18.7565 60.0035
18.8016 59.7734
18.8469 59.0581
18.892 58.6809
18.9374 58.2651
18.9825 58.0627
19.0278 57.844
19.073 57.9392
19.1183 58.5524
19.1635 59.2969
19.2088 60.4945
19.254 63.2759
19.2993 67.442
19.3447 73.2029
19.3898 77.2755
19.4352 73.7645
19.4804 64.3545
19.5257 57.4889
19.5709 55.1352
19.6163 54.8396
19.6615 54.4193
19.7068 54.3817
19.752 54.2512
19.7974 54.6063
19.8426 55.5735
19.888 56.2983
19.9332 57.4762
19.9786 59.9693
20.0238 63.2329
20.0692 68.0542
20.1144 70.7736
20.1598 69.53
20.205 64.835
20.2504 62.945
20.2957 64.4184
20.3411 66.4714
20.3863 64.9052
20.4318 59.5032
20.477 54.5666
20.5224 52.3445
20.5677 51.9056
20.6131 51.2043
20.6586 50.4448
20.7038 50.3777
20.7493 49.8822
20.7945 49.7731
20.84 49.7087
20.8853 49.5382
20.9307 49.4456
20.976 49.5261
21.0215 49.4524
21.0668 49.9612
21.1122 50.2171
21.1575 51.0287
21.203 51.5589
21.2483 52.3077
21.2938 52.3416
21.3391 50.9703
21.3846 49.7887
21.4299 49.271
21.4754 49.2472
21.5207 49.469
21.5662 49.8113
21.6116 50.2105
21.6571 50.8907
21.7024 52.0739
21.7479 53.7239
21.7933 56.5606
21.8388 59.8576
21.8843 63.4325
21.9297 65.5977
21.9752 64.3183
22.0206 60.8843
22.0661 57.2764
22.1115 56.679
22.157 56.9198
22.2024 55.4275
22.248 52.4399
22.2933 50.728
22.3389 49.9282
22.3843 49.7914
22.4299 49.6309
22.4753 49.7588
22.5208 49.3282
22.5662 49.4124
22.6118 49.59
22.6572 49.7391
22.7028 50.2555
22.7483 50.837
22.7939 51.4322
22.8393 52.8654
22.8849 54.8775
22.9303 56.667
22.9759 58.5336
23.0214 58.4423
23.067 55.6194
23.1126 52.0738
23.1581 49.9942
23.2037 49.6891
23.2492 49.8571
23.2948 49.8182
23.3403 50.1843
23.3859 50.7934
23.4314 51.8601
23.477 53.6584
23.5225 55.5894
23.5682 57.4312
23.6137 58.7857
23.6593 56.7801
23.7048 52.8534
23.7505 49.1323
23.796 47.4685
23.8417 46.7877
23.8872 46.2751
23.9329 46.0394
23.9784 45.6875
24.0241 45.3369
24.0697 45.0848
24.1154 44.9723
24.1609 44.6855
24.2066 44.5458
24.2522 44.2658
24.2979 44.177
24.3434 44.1687
24.3892 43.8667
24.4349 44.0351
24.4805 43.5952
24.5262 43.7573
24.5718 43.6531
24.6175 43.6119
24.6631 43.5164
24.7089 43.0513
24.7545 43.1647
24.8002 42.9078
24.8458 43.0121
24.8916 42.8591
24.9372 43.0308
24.983 43.3579
25.0286 43.6689
25.0744 44.164
25.12 44.6297
25.1658 45.2558
25.2114 45.364
25.2572 45.4892
25.3029 45.6001
25.3487 45.6858
25.3943 45.3944
25.4402 44.4459
25.4858 43.0856
25.5316 42.1422
25.5773 41.6563
25.6231 41.7304
25.669 41.3592
25.7147 41.3016
25.7605 41.1029
25.8062 41.2634
25.8521 41.4685
25.8977 41.2975
25.9436 41.6263
25.9893 41.6493
26.0352 42.1457
26.0809 42.2803
26.1268 42.4142
26.1725 42.0838
26.2184 41.3723
26.2641 41.0496
26.31 40.8583
26.3557 40.8802
26.4017 40.8655
26.4474 41.12
26.4933 41.5299
26.5391 41.9248
26.585 42.4769
26.6308 42.7394
26.6767 42.9707
26.7225 42.6925
26.7684 42.1045
26.8142 41.6344
26.8601 41.1166
26.9059 40.8547
26.9519 40.187
26.9979 39.8351
27.0437 39.5287
27.0896 39.4073
27.1354 39.4865
27.1814 39.274
27.2272 39.1541
27.2732 39.1923
27.3191 39.0117
27.3651 39.2659
27.4109 39.0007
27.4569 39.0317
27.5027 39.0531
27.5488 39.222
27.5946 38.9781
27.6407 38.8862
27.6865 38.6932
27.7326 38.3943
27.7784 38.5597
27.8245 38.4338
27.8703 38.7441
27.9164 38.9239
27.9623 39.0509
28.0084 39.4266
28.0543 39.6955
28.1003 39.5952
28.1462 39.4349
28.1923 39.2356
28.2384 38.5568
28.2843 38.3237
28.3304 37.8281
28.3764 37.2883
28.4225 37.0223
28.4684 36.8046
28.5145 36.6214
28.5605 36.4368
28.6066 36.273
28.6526 36.296
28.6987 36.2619
28.7447 36.1106
28.7908 35.9914
28.8368 35.9979
28.8829 36.0207
28.9289 35.9259
28.9751 35.8247
29.0211 35.4584
29.0673 35.2923
29.1133 35.172
29.1595 35.024
29.2055 34.9438
29.2517 34.8718
29.2977 34.8781
29.3439 34.7745
29.3899 34.9228
29.4361 34.7317
29.4824 34.5468
29.5284 34.2768
29.5746 33.9871
29.6207 33.6177
29.6669 33.6364
29.713 33.5482
29.7593 33.4554
29.8053 33.4651
29.8516 33.3507
29.8977 33.3071
29.9439 33.1445
29.99 33.158
30.0363 33.0091
30.0824 33.1077
30.1287 33.0123
30.1748 32.9288
30.2211 32.9197
30.2673 32.8257
30.3136 32.9307
30.3597 32.8421
30.406 32.8376
30.4522 32.6527
30.4985 32.6422
30.5447 32.6731
30.591 32.7842
30.6372 32.7424
30.6835 32.7611
30.7297 32.7635
30.7761 32.7285
30.8224 32.4998
30.8686 32.3485
30.915 32.1647
30.9612 32.0634
31.0076 31.8101
31.0538 31.7282
31.1002 31.6125
31.1464 31.5308
31.1928 31.4576
31.2391 31.5903
31.2855 31.3524
31.3317 31.3723
31.3781 31.4901
31.4244 31.3588
31.4708 31.3028
31.5171 31.4192
31.5636 31.2822
31.6098 31.1063
31.6563 30.9253
31.7026 30.7732
31.7491 30.6706
31.7953 30.5922
31.8418 30.6002
31.8881 30.6388
31.9346 30.6279
31.9809 30.5447
32.0275 30.4609
32.074 30.2994
32.1203 30.1244
32.1668 30.0339
32.2132 30.0208
32.2597 29.7317
32.306 29.7444
32.3526 29.5144
32.399 29.5154
32.4455 29.2745
32.4919 29.2359
32.5385 29.1489
32.5848 28.9679
32.6314 29.0074
32.6778 28.9179
32.7244 28.7448
32.7708 28.646
32.8174 28.5916
32.8638 28.5064
32.9104 28.4824
32.9569 28.4553
33.0035 28.3727
33.0499 28.3897
33.0966 28.2656
33.143 28.214
33.1897 28.052
33.2361 28.0856
33.2828 28.1314
33.3293 27.9099
33.3759 27.906
33.4226 27.6943
33.4691 27.6332
33.5158 27.4951
33.5623 27.3581
33.609 27.1024
33.6555 27.1332
33.7022 27.1108
33.7487 27.0216
33.7954 26.9287
33.842 26.8355
33.8887 26.8103
33.9353 26.7628
33.982 26.5985
34.0286 26.4444
34.0753 26.467
34.1219 26.3112
34.1687 26.3054
34.2152 26.2728
34.262 26.1389
34.3086 26.0055
34.3554 25.9596
34.402 25.7932
34.4488 25.715
34.4954 25.6496
34.5422 25.5938
34.5889 25.4245
34.6357 25.31
34.6825 25.2496
34.7292 25.1934
34.776 25.1216
34.8227 25.0516
34.8695 25.0558
34.9162 25.024
34.9631 24.9713
35.0098 24.9164
35.0566 24.7932
35.1033 24.6971
35.1502 24.6759
35.1969 24.6018
35.2438 24.6499
35.2906 24.5028
35.3375 24.4603
35.3842 24.3382
35.4311 24.4205
35.4779 24.3577
35.5248 24.2129
35.5716 24.1951
35.6185 24.0389
35.6653 24.0151
35.7123 23.9198
35.759 23.8763
35.806 23.7272
35.8528 23.728
35.8998 23.6428
35.9468 23.4881
35.9936 23.447
36.0406 23.3524
36.0874 23.3525
36.1345 23.3166
36.1813 23.1735
36.2283 22.9949
36.2752 22.9842
36.3222 23.0931
36.3691 22.9759
36.4161 22.7742
36.463 22.7833
36.5101 22.7699
36.557 22.7237
36.6041 22.513
36.651 22.541
36.6981 22.5094
36.745 22.3709
36.7921 22.3655
36.839 22.2424
36.8861 22.1158
36.9331 22.1076
36.9802 22.0178
37.0272 22.0683
37.0743 21.8862
37.1213 21.8698
37.1684 21.7739
37.2154 21.7309
37.2626 21.5786
37.3098 21.504
37.3568 21.4774
37.404 21.4353
37.451 21.357
37.4982 21.2944
37.5452 21.1757
37.5924 21.0598
37.6395 21.2152
37.6867 21.0265
37.7337 20.9667
37.781 20.8911
37.8281 20.8462
37.8753 20.7764
37.9224 20.621
37.9697 20.5819
38.0168 20.5825
38.064 20.5093
38.1111 20.4462
38.1584 20.3622
38.2056 20.2537
38.2529 20.2188
38.3 20.1324
38.3473 20.1148
38.3945 20.0215
38.4418 19.9898
38.489 19.9042
38.5363 19.8502
38.5837 19.8283
38.6309 19.8037
38.6782 19.715
38.7254 19.6124
38.7728 19.5734
38.82 19.436
38.8674 19.3779
38.9146 19.3174
38.9621 19.3293
39.0093 19.2337
39.0567 19.1823
39.104 19.094
39.1514 19.0654
39.1987 19.0523
39.2461 18.9743
39.2934 18.9116
39.3409 18.7808
39.3882 18.7391
39.4356 18.7467
39.483 18.6327
39.5304 18.5716
39.5778 18.5492
39.6253 18.4171
39.6726 18.4192
39.7201 18.3733
39.7675 18.2993
39.815 18.1547
39.8624 18.2005
39.9099 18.1187
39.9575 18.0169
40.0049 17.9834
40.0525 17.906
40.0999 17.8723
40.1474 17.8324
40.1949 17.7701
40.2425 17.6884
40.2899 17.6462
40.3375 17.6043
40.385 17.488
40.4326 17.4346
40.48 17.4611
40.5277 17.3525
40.5752 17.3336
40.6228 17.2003
40.6703 17.2151
40.718 17.1561
40.7655 17.0952
40.8132 16.9878
40.8607 16.9652
40.9084 16.974
40.9559 16.8672
41.0036 16.854
41.0512 16.8061
41.0989 16.6794
41.1465 16.6596
41.1942 16.5672
41.242 16.5085
41.2896 16.4612
41.3373 16.458
41.3849 16.3753
41.4327 16.322
41.4803 16.3058
41.5281 16.2021
41.5758 16.1812
41.6236 16.139
41.6712 16.0417
41.7191 16.0446
41.7667 15.9262
41.8146 15.8834
41.8622 15.7993
41.9101 15.767
41.9578 15.7434
42.0057 15.6583
42.0534 15.5872
42.1013 15.6164
42.149 15.5641
42.1969 15.4819
42.2446 15.4401
42.2925 15.3906
42.3403 15.2866
42.3882 15.2978
42.436 15.2212
42.4839 15.1549
42.5319 15.1437
42.5797 15.0601
42.6277 15.0284
42.6755 14.9518
42.7235 14.9084
42.7713 14.8896
42.8193 14.7729
42.8671 14.7558
42.9152 14.6939
42.963 14.6275
43.0111 14.6033
43.0589 14.5349
43.107 14.4766
43.1549 14.4857
43.2029 14.3698
43.2508 14.3728
43.2989 14.2703
43.3468 14.255
43.3949 14.2057
43.4429 14.1866
43.491 14.1184
43.5389 14.127
43.5871 14.0254
43.635 13.9756
43.6832 13.9078
43.7312 13.8818
43.7793 13.8072
43.8273 13.7321
43.8755 13.6645
43.9237 13.7134
43.9717 13.6386
44.0199 13.5985
44.068 13.537
44.1162 13.4641
44.1642 13.4483
44.2125 13.4071
44.2606 13.3501
44.3088 13.2967
44.3569 13.2651
44.4052 13.2045
44.4533 13.1381
44.5016 13.1257
44.5497 13.0377
44.598 12.9905
44.6461 12.9801
44.6945 12.9427
44.7426 12.8791
44.791 12.8241
44.8391 12.8316
44.8875 12.7362
44.9357 12.7033
44.984 12.6246
45.0322 12.6462
45.0806 12.568
45.1288 12.5186
45.1773 12.487
45.2257 12.4508
45.2739 12.3781
45.3224 12.3716
45.3706 12.3268
45.4191 12.2139
45.4673 12.2349
45.5158 12.1428
45.5641 12.1422
45.6126 12.1418
45.6609 12.0591
45.7094 11.9584
45.7577 11.9462
45.8063 11.9021
45.8546 11.8849
45.9031 11.835
45.9515 11.783
46.0001 11.7378
46.0484 11.7139
46.097 11.6379
46.1454 11.6322
46.194 11.5788
46.2424 11.5174
46.291 11.4861
46.3395 11.4614
46.3881 11.3828
46.4365 11.3964
46.4852 11.3199
46.5337 11.2804
46.5823 11.3144
46.631 11.1953
46.6795 11.1699
46.7282 11.1545
46.7767 11.057
46.8254 11.0364
46.8739 10.9896
46.9226 10.9596
46.9712 10.9438
47.0199 10.8774
47.0685 10.8422
47.1173 10.7557
47.1658 10.7377
47.2146 10.7533
47.2632 10.6628
47.312 10.6653
47.3606 10.585
47.4095 10.5354
47.4581 10.5405
47.5069 10.4828
47.5556 10.4504
47.6044 10.4033
47.6531 10.3678
47.702 10.3091
47.7507 10.3159
47.7996 10.2297
47.8483 10.2052
47.8972 10.1599
47.9461 10.1778
47.9948 10.1298
48.0438 10.0658
48.0925 10.0426
48.1415 10.0013
48.1902 9.9509
48.2392 9.9615
48.288 9.91359
48.337 9.85877
48.3858 9.81693
48.4348 9.78169
48.4837 9.77698
48.5327 9.72289
48.5815 9.66126
48.6306 9.67984
48.6795 9.58996
48.7285 9.57285
48.7774 9.5085
48.8265 9.55081
48.8754 9.45908
48.9245 9.4388
48.9734 9.38504
49.0226 9.37268
49.0715 9.33004
49.1206 9.26678
49.1696 9.27769
49.2188 9.2346
49.2679 9.20131
49.3169 9.13791
49.3661 9.1051
49.4151 9.05043
49.4643 9.07365
49.5134 9.06307
49.5626 8.93559
49.6117 8.90738
49.6609 8.94813
49.71 8.87741
49.7592 8.86805
49.8083 8.81452
49.8576 8.78043
49.9067 8.71468
49.956 8.68045
50.0052 8.69036
50.0545 8.6357
50.1036 8.59256
50.153 8.56689
50.2022 8.53544
50.2515 8.47272
50.3007 8.47422
50.3501 8.46262
50.3993 8.41605
50.4487 8.3819
50.498 8.3244
50.5474 8.29665
50.5966 8.27186
50.6461 8.26174
50.6955 8.23103
50.7448 8.18342
50.7943 8.162
50.8436 8.14118
50.8931 8.08318
50.9424 8.06817
50.9919 8.01282
51.0413 7.97705
51.0908 7.97804
51.1402 7.9513
51.1897 7.93886
51.2391 7.86385
51.2887 7.81233
51.3381 7.77882
51.3877 7.77797
51.4371 7.73494
51.4867 7.71737
51.5362 7.68727
51.5858 7.65534
51.6353 7.58903
51.6849 7.57334
51.7344 7.56354
51.7841 7.52412
51.8336 7.46514
51.8833 7.43398
51.9328 7.46614
51.9826 7.40899
52.0323 7.35302
52.0818 7.365
52.1316 7.29702
52.1812 7.28216
52.231 7.2482
52.2806 7.18868
52.3304 7.20204
52.38 7.1503
52.4298 7.10381
52.4794 7.05217
52.5293 7.09359
52.5789 7.03221
52.6288 7.02074
52.6785 6.98351
52.7284 6.97918
52.7781 6.90516
52.828 6.87252
52.8777 6.84268
52.9276 6.82379
52.9774 6.81162
53.0273 6.80626
53.0771 6.74651
53.1271 6.74793
53.1769 6.65249
53.2269 6.66788
53.2767 6.67578
53.3267 6.57154
53.3765 6.55705
53.4266 6.55767
53.4766 6.52856
53.5265 6.50496
53.5765 6.44958
53.6264 6.44416
53.6765 6.41598
53.7264 6.36633
53.7765 6.33564
53.8265 6.33791
53.8766 6.28184
53.9266 6.2404
53.9767 6.20669
54.0267 6.21833
54.0769 6.20335
54.1269 6.14112
54.1771 6.10483
54.2271 6.09963
54.2773 6.04275
54.3274 6.04112
54.3776 5.98983
54.4277 5.9988
54.478 5.95653
54.528 5.87735
54.5783 5.84558
54.6285 5.81642
54.6788 5.73218
54.7289 5.73445
54.7792 5.69428
54.8296 5.64623
54.8798 5.6009
54.9301 5.61897
54.9803 5.57476
55.0307 5.49448
55.0809 5.47881
55.1314 5.41521
55.1816 5.36135
55.232 5.31586
55.2823 5.30307
55.3328 5.24831
55.383 5.17244
55.4335 5.12555
55.4838 5.09211
55.5344 5.04736
55.5847 5.01904
55.6352 4.98373
55.6856 4.91098
55.7361 4.88594