File: XRD/Ni3Fe_FD0129.xy
TT I
1.27165 7.99589
1.31627 6.92019
1.36089 7.58285
1.40551 6.37719
1.45013 6.84964
1.49476 5.65436
1.53938 6.42498
1.584 5.51468
1.62863 5.19425
1.67325 5.2177
1.71787 5.20516
1.7625 5.0136
1.80712 5.52732
1.85174 4.68725
1.89636 5.47201
1.94099 5.60329
1.98562 5.33185
2.03025 4.87288
2.07487 4.76461
2.11949 5.0665
2.16411 4.65576
2.20874 4.42307
2.25338 4.56725
2.298 4.75294
2.34263 4.45503
2.38725 4.09663
2.43188 3.93401
2.4765 4.00412
2.52115 4.002
2.56577 4.09101
2.6104 4.70087
2.65503 5.07953
2.69965 4.29451
2.7443 5.91856
2.78893 6.0289
2.83356 7.22412
2.87818 7.57214
2.92281 8.14081
2.96744 9.3029
3.01209 10.7833
3.05672 11.1023
3.10135 12.6329
3.14599 13.073
3.19062 13.9873
3.23527 15.3126
3.2799 15.5472
3.32454 16.6096
3.36917 17.4301
3.4138 18.611
3.45844 19.3085
3.50309 20.4466
3.54773 20.6024
3.59237 21.5935
3.637 22.3626
3.68164 23.4912
3.7263 24.0008
3.77094 24.6056
3.81558 25.4844
3.86022 26.2241
3.90486 27.7296
3.9495 28.2929
3.99416 29.464
4.0388 30.4728
4.08344 31.8236
4.12809 32.4292
4.17273 33.6664
4.21738 35.4908
4.26204 36.1088
4.30669 37.297
4.35133 39.6127
4.39598 40.7717
4.44063 42.5204
4.4853 44.5772
4.52995 46.981
4.5746 48.8825
4.61925 51.0724
4.6639 53.2934
4.70855 56.65
4.75322 58.9921
4.79788 62.1702
4.84253 65.5382
4.88719 70.147
4.93184 75.473
4.97652 82.7203
5.02118 90.5841
5.06583 101.338
5.11049 117.743
5.15515 157.047
5.19981 577.669
5.24449 3759.73
5.28916 7784.58
5.33382 6463.51
5.37848 505.025
5.42315 167.962
5.46783 128.983
5.5125 115.028
5.55716 107.756
5.60183 101.653
5.6465 98.8813
5.69117 97.192
5.73586 95.4608
5.78053 95.6404
5.8252 95.7375
5.86988 98.9232
5.91455 106.501
5.95924 126.643
6.00392 298.885
6.0486 1396.52
6.09328 2550.95
6.13795 3915.27
6.18263 731.026
6.22733 126.475
6.27201 90.217
6.3167 78.5546
6.36138 72.8227
6.40606 68.4808
6.45075 66.2159
6.49545 63.743
6.54014 62.0
6.58483 60.6565
6.62952 59.4257
6.67421 57.9098
6.71892 56.9136
6.76361 56.5862
6.8083 55.2196
6.853 54.2893
6.89769 54.1699
6.94239 53.4034
6.98711 53.0786
7.03181 52.5628
7.07651 52.508
7.12121 52.3651
7.16591 52.1686
7.21063 51.6867
7.25533 51.5532
7.30004 51.5386
7.34475 51.5834
7.38945 51.7758
7.43416 51.1304
7.47889 51.8593
7.5236 56.2848
7.56831 65.2163
7.61303 55.5884
7.65774 52.9118
7.70247 53.5614
7.74719 53.8809
7.79191 54.4013
7.83663 54.7819
7.88135 55.6613
7.92607 56.55
7.97081 58.0707
8.01553 58.9483
8.06026 60.1552
8.10498 61.2594
8.14971 63.1882
8.19446 64.7663
8.23919 67.4814
8.28392 70.4046
8.32865 72.802
8.37339 77.7582
8.41812 83.3154
8.46288 95.9726
8.50761 174.569
8.55235 613.657
8.59709 848.822
8.64183 1401.0
8.68658 1680.52
8.73134 438.601
8.77609 118.3
8.82083 97.7027
8.86558 91.3914
8.91033 87.3947
8.9551 85.0599
8.99985 83.6526
9.04461 82.83
9.08936 82.0626
9.13412 81.0142
9.17888 80.8921
9.22365 87.5075
9.26841 100.928
9.31318 87.9348
9.35794 81.6518
9.4027 81.643
9.44749 82.6553
9.49226 82.9668
9.53703 83.9441
9.5818 85.7862
9.62657 86.4955
9.67134 88.0999
9.71614 90.0369
9.76091 92.453
9.80569 94.5108
9.85047 98.0706
9.89525 103.425
9.94005 113.888
9.98484 187.13
10.0296 555.471
10.0744 718.602
10.1192 956.23
10.164 1614.22
10.2088 1038.3
10.2536 228.858
10.2984 117.564
10.3432 107.968
10.388 104.344
10.4328 120.959
10.4776 217.347
10.5224 256.061
10.5672 312.171
10.612 477.869
10.6568 383.211
10.7017 139.933
10.7465 91.0355
10.7913 83.5038
10.8361 80.0573
10.8809 77.4885
10.9257 75.4236
10.9706 74.156
11.0154 72.5538
11.0602 70.6907
11.105 69.6382
11.1499 68.1181
11.1947 67.0647
11.2395 66.2567
11.2844 65.7012
11.3292 64.9513
11.374 64.2518
11.4189 63.7235
11.4637 63.1265
11.5086 62.2057
11.5534 61.7335
11.5983 61.5094
11.6431 61.5568
11.688 60.8748
11.7328 61.1955
11.7777 60.9767
11.8225 60.7226
11.8674 60.7563
11.9122 62.0154
11.9571 66.1293
12.002 65.7379
12.0468 67.5756
12.0917 90.707
12.1366 107.514
12.1814 114.016
12.2263 143.439
12.2712 188.51
12.3161 143.928
12.3609 75.8145
12.4058 63.7157
12.4507 62.785
12.4956 62.5411
12.5405 62.4495
12.5853 63.2318
12.6302 63.5634
12.6751 63.7634
12.72 64.6953
12.7649 65.5141
12.8098 66.3181
12.8547 67.4969
12.8996 69.0
12.9445 70.3889
12.9894 72.5772
13.0343 74.6507
13.0792 79.558
13.1242 86.1353
13.1691 133.846
13.214 187.964
13.2589 198.535
13.3038 231.08
13.3487 334.079
13.3937 388.545
13.4386 223.455
13.4835 121.848
13.5285 155.625
13.5734 182.41
13.6183 185.238
13.6633 224.635
13.7082 317.462
13.7531 309.458
13.7981 161.317
13.843 88.7122
13.888 80.1619
13.9329 77.2213
13.9779 75.6865
14.0228 73.9821
14.0678 72.3098
14.1127 72.2402
14.1577 74.2382
14.2027 72.9308
14.2476 70.2246
14.2926 68.9497
14.3376 68.4927
14.3825 68.0069
14.4275 67.5034
14.4725 67.5965
14.5175 67.7122
14.5624 67.7471
14.6074 68.0899
14.6524 68.5771
14.6974 69.1847
14.7424 70.5823
14.7874 80.159
14.8324 107.666
14.8774 120.352
14.9224 122.706
14.9674 141.192
15.0124 184.789
15.0574 205.832
15.1024 143.551
15.1474 83.2088
15.1924 70.9027
15.2374 68.8181
15.2824 67.3048
15.3274 66.359
15.3725 65.9778
15.4175 65.7577
15.4625 65.3999
15.5076 64.7307
15.5526 64.8067
15.5976 65.1262
15.6426 66.1589
15.6877 73.2025
15.7327 95.3819
15.7778 107.776
15.8228 108.176
15.8679 119.093
15.9129 147.78
15.958 184.067
16.003 156.33
16.0481 91.4248
16.0931 67.0242
16.1382 61.7314
16.1833 60.2402
16.2283 58.3976
16.2734 57.5106
16.3185 56.8428
16.3636 56.3612
16.4086 55.6572
16.4537 55.181
16.4988 54.5015
16.5439 54.4701
16.589 54.0632
16.6341 54.058
16.6792 53.6971
16.7243 53.9561
16.7694 53.7301
16.8145 53.6451
16.8596 54.0014
16.9047 54.2736
16.9498 54.5503
16.9949 54.4913
17.04 54.8421
17.0851 56.202
17.1302 60.5893
17.1754 63.9997
17.2205 64.4175
17.2656 65.6251
17.3108 70.7875
17.3559 77.7864
17.401 80.882
17.4462 71.8213
17.4913 61.63
17.5365 58.8147
17.5815 58.5091
17.6268 58.8493
17.6718 59.1856
17.7171 59.9216
17.7622 61.0289
17.8074 61.6444
17.8525 63.2852
17.8977 71.4326
17.9428 83.629
17.9881 88.1539
18.0331 88.8579
18.0784 94.8984
18.1237 110.828
18.1688 138.188
18.214 144.174
18.2591 113.582
18.3044 87.6227
18.3495 84.6792
18.3948 92.632
18.4399 102.145
18.4852 96.2616
18.5303 77.5645
18.5756 65.1075
18.6207 61.8634
18.666 60.625
18.7112 59.5758
18.7565 58.8706
18.8016 58.4841
18.8469 57.695
18.892 57.4221
18.9374 56.9117
18.9825 56.5665
19.0278 56.3502
19.073 56.4411
19.1183 56.8447
19.1635 59.2959
19.2088 61.4894
19.254 61.8844
19.2993 62.3612
19.3447 64.0462
19.3898 67.8095
19.4352 72.6384
19.4804 72.4782
19.5257 64.2347
19.5709 56.3329
19.6163 53.9711
19.6615 53.5029
19.7068 53.116
19.752 52.9519
19.7974 53.1644
19.8426 54.2125
19.888 56.581
19.9332 57.9173
19.9786 58.0351
20.0238 58.287
20.0692 61.0174
20.1144 65.8299
20.1598 71.7092
20.205 71.2815
20.2504 65.2638
20.2957 60.6213
20.3411 60.5626
20.3863 63.7446
20.4318 64.4643
20.477 59.339
20.5224 53.4019
20.5677 50.6545
20.6131 49.8897
20.6586 49.4169
20.7038 49.3064
20.7493 48.9226
20.7945 48.9054
20.84 48.8793
20.8853 48.5538
20.9307 48.2329
20.976 48.4723
21.0215 48.755
21.0668 49.0946
21.1122 49.1184
21.1575 49.1431
21.203 49.1799
21.2483 49.9076
21.2938 50.9393
21.3391 51.0523
21.3846 50.3355
21.4299 49.0886
21.4754 48.4634
21.5207 48.3783
21.5662 48.654
21.6116 49.0744
21.6571 50.8125
21.7024 52.9216
21.7479 53.7732
21.7933 53.8256
21.8388 54.9795
21.8843 57.7762
21.9297 61.0123
21.9752 64.9196
22.0206 65.65
22.0661 60.8334
22.1115 55.9524
22.157 55.0716
22.2024 56.1696
22.248 55.0463
22.2933 52.4366
22.3389 49.9341
22.3843 49.0026
22.4299 48.4691
22.4753 48.4559
22.5208 48.5843
22.5662 48.3689
22.6118 48.6736
22.6572 48.8347
22.7028 49.8662
22.7483 51.0279
22.7939 51.7232
22.8393 51.7078
22.8849 52.2283
22.9303 52.823
22.9759 54.5006
23.0214 56.3682
23.067 57.9431
23.1126 56.2703
23.1581 52.4345
23.2037 49.7223
23.2492 48.9079
23.2948 49.2813
23.3403 50.7442
23.3859 51.6527
23.4314 51.5154
23.477 51.2591
23.5225 51.8426
23.5682 52.7293
23.6137 55.0989
23.6593 57.189
23.7048 57.1679
23.7505 53.5693
23.796 49.0961
23.8417 46.6781
23.8872 45.8807
23.9329 45.4292
23.9784 44.9634
24.0241 44.8
24.0697 44.5046
24.1154 44.068
24.1609 43.9332
24.2066 43.7274
24.2522 43.6084
24.2979 43.3928
24.3434 43.331
24.3892 43.1072
24.4349 42.8871
24.4805 42.697
24.5262 42.7934
24.5718 42.6349
24.6175 42.7395
24.6631 42.8482
24.7089 42.5939
24.7545 42.4737
24.8002 42.1683
24.8458 42.2157
24.8916 42.2855
24.9372 42.4546
24.983 42.5637
25.0286 42.8458
25.0744 43.2041
25.12 43.4467
25.1658 44.0009
25.2114 44.2243
25.2572 44.6206
25.3029 44.526
25.3487 44.4982
25.3943 44.3034
25.4402 44.6802
25.4858 44.4182
25.5316 43.133
25.5773 41.74
25.6231 41.1655
25.669 40.7848
25.7147 40.5845
25.7605 40.4263
25.8062 40.8319
25.8521 40.851
25.8977 40.7216
25.9436 40.7075
25.9893 40.6611
26.0352 40.7996
26.0809 40.9962
26.1268 41.4249
26.1725 41.7102
26.2184 41.8551
26.2641 41.3104
26.31 40.882
26.3557 40.6398
26.4017 40.5454
26.4474 40.6972
26.4933 40.8115
26.5391 40.8399
26.585 41.1837
26.6308 41.3975
26.6767 41.7009
26.7225 42.38
26.7684 42.4987
26.8142 41.8826
26.8601 41.0951
26.9059 40.5932
26.9519 40.1695
26.9979 39.8762
27.0437 39.2656
27.0896 38.9372
27.1354 38.8569
27.1814 38.7224
27.2272 38.7609
27.2732 38.8088
27.3191 38.5569
27.3651 38.6867
27.4109 38.2771
27.4569 38.4006
27.5027 38.4643
27.5488 38.5794
27.5946 38.468
27.6407 38.538
27.6865 38.5012
27.7326 38.3571
27.7784 38.3869
27.8245 38.0678
27.8703 38.1789
27.9164 38.2676
27.9623 38.2782
28.0084 38.3149
28.0543 38.5789
28.1003 38.7203
28.1462 39.131
28.1923 39.1424
28.2384 38.6698
28.2843 38.1708
28.3304 37.8267
28.3764 37.518
28.4225 36.9459
28.4684 36.5605
28.5145 36.0311
28.5605 36.0401
28.6066 35.8495
28.6526 35.8314
28.6987 35.6842
28.7447 35.5638
28.7908 35.3569
28.8368 35.3763
28.8829 35.2199
28.9289 35.1925
28.9751 35.2338
29.0211 35.0621
29.0673 35.003
29.1133 34.8393
29.1595 34.5836
29.2055 34.3458
29.2517 34.3529
29.2977 34.0705
29.3439 34.013
29.3899 33.9916
29.4361 34.0617
29.4824 34.0846
29.5284 34.0311
29.5746 33.8394
29.6207 33.4169
29.6669 33.1863
29.713 33.0686
29.7593 32.8807
29.8053 32.92
29.8516 32.8821
29.8977 32.754
29.9439 32.6222
29.99 32.6609
30.0363 32.4552
30.0824 32.5945
30.1287 32.247
30.1748 32.3698
30.2211 32.2885
30.2673 32.2664
30.3136 32.4685
30.3597 32.4685
30.406 32.4387
30.4522 32.1914
30.4985 32.1201
30.5447 32.118
30.591 32.1037
30.6372 32.0332
30.6835 32.0171
30.7297 32.1677
30.7761 32.1897
30.8224 32.1417
30.8686 32.2127
30.915 31.9123
30.9612 31.8373
31.0076 31.4892
31.0538 31.2871
31.1002 31.2896
31.1464 31.0677
31.1928 30.8954
31.2391 31.0816
31.2855 30.9023
31.3317 30.9356
31.3781 30.9648
31.4244 30.8338
31.4708 30.8448
31.5171 30.8492
31.5636 30.9467
31.6098 30.8586
31.6563 30.7549
31.7026 30.6012
31.7491 30.3134
31.7953 30.2221
31.8418 30.1549
31.8881 30.2295
31.9346 30.031
31.9809 30.1507
32.0275 30.0119
32.074 29.9345
32.1203 29.8147
32.1668 29.8111
32.2132 29.5295
32.2597 29.3691
32.306 29.3783
32.3526 29.1293
32.399 29.0105
32.4455 28.8135
32.4919 28.7644
32.5385 28.6985
32.5848 28.5457
32.6314 28.6032
32.6778 28.447
32.7244 28.2619
32.7708 28.304
32.8174 28.2434
32.8638 28.1004
32.9104 28.2046
32.9569 28.0425
33.0035 27.924
33.0499 27.9407
33.0966 27.8582
33.143 27.7991
33.1897 27.695
33.2361 27.7115
33.2828 27.5851
33.3293 27.4056
33.3759 27.4559
33.4226 27.3676
33.4691 27.2412
33.5158 27.1644
33.5623 27.0125
33.609 26.8349
33.6555 26.6609
33.7022 26.6794
33.7487 26.5267
33.7954 26.4082
33.842 26.5081
33.8887 26.2811
33.9353 26.3109
33.982 26.2377
34.0286 26.1462
34.0753 26.0827
34.1219 26.0564
34.1687 25.8835
34.2152 25.7782
34.262 25.6453
34.3086 25.6263
34.3554 25.5639
34.402 25.3734
34.4488 25.3395
34.4954 25.2462
34.5422 25.1826
34.5889 25.1586
34.6357 25.0964
34.6825 24.8852
34.7292 24.8262
34.776 24.7167
34.8227 24.6909
34.8695 24.6419
34.9162 24.5119
34.9631 24.5246
35.0098 24.4919
35.0566 24.3562
35.1033 24.2866
35.1502 24.3089
35.1969 24.2687
35.2438 24.1634
35.2906 24.0714
35.3375 23.9824
35.3842 24.0036
35.4311 23.9877
35.4779 23.9117
35.5248 23.952
35.5716 23.7424
35.6185 23.7304
35.6653 23.7013
35.7123 23.5919
35.759 23.5224
35.806 23.3681
35.8528 23.2738
35.8998 23.2767
35.9468 23.1291
35.9936 23.118
36.0406 23.0215
36.0874 23.0055
36.1345 22.9335
36.1813 22.8764
36.2283 22.6648
36.2752 22.7432
36.3222 22.6869
36.3691 22.6467
36.4161 22.5081
36.463 22.5347
36.5101 22.4744
36.557 22.3862
36.6041 22.2243
36.651 22.1594
36.6981 22.1865
36.745 22.1192
36.7921 22.0487
36.839 21.8489
36.8861 21.8327
36.9331 21.7693
36.9802 21.6934
37.0272 21.6359
37.0743 21.5633
37.1213 21.4361
37.1684 21.3571
37.2154 21.3941
37.2626 21.326
37.3098 21.2886
37.3568 21.1647
37.404 21.1984
37.451 21.0161
37.4982 21.0413
37.5452 20.8988
37.5924 20.815
37.6395 20.835
37.6867 20.7583
37.7337 20.6437
37.781 20.5804
37.8281 20.5198
37.8753 20.4474
37.9224 20.3466
37.9697 20.2912
38.0168 20.2258
38.064 20.1468
38.1111 20.1242
38.1584 19.9968
38.2056 19.9951
38.2529 19.9038
38.3 19.8027
38.3473 19.8397
38.3945 19.7627
38.4418 19.7048
38.489 19.6621
38.5363 19.4775
38.5837 19.452
38.6309 19.3575
38.6782 19.3528
38.7254 19.2811
38.7728 19.2506
38.82 19.1737
38.8674 19.1713
38.9146 19.0
38.9621 19.0172
39.0093 18.9384
39.0567 18.8608
39.104 18.8299
39.1514 18.7184
39.1987 18.6587
39.2461 18.6308
39.2934 18.5827
39.3409 18.4847
39.3882 18.3547
39.4356 18.308
39.483 18.2902
39.5304 18.2675
39.5778 18.2856
39.6253 18.191
39.6726 18.1017
39.7201 18.134
39.7675 18.0393
39.815 17.9659
39.8624 17.8559
39.9099 17.8374
39.9575 17.8424
40.0049 17.7455
40.0525 17.6383
40.0999 17.6535
40.1474 17.5652
40.1949 17.4423
40.2425 17.4177
40.2899 17.3228
40.3375 17.3661
40.385 17.2795
40.4326 17.2295
40.48 17.1216
40.5277 17.1123
40.5752 17.0677
40.6228 16.9791
40.6703 16.9041
40.718 16.926
40.7655 16.8374
40.8132 16.7688
40.8607 16.7333
40.9084 16.67
40.9559 16.7025
41.0036 16.5714
41.0512 16.5418
41.0989 16.5357
41.1465 16.3865
41.1942 16.365
41.242 16.3061
41.2896 16.2912
41.3373 16.1952
41.3849 16.0903
41.4327 16.1054
41.4803 15.9848
41.5281 15.9179
41.5758 15.8763
41.6236 15.8432
41.6712 15.7511
41.7191 15.695
41.7667 15.6638
41.8146 15.7116
41.8622 15.5845
41.9101 15.5525
41.9578 15.48
42.0057 15.469
42.0534 15.4061
42.1013 15.3749
42.149 15.2998
42.1969 15.2051
42.2446 15.1799
42.2925 15.1762
42.3403 15.0775
42.3882 15.0267
42.436 14.9938
42.4839 14.8958
42.5319 14.8723
42.5797 14.8476
42.6277 14.7584
42.6755 14.7579
42.7235 14.636
42.7713 14.6082
42.8193 14.5664
42.8671 14.5042
42.9152 14.5098
42.963 14.4639
43.0111 14.3348
43.0589 14.3145
43.107 14.2603
43.1549 14.2097
43.2029 14.199
43.2508 14.147
43.2989 14.1028
43.3468 13.9987
43.3949 14.0056
43.4429 13.9826
43.491 13.8942
43.5389 13.8533
43.5871 13.8168
43.635 13.724
43.6832 13.7217
43.7312 13.654
43.7793 13.6034
43.8273 13.5738
43.8755 13.5094
43.9237 13.4824
43.9717 13.4015
44.0199 13.3409
44.068 13.3796
44.1162 13.2815
44.1642 13.2235
44.2125 13.2294
44.2606 13.1074
44.3088 13.0693
44.3569 13.0308
44.4052 13.0654
44.4533 12.9565
44.5016 12.912
44.5497 12.8654
44.598 12.8368
44.6461 12.7727
44.6945 12.7449
44.7426 12.7
44.791 12.6453
44.8391 12.6229
44.8875 12.5546
44.9357 12.5339
44.984 12.4528
45.0322 12.4139
45.0806 12.3688
45.1288 12.307
45.1773 12.3097
45.2257 12.2536
45.2739 12.1675
45.3224 12.1801
45.3706 12.153
45.4191 12.0447
45.4673 12.0799
45.5158 12.0585
45.5641 11.9734
45.6126 11.8848
45.6609 11.8542
45.7094 11.8179
45.7577 11.7496
45.8063 11.6804
45.8546 11.7015
45.9031 11.6577
45.9515 11.6282
46.0001 11.572
46.0484 11.5246
46.097 11.4954
46.1454 11.5052
46.194 11.4228
46.2424 11.3798
46.291 11.2893
46.3395 11.2761
46.3881 11.2081
46.4365 11.2151
46.4852 11.1654
46.5337 11.1139
46.5823 11.1009
46.631 11.0157
46.6795 10.9419
46.7282 10.9904
46.7767 10.912
46.8254 10.8285
46.8739 10.8607
46.9226 10.8019
46.9712 10.7274
47.0199 10.696
47.0685 10.6548
47.1173 10.628
47.1658 10.5609
47.2146 10.5601
47.2632 10.5271
47.312 10.5145
47.3606 10.4278
47.4095 10.3913
47.4581 10.3421
47.5069 10.3178
47.5556 10.2406
47.6044 10.2481
47.6531 10.1995
47.702 10.1496
47.7507 10.0997
47.7996 10.0903
47.8483 10.0636
47.8972 10.043
47.9461 10.0091
47.9948 9.93226
48.0438 9.91429
48.0925 9.92511
48.1415 9.87369
48.1902 9.78905
48.2392 9.74609
48.288 9.77023
48.337 9.71474
48.3858 9.64594
48.4348 9.61883
48.4837 9.61149
48.5327 9.56551
48.5815 9.52558
48.6306 9.48851
48.6795 9.47071
48.7285 9.41338
48.7774 9.38289
48.8265 9.37157
48.8754 9.3163
48.9245 9.31948
48.9734 9.26865
49.0226 9.23061
49.0715 9.18957
49.1206 9.1558
49.1696 9.11736
49.2188 9.06552
49.2679 9.0677
49.3169 9.00967
49.3661 8.93163
49.4151 8.95816
49.4643 8.91288
49.5134 8.84665
49.5626 8.8048
49.6117 8.8138
49.6609 8.77136
49.71 8.72699
49.7592 8.69505
49.8083 8.65915
49.8576 8.62355
49.9067 8.62887
49.956 8.60898
50.0052 8.5611
50.0545 8.53285
50.1036 8.49792
50.153 8.44303
50.2022 8.43493
50.2515 8.36379
50.3007 8.36373
50.3501 8.32093
50.3993 8.26002
50.4487 8.25806
50.498 8.21376
50.5474 8.20663
50.5966 8.1323
50.6461 8.10614
50.6955 8.09724
50.7448 8.07047
50.7943 8.03238
50.8436 7.99324
50.8931 7.95227
50.9424 7.96352
50.9919 7.9201
51.0413 7.86804
51.0908 7.83825
51.1402 7.82075
51.1897 7.75158
51.2391 7.78317
51.2887 7.70201
51.3381 7.72991
51.3877 7.66469
51.4371 7.62665
51.4867 7.58908
51.5362 7.58803
51.5858 7.51352
51.6353 7.4386
51.6849 7.46906
51.7344 7.43757
51.7841 7.43546
51.8336 7.36838
51.8833 7.3314
51.9328 7.30596
51.9826 7.26636
52.0323 7.25075
52.0818 7.21878
52.1316 7.17284
52.1812 7.17017
52.231 7.14036
52.2806 7.08204
52.3304 7.08554
52.38 7.04963
52.4298 7.02609
52.4794 6.97002
52.5293 6.96895
52.5789 6.93266
52.6288 6.91092
52.6785 6.90046
52.7284 6.84127
52.7781 6.83818
52.828 6.77446
52.8777 6.75276
52.9276 6.74793
52.9774 6.68112
53.0273 6.70565
53.0771 6.64574
53.1271 6.63199
53.1769 6.56594
53.2269 6.55576
53.2767 6.51242
53.3267 6.50105
53.3765 6.49526
53.4266 6.45012
53.4766 6.37662
53.5265 6.40809
53.5765 6.39247
53.6264 6.32011
53.6765 6.29453
53.7264 6.31682
53.7765 6.28195
53.8265 6.20399
53.8766 6.17508
53.9266 6.16869
53.9767 6.18131
54.0267 6.12382
54.0769 6.10066
54.1269 6.08192
54.1771 6.02504
54.2271 5.96745
54.2773 5.9232
54.3274 5.94059
54.3776 5.86644
54.4277 5.82744
54.478 5.80823
54.528 5.73374
54.5783 5.69631
54.6285 5.635
54.6788 5.62917
54.7289 5.54329
54.7792 5.52622
54.8296 5.4689
54.8798 5.42102
54.9301 5.41613
54.9803 5.37351
55.0307 5.31573
55.0809 5.29382
55.1314 5.27448
55.1816 5.21366
55.232 5.12148
55.2823 5.0907
55.3328 5.00286
55.383 5.0254
55.4335 4.95831
55.4838 4.88995
55.5344 4.86239
55.5847 4.83673
55.6352 4.8232
55.6856 4.75025
55.7361 4.7352