File: XRD/Ni3Fe_FD0180.xy
TT I
1.27165 7.82298
1.31627 6.71302
1.36089 7.19906
1.40551 6.47695
1.45013 6.25625
1.49476 6.7409
1.53938 6.01192
1.584 5.51914
1.62863 5.34172
1.67325 5.28155
1.71787 6.32252
1.7625 4.67518
1.80712 4.75253
1.85174 5.0169
1.89636 4.91912
1.94099 5.21094
1.98562 4.52103
2.03025 4.69255
2.07487 4.60624
2.11949 4.57077
2.16411 4.29032
2.20874 5.01663
2.25338 4.3982
2.298 4.29472
2.34263 4.01999
2.38725 4.22391
2.43188 3.88565
2.4765 4.22603
2.52115 5.34107
2.56577 5.27765
2.6104 5.69418
2.65503 4.85023
2.69965 6.07446
2.7443 6.1218
2.78893 6.65203
2.83356 7.13323
2.87818 7.77199
2.92281 8.63112
2.96744 9.39657
3.01209 10.356
3.05672 11.6906
3.10135 12.8017
3.14599 13.2668
3.19062 14.6561
3.23527 15.2335
3.2799 15.9643
3.32454 16.8104
3.36917 18.0898
3.4138 18.5288
3.45844 19.5055
3.50309 20.3412
3.54773 21.0766
3.59237 21.7499
3.637 22.5728
3.68164 23.3824
3.7263 24.4373
3.77094 25.1141
3.81558 26.3065
3.86022 26.9778
3.90486 28.0772
3.9495 28.7947
3.99416 29.8024
4.0388 30.6728
4.08344 31.7724
4.12809 33.4738
4.17273 34.4602
4.21738 35.9799
4.26204 36.7329
4.30669 38.3492
4.35133 39.7883
4.39598 41.4243
4.44063 43.5364
4.4853 44.7952
4.52995 47.8285
4.5746 49.4133
4.61925 52.0288
4.6639 54.1164
4.70855 56.9806
4.75322 59.9886
4.79788 62.8059
4.84253 66.6634
4.88719 70.7852
4.93184 75.7554
4.97652 82.3889
5.02118 91.3024
5.06583 101.36
5.11049 116.987
5.15515 152.605
5.19981 523.556
5.24449 3751.74
5.28916 8603.08
5.33382 6161.69
5.37848 406.126
5.42315 159.457
5.46783 126.767
5.5125 113.843
5.55716 107.831
5.60183 101.659
5.6465 99.5304
5.69117 97.6921
5.73586 95.7644
5.78053 95.3741
5.8252 95.9118
5.86988 97.9886
5.91455 105.036
5.95924 122.59
6.00392 279.791
6.0486 1371.88
6.09328 2879.17
6.13795 4006.49
6.18263 629.23
6.22733 119.526
6.27201 88.753
6.3167 78.2108
6.36138 73.0459
6.40606 68.7034
6.45075 66.7083
6.49545 64.6339
6.54014 62.6355
6.58483 61.3989
6.62952 59.8862
6.67421 58.6653
6.71892 58.2761
6.76361 57.0888
6.8083 56.0099
6.853 55.5726
6.89769 55.0663
6.94239 54.6984
6.98711 53.8356
7.03181 53.6368
7.07651 53.1542
7.12121 52.7823
7.16591 52.8045
7.21063 52.5296
7.25533 52.2981
7.30004 52.3345
7.34475 52.4713
7.38945 52.4848
7.43416 51.9399
7.47889 52.1903
7.5236 55.5452
7.56831 61.8936
7.61303 55.0519
7.65774 53.9871
7.70247 54.4687
7.74719 54.5626
7.79191 55.1972
7.83663 55.7585
7.88135 56.7687
7.92607 57.593
7.97081 58.5733
8.01553 60.0177
8.06026 60.8724
8.10498 62.3135
8.14971 64.1607
8.19446 65.3638
8.23919 68.2483
8.28392 71.1799
8.32865 73.6669
8.37339 78.318
8.41812 84.0428
8.46288 95.535
8.50761 171.214
8.55235 589.606
8.59709 923.706
8.64183 1588.03
8.68658 1621.9
8.73134 396.615
8.77609 114.806
8.82083 97.3539
8.86558 91.267
8.91033 88.071
8.9551 85.6463
8.99985 84.515
9.04461 83.3531
9.08936 82.5853
9.13412 81.7252
9.17888 81.9173
9.22365 86.5481
9.26841 94.5426
9.31318 85.9195
9.35794 82.7611
9.4027 82.8687
9.44749 83.3736
9.49226 84.4009
9.53703 84.7166
9.5818 86.6924
9.62657 87.3728
9.67134 89.1967
9.71614 91.1374
9.76091 93.4953
9.80569 96.3154
9.85047 99.5247
9.89525 104.528
9.94005 114.207
9.98484 184.135
10.0296 535.12
10.0744 755.027
10.1192 1095.29
10.164 1703.05
10.2088 932.836
10.2536 205.308
10.2984 116.198
10.3432 107.935
10.388 104.969
10.4328 121.481
10.4776 212.735
10.5224 266.668
10.5672 346.624
10.612 508.183
10.6568 363.157
10.7017 131.738
10.7465 90.6615
10.7913 84.2156
10.8361 81.0143
10.8809 78.5952
10.9257 76.5588
10.9706 75.0945
11.0154 73.3309
11.0602 71.9343
11.105 70.7853
11.1499 69.4068
11.1947 68.5222
11.2395 67.1671
11.2844 66.9309
11.3292 65.7194
11.374 65.2023
11.4189 64.49
11.4637 63.9819
11.5086 63.1108
11.5534 62.8035
11.5983 62.3808
11.6431 62.5649
11.688 61.9171
11.7328 61.91
11.7777 61.6381
11.8225 61.2985
11.8674 61.7956
11.9122 62.6935
11.9571 65.717
12.002 65.0883
12.0468 67.8544
12.0917 90.5251
12.1366 108.412
12.1814 121.802
12.2263 157.64
12.2712 194.842
12.3161 134.309
12.3609 73.3144
12.4058 64.4946
12.4507 63.7449
12.4956 63.5227
12.5405 63.5178
12.5853 64.1765
12.6302 64.3265
12.6751 64.9257
12.72 65.6329
12.7649 66.5694
12.8098 67.7502
12.8547 68.8201
12.8996 70.3405
12.9445 71.7182
12.9894 73.6603
13.0343 75.7279
13.0792 79.4265
13.1242 86.8571
13.1691 132.424
13.214 185.664
13.2589 209.97
13.3038 258.357
13.3487 365.603
13.3937 376.764
13.4386 201.299
13.4835 118.047
13.5285 153.059
13.5734 181.755
13.6183 199.734
13.6633 250.068
13.7082 340.068
13.7531 300.242
13.7981 149.488
13.843 88.0268
13.888 80.9309
13.9329 77.9954
13.9779 76.7339
14.0228 74.8939
14.0678 73.4244
14.1127 73.147
14.1577 74.0657
14.2027 72.745
14.2476 70.9928
14.2926 69.8295
14.3376 69.5142
14.3825 69.1976
14.4275 68.8599
14.4725 68.4715
14.5175 68.7414
14.5624 68.6951
14.6074 69.1554
14.6524 69.6034
14.6974 70.2462
14.7424 72.0514
14.7874 81.0011
14.8324 106.766
14.8774 121.463
14.9224 130.807
14.9674 154.912
15.0124 199.514
15.0574 205.24
15.1024 133.531
15.1474 81.2951
15.1924 71.6905
15.2374 69.5675
15.2824 68.4616
15.3274 67.3794
15.3725 66.8097
15.4175 66.492
15.4625 66.1885
15.5076 66.0778
15.5526 65.8241
15.5976 66.2184
15.6426 66.8648
15.6877 74.2041
15.7327 94.7521
15.7778 107.593
15.8228 113.633
15.8679 129.737
15.9129 161.643
15.958 187.363
16.003 148.951
16.0481 86.8477
16.0931 66.17
16.1382 62.0932
16.1833 60.6823
16.2283 59.1045
16.2734 58.519
16.3185 57.6247
16.3636 57.1676
16.4086 56.4762
16.4537 55.8387
16.4988 55.5005
16.5439 55.4348
16.589 55.2347
16.6341 54.9235
16.6792 54.3855
16.7243 54.5586
16.7694 54.3326
16.8145 54.5152
16.8596 54.6797
16.9047 54.9811
16.9498 55.4589
16.9949 55.2555
17.04 55.8732
17.0851 57.2934
17.1302 61.5015
17.1754 64.7307
17.2205 65.9952
17.2656 68.4692
17.3108 74.0704
17.3559 81.1745
17.401 81.4587
17.4462 71.0603
17.4913 61.7538
17.5365 59.5731
17.5815 59.5149
17.6268 59.6508
17.6718 60.3828
17.7171 60.827
17.7622 61.8082
17.8074 62.8675
17.8525 64.2554
17.8977 72.4226
17.9428 83.8608
17.9881 89.1019
18.0331 92.9541
18.0784 101.022
18.1237 118.848
18.1688 143.12
18.214 140.704
18.2591 109.555
18.3044 89.4008
18.3495 88.8104
18.3948 97.4122
18.4399 105.054
18.4852 94.5883
18.5303 75.6232
18.5756 65.2546
18.6207 62.4698
18.666 61.386
18.7112 60.6048
18.7565 59.6375
18.8016 59.4134
18.8469 58.6543
18.892 58.4168
18.9374 57.9028
18.9825 57.3991
19.0278 57.1114
19.073 57.2171
19.1183 57.6608
19.1635 59.9829
19.2088 61.9652
19.254 63.0296
19.2993 63.8853
19.3447 66.4824
19.3898 70.2911
19.4352 74.8219
19.4804 72.3591
19.5257 63.6399
19.5709 56.5077
19.6163 54.617
19.6615 54.2976
19.7068 53.7188
19.752 53.7818
19.7974 53.9263
19.8426 55.1003
19.888 57.1348
19.9332 58.6598
19.9786 59.3941
20.0238 60.0881
20.0692 62.9715
20.1144 68.1748
20.1598 73.1737
20.205 71.3262
20.2504 65.8163
20.2957 61.8633
20.3411 62.7722
20.3863 65.4884
20.4318 64.7012
20.477 59.0128
20.5224 53.4931
20.5677 51.4334
20.6131 50.5776
20.6586 50.0905
20.7038 50.0657
20.7493 49.5448
20.7945 49.5677
20.84 49.4904
20.8853 49.2776
20.9307 49.0801
20.976 49.2242
21.0215 49.3653
21.0668 49.7894
21.1122 49.9771
21.1575 50.0375
21.203 50.1748
21.2483 50.9643
21.2938 51.8789
21.3391 51.7524
21.3846 50.9396
21.4299 49.7289
21.4754 48.9639
21.5207 49.1353
21.5662 49.1943
21.6116 49.9185
21.6571 51.6107
21.7024 53.2818
21.7479 54.4066
21.7933 55.1954
21.8388 56.4996
21.8843 59.4794
21.9297 63.1596
21.9752 66.7505
22.0206 65.8994
22.0661 60.6525
22.1115 56.8374
22.157 56.3149
22.2024 57.1078
22.248 55.3223
22.2933 52.7735
22.3389 50.4703
22.3843 49.7254
22.4299 49.3062
22.4753 49.2844
22.5208 49.2387
22.5662 49.3166
22.6118 49.3644
22.6572 49.6219
22.7028 50.8236
22.7483 51.8352
22.7939 52.3296
22.8393 52.6463
22.8849 53.4836
22.9303 54.2299
22.9759 55.8706
23.0214 58.1551
23.067 58.874
23.1126 56.2834
23.1581 52.4172
23.2037 50.2301
23.2492 49.6354
23.2948 50.1715
23.3403 51.4829
23.3859 52.0402
23.4314 52.2314
23.477 52.5472
23.5225 53.1771
23.5682 54.4777
23.6137 56.8258
23.6593 58.6282
23.7048 57.6869
23.7505 53.0945
23.796 49.2518
23.8417 47.3259
23.8872 46.5363
23.9329 45.9588
23.9784 45.6301
24.0241 45.4227
24.0697 45.2683
24.1154 44.7992
24.1609 44.6144
24.2066 44.4084
24.2522 44.2024
24.2979 44.1889
24.3434 43.8337
24.3892 43.8009
24.4349 43.7067
24.4805 43.4432
24.5262 43.5763
24.5718 43.3594
24.6175 43.4115
24.6631 43.6118
24.7089 43.1727
24.7545 43.0347
24.8002 42.8991
24.8458 42.8231
24.8916 42.858
24.9372 42.9731
24.983 43.3235
25.0286 43.4058
25.0744 43.9439
25.12 44.3302
25.1658 44.8697
25.2114 45.0514
25.2572 45.5429
25.3029 45.5239
25.3487 45.2597
25.3943 45.4784
25.4402 45.3883
25.4858 44.8264
25.5316 43.2806
25.5773 42.0858
25.6231 41.6238
25.669 41.1363
25.7147 41.1581
25.7605 41.0901
25.8062 41.384
25.8521 41.4582
25.8977 41.4372
25.9436 41.3623
25.9893 41.4319
26.0352 41.6996
26.0809 41.657
26.1268 42.2004
26.1725 42.46
26.2184 42.2979
26.2641 41.8095
26.31 41.1739
26.3557 41.0941
26.4017 41.1425
26.4474 41.2009
26.4933 41.5077
26.5391 41.68
26.585 41.9619
26.6308 42.1932
26.6767 42.5171
26.7225 43.1189
26.7684 43.0501
26.8142 42.4657
26.8601 41.7032
26.9059 41.2999
26.9519 40.8407
26.9979 40.4393
27.0437 39.7971
27.0896 39.5482
27.1354 39.4723
27.1814 39.4802
27.2272 39.3976
27.2732 39.2187
27.3191 39.1664
27.3651 39.1735
27.4109 38.9542
27.4569 38.9509
27.5027 38.9633
27.5488 39.0855
27.5946 39.1205
27.6407 39.2761
27.6865 38.9989
27.7326 38.9472
27.7784 38.8695
27.8245 38.6442
27.8703 38.7178
27.9164 38.8047
27.9623 38.9082
28.0084 39.0153
28.0543 39.2499
28.1003 39.5617
28.1462 39.8183
28.1923 39.7756
28.2384 39.0948
28.2843 38.6546
28.3304 38.3649
28.3764 38.051
28.4225 37.4692
28.4684 37.117
28.5145 36.6899
28.5605 36.5591
28.6066 36.321
28.6526 36.2522
28.6987 36.2843
28.7447 36.0634
28.7908 35.8977
28.8368 35.9156
28.8829 35.9451
28.9289 35.7268
28.9751 35.9133
29.0211 35.6421
29.0673 35.502
29.1133 35.3399
29.1595 35.1202
29.2055 34.886
29.2517 34.8231
29.2977 34.7297
29.3439 34.6027
29.3899 34.6252
29.4361 34.7556
29.4824 34.6188
29.5284 34.5745
29.5746 34.2259
29.6207 33.8625
29.6669 33.6571
29.713 33.4755
29.7593 33.3626
29.8053 33.3622
29.8516 33.2663
29.8977 33.2827
29.9439 33.1387
29.99 33.1155
30.0363 32.9509
30.0824 33.114
30.1287 32.8768
30.1748 32.8971
30.2211 32.9113
30.2673 32.8036
30.3136 33.0144
30.3597 32.8762
30.406 32.7647
30.4522 32.7076
30.4985 32.636
30.5447 32.7427
30.591 32.6463
30.6372 32.6747
30.6835 32.5359
30.7297 32.6833
30.7761 32.7285
30.8224 32.755
30.8686 32.6368
30.915 32.4019
30.9612 32.2246
31.0076 31.9986
31.0538 31.8985
31.1002 31.746
31.1464 31.6225
31.1928 31.5959
31.2391 31.5404
31.2855 31.4324
31.3317 31.4626
31.3781 31.4071
31.4244 31.4035
31.4708 31.2457
31.5171 31.3076
31.5636 31.4253
31.6098 31.2129
31.6563 31.114
31.7026 31.0888
31.7491 30.8898
31.7953 30.7864
31.8418 30.7174
31.8881 30.6461
31.9346 30.7054
31.9809 30.5882
32.0275 30.5129
32.074 30.5249
32.1203 30.3116
32.1668 30.2228
32.2132 30.0033
32.2597 29.8938
32.306 29.7092
32.3526 29.4779
32.399 29.4591
32.4455 29.3075
32.4919 29.1933
32.5385 29.1869
32.5848 29.0445
32.6314 29.0217
32.6778 28.8882
32.7244 28.7604
32.7708 28.6622
32.8174 28.6753
32.8638 28.5555
32.9104 28.5593
32.9569 28.5572
33.0035 28.2959
33.0499 28.3073
33.0966 28.2454
33.143 28.2146
33.1897 28.1347
33.2361 28.1457
33.2828 28.0461
33.3293 27.9321
33.3759 28.036
33.4226 27.846
33.4691 27.7562
33.5158 27.6035
33.5623 27.5099
33.609 27.2552
33.6555 27.2017
33.7022 27.1421
33.7487 27.0467
33.7954 26.9661
33.842 26.7977
33.8887 26.7393
33.9353 26.7822
33.982 26.5753
34.0286 26.5979
34.0753 26.4616
34.1219 26.3339
34.1687 26.262
34.2152 26.2602
34.262 26.0662
34.3086 26.0223
34.3554 25.9508
34.402 25.7713
34.4488 25.6951
34.4954 25.6852
34.5422 25.6066
34.5889 25.4518
34.6357 25.4162
34.6825 25.3244
34.7292 25.2722
34.776 25.1293
34.8227 25.239
34.8695 25.1777
34.9162 24.8836
34.9631 24.9614
35.0098 24.9501
35.0566 24.7446
35.1033 24.7253
35.1502 24.7416
35.1969 24.5606
35.2438 24.5295
35.2906 24.4999
35.3375 24.5298
35.3842 24.3287
35.4311 24.3383
35.4779 24.4048
35.5248 24.3326
35.5716 24.217
35.6185 24.104
35.6653 24.0235
35.7123 23.9767
35.759 23.9009
35.806 23.7959
35.8528 23.7296
35.8998 23.607
35.9468 23.512
35.9936 23.5388
36.0406 23.3492
36.0874 23.386
36.1345 23.2239
36.1813 23.1731
36.2283 23.105
36.2752 23.0663
36.3222 23.1314
36.3691 23.0315
36.4161 22.7818
36.463 22.8104
36.5101 22.7831
36.557 22.7305
36.6041 22.6828
36.651 22.5722
36.6981 22.5019
36.745 22.4697
36.7921 22.4584
36.839 22.2304
36.8861 22.1662
36.9331 22.1777
36.9802 22.0094
37.0272 21.9934
37.0743 21.8818
37.1213 21.9189
37.1684 21.7303
37.2154 21.7387
37.2626 21.611
37.3098 21.5179
37.3568 21.5571
37.404 21.4627
37.451 21.3789
37.4982 21.3561
37.5452 21.2089
37.5924 21.1795
37.6395 21.1841
37.6867 21.0974
37.7337 21.0512
37.781 20.8969
37.8281 20.8267
37.8753 20.7343
37.9224 20.6993
37.9697 20.6042
38.0168 20.5793
38.064 20.4548
38.1111 20.4761
38.1584 20.314
38.2056 20.2499
38.2529 20.2336
38.3 20.1589
38.3473 20.1061
38.3945 19.997
38.4418 20.023
38.489 20.0195
38.5363 19.8092
38.5837 19.811
38.6309 19.7376
38.6782 19.6056
38.7254 19.6041
38.7728 19.5762
38.82 19.4905
38.8674 19.4522
38.9146 19.3647
38.9621 19.2751
39.0093 19.2442
39.0567 19.1799
39.104 19.0998
39.1514 19.0574
39.1987 19.0038
39.2461 18.9399
39.2934 18.9162
39.3409 18.8445
39.3882 18.7257
39.4356 18.6314
39.483 18.6525
39.5304 18.5816
39.5778 18.482
39.6253 18.4629
39.6726 18.3761
39.7201 18.3854
39.7675 18.2733
39.815 18.246
39.8624 18.1644
39.9099 18.1789
39.9575 18.0257
40.0049 18.0193
40.0525 17.9166
40.0999 17.9231
40.1474 17.8667
40.1949 17.7041
40.2425 17.6818
40.2899 17.7341
40.3375 17.6136
40.385 17.5803
40.4326 17.5045
40.48 17.4275
40.5277 17.3964
40.5752 17.3208
40.6228 17.2432
40.6703 17.2032
40.718 17.1061
40.7655 17.0993
40.8132 17.0685
40.8607 17.0025
40.9084 16.9769
40.9559 16.9394
41.0036 16.881
41.0512 16.7312
41.0989 16.7623
41.1465 16.6959
41.1942 16.6465
41.242 16.5256
41.2896 16.5137
41.3373 16.4654
41.3849 16.3696
41.4327 16.3722
41.4803 16.2692
41.5281 16.2383
41.5758 16.1139
41.6236 16.0575
41.6712 16.0473
41.7191 15.9602
41.7667 16.0128
41.8146 15.8736
41.8622 15.8185
41.9101 15.7901
41.9578 15.6697
42.0057 15.6521
42.0534 15.6536
42.1013 15.6292
42.149 15.4641
42.1969 15.4564
42.2446 15.4297
42.2925 15.3928
42.3403 15.312
42.3882 15.2854
42.436 15.2444
42.4839 15.1858
42.5319 15.1403
42.5797 15.1049
42.6277 15.001
42.6755 14.9218
42.7235 14.941
42.7713 14.8777
42.8193 14.8132
42.8671 14.7631
42.9152 14.7249
42.963 14.628
43.0111 14.6141
43.0589 14.5261
43.107 14.4901
43.1549 14.4458
43.2029 14.3846
43.2508 14.3676
43.2989 14.2787
43.3468 14.2488
43.3949 14.2035
43.4429 14.1558
43.491 14.0923
43.5389 13.9751
43.5871 14.0105
43.635 13.9562
43.6832 13.9683
43.7312 13.8567
43.7793 13.8576
43.8273 13.7899
43.8755 13.733
43.9237 13.7027
43.9717 13.6543
44.0199 13.5537
44.068 13.5773
44.1162 13.4758
44.1642 13.4744
44.2125 13.3742
44.2606 13.3704
44.3088 13.291
44.3569 13.2135
44.4052 13.2551
44.4533 13.1629
44.5016 13.1306
44.5497 13.0746
44.598 13.0296
44.6461 13.0011
44.6945 12.901
44.7426 12.9022
44.791 12.867
44.8391 12.8088
44.8875 12.7155
44.9357 12.7355
44.984 12.6671
45.0322 12.6184
45.0806 12.5701
45.1288 12.542
45.1773 12.494
45.2257 12.4348
45.2739 12.3743
45.3224 12.4016
45.3706 12.3173
45.4191 12.2189
45.4673 12.2241
45.5158 12.1502
45.5641 12.1447
45.6126 12.088
45.6609 12.0609
45.7094 12.0102
45.7577 11.936
45.8063 11.9112
45.8546 11.9078
45.9031 11.8102
45.9515 11.8159
46.0001 11.7773
46.0484 11.7334
46.097 11.7001
46.1454 11.6457
46.194 11.5924
46.2424 11.5448
46.291 11.472
46.3395 11.461
46.3881 11.4119
46.4365 11.4265
46.4852 11.3348
46.5337 11.2945
46.5823 11.2828
46.631 11.2078
46.6795 11.1511
46.7282 11.1192
46.7767 11.1048
46.8254 10.9917
46.8739 11.0046
46.9226 10.9691
46.9712 10.8846
47.0199 10.8753
47.0685 10.826
47.1173 10.7874
47.1658 10.7661
47.2146 10.7443
47.2632 10.6716
47.312 10.6389
47.3606 10.6261
47.4095 10.5645
47.4581 10.5443
47.5069 10.4535
47.5556 10.4581
47.6044 10.3841
47.6531 10.3792
47.702 10.3219
47.7507 10.3037
47.7996 10.2554
47.8483 10.2373
47.8972 10.1667
47.9461 10.1473
47.9948 10.0755
48.0438 10.0632
48.0925 10.0422
48.1415 10.0045
48.1902 9.94095
48.2392 9.96642
48.288 9.89631
48.337 9.89497
48.3858 9.8185
48.4348 9.8322
48.4837 9.76704
48.5327 9.73185
48.5815 9.6565
48.6306 9.6331
48.6795 9.63642
48.7285 9.57513
48.7774 9.55563
48.8265 9.50944
48.8754 9.44994
48.9245 9.42309
48.9734 9.39685
49.0226 9.42216
49.0715 9.33255
49.1206 9.31283
49.1696 9.24732
49.2188 9.24436
49.2679 9.18552
49.3169 9.16411
49.3661 9.14758
49.4151 9.07673
49.4643 9.03067
49.5134 9.05353
49.5626 8.94241
49.6117 8.93919
49.6609 8.91618
49.71 8.86789
49.7592 8.85599
49.8083 8.81769
49.8576 8.79041
49.9067 8.75591
49.956 8.72565
50.0052 8.70647
50.0545 8.66492
50.1036 8.62779
50.153 8.58806
50.2022 8.56673
50.2515 8.53835
50.3007 8.4777
50.3501 8.43464
50.3993 8.40273
50.4487 8.37317
50.498 8.37746
50.5474 8.32756
50.5966 8.27371
50.6461 8.25213
50.6955 8.24912
50.7448 8.24014
50.7943 8.16643
50.8436 8.14683
50.8931 8.10808
50.9424 8.07473
50.9919 8.02616
51.0413 8.03952
51.0908 7.96666
51.1402 7.93636
51.1897 7.91451
51.2391 7.86215
51.2887 7.87909
51.3381 7.79827
51.3877 7.79045
51.4371 7.71632
51.4867 7.72635
51.5362 7.68941
51.5858 7.67885
51.6353 7.60321
51.6849 7.5716
51.7344 7.55049
51.7841 7.51124
51.8336 7.4651
51.8833 7.43508
51.9328 7.4186
51.9826 7.37334
52.0323 7.39319
52.0818 7.30548
52.1316 7.2902
52.1812 7.329
52.231 7.21239
52.2806 7.23183
52.3304 7.18961
52.38 7.17943
52.4298 7.1092
52.4794 7.0657
52.5293 7.06901
52.5789 7.02919
52.6288 7.01011
52.6785 6.96828
52.7284 6.94468
52.7781 6.91048
52.828 6.90128
52.8777 6.84287
52.9276 6.85025
52.9774 6.80543
53.0273 6.76764
53.0771 6.77739
53.1271 6.73524
53.1769 6.69781
53.2269 6.66625
53.2767 6.65281
53.3267 6.59918
53.3765 6.61249
53.4266 6.5343
53.4766 6.5281
53.5265 6.43888
53.5765 6.4848
53.6264 6.41723
53.6765 6.42748
53.7264 6.40575
53.7765 6.34066
53.8265 6.28059
53.8766 6.28044
53.9266 6.26119
53.9767 6.26458
54.0267 6.17836
54.0769 6.20171
54.1269 6.19208
54.1771 6.13197
54.2271 6.10094
54.2773 6.00298
54.3274 6.02919
54.3776 5.92995
54.4277 5.90639
54.478 5.90446
54.528 5.83384
54.5783 5.79734
54.6285 5.71591
54.6788 5.73724
54.7289 5.71375
54.7792 5.6028
54.8296 5.58644
54.8798 5.52406
54.9301 5.529
54.9803 5.47558
55.0307 5.44528
55.0809 5.43535
55.1314 5.38056
55.1816 5.32962
55.232 5.25433
55.2823 5.27415
55.3328 5.13852
55.383 5.08249
55.4335 5.06996
55.4838 5.01322
55.5344 4.98246
55.5847 4.93064
55.6352 4.87235
55.6856 4.91515
55.7361 4.82252