File: XRD/Ni3Fe_FD0572.xy
TT I
1.27165 7.54873
1.31627 6.83814
1.36089 6.30597
1.40551 6.00503
1.45013 5.83588
1.49476 5.87882
1.53938 5.75629
1.584 5.41851
1.62863 5.38128
1.67325 4.59159
1.71787 5.12035
1.7625 5.13445
1.80712 4.54565
1.85174 4.92269
1.89636 4.42278
1.94099 5.54308
1.98562 4.73573
2.03025 4.91818
2.07487 4.67645
2.11949 4.81766
2.16411 4.34602
2.20874 10.7457
2.25338 14.2657
2.298 5.632
2.34263 5.40569
2.38725 5.64721
2.43188 5.32845
2.4765 6.55217
2.52115 6.61555
2.56577 6.6629
2.6104 7.9132
2.65503 7.60813
2.69965 7.92455
2.7443 7.72311
2.78893 7.93524
2.83356 8.22481
2.87818 8.41432
2.92281 9.05699
2.96744 9.1867
3.01209 10.3717
3.05672 11.0284
3.10135 12.5333
3.14599 13.6371
3.19062 14.188
3.23527 15.0628
3.2799 15.6647
3.32454 16.9737
3.36917 17.6414
3.4138 18.5495
3.45844 19.5658
3.50309 20.6455
3.54773 22.1339
3.59237 23.1198
3.637 61.2472
3.68164 43.0342
3.7263 25.985
3.77094 26.2415
3.81558 26.7944
3.86022 27.4829
3.90486 28.5769
3.9495 29.5177
3.99416 30.4958
4.0388 31.981
4.08344 33.3133
4.12809 34.4988
4.17273 36.5382
4.21738 41.2462
4.26204 156.5
4.30669 133.505
4.35133 45.8297
4.39598 44.2434
4.44063 50.5687
4.4853 57.6432
4.52995 52.4897
4.5746 53.6388
4.61925 53.8474
4.6639 56.3688
4.70855 58.8779
4.75322 61.7426
4.79788 65.5897
4.84253 68.2478
4.88719 73.2402
4.93184 76.7181
4.97652 82.1695
5.02118 88.8487
5.06583 96.7955
5.11049 109.481
5.15515 164.518
5.19981 458.407
5.24449 3220.84
5.28916 12307.6
5.33382 2815.37
5.37848 196.625
5.42315 131.262
5.46783 116.5
5.5125 108.927
5.55716 103.652
5.60183 99.5444
5.6465 97.5811
5.69117 95.4584
5.73586 93.2609
5.78053 94.8299
5.8252 94.5396
5.86988 96.6825
5.91455 97.1021
5.95924 108.607
6.00392 264.893
6.0486 1115.32
6.09328 4500.2
6.13795 3381.57
6.18263 248.027
6.22733 93.6449
6.27201 82.339
6.3167 90.7213
6.36138 77.0236
6.40606 69.7696
6.45075 67.8418
6.49545 65.6808
6.54014 63.8664
6.58483 63.0307
6.62952 62.767
6.67421 80.0315
6.71892 105.808
6.76361 64.1046
6.8083 58.6347
6.853 58.24
6.89769 57.1466
6.94239 56.8655
6.98711 55.8769
7.03181 56.0639
7.07651 55.2366
7.12121 54.9607
7.16591 55.4262
7.21063 55.4863
7.25533 63.8175
7.30004 123.992
7.34475 75.1658
7.38945 55.8122
7.43416 54.3854
7.47889 54.252
7.5236 54.7493
7.56831 55.6576
7.61303 56.4483
7.65774 57.3086
7.70247 56.5509
7.74719 56.5562
7.79191 56.8155
7.83663 56.9705
7.88135 58.4032
7.92607 58.9673
7.97081 60.1036
8.01553 61.7057
8.06026 62.873
8.10498 64.1795
8.14971 70.7905
8.19446 70.8069
8.23919 70.0393
8.28392 72.8596
8.32865 74.609
8.37339 79.6866
8.41812 86.1609
8.46288 108.646
8.50761 192.741
8.55235 439.323
8.59709 1234.09
8.64183 2173.77
8.68658 938.031
8.73134 161.221
8.77609 100.045
8.82083 93.3633
8.86558 91.2694
8.91033 90.4842
8.9551 89.8318
8.99985 85.8377
9.04461 84.4688
9.08936 83.9075
9.13412 82.9262
9.17888 82.7239
9.22365 83.421
9.26841 82.9083
9.31318 83.9978
9.35794 84.2686
9.4027 84.4489
9.44749 85.071
9.49226 85.384
9.53703 86.7936
9.5818 88.7578
9.62657 92.5909
9.67134 96.2216
9.71614 94.1459
9.76091 95.2158
9.80569 98.3645
9.85047 101.586
9.89525 117.043
9.94005 132.549
9.98484 206.975
10.0296 381.737
10.0744 859.349
10.1192 1707.72
10.164 1509.83
10.2088 368.876
10.2536 125.778
10.2984 111.804
10.3432 111.105
10.388 106.31
10.4328 127.329
10.4776 171.394
10.5224 299.196
10.5672 523.754
10.612 500.063
10.6568 191.461
10.7017 95.5442
10.7465 87.2268
10.7913 83.6374
10.8361 81.2926
10.8809 79.5019
10.9257 78.4132
10.9706 78.3348
11.0154 75.1719
11.0602 73.1274
11.105 72.1174
11.1499 73.924
11.1947 77.6106
11.2395 71.727
11.2844 69.5319
11.3292 67.7291
11.374 66.2564
11.4189 65.9648
11.4637 65.3528
11.5086 65.3767
11.5534 66.5021
11.5983 65.103
11.6431 63.9173
11.688 63.2987
11.7328 63.2877
11.7777 63.1132
11.8225 62.7418
11.8674 62.8077
11.9122 63.2015
11.9571 63.4554
12.002 64.7706
12.0468 70.5281
12.0917 81.9027
12.1366 106.759
12.1814 156.256
12.2263 201.902
12.2712 160.575
12.3161 89.7998
12.3609 68.2965
12.4058 64.9309
12.4507 64.6238
12.4956 65.1296
12.5405 64.8951
12.5853 65.7879
12.6302 70.0917
12.6751 73.4698
12.72 69.0586
12.7649 68.0213
12.8098 68.9723
12.8547 70.2366
12.8996 71.7993
12.9445 73.213
12.9894 74.9879
13.0343 76.8328
13.0792 80.9447
13.1242 94.261
13.1691 117.855
13.214 158.016
13.2589 251.295
13.3038 373.943
13.3487 422.35
13.3937 251.586
13.4386 121.78
13.4835 110.635
13.5285 126.654
13.5734 168.116
13.6183 257.233
13.6633 353.619
13.7082 333.586
13.7531 180.712
13.7981 96.5757
13.843 82.1378
13.888 80.1968
13.9329 77.8664
13.9779 76.3567
14.0228 75.1472
14.0678 73.5569
14.1127 73.1316
14.1577 72.5954
14.2027 72.0142
14.2476 71.042
14.2926 70.7138
14.3376 71.3234
14.3825 70.245
14.4275 69.5519
14.4725 69.2857
14.5175 69.4875
14.5624 69.8102
14.6074 71.1415
14.6524 71.5866
14.6974 70.9815
14.7424 74.4835
14.7874 82.1179
14.8324 92.9985
14.8774 116.182
14.9224 158.446
14.9674 209.921
15.0124 217.772
15.0574 144.076
15.1024 89.0755
15.1474 72.602
15.1924 70.6078
15.2374 70.5158
15.2824 69.7136
15.3274 68.1278
15.3725 67.4015
15.4175 66.9365
15.4625 66.456
15.5076 66.6723
15.5526 66.5671
15.5976 66.6787
15.6426 69.0665
15.6877 74.7033
15.7327 82.692
15.7778 98.9492
15.8228 131.112
15.8679 172.776
15.9129 193.802
15.958 150.778
16.003 94.1635
16.0481 67.1851
16.0931 63.9378
16.1382 62.4518
16.1833 60.822
16.2283 59.2214
16.2734 58.6816
16.3185 58.3847
16.3636 58.7486
16.4086 57.5956
16.4537 56.5319
16.4988 55.9883
16.5439 55.8719
16.589 55.6095
16.6341 55.2931
16.6792 54.8669
16.7243 55.0647
16.7694 55.3049
16.8145 55.2839
16.8596 55.4885
16.9047 56.4758
16.9498 56.6796
16.9949 56.0406
17.04 56.584
17.0851 57.9142
17.1302 59.602
17.1754 62.9949
17.2205 67.8948
17.2656 75.2667
17.3108 82.8073
17.3559 81.6972
17.401 70.7537
17.4462 62.1303
17.4913 59.5098
17.5365 59.8025
17.5815 59.7983
17.6268 60.1324
17.6718 60.8484
17.7171 61.3637
17.7622 61.9063
17.8074 63.0804
17.8525 66.1092
17.8977 69.8256
17.9428 75.6179
17.9881 85.3192
18.0331 102.698
18.0784 123.92
18.1237 141.665
18.1688 132.368
18.214 102.743
18.2591 87.527
18.3044 92.2471
18.3495 101.31
18.3948 106.355
18.4399 95.3643
18.4852 76.6988
18.5303 65.799
18.5756 62.4929
18.6207 61.6297
18.666 60.814
18.7112 60.3274
18.7565 59.5343
18.8016 58.9612
18.8469 58.4646
18.892 58.2506
18.9374 57.6308
18.9825 57.3529
19.0278 57.409
19.073 57.4743
19.1183 57.9199
19.1635 58.6239
19.2088 60.1905
19.254 63.0293
19.2993 67.5215
19.3447 72.7838
19.3898 76.2103
19.4352 71.8657
19.4804 63.1759
19.5257 56.677
19.5709 54.6405
19.6163 54.2447
19.6615 54.2423
19.7068 53.8271
19.752 53.7855
19.7974 54.1993
19.8426 55.0181
19.888 55.7155
19.9332 56.8522
19.9786 59.8221
20.0238 63.429
20.0692 67.992
20.1144 70.288
20.1598 68.4239
20.205 63.9888
20.2504 62.5141
20.2957 64.1655
20.3411 65.6493
20.3863 64.118
20.4318 58.2874
20.477 53.5861
20.5224 51.4965
20.5677 51.2086
20.6131 50.6039
20.6586 49.9959
20.7038 49.9142
20.7493 49.3232
20.7945 49.3281
20.84 49.113
20.8853 49.08
20.9307 48.967
20.976 49.0847
21.0215 48.971
21.0668 49.2831
21.1122 49.9044
21.1575 50.5357
21.203 51.0879
21.2483 51.8121
21.2938 51.7007
21.3391 50.4983
21.3846 49.3062
21.4299 48.8171
21.4754 48.7217
21.5207 48.9642
21.5662 49.4222
21.6116 49.9375
21.6571 50.4535
21.7024 51.5325
21.7479 53.4003
21.7933 56.1157
21.8388 59.7073
21.8843 63.2408
21.9297 65.221
21.9752 63.4416
22.0206 59.5556
22.0661 56.6696
22.1115 56.221
22.157 56.23
22.2024 54.463
22.248 51.734
22.2933 50.1271
22.3389 49.3055
22.3843 49.2279
22.4299 49.146
22.4753 49.1021
22.5208 48.9202
22.5662 48.7767
22.6118 49.1135
22.6572 49.3966
22.7028 49.7988
22.7483 50.2181
22.7939 51.01
22.8393 52.7416
22.8849 54.7658
22.9303 56.8081
22.9759 58.1068
23.0214 57.4311
23.067 54.297
23.1126 51.2243
23.1581 49.3359
23.2037 49.2196
23.2492 49.3263
23.2948 49.3217
23.3403 49.6602
23.3859 50.2835
23.4314 51.4861
23.477 53.3309
23.5225 55.4206
23.5682 57.3921
23.6137 58.2202
23.6593 55.5456
23.7048 51.5641
23.7505 48.2883
23.796 46.8347
23.8417 46.3711
23.8872 45.7234
23.9329 45.4904
23.9784 45.1147
24.0241 44.9484
24.0697 44.8283
24.1154 44.3339
24.1609 44.2483
24.2066 44.0208
24.2522 44.0338
24.2979 43.6557
24.3434 43.5855
24.3892 43.3946
24.4349 43.33
24.4805 43.1851
24.5262 43.564
24.5718 43.1213
24.6175 43.1503
24.6631 42.9998
24.7089 42.7184
24.7545 42.6505
24.8002 42.7
24.8458 42.5477
24.8916 42.4263
24.9372 42.5274
24.983 42.9375
25.0286 43.2795
25.0744 43.5797
25.12 44.117
25.1658 44.7177
25.2114 45.0954
25.2572 45.0496
25.3029 45.12
25.3487 45.104
25.3943 44.964
25.4402 43.5859
25.4858 42.6124
25.5316 41.6899
25.5773 41.1239
25.6231 41.1359
25.669 40.87
25.7147 40.8881
25.7605 40.8087
25.8062 40.6504
25.8521 41.0024
25.8977 40.8438
25.9436 41.2143
25.9893 41.399
26.0352 41.7847
26.0809 42.0202
26.1268 41.9507
26.1725 41.6052
26.2184 40.9935
26.2641 40.529
26.31 40.4011
26.3557 40.5464
26.4017 40.4006
26.4474 40.6444
26.4933 41.0347
26.5391 41.6041
26.585 42.0009
26.6308 42.3909
26.6767 42.5709
26.7225 42.2073
26.7684 41.6662
26.8142 41.0625
26.8601 40.6608
26.9059 40.3328
26.9519 39.7108
26.9979 39.3814
27.0437 39.1333
27.0896 38.9004
27.1354 38.9719
27.1814 38.8826
27.2272 38.748
27.2732 38.7756
27.3191 38.5637
27.3651 38.7961
27.4109 38.6357
27.4569 38.7412
27.5027 38.8453
27.5488 38.7618
27.5946 38.6716
27.6407 38.4965
27.6865 38.2965
27.7326 38.0329
27.7784 38.1581
27.8245 38.1592
27.8703 38.2113
27.9164 38.6003
27.9623 38.5452
28.0084 38.9776
28.0543 39.2802
28.1003 39.2605
28.1462 39.0613
28.1923 38.7548
28.2384 38.1276
28.2843 37.7679
28.3304 37.3285
28.3764 36.9045
28.4225 36.6024
28.4684 36.4776
28.5145 36.228
28.5605 36.1559
28.6066 35.9485
28.6526 35.8256
28.6987 35.9197
28.7447 35.703
28.7908 35.5824
28.8368 35.6344
28.8829 35.6096
28.9289 35.623
28.9751 35.3011
29.0211 35.1511
29.0673 34.9222
29.1133 34.6954
29.1595 34.5457
29.2055 34.4946
29.2517 34.4469
29.2977 34.5307
29.3439 34.4918
29.3899 34.4861
29.4361 34.3069
29.4824 34.2362
29.5284 34.0154
29.5746 33.5651
29.6207 33.31
29.6669 33.3763
29.713 33.1869
29.7593 33.0233
29.8053 33.1155
29.8516 33.1187
29.8977 32.9504
29.9439 32.9435
29.99 32.7068
30.0363 32.6954
30.0824 32.7608
30.1287 32.6517
30.1748 32.63
30.2211 32.5986
30.2673 32.5323
30.3136 32.6292
30.3597 32.4009
30.406 32.4315
30.4522 32.3089
30.4985 32.2839
30.5447 32.3588
30.591 32.3531
30.6372 32.391
30.6835 32.4331
30.7297 32.4691
30.7761 32.3351
30.8224 32.127
30.8686 31.9835
30.915 31.807
30.9612 31.7663
31.0076 31.5021
31.0538 31.4019
31.1002 31.3129
31.1464 31.2358
31.1928 31.2019
31.2391 31.2349
31.2855 31.1195
31.3317 31.1005
31.3781 31.1419
31.4244 31.1706
31.4708 30.9647
31.5171 31.0163
31.5636 31.0374
31.6098 30.7573
31.6563 30.5246
31.7026 30.4817
31.7491 30.3587
31.7953 30.4048
31.8418 30.3518
31.8881 30.4241
31.9346 30.3122
31.9809 30.2625
32.0275 30.2648
32.074 29.9986
32.1203 29.8407
32.1668 29.6548
32.2132 29.6357
32.2597 29.4084
32.306 29.364
32.3526 29.2115
32.399 29.0294
32.4455 28.9599
32.4919 28.8799
32.5385 28.8792
32.5848 28.605
32.6314 28.7654
32.6778 28.6371
32.7244 28.4964
32.7708 28.289
32.8174 28.3773
32.8638 28.1943
32.9104 28.2078
32.9569 28.1496
33.0035 28.0433
33.0499 28.1075
33.0966 27.9552
33.143 27.9868
33.1897 27.8406
33.2361 27.7925
33.2828 27.7838
33.3293 27.6061
33.3759 27.5576
33.4226 27.4346
33.4691 27.2883
33.5158 27.2195
33.5623 27.0664
33.609 26.9134
33.6555 26.8596
33.7022 26.7925
33.7487 26.6725
33.7954 26.6534
33.842 26.4869
33.8887 26.3706
33.9353 26.4073
33.982 26.2485
34.0286 26.3004
34.0753 26.1379
34.1219 25.9462
34.1687 26.1572
34.2152 25.923
34.262 25.7923
34.3086 25.7883
34.3554 25.7215
34.402 25.5598
34.4488 25.4955
34.4954 25.4038
34.5422 25.3484
34.5889 25.1522
34.6357 25.1581
34.6825 25.0294
34.7292 24.9981
34.776 24.8749
34.8227 24.8326
34.8695 24.7637
34.9162 24.7211
34.9631 24.6853
35.0098 24.6068
35.0566 24.5609
35.1033 24.4546
35.1502 24.472
35.1969 24.3289
35.2438 24.2764
35.2906 24.2869
35.3375 24.2761
35.3842 24.0501
35.4311 24.0993
35.4779 24.1094
35.5248 24.0832
35.5716 23.9036
35.6185 23.9266
35.6653 23.7057
35.7123 23.6979
35.759 23.6488
35.806 23.5259
35.8528 23.4242
35.8998 23.3773
35.9468 23.2324
35.9936 23.2734
36.0406 23.1006
36.0874 23.1004
36.1345 22.9442
36.1813 22.9975
36.2283 22.7802
36.2752 22.7941
36.3222 22.7449
36.3691 22.7076
36.4161 22.6697
36.463 22.5642
36.5101 22.5627
36.557 22.5405
36.6041 22.2987
36.651 22.328
36.6981 22.2524
36.745 22.2405
36.7921 22.026
36.839 22.0
36.8861 21.9327
36.9331 21.7824
36.9802 21.8266
37.0272 21.705
37.0743 21.6119
37.1213 21.6407
37.1684 21.5949
37.2154 21.4872
37.2626 21.3814
37.3098 21.3478
37.3568 21.3061
37.404 21.2416
37.451 21.0348
37.4982 21.1097
37.5452 21.0008
37.5924 20.8951
37.6395 20.9402
37.6867 20.8239
37.7337 20.7501
37.781 20.6808
37.8281 20.5929
37.8753 20.5108
37.9224 20.4494
37.9697 20.4197
38.0168 20.3849
38.064 20.2943
38.1111 20.2651
38.1584 20.1354
38.2056 20.0721
38.2529 20.0179
38.3 19.9648
38.3473 19.9536
38.3945 19.81
38.4418 19.8275
38.489 19.7525
38.5363 19.6589
38.5837 19.5692
38.6309 19.5568
38.6782 19.4888
38.7254 19.423
38.7728 19.3033
38.82 19.2176
38.8674 19.164
38.9146 19.191
38.9621 19.0592
39.0093 19.0565
39.0567 19.0063
39.104 18.9559
39.1514 18.7472
39.1987 18.7669
39.2461 18.7438
39.2934 18.6791
39.3409 18.5622
39.3882 18.4822
39.4356 18.4489
39.483 18.4037
39.5304 18.3801
39.5778 18.3417
39.6253 18.2139
39.6726 18.1106
39.7201 18.1381
39.7675 18.1094
39.815 18.1001
39.8624 17.9442
39.9099 18.0258
39.9575 17.8576
40.0049 17.7894
40.0525 17.6878
40.0999 17.6509
40.1474 17.5814
40.1949 17.5966
40.2425 17.5013
40.2899 17.5156
40.3375 17.4471
40.385 17.3716
40.4326 17.2525
40.48 17.1987
40.5277 17.1602
40.5752 17.1445
40.6228 17.0881
40.6703 17.0759
40.718 16.9397
40.7655 16.9048
40.8132 16.8484
40.8607 16.8084
40.9084 16.814
40.9559 16.6902
41.0036 16.6519
41.0512 16.5982
41.0989 16.5989
41.1465 16.5146
41.1942 16.3698
41.242 16.298
41.2896 16.2668
41.3373 16.1903
41.3849 16.1944
41.4327 16.1591
41.4803 16.0832
41.5281 16.0713
41.5758 16.0335
41.6236 15.918
41.6712 15.8161
41.7191 15.7686
41.7667 15.8018
41.8146 15.7968
41.8622 15.6823
41.9101 15.6542
41.9578 15.5476
42.0057 15.5069
42.0534 15.5302
42.1013 15.4256
42.149 15.4035
42.1969 15.3129
42.2446 15.228
42.2925 15.1838
42.3403 15.172
42.3882 15.151
42.436 15.0549
42.4839 14.9968
42.5319 14.9923
42.5797 14.9043
42.6277 14.8235
42.6755 14.8066
42.7235 14.7183
42.7713 14.7079
42.8193 14.6349
42.8671 14.5955
42.9152 14.5179
42.963 14.4805
43.0111 14.4726
43.0589 14.3757
43.107 14.3031
43.1549 14.3068
43.2029 14.2411
43.2508 14.2274
43.2989 14.1909
43.3468 14.0951
43.3949 14.089
43.4429 14.0848
43.491 13.9893
43.5389 13.9195
43.5871 13.8457
43.635 13.8252
43.6832 13.7631
43.7312 13.6834
43.7793 13.6924
43.8273 13.6553
43.8755 13.5999
43.9237 13.5366
43.9717 13.4886
44.0199 13.486
44.068 13.419
44.1162 13.3558
44.1642 13.3065
44.2125 13.2544
44.2606 13.253
44.3088 13.1405
44.3569 13.1188
44.4052 13.0801
44.4533 12.9993
44.5016 12.9787
44.5497 12.9216
44.598 12.9295
44.6461 12.838
44.6945 12.8604
44.7426 12.7249
44.791 12.6712
44.8391 12.6744
44.8875 12.6404
44.9357 12.5937
44.984 12.5286
45.0322 12.5114
45.0806 12.4364
45.1288 12.3888
45.1773 12.3527
45.2257 12.2908
45.2739 12.2498
45.3224 12.251
45.3706 12.198
45.4191 12.1397
45.4673 12.0983
45.5158 12.0584
45.5641 12.0255
45.6126 11.9197
45.6609 11.9415
45.7094 11.8916
45.7577 11.8494
45.8063 11.8177
45.8546 11.7562
45.9031 11.6765
45.9515 11.6898
46.0001 11.6299
46.0484 11.5889
46.097 11.5633
46.1454 11.5662
46.194 11.5309
46.2424 11.4096
46.291 11.3539
46.3395 11.4198
46.3881 11.2593
46.4365 11.2667
46.4852 11.2114
46.5337 11.1804
46.5823 11.0943
46.631 11.0999
46.6795 11.0316
46.7282 11.0355
46.7767 10.9809
46.8254 10.9353
46.8739 10.8472
46.9226 10.8378
46.9712 10.7859
47.0199 10.7703
47.0685 10.7438
47.1173 10.7103
47.1658 10.6209
47.2146 10.5925
47.2632 10.5443
47.312 10.5843
47.3606 10.4708
47.4095 10.4307
47.4581 10.4207
47.5069 10.3692
47.5556 10.3343
47.6044 10.2918
47.6531 10.2623
47.702 10.2124
47.7507 10.2041
47.7996 10.1608
47.8483 10.0998
47.8972 10.1024
47.9461 10.0157
47.9948 10.0085
48.0438 9.96443
48.0925 9.94138
48.1415 9.92321
48.1902 9.84949
48.2392 9.84864
48.288 9.82037
48.337 9.77458
48.3858 9.68769
48.4348 9.69414
48.4837 9.67294
48.5327 9.62093
48.5815 9.58174
48.6306 9.58282
48.6795 9.50771
48.7285 9.43545
48.7774 9.44186
48.8265 9.43345
48.8754 9.3624
48.9245 9.30529
48.9734 9.33717
49.0226 9.2966
49.0715 9.25228
49.1206 9.18885
49.1696 9.17615
49.2188 9.15112
49.2679 9.11468
49.3169 9.07781
49.3661 9.04953
49.4151 8.98025
49.4643 8.98298
49.5134 8.89428
49.5626 8.87136
49.6117 8.86322
49.6609 8.80788
49.71 8.73878
49.7592 8.74116
49.8083 8.71745
49.8576 8.71798
49.9067 8.61858
49.956 8.593
50.0052 8.57223
50.0545 8.56109
50.1036 8.48231
50.153 8.47074
50.2022 8.45963
50.2515 8.4121
50.3007 8.35886
50.3501 8.32605
50.3993 8.33076
50.4487 8.26066
50.498 8.2762
50.5474 8.2463
50.5966 8.19365
50.6461 8.14945
50.6955 8.12825
50.7448 8.09162
50.7943 8.0609
50.8436 8.02338
50.8931 7.94773
50.9424 7.98088
50.9919 7.89745
51.0413 7.92948
51.0908 7.88013
51.1402 7.85023
51.1897 7.83778
51.2391 7.79766
51.2887 7.74953
51.3381 7.71264
51.3877 7.68562
51.4371 7.68748
51.4867 7.61539
51.5362 7.58349
51.5858 7.5648
51.6353 7.49596
51.6849 7.50028
51.7344 7.46342
51.7841 7.43487
51.8336 7.42616
51.8833 7.37894
51.9328 7.32626
51.9826 7.31505
52.0323 7.29811
52.0818 7.25593
52.1316 7.19526
52.1812 7.20439
52.231 7.17807
52.2806 7.133
52.3304 7.09901
52.38 7.05004
52.4298 7.04445
52.4794 6.98521
52.5293 6.96841
52.5789 6.93974
52.6288 6.92614
52.6785 6.88109
52.7284 6.86293
52.7781 6.85924
52.828 6.78868
52.8777 6.77514
52.9276 6.72479
52.9774 6.70835
53.0273 6.72988
53.0771 6.68438
53.1271 6.67261
53.1769 6.59743
53.2269 6.59516
53.2767 6.56488
53.3267 6.4771
53.3765 6.55492
53.4266 6.46081
53.4766 6.4116
53.5265 6.40836
53.5765 6.37885
53.6264 6.3321
53.6765 6.33911
53.7264 6.29044
53.7765 6.29713
53.8265 6.23062
53.8766 6.24352
53.9266 6.18082
53.9767 6.14382
54.0267 6.18184
54.0769 6.14754
54.1269 6.07237
54.1771 6.05446
54.2271 6.09786
54.2773 5.97084
54.3274 5.98962
54.3776 5.89301
54.4277 5.90712
54.478 5.89249
54.528 5.84249
54.5783 5.77054
54.6285 5.79016
54.6788 5.75812
54.7289 5.64765
54.7792 5.63919
54.8296 5.58367
54.8798 5.5304
54.9301 5.52674
54.9803 5.46889
55.0307 5.44129
55.0809 5.4155
55.1314 5.37272
55.1816 5.30822
55.232 5.29519
55.2823 5.21407
55.3328 5.20677
55.383 5.04711
55.4335 5.12827
55.4838 5.02545
55.5344 5.04688
55.5847 4.96615
55.6352 4.89607
55.6856 4.8467
55.7361 4.85322