File: XRD/Ni3Fe_FD0126.xy
TT I
1.27165 8.08064
1.31627 7.3289
1.36089 6.74647
1.40551 6.08163
1.45013 7.38814
1.49476 6.48931
1.53938 6.19455
1.584 6.11352
1.62863 6.05688
1.67325 5.87309
1.71787 5.04975
1.7625 5.6822
1.80712 5.32365
1.85174 5.27808
1.89636 5.25579
1.94099 5.22536
1.98562 5.25892
2.03025 4.742
2.07487 4.95342
2.11949 5.225
2.16411 5.01259
2.20874 4.75129
2.25338 4.4011
2.298 4.98183
2.34263 4.42886
2.38725 4.12218
2.43188 4.75584
2.4765 4.4683
2.52115 4.21452
2.56577 4.43992
2.6104 5.15219
2.65503 4.57636
2.69965 5.24486
2.7443 5.96071
2.78893 6.25043
2.83356 7.16875
2.87818 7.71645
2.92281 8.772
2.96744 8.99498
3.01209 10.3034
3.05672 11.3507
3.10135 12.6731
3.14599 13.1792
3.19062 14.2658
3.23527 14.9155
3.2799 15.3453
3.32454 16.3399
3.36917 17.6818
3.4138 18.4046
3.45844 18.6513
3.50309 20.3398
3.54773 20.7619
3.59237 21.4854
3.637 22.1323
3.68164 23.0438
3.7263 23.7947
3.77094 24.9651
3.81558 25.4065
3.86022 26.6138
3.90486 27.7583
3.9495 28.427
3.99416 29.5107
4.0388 30.7058
4.08344 31.6584
4.12809 32.6223
4.17273 33.8749
4.21738 35.395
4.26204 36.378
4.30669 37.4886
4.35133 38.9795
4.39598 40.6923
4.44063 42.646
4.4853 44.1964
4.52995 46.9297
4.5746 48.8256
4.61925 50.7384
4.6639 53.2941
4.70855 56.0632
4.75322 58.9203
4.79788 61.6792
4.84253 65.6711
4.88719 70.0618
4.93184 74.8726
4.97652 82.1894
5.02118 90.8081
5.06583 101.531
5.11049 118.323
5.15515 158.128
5.19981 576.932
5.24449 3757.02
5.28916 7689.99
5.33382 6636.88
5.37848 516.096
5.42315 169.294
5.46783 130.006
5.5125 115.372
5.55716 108.199
5.60183 101.553
5.6465 98.7916
5.69117 97.6096
5.73586 95.5225
5.78053 95.3899
5.8252 95.8492
5.86988 99.3575
5.91455 106.081
5.95924 126.009
6.00392 299.4
6.0486 1397.72
6.09328 2528.48
6.13795 3937.12
6.18263 760.651
6.22733 128.329
6.27201 90.4154
6.3167 78.6411
6.36138 72.3881
6.40606 68.2359
6.45075 66.0458
6.49545 63.8779
6.54014 61.9147
6.58483 60.6861
6.62952 59.1925
6.67421 57.8847
6.71892 57.0514
6.76361 56.1769
6.8083 55.2078
6.853 54.0538
6.89769 53.7346
6.94239 53.8189
6.98711 52.7859
7.03181 52.6861
7.07651 52.6235
7.12121 51.9246
7.16591 51.6115
7.21063 51.5659
7.25533 51.4779
7.30004 51.4871
7.34475 51.4035
7.38945 51.7413
7.43416 51.1302
7.47889 51.7202
7.5236 56.0981
7.56831 66.1038
7.61303 55.7698
7.65774 53.1398
7.70247 53.425
7.74719 53.9323
7.79191 54.0471
7.83663 54.5636
7.88135 55.7402
7.92607 56.5507
7.97081 57.7029
8.01553 58.6547
8.06026 59.8617
8.10498 61.413
8.14971 63.0388
8.19446 64.5499
8.23919 67.2249
8.28392 70.0965
8.32865 72.6006
8.37339 77.6123
8.41812 83.0502
8.46288 95.6155
8.50761 174.772
8.55235 613.819
8.59709 841.167
8.64183 1382.72
8.68658 1722.2
8.73134 448.384
8.77609 119.648
8.82083 97.3654
8.86558 91.087
8.91033 87.115
8.9551 84.7466
8.99985 83.408
9.04461 82.5131
9.08936 81.6282
9.13412 81.0033
9.17888 81.0229
9.22365 87.6981
9.26841 101.8
9.31318 87.7384
9.35794 81.7148
9.4027 81.4736
9.44749 81.8486
9.49226 82.8215
9.53703 83.7738
9.5818 84.819
9.62657 86.1338
9.67134 87.4864
9.71614 89.8575
9.76091 92.0199
9.80569 94.6368
9.85047 98.2488
9.89525 103.509
9.94005 113.895
9.98484 187.575
10.0296 555.697
10.0744 714.26
10.1192 942.844
10.164 1598.65
10.2088 1053.6
10.2536 235.61
10.2984 117.4
10.3432 107.871
10.388 104.018
10.4328 120.955
10.4776 217.818
10.5224 255.352
10.5672 307.063
10.612 472.229
10.6568 394.338
10.7017 142.15
10.7465 91.5241
10.7913 83.1071
10.8361 79.9205
10.8809 77.3556
10.9257 75.2488
10.9706 73.955
11.0154 72.0229
11.0602 70.5152
11.105 69.4323
11.1499 68.066
11.1947 67.0854
11.2395 66.0271
11.2844 65.3746
11.3292 64.6133
11.374 64.2701
11.4189 63.2182
11.4637 62.8911
11.5086 62.0612
11.5534 61.5699
11.5983 61.5266
11.6431 61.5791
11.688 60.9987
11.7328 60.7339
11.7777 60.5819
11.8225 60.6171
11.8674 60.4923
11.9122 61.8153
11.9571 66.2549
12.002 65.9792
12.0468 67.3991
12.0917 90.6683
12.1366 107.663
12.1814 112.874
12.2263 141.784
12.2712 188.47
12.3161 145.108
12.3609 76.5794
12.4058 63.8107
12.4507 62.7931
12.4956 62.5289
12.5405 62.4311
12.5853 63.0173
12.6302 63.162
12.6751 63.7378
12.72 64.4757
12.7649 65.2588
12.8098 66.2886
12.8547 67.619
12.8996 68.8277
12.9445 70.1934
12.9894 72.2517
13.0343 74.347
13.0792 78.4189
13.1242 86.2554
13.1691 133.372
13.214 188.421
13.2589 197.467
13.3038 228.787
13.3487 331.368
13.3937 387.997
13.4386 223.818
13.4835 121.858
13.5285 155.634
13.5734 182.139
13.6183 183.697
13.6633 221.31
13.7082 316.478
13.7531 313.979
13.7981 164.339
13.843 89.015
13.888 80.2377
13.9329 76.9365
13.9779 75.3328
14.0228 73.6179
14.0678 72.351
14.1127 72.3132
14.1577 74.4145
14.2027 72.8746
14.2476 70.172
14.2926 68.7971
14.3376 68.1798
14.3825 67.9465
14.4275 67.5824
14.4725 67.5602
14.5175 67.5675
14.5624 67.6819
14.6074 68.0709
14.6524 68.2503
14.6974 69.1844
14.7424 70.7327
14.7874 79.8696
14.8324 107.453
14.8774 120.831
14.9224 122.176
14.9674 139.575
15.0124 182.932
15.0574 205.239
15.1024 145.416
15.1474 83.3273
15.1924 70.9062
15.2374 68.3184
15.2824 67.3018
15.3274 66.2634
15.3725 65.7127
15.4175 65.4395
15.4625 65.0547
15.5076 64.7371
15.5526 64.9583
15.5976 64.9745
15.6426 65.8375
15.6877 73.2316
15.7327 95.3699
15.7778 107.482
15.8228 107.642
15.8679 117.784
15.9129 146.276
15.958 183.753
16.003 157.54
16.0481 92.118
16.0931 66.7083
16.1382 61.4685
16.1833 59.5439
16.2283 58.1576
16.2734 57.5595
16.3185 56.8034
16.3636 56.1109
16.4086 55.2783
16.4537 55.0373
16.4988 54.355
16.5439 54.205
16.589 54.0671
16.6341 54.0261
16.6792 53.5515
16.7243 53.8389
16.7694 53.7844
16.8145 53.4559
16.8596 53.5789
16.9047 54.2141
16.9498 54.5352
16.9949 54.4821
17.04 54.7577
17.0851 56.2697
17.1302 60.426
17.1754 64.034
17.2205 64.2248
17.2656 65.4239
17.3108 70.2058
17.3559 77.1692
17.401 80.7684
17.4462 71.7823
17.4913 61.6157
17.5365 58.5069
17.5815 58.5984
17.6268 58.7957
17.6718 59.1725
17.7171 59.5265
17.7622 60.7462
17.8074 61.5472
17.8525 63.3455
17.8977 71.3819
17.9428 83.817
17.9881 88.0841
18.0331 88.6955
18.0784 94.1958
18.1237 109.624
18.1688 136.941
18.214 144.508
18.2591 113.924
18.3044 87.743
18.3495 84.211
18.3948 92.4387
18.4399 101.902
18.4852 96.5979
18.5303 77.9884
18.5756 65.0678
18.6207 61.9484
18.666 60.6144
18.7112 59.4695
18.7565 58.7466
18.8016 58.3068
18.8469 57.7133
18.892 57.3837
18.9374 56.799
18.9825 56.6487
19.0278 56.185
19.073 56.2703
19.1183 56.6488
19.1635 59.3119
19.2088 61.5901
19.254 61.7124
19.2993 62.1706
19.3447 63.9092
19.3898 67.4094
19.4352 72.5841
19.4804 72.3555
19.5257 64.6623
19.5709 56.398
19.6163 53.9173
19.6615 53.2899
19.7068 52.904
19.752 53.0691
19.7974 53.1679
19.8426 54.1917
19.888 56.5161
19.9332 58.186
19.9786 57.9963
20.0238 58.2501
20.0692 60.496
20.1144 65.6328
20.1598 71.4126
20.205 70.9078
20.2504 65.2282
20.2957 60.2915
20.3411 60.4393
20.3863 63.6998
20.4318 64.256
20.477 59.3731
20.5224 53.425
20.5677 50.7898
20.6131 50.0165
20.6586 49.4255
20.7038 49.3628
20.7493 48.7507
20.7945 48.9846
20.84 48.5128
20.8853 48.4928
20.9307 48.2153
20.976 48.4134
21.0215 48.7308
21.0668 48.9839
21.1122 49.1502
21.1575 48.9414
21.203 49.0173
21.2483 49.4843
21.2938 50.7794
21.3391 50.8586
21.3846 50.3561
21.4299 48.9181
21.4754 48.4051
21.5207 48.3543
21.5662 48.5401
21.6116 49.0301
21.6571 51.0469
21.7024 52.8205
21.7479 53.7469
21.7933 53.7591
21.8388 54.8654
21.8843 57.4547
21.9297 60.7623
21.9752 64.7466
22.0206 65.6509
22.0661 60.9685
22.1115 56.0029
22.157 54.7888
22.2024 56.0573
22.248 55.107
22.2933 52.419
22.3389 49.7791
22.3843 49.0332
22.4299 48.469
22.4753 48.4798
22.5208 48.3638
22.5662 48.4465
22.6118 48.5974
22.6572 48.6128
22.7028 49.8468
22.7483 51.1237
22.7939 51.5104
22.8393 51.6038
22.8849 51.89
22.9303 52.6239
22.9759 53.8935
23.0214 56.1621
23.067 57.8166
23.1126 56.2127
23.1581 52.5424
23.2037 49.8009
23.2492 48.9408
23.2948 49.2576
23.3403 50.7055
23.3859 51.6281
23.4314 51.428
23.477 51.1731
23.5225 51.5506
23.5682 52.6675
23.6137 54.9018
23.6593 57.1166
23.7048 57.2744
23.7505 53.8584
23.796 49.2485
23.8417 46.7973
23.8872 45.6207
23.9329 45.3701
23.9784 44.9019
24.0241 44.6292
24.0697 44.2754
24.1154 43.9759
24.1609 43.7442
24.2066 43.6509
24.2522 43.6091
24.2979 43.3004
24.3434 43.3072
24.3892 42.9416
24.4349 43.079
24.4805 42.6172
24.5262 42.6977
24.5718 42.5668
24.6175 42.6937
24.6631 42.8245
24.7089 42.5176
24.7545 42.3607
24.8002 42.2261
24.8458 42.1548
24.8916 42.1991
24.9372 42.3944
24.983 42.6157
25.0286 42.7349
25.0744 43.1847
25.12 43.2761
25.1658 43.8975
25.2114 44.1579
25.2572 44.3814
25.3029 44.6916
25.3487 44.4569
25.3943 44.5011
25.4402 44.591
25.4858 44.3594
25.5316 43.1613
25.5773 41.5876
25.6231 41.0695
25.669 40.5799
25.7147 40.5897
25.7605 40.3868
25.8062 40.7129
25.8521 40.7099
25.8977 40.6839
25.9436 40.7168
25.9893 40.6429
26.0352 40.8748
26.0809 40.7854
26.1268 41.3296
26.1725 41.6473
26.2184 41.7845
26.2641 41.2159
26.31 40.8468
26.3557 40.5867
26.4017 40.3808
26.4474 40.6673
26.4933 40.6002
26.5391 40.8394
26.585 40.9103
26.6308 41.1961
26.6767 41.6766
26.7225 42.2923
26.7684 42.4411
26.8142 41.9144
26.8601 40.9535
26.9059 40.7192
26.9519 40.1228
26.9979 39.8092
27.0437 39.2942
27.0896 38.833
27.1354 38.7958
27.1814 38.6773
27.2272 38.6697
27.2732 38.7301
27.3191 38.4805
27.3651 38.5054
27.4109 38.2414
27.4569 38.3716
27.5027 38.4397
27.5488 38.4382
27.5946 38.4573
27.6407 38.4357
27.6865 38.5368
27.7326 38.2567
27.7784 38.3
27.8245 38.1386
27.8703 38.1843
27.9164 38.2221
27.9623 38.2178
28.0084 38.4768
28.0543 38.6078
28.1003 38.8268
28.1462 38.9879
28.1923 39.0708
28.2384 38.6392
28.2843 38.1653
28.3304 37.8127
28.3764 37.3268
28.4225 37.1094
28.4684 36.5565
28.5145 36.076
28.5605 35.9055
28.6066 35.8001
28.6526 35.5804
28.6987 35.7267
28.7447 35.4169
28.7908 35.3475
28.8368 35.1967
28.8829 35.2151
28.9289 35.1276
28.9751 35.0446
29.0211 35.1412
29.0673 34.9386
29.1133 34.728
29.1595 34.596
29.2055 34.2535
29.2517 34.2994
29.2977 34.0682
29.3439 34.0626
29.3899 33.9647
29.4361 34.0574
29.4824 34.057
29.5284 33.9968
29.5746 33.6673
29.6207 33.3929
29.6669 33.2211
29.713 32.8641
29.7593 32.7579
29.8053 32.7095
29.8516 32.73
29.8977 32.7519
29.9439 32.67
29.99 32.5456
30.0363 32.537
30.0824 32.4551
30.1287 32.3194
30.1748 32.2903
30.2211 32.3482
30.2673 32.1586
30.3136 32.3978
30.3597 32.3869
30.406 32.316
30.4522 32.195
30.4985 32.1367
30.5447 32.215
30.591 32.0059
30.6372 32.0365
30.6835 31.8805
30.7297 32.1057
30.7761 32.1164
30.8224 32.0834
30.8686 32.0214
30.915 31.8416
30.9612 31.6792
31.0076 31.4165
31.0538 31.3559
31.1002 31.3524
31.1464 31.0368
31.1928 31.0417
31.2391 31.1097
31.2855 30.8827
31.3317 30.778
31.3781 30.9133
31.4244 30.8098
31.4708 30.7514
31.5171 30.8092
31.5636 30.7904
31.6098 30.7548
31.6563 30.6593
31.7026 30.4441
31.7491 30.222
31.7953 30.1882
31.8418 30.2047
31.8881 30.2524
31.9346 29.9574
31.9809 29.949
32.0275 29.9838
32.074 30.0826
32.1203 29.8741
32.1668 29.7298
32.2132 29.5688
32.2597 29.3809
32.306 29.4464
32.3526 29.0704
32.399 28.988
32.4455 28.7488
32.4919 28.6659
32.5385 28.6526
32.5848 28.5007
32.6314 28.5881
32.6778 28.497
32.7244 28.2731
32.7708 28.2198
32.8174 28.2199
32.8638 27.986
32.9104 28.0751
32.9569 28.0412
33.0035 27.8908
33.0499 27.8583
33.0966 27.7474
33.143 27.8064
33.1897 27.6439
33.2361 27.5355
33.2828 27.5875
33.3293 27.4671
33.3759 27.4919
33.4226 27.4165
33.4691 27.1808
33.5158 27.0987
33.5623 26.9219
33.609 26.7717
33.6555 26.6595
33.7022 26.5632
33.7487 26.4796
33.7954 26.4359
33.842 26.303
33.8887 26.3107
33.9353 26.2998
33.982 26.0947
34.0286 26.0105
34.0753 26.0282
34.1219 25.9646
34.1687 25.7895
34.2152 25.7762
34.262 25.61
34.3086 25.5111
34.3554 25.5648
34.402 25.3709
34.4488 25.2559
34.4954 25.2685
34.5422 25.0346
34.5889 25.028
34.6357 24.9602
34.6825 24.9432
34.7292 24.782
34.776 24.6232
34.8227 24.6431
34.8695 24.598
34.9162 24.5349
34.9631 24.4172
35.0098 24.4804
35.0566 24.3032
35.1033 24.2606
35.1502 24.2323
35.1969 24.174
35.2438 24.2114
35.2906 24.0577
35.3375 24.0483
35.3842 23.8168
35.4311 23.8846
35.4779 23.9196
35.5248 23.8661
35.5716 23.792
35.6185 23.7316
35.6653 23.654
35.7123 23.5799
35.759 23.4668
35.806 23.3883
35.8528 23.224
35.8998 23.1877
35.9468 23.1404
35.9936 23.085
36.0406 23.0358
36.0874 22.9881
36.1345 22.8877
36.1813 22.8621
36.2283 22.8066
36.2752 22.6138
36.3222 22.7052
36.3691 22.5497
36.4161 22.432
36.463 22.3868
36.5101 22.3422
36.557 22.3769
36.6041 22.2856
36.651 22.1355
36.6981 22.054
36.745 22.0781
36.7921 22.0379
36.839 21.9149
36.8861 21.8154
36.9331 21.7234
36.9802 21.7463
37.0272 21.6103
37.0743 21.5562
37.1213 21.4443
37.1684 21.3933
37.2154 21.3113
37.2626 21.2751
37.3098 21.2667
37.3568 21.2112
37.404 21.0873
37.451 20.9784
37.4982 20.8931
37.5452 20.8311
37.5924 20.7556
37.6395 20.7695
37.6867 20.7183
37.7337 20.6011
37.781 20.5479
37.8281 20.5407
37.8753 20.4505
37.9224 20.3159
37.9697 20.2556
38.0168 20.1713
38.064 20.1592
38.1111 20.0663
38.1584 20.0001
38.2056 19.923
38.2529 19.8051
38.3 19.7722
38.3473 19.8002
38.3945 19.7198
38.4418 19.6476
38.489 19.5557
38.5363 19.5435
38.5837 19.4026
38.6309 19.4158
38.6782 19.2991
38.7254 19.2462
38.7728 19.2246
38.82 19.1151
38.8674 19.1122
38.9146 19.0406
38.9621 18.9748
39.0093 18.9176
39.0567 18.8826
39.104 18.7405
39.1514 18.7228
39.1987 18.7137
39.2461 18.6321
39.2934 18.5412
39.3409 18.4708
39.3882 18.385
39.4356 18.3998
39.483 18.3621
39.5304 18.255
39.5778 18.1809
39.6253 18.143
39.6726 18.0442
39.7201 18.0947
39.7675 17.935
39.815 17.9576
39.8624 17.8797
39.9099 17.8173
39.9575 17.6839
40.0049 17.7118
40.0525 17.6377
40.0999 17.5507
40.1474 17.5094
40.1949 17.3989
40.2425 17.4065
40.2899 17.3272
40.3375 17.3265
40.385 17.2388
40.4326 17.2293
40.48 17.0886
40.5277 17.12
40.5752 17.0246
40.6228 16.9552
40.6703 16.9286
40.718 16.8684
40.7655 16.8232
40.8132 16.7298
40.8607 16.7573
40.9084 16.6959
40.9559 16.593
41.0036 16.5772
41.0512 16.463
41.0989 16.4959
41.1465 16.3559
41.1942 16.3202
41.242 16.2456
41.2896 16.265
41.3373 16.1514
41.3849 16.111
41.4327 16.015
41.4803 15.9737
41.5281 15.9167
41.5758 15.8103
41.6236 15.8073
41.6712 15.7429
41.7191 15.7324
41.7667 15.6519
41.8146 15.6738
41.8622 15.5568
41.9101 15.5522
41.9578 15.4212
42.0057 15.3793
42.0534 15.3738
42.1013 15.3363
42.149 15.2561
42.1969 15.1267
42.2446 15.1414
42.2925 15.0856
42.3403 15.1232
42.3882 14.9845
42.436 14.9595
42.4839 14.9082
42.5319 14.8886
42.5797 14.771
42.6277 14.7601
42.6755 14.7508
42.7235 14.6147
42.7713 14.6071
42.8193 14.4808
42.8671 14.5356
42.9152 14.4072
42.963 14.3938
43.0111 14.3801
43.0589 14.3182
43.107 14.2814
43.1549 14.1959
43.2029 14.1294
43.2508 14.1172
43.2989 14.0824
43.3468 14.0151
43.3949 13.9479
43.4429 13.9515
43.491 13.8673
43.5389 13.8024
43.5871 13.8131
43.635 13.7427
43.6832 13.6968
43.7312 13.6399
43.7793 13.5738
43.8273 13.5904
43.8755 13.4817
43.9237 13.4337
43.9717 13.3923
44.0199 13.3277
44.068 13.3101
44.1162 13.1893
44.1642 13.2532
44.2125 13.1712
44.2606 13.1682
44.3088 13.0756
44.3569 13.0448
44.4052 12.9804
44.4533 12.9493
44.5016 12.8423
44.5497 12.8539
44.598 12.7966
44.6461 12.7538
44.6945 12.7169
44.7426 12.6866
44.791 12.6057
44.8391 12.6136
44.8875 12.5129
44.9357 12.4874
44.984 12.4327
45.0322 12.3526
45.0806 12.3355
45.1288 12.3324
45.1773 12.2906
45.2257 12.2044
45.2739 12.1839
45.3224 12.1794
45.3706 12.1186
45.4191 12.0492
45.4673 12.0183
45.5158 11.939
45.5641 11.9205
45.6126 11.8646
45.6609 11.8135
45.7094 11.764
45.7577 11.7568
45.8063 11.6992
45.8546 11.6917
45.9031 11.6604
45.9515 11.5937
46.0001 11.5166
46.0484 11.5063
46.097 11.4782
46.1454 11.4247
46.194 11.4006
46.2424 11.3533
46.291 11.2555
46.3395 11.273
46.3881 11.216
46.4365 11.2012
46.4852 11.1744
46.5337 11.0781
46.5823 11.0779
46.631 10.9742
46.6795 10.9983
46.7282 10.9414
46.7767 10.9206
46.8254 10.8629
46.8739 10.824
46.9226 10.7633
46.9712 10.7258
47.0199 10.6608
47.0685 10.6499
47.1173 10.6512
47.1658 10.5787
47.2146 10.5078
47.2632 10.5049
47.312 10.4662
47.3606 10.4106
47.4095 10.3989
47.4581 10.3441
47.5069 10.2998
47.5556 10.2682
47.6044 10.2349
47.6531 10.1877
47.702 10.143
47.7507 10.0821
47.7996 10.1178
47.8483 10.0592
47.8972 10.0223
47.9461 9.97606
47.9948 9.94576
48.0438 9.86652
48.0925 9.89383
48.1415 9.80364
48.1902 9.75367
48.2392 9.76676
48.288 9.72871
48.337 9.71816
48.3858 9.64062
48.4348 9.62541
48.4837 9.60817
48.5327 9.55749
48.5815 9.49214
48.6306 9.52284
48.6795 9.4504
48.7285 9.42045
48.7774 9.38341
48.8265 9.35042
48.8754 9.28173
48.9245 9.26728
48.9734 9.24233
49.0226 9.23229
49.0715 9.16137
49.1206 9.10287
49.1696 9.11104
49.2188 9.0594
49.2679 9.0444
49.3169 8.99356
49.3661 8.94111
49.4151 8.9241
49.4643 8.90352
49.5134 8.83833
49.5626 8.83434
49.6117 8.8088
49.6609 8.76175
49.71 8.73512
49.7592 8.68574
49.8083 8.61399
49.8576 8.64314
49.9067 8.5715
49.956 8.57921
50.0052 8.5709
50.0545 8.4555
50.1036 8.48913
50.153 8.44067
50.2022 8.41669
50.2515 8.3599
50.3007 8.33275
50.3501 8.29377
50.3993 8.31162
50.4487 8.25177
50.498 8.22097
50.5474 8.20213
50.5966 8.15095
50.6461 8.11497
50.6955 8.08691
50.7448 8.09277
50.7943 8.03565
50.8436 7.98427
50.8931 7.96406
50.9424 7.96091
50.9919 7.8798
51.0413 7.91637
51.0908 7.84594
51.1402 7.82159
51.1897 7.79204
51.2391 7.75736
51.2887 7.6835
51.3381 7.67245
51.3877 7.64249
51.4371 7.61473
51.4867 7.57239
51.5362 7.56996
51.5858 7.4703
51.6353 7.44748
51.6849 7.44726
51.7344 7.41633
51.7841 7.42273
51.8336 7.37401
51.8833 7.34837
51.9328 7.32348
51.9826 7.30169
52.0323 7.21958
52.0818 7.22172
52.1316 7.17287
52.1812 7.17546
52.231 7.10263
52.2806 7.04613
52.3304 7.06698
52.38 7.05369
52.4298 7.0214
52.4794 6.97946
52.5293 6.94876
52.5789 6.93354
52.6288 6.91345
52.6785 6.85622
52.7284 6.81338
52.7781 6.81284
52.828 6.78367
52.8777 6.7894
52.9276 6.72032
52.9774 6.70852
53.0273 6.68178
53.0771 6.65119
53.1271 6.59941
53.1769 6.54161
53.2269 6.5312
53.2767 6.52468
53.3267 6.48423
53.3765 6.49335
53.4266 6.43289
53.4766 6.45011
53.5265 6.36415
53.5765 6.38
53.6264 6.33048
53.6765 6.32197
53.7264 6.27923
53.7765 6.26205
53.8265 6.20985
53.8766 6.21615
53.9266 6.18295
53.9767 6.12564
54.0267 6.10658
54.0769 6.09576
54.1269 5.9787
54.1771 6.03629
54.2271 5.98309
54.2773 5.91813
54.3274 5.90312
54.3776 5.87219
54.4277 5.79119
54.478 5.77609
54.528 5.74511
54.5783 5.67024
54.6285 5.64801
54.6788 5.5996
54.7289 5.57223
54.7792 5.5104
54.8296 5.47269
54.8798 5.43378
54.9301 5.41546
54.9803 5.38131
55.0307 5.37459
55.0809 5.27173
55.1314 5.24512
55.1816 5.20861
55.232 5.1237
55.2823 5.04595
55.3328 5.01295
55.383 4.97377
55.4335 4.94824
55.4838 4.87748
55.5344 4.89192
55.5847 4.82476
55.6352 4.75707
55.6856 4.74403
55.7361 4.7355