File: XRD/Ni3Fe_FD0185.xy
TT I
1.27165 7.50735
1.31627 7.26379
1.36089 7.05945
1.40551 6.2476
1.45013 6.73666
1.49476 6.10363
1.53938 6.44069
1.584 5.7145
1.62863 5.49379
1.67325 5.69096
1.71787 5.73828
1.7625 5.38415
1.80712 5.44809
1.85174 5.37654
1.89636 4.79411
1.94099 5.35838
1.98562 4.93813
2.03025 4.83251
2.07487 4.57187
2.11949 4.5682
2.16411 4.68699
2.20874 4.8363
2.25338 4.2054
2.298 4.32538
2.34263 4.54523
2.38725 5.19546
2.43188 3.71077
2.4765 4.57454
2.52115 4.84536
2.56577 5.21086
2.6104 5.47066
2.65503 5.15688
2.69965 6.06448
2.7443 6.11778
2.78893 7.05081
2.83356 7.447
2.87818 8.10436
2.92281 8.6742
2.96744 10.0787
3.01209 10.2005
3.05672 11.3432
3.10135 12.2173
3.14599 13.206
3.19062 14.0583
3.23527 15.1901
3.2799 16.0485
3.32454 16.7825
3.36917 17.7362
3.4138 18.9107
3.45844 19.3324
3.50309 20.2079
3.54773 21.1022
3.59237 21.9173
3.637 22.8684
3.68164 23.1582
3.7263 24.3696
3.77094 25.4148
3.81558 25.8647
3.86022 26.9462
3.90486 28.2585
3.9495 28.9641
3.99416 29.9617
4.0388 30.9796
4.08344 32.1254
4.12809 33.3251
4.17273 34.5382
4.21738 35.9386
4.26204 36.8311
4.30669 37.7359
4.35133 40.3755
4.39598 41.7574
4.44063 43.5761
4.4853 45.1763
4.52995 47.3613
4.5746 49.9535
4.61925 52.3006
4.6639 54.4066
4.70855 57.282
4.75322 59.9926
4.79788 63.1821
4.84253 66.6004
4.88719 71.0773
4.93184 76.0204
4.97652 83.1835
5.02118 91.0511
5.06583 101.03
5.11049 116.492
5.15515 151.958
5.19981 519.041
5.24449 3770.8
5.28916 8661.21
5.33382 6125.29
5.37848 411.231
5.42315 159.7
5.46783 126.415
5.5125 113.842
5.55716 107.885
5.60183 101.508
5.6465 99.8457
5.69117 98.0805
5.73586 95.8983
5.78053 95.6049
5.8252 96.0775
5.86988 98.4345
5.91455 104.625
5.95924 122.446
6.00392 278.442
6.0486 1369.39
6.09328 2909.86
6.13795 4059.73
6.18263 660.201
6.22733 118.577
6.27201 88.4235
6.3167 78.2949
6.36138 72.9866
6.40606 68.8918
6.45075 66.8394
6.49545 64.6004
6.54014 62.9239
6.58483 61.8423
6.62952 60.4406
6.67421 59.1682
6.71892 57.9523
6.76361 57.4715
6.8083 56.3533
6.853 55.5663
6.89769 54.922
6.94239 54.7612
6.98711 54.1978
7.03181 53.4308
7.07651 53.4085
7.12121 53.1264
7.16591 53.0064
7.21063 52.5005
7.25533 52.3935
7.30004 52.5977
7.34475 52.7198
7.38945 52.93
7.43416 52.1407
7.47889 52.3797
7.5236 55.9879
7.56831 61.9368
7.61303 55.3024
7.65774 53.928
7.70247 54.6389
7.74719 54.836
7.79191 55.2316
7.83663 55.881
7.88135 56.4296
7.92607 57.7572
7.97081 58.7728
8.01553 59.8372
8.06026 61.3631
8.10498 62.4955
8.14971 64.2336
8.19446 65.9541
8.23919 68.3141
8.28392 71.5354
8.32865 73.9651
8.37339 78.7925
8.41812 84.2042
8.46288 95.8752
8.50761 170.715
8.55235 591.385
8.59709 929.208
8.64183 1601.9
8.68658 1623.12
8.73134 383.042
8.77609 114.618
8.82083 97.7535
8.86558 91.6347
8.91033 88.3406
8.9551 86.1479
8.99985 84.8781
9.04461 83.5538
9.08936 82.967
9.13412 82.1357
9.17888 81.7921
9.22365 86.7777
9.26841 94.6062
9.31318 86.3039
9.35794 82.7766
9.4027 82.6791
9.44749 84.0162
9.49226 84.1231
9.53703 84.907
9.5818 86.8473
9.62657 87.7624
9.67134 89.4419
9.71614 91.6401
9.76091 93.4464
9.80569 96.2966
9.85047 99.6523
9.89525 104.809
9.94005 114.292
9.98484 183.501
10.0296 533.631
10.0744 759.471
10.1192 1111.03
10.164 1712.71
10.2088 929.881
10.2536 203.272
10.2984 115.876
10.3432 108.497
10.388 104.993
10.4328 121.622
10.4776 212.487
10.5224 266.592
10.5672 348.314
10.612 512.704
10.6568 361.107
10.7017 129.638
10.7465 90.5618
10.7913 84.17
10.8361 81.3886
10.8809 78.6358
10.9257 76.3604
10.9706 74.9115
11.0154 73.5549
11.0602 71.9778
11.105 70.8911
11.1499 69.3726
11.1947 68.2876
11.2395 67.4163
11.2844 66.9047
11.3292 66.4455
11.374 65.302
11.4189 64.8271
11.4637 64.1946
11.5086 63.3937
11.5534 63.0626
11.5983 62.8516
11.6431 62.8315
11.688 62.2054
11.7328 62.0819
11.7777 61.759
11.8225 61.6063
11.8674 61.8978
11.9122 63.1058
11.9571 65.6288
12.002 65.3556
12.0468 67.926
12.0917 90.1261
12.1366 108.792
12.1814 122.248
12.2263 157.772
12.2712 194.92
12.3161 134.624
12.3609 74.1307
12.4058 64.5968
12.4507 63.8116
12.4956 63.6509
12.5405 63.8285
12.5853 64.3351
12.6302 64.5352
12.6751 65.0245
12.72 65.9216
12.7649 66.9196
12.8098 67.4903
12.8547 68.9863
12.8996 70.3359
12.9445 71.9917
12.9894 73.9829
13.0343 75.8272
13.0792 79.6122
13.1242 86.9951
13.1691 132.493
13.214 185.698
13.2589 211.04
13.3038 260.133
13.3487 367.968
13.3937 376.888
13.4386 200.852
13.4835 117.875
13.5285 152.916
13.5734 182.602
13.6183 200.55
13.6633 252.247
13.7082 340.782
13.7531 299.722
13.7981 147.86
13.843 87.9897
13.888 81.3574
13.9329 78.2899
13.9779 76.6083
14.0228 75.0256
14.0678 73.5642
14.1127 73.3202
14.1577 74.145
14.2027 72.875
14.2476 71.0624
14.2926 70.1817
14.3376 69.6667
14.3825 69.3083
14.4275 68.7351
14.4725 68.9887
14.5175 69.0021
14.5624 68.9993
14.6074 69.2717
14.6524 69.7718
14.6974 70.3315
14.7424 72.0113
14.7874 81.1543
14.8324 106.572
14.8774 122.222
14.9224 131.193
14.9674 156.132
15.0124 200.779
15.0574 204.379
15.1024 133.385
15.1474 81.2445
15.1924 71.7015
15.2374 69.5996
15.2824 68.4957
15.3274 67.5813
15.3725 66.9064
15.4175 66.6888
15.4625 66.3427
15.5076 65.9551
15.5526 66.2501
15.5976 66.2608
15.6426 67.0364
15.6877 74.2821
15.7327 94.7834
15.7778 107.551
15.8228 113.978
15.8679 130.455
15.9129 162.146
15.958 187.879
16.003 148.437
16.0481 86.4128
16.0931 66.1606
16.1382 62.3634
16.1833 60.8385
16.2283 59.3584
16.2734 58.7559
16.3185 57.9041
16.3636 57.1341
16.4086 56.3204
16.4537 55.9764
16.4988 55.6868
16.5439 55.4482
16.589 55.2064
16.6341 54.8349
16.6792 54.4806
16.7243 54.8297
16.7694 54.7443
16.8145 54.5324
16.8596 54.6518
16.9047 55.157
16.9498 55.4366
16.9949 55.4756
17.04 55.8381
17.0851 57.3547
17.1302 61.459
17.1754 64.8184
17.2205 66.2452
17.2656 68.5264
17.3108 74.5308
17.3559 81.2425
17.401 81.8327
17.4462 70.9364
17.4913 61.8045
17.5365 59.6049
17.5815 59.5662
17.6268 59.9286
17.6718 60.2567
17.7171 60.8017
17.7622 62.094
17.8074 62.8257
17.8525 64.4913
17.8977 72.4429
17.9428 83.8753
17.9881 89.2579
18.0331 93.375
18.0784 101.506
18.1237 119.711
18.1688 143.77
18.214 141.04
18.2591 109.903
18.3044 89.6231
18.3495 88.6071
18.3948 97.4492
18.4399 104.88
18.4852 94.4235
18.5303 75.3899
18.5756 65.1486
18.6207 62.6609
18.666 61.5139
18.7112 60.6405
18.7565 59.8186
18.8016 59.285
18.8469 58.6605
18.892 58.5105
18.9374 57.9255
18.9825 57.5495
19.0278 57.2947
19.073 57.0471
19.1183 57.8524
19.1635 60.0301
19.2088 62.2576
19.254 62.8646
19.2993 64.0266
19.3447 66.4872
19.3898 70.485
19.4352 74.7685
19.4804 72.7301
19.5257 63.4694
19.5709 56.5395
19.6163 54.9333
19.6615 54.4276
19.7068 54.0017
19.752 54.0139
19.7974 53.9235
19.8426 55.1757
19.888 57.4344
19.9332 58.7499
19.9786 59.4297
20.0238 60.2156
20.0692 63.3203
20.1144 68.1509
20.1598 73.2762
20.205 71.2298
20.2504 65.8215
20.2957 61.9834
20.3411 62.925
20.3863 65.583
20.4318 64.5744
20.477 58.9991
20.5224 53.4325
20.5677 51.4846
20.6131 50.7718
20.6586 50.3437
20.7038 50.2929
20.7493 49.6459
20.7945 49.6797
20.84 49.5111
20.8853 49.3784
20.9307 49.1117
20.976 49.405
21.0215 49.2985
21.0668 49.9651
21.1122 49.9836
21.1575 49.9275
21.203 50.301
21.2483 50.9659
21.2938 52.253
21.3391 51.9557
21.3846 50.971
21.4299 49.6129
21.4754 49.1138
21.5207 49.3782
21.5662 49.5525
21.6116 49.9647
21.6571 51.7693
21.7024 53.4197
21.7479 54.5731
21.7933 55.2436
21.8388 56.8417
21.8843 59.7658
21.9297 63.3402
21.9752 66.7931
22.0206 66.1972
22.0661 60.9969
22.1115 56.974
22.157 56.4211
22.2024 56.8654
22.248 55.4739
22.2933 52.7249
22.3389 50.6024
22.3843 49.7415
22.4299 49.3406
22.4753 49.4665
22.5208 49.1752
22.5662 49.1828
22.6118 49.438
22.6572 49.5338
22.7028 50.8408
22.7483 51.844
22.7939 52.3459
22.8393 52.756
22.8849 53.4502
22.9303 54.3367
22.9759 56.001
23.0214 58.3061
23.067 58.9232
23.1126 56.2405
23.1581 52.5728
23.2037 50.4765
23.2492 49.7956
23.2948 50.2045
23.3403 51.4757
23.3859 52.2098
23.4314 52.4
23.477 52.615
23.5225 53.2778
23.5682 54.7278
23.6137 56.9356
23.6593 58.6171
23.7048 57.4352
23.7505 53.4275
23.796 49.3981
23.8417 47.4142
23.8872 46.3767
23.9329 46.2315
23.9784 45.7838
24.0241 45.5366
24.0697 45.2185
24.1154 44.8399
24.1609 44.6977
24.2066 44.4054
24.2522 44.3363
24.2979 44.1084
24.3434 43.9919
24.3892 43.7486
24.4349 43.7119
24.4805 43.5327
24.5262 43.6516
24.5718 43.4334
24.6175 43.5556
24.6631 43.5552
24.7089 43.3973
24.7545 43.2287
24.8002 42.6963
24.8458 42.9135
24.8916 43.0003
24.9372 43.1774
24.983 43.4545
25.0286 43.5692
25.0744 44.1289
25.12 44.4153
25.1658 44.8191
25.2114 45.3375
25.2572 45.5815
25.3029 45.544
25.3487 45.3567
25.3943 45.3222
25.4402 45.4996
25.4858 44.8923
25.5316 43.3212
25.5773 42.2367
25.6231 41.7248
25.669 41.2746
25.7147 41.2206
25.7605 41.1549
25.8062 41.4332
25.8521 41.5146
25.8977 41.3942
25.9436 41.434
25.9893 41.4565
26.0352 41.6872
26.0809 41.7517
26.1268 42.2309
26.1725 42.5848
26.2184 42.4215
26.2641 41.7757
26.31 41.4184
26.3557 41.2801
26.4017 41.1908
26.4474 41.3692
26.4933 41.4586
26.5391 41.7071
26.585 42.0235
26.6308 42.2859
26.6767 42.7422
26.7225 43.2405
26.7684 43.159
26.8142 42.4408
26.8601 41.7382
26.9059 41.3164
26.9519 40.9067
26.9979 40.576
27.0437 39.9407
27.0896 39.69
27.1354 39.5553
27.1814 39.3689
27.2272 39.3835
27.2732 39.4514
27.3191 39.1665
27.3651 39.1799
27.4109 39.0666
27.4569 39.0473
27.5027 39.1624
27.5488 39.2331
27.5946 39.1923
27.6407 39.2
27.6865 39.191
27.7326 38.9353
27.7784 38.8696
27.8245 38.6984
27.8703 38.8623
27.9164 39.0852
27.9623 39.0421
28.0084 39.1638
28.0543 39.4459
28.1003 39.6426
28.1462 39.943
28.1923 39.7128
28.2384 39.3023
28.2843 38.8802
28.3304 38.5261
28.3764 37.9762
28.4225 37.5216
28.4684 37.3173
28.5145 36.7415
28.5605 36.6483
28.6066 36.4624
28.6526 36.4196
28.6987 36.3751
28.7447 36.0529
28.7908 35.9953
28.8368 36.0069
28.8829 35.9827
28.9289 36.0272
28.9751 35.7963
29.0211 35.8164
29.0673 35.6746
29.1133 35.39
29.1595 35.2846
29.2055 35.0122
29.2517 34.9589
29.2977 34.8018
29.3439 34.7765
29.3899 34.7426
29.4361 34.7743
29.4824 34.7071
29.5284 34.7629
29.5746 34.3227
29.6207 33.9466
29.6669 33.8741
29.713 33.5986
29.7593 33.4352
29.8053 33.4617
29.8516 33.3472
29.8977 33.3605
29.9439 33.2339
29.99 33.1457
30.0363 33.0639
30.0824 33.1231
30.1287 32.9619
30.1748 33.0331
30.2211 32.8675
30.2673 32.8186
30.3136 32.9486
30.3597 33.051
30.406 32.8606
30.4522 32.8281
30.4985 32.7122
30.5447 32.9254
30.591 32.6419
30.6372 32.7021
30.6835 32.6622
30.7297 32.8116
30.7761 32.7539
30.8224 32.8472
30.8686 32.7611
30.915 32.4832
30.9612 32.3317
31.0076 32.139
31.0538 31.87
31.1002 31.9685
31.1464 31.6369
31.1928 31.7098
31.2391 31.602
31.2855 31.5
31.3317 31.4495
31.3781 31.6009
31.4244 31.4611
31.4708 31.3354
31.5171 31.4152
31.5636 31.3857
31.6098 31.4488
31.6563 31.2479
31.7026 31.0349
31.7491 30.849
31.7953 30.8155
31.8418 30.8213
31.8881 30.6905
31.9346 30.7708
31.9809 30.597
32.0275 30.5682
32.074 30.4717
32.1203 30.3435
32.1668 30.2429
32.2132 30.0583
32.2597 29.8631
32.306 29.8787
32.3526 29.574
32.399 29.4296
32.4455 29.3816
32.4919 29.2766
32.5385 29.1527
32.5848 29.0768
32.6314 29.0355
32.6778 29.0413
32.7244 28.82
32.7708 28.7868
32.8174 28.7476
32.8638 28.5483
32.9104 28.6445
32.9569 28.5521
33.0035 28.4615
33.0499 28.3928
33.0966 28.3875
33.143 28.3626
33.1897 28.2243
33.2361 28.172
33.2828 28.1183
33.3293 27.9797
33.3759 28.0049
33.4226 27.8397
33.4691 27.7397
33.5158 27.6266
33.5623 27.4908
33.609 27.3269
33.6555 27.2224
33.7022 27.0826
33.7487 27.0461
33.7954 27.0179
33.842 26.8712
33.8887 26.8735
33.9353 26.7583
33.982 26.6542
34.0286 26.601
34.0753 26.5866
34.1219 26.4134
34.1687 26.3365
34.2152 26.3155
34.262 26.0795
34.3086 26.1433
34.3554 26.0958
34.402 25.8926
34.4488 25.8555
34.4954 25.7115
34.5422 25.6796
34.5889 25.5618
34.6357 25.4469
34.6825 25.4223
34.7292 25.2309
34.776 25.2125
34.8227 25.2213
34.8695 25.0847
34.9162 25.0881
34.9631 24.9615
35.0098 25.0139
35.0566 24.8511
35.1033 24.8222
35.1502 24.7382
35.1969 24.6576
35.2438 24.6317
35.2906 24.5861
35.3375 24.4371
35.3842 24.4084
35.4311 24.4789
35.4779 24.4036
35.5248 24.2915
35.5716 24.2604
35.6185 24.174
35.6653 24.1538
35.7123 23.988
35.759 23.9464
35.806 23.8036
35.8528 23.7484
35.8998 23.6756
35.9468 23.58
35.9936 23.5894
36.0406 23.461
36.0874 23.4665
36.1345 23.3196
36.1813 23.2206
36.2283 23.1594
36.2752 23.1076
36.3222 23.1319
36.3691 23.0225
36.4161 22.8907
36.463 22.8668
36.5101 22.9044
36.557 22.8691
36.6041 22.6743
36.651 22.5745
36.6981 22.6221
36.745 22.5008
36.7921 22.4628
36.839 22.3041
36.8861 22.2419
36.9331 22.1333
36.9802 22.1696
37.0272 22.0661
37.0743 21.9523
37.1213 21.9455
37.1684 21.8829
37.2154 21.6909
37.2626 21.6747
37.3098 21.7084
37.3568 21.5424
37.404 21.4867
37.451 21.3951
37.4982 21.3653
37.5452 21.2628
37.5924 21.1343
37.6395 21.2365
37.6867 21.1272
37.7337 21.0226
37.781 20.9749
37.8281 20.9011
37.8753 20.7795
37.9224 20.7182
37.9697 20.6662
38.0168 20.6827
38.064 20.5239
38.1111 20.5101
38.1584 20.4378
38.2056 20.2362
38.2529 20.3079
38.3 20.2369
38.3473 20.0981
38.3945 20.0884
38.4418 20.0878
38.489 19.9842
38.5363 19.8916
38.5837 19.8624
38.6309 19.7957
38.6782 19.7258
38.7254 19.5944
38.7728 19.5581
38.82 19.5448
38.8674 19.5313
38.9146 19.4233
38.9621 19.3017
39.0093 19.3285
39.0567 19.2199
39.104 19.1433
39.1514 19.0985
39.1987 19.0252
39.2461 19.0114
39.2934 18.8004
39.3409 18.835
39.3882 18.7503
39.4356 18.7355
39.483 18.6899
39.5304 18.6537
39.5778 18.5907
39.6253 18.5041
39.6726 18.4069
39.7201 18.4499
39.7675 18.3421
39.815 18.2625
39.8624 18.2133
39.9099 18.1432
39.9575 18.1203
40.0049 17.9928
40.0525 17.9893
40.0999 17.8827
40.1474 17.8824
40.1949 17.7745
40.2425 17.7359
40.2899 17.6682
40.3375 17.7002
40.385 17.5857
40.4326 17.5719
40.48 17.4686
40.5277 17.4275
40.5752 17.4137
40.6228 17.332
40.6703 17.2748
40.718 17.2186
40.7655 17.169
40.8132 17.146
40.8607 17.0646
40.9084 17.0566
40.9559 16.8987
41.0036 16.8835
41.0512 16.7678
41.0989 16.8221
41.1465 16.6699
41.1942 16.6348
41.242 16.5974
41.2896 16.5166
41.3373 16.4585
41.3849 16.4487
41.4327 16.309
41.4803 16.345
41.5281 16.2567
41.5758 16.1906
41.6236 16.1314
41.6712 16.0942
41.7191 15.9957
41.7667 16.003
41.8146 15.9679
41.8622 15.8588
41.9101 15.8152
41.9578 15.7065
42.0057 15.7513
42.0534 15.6791
42.1013 15.6494
42.149 15.5006
42.1969 15.4913
42.2446 15.4544
42.2925 15.4614
42.3403 15.3569
42.3882 15.3464
42.436 15.2722
42.4839 15.1378
42.5319 15.1467
42.5797 15.0904
42.6277 15.0015
42.6755 14.96
42.7235 14.9276
42.7713 14.9201
42.8193 14.8665
42.8671 14.808
42.9152 14.6771
42.963 14.6713
43.0111 14.672
43.0589 14.6454
43.107 14.5114
43.1549 14.4838
43.2029 14.4282
43.2508 14.3629
43.2989 14.3212
43.3468 14.2837
43.3949 14.2054
43.4429 14.196
43.491 14.1284
43.5389 14.0656
43.5871 14.0793
43.635 13.9797
43.6832 13.9401
43.7312 13.9085
43.7793 13.8977
43.8273 13.8308
43.8755 13.7338
43.9237 13.705
43.9717 13.6724
44.0199 13.6047
44.068 13.607
44.1162 13.5248
44.1642 13.5002
44.2125 13.4488
44.2606 13.3952
44.3088 13.3298
44.3569 13.2843
44.4052 13.269
44.4533 13.1603
44.5016 13.1362
44.5497 13.1104
44.598 13.0722
44.6461 13.0013
44.6945 12.9702
44.7426 12.9496
44.791 12.872
44.8391 12.8089
44.8875 12.8158
44.9357 12.7385
44.984 12.686
45.0322 12.6308
45.0806 12.5983
45.1288 12.5602
45.1773 12.5043
45.2257 12.4295
45.2739 12.4316
45.3224 12.3836
45.3706 12.3336
45.4191 12.2792
45.4673 12.2707
45.5158 12.1839
45.5641 12.1521
45.6126 12.112
45.6609 12.1006
45.7094 12.0524
45.7577 11.9886
45.8063 11.9445
45.8546 11.883
45.9031 11.8245
45.9515 11.8114
46.0001 11.7666
46.0484 11.7701
46.097 11.7047
46.1454 11.6731
46.194 11.6454
46.2424 11.5619
46.291 11.5019
46.3395 11.5041
46.3881 11.407
46.4365 11.4113
46.4852 11.3504
46.5337 11.2985
46.5823 11.2656
46.631 11.2279
46.6795 11.1782
46.7282 11.1518
46.7767 11.114
46.8254 11.0503
46.8739 11.0221
46.9226 10.9373
46.9712 10.9468
47.0199 10.8675
47.0685 10.8916
47.1173 10.8138
47.1658 10.7801
47.2146 10.7725
47.2632 10.7184
47.312 10.6389
47.3606 10.638
47.4095 10.5736
47.4581 10.541
47.5069 10.504
47.5556 10.4516
47.6044 10.4364
47.6531 10.3951
47.702 10.334
47.7507 10.3248
47.7996 10.2687
47.8483 10.2339
47.8972 10.1943
47.9461 10.1711
47.9948 10.1124
48.0438 10.0999
48.0925 10.0731
48.1415 10.0017
48.1902 9.97623
48.2392 9.96896
48.288 9.93414
48.337 9.87091
48.3858 9.8341
48.4348 9.78325
48.4837 9.77034
48.5327 9.75668
48.5815 9.6651
48.6306 9.66594
48.6795 9.63151
48.7285 9.592
48.7774 9.58825
48.8265 9.53221
48.8754 9.4964
48.9245 9.46371
48.9734 9.40616
49.0226 9.40948
49.0715 9.33893
49.1206 9.33568
49.1696 9.2876
49.2188 9.23452
49.2679 9.21328
49.3169 9.19925
49.3661 9.1219
49.4151 9.07848
49.4643 9.09924
49.5134 9.06037
49.5626 8.97236
49.6117 8.96664
49.6609 8.95305
49.71 8.86474
49.7592 8.86649
49.8083 8.8173
49.8576 8.81575
49.9067 8.72953
49.956 8.73871
50.0052 8.67918
50.0545 8.66279
50.1036 8.6355
50.153 8.61947
50.2022 8.53355
50.2515 8.55323
50.3007 8.51186
50.3501 8.43253
50.3993 8.41223
50.4487 8.39369
50.498 8.32609
50.5474 8.34299
50.5966 8.29046
50.6461 8.26908
50.6955 8.23378
50.7448 8.2449
50.7943 8.16021
50.8436 8.14333
50.8931 8.14918
50.9424 8.1007
50.9919 8.05381
51.0413 8.02017
51.0908 8.02513
51.1402 7.95374
51.1897 7.92271
51.2391 7.86275
51.2887 7.83984
51.3381 7.81731
51.3877 7.79961
51.4371 7.74584
51.4867 7.70165
51.5362 7.72232
51.5858 7.71785
51.6353 7.62165
51.6849 7.59906
51.7344 7.56092
51.7841 7.58563
51.8336 7.50545
51.8833 7.48722
51.9328 7.4164
51.9826 7.39597
52.0323 7.37586
52.0818 7.33628
52.1316 7.30465
52.1812 7.26293
52.231 7.2361
52.2806 7.20839
52.3304 7.20828
52.38 7.23372
52.4298 7.15493
52.4794 7.09669
52.5293 7.07529
52.5789 7.06954
52.6288 7.03373
52.6785 6.99124
52.7284 6.96033
52.7781 6.88316
52.828 6.91132
52.8777 6.85541
52.9276 6.85598
52.9774 6.81518
53.0273 6.80963
53.0771 6.78652
53.1271 6.75968
53.1769 6.70232
53.2269 6.68639
53.2767 6.65189
53.3267 6.62255
53.3765 6.59048
53.4266 6.56493
53.4766 6.55765
53.5265 6.51003
53.5765 6.47206
53.6264 6.47957
53.6765 6.42121
53.7264 6.38946
53.7765 6.37793
53.8265 6.33219
53.8766 6.30743
53.9266 6.28472
53.9767 6.23057
54.0267 6.22998
54.0769 6.16994
54.1269 6.18792
54.1771 6.11225
54.2271 6.10569
54.2773 6.05874
54.3274 6.03406
54.3776 6.00878
54.4277 5.96592
54.478 5.90723
54.528 5.85332
54.5783 5.78772
54.6285 5.76102
54.6788 5.74481
54.7289 5.67923
54.7792 5.62476
54.8296 5.61185
54.8798 5.57296
54.9301 5.53578
54.9803 5.48569
55.0307 5.49283
55.0809 5.42391
55.1314 5.44025
55.1816 5.36758
55.232 5.22688
55.2823 5.22074
55.3328 5.15375
55.383 5.05747
55.4335 5.0403
55.4838 5.0385
55.5344 4.93278
55.5847 4.95146
55.6352 4.91928
55.6856 4.89781
55.7361 4.84526