File: XRD/Ni3Fe_FD0151.xy
TT I
1.27165 7.98173
1.31627 7.69889
1.36089 6.85744
1.40551 5.90866
1.45013 6.57482
1.49476 6.1259
1.53938 6.0856
1.584 5.36243
1.62863 5.41146
1.67325 5.52573
1.71787 5.51261
1.7625 5.17058
1.80712 5.4428
1.85174 4.86857
1.89636 5.02963
1.94099 5.62302
1.98562 5.19876
2.03025 4.91115
2.07487 4.77394
2.11949 5.12614
2.16411 4.80414
2.20874 4.93583
2.25338 4.4092
2.298 4.15344
2.34263 4.56202
2.38725 4.24962
2.43188 4.02823
2.4765 4.84323
2.52115 4.17708
2.56577 4.50146
2.6104 5.57463
2.65503 5.66778
2.69965 5.87863
2.7443 6.12249
2.78893 6.76264
2.83356 7.73752
2.87818 7.70876
2.92281 8.08833
2.96744 9.64164
3.01209 10.6236
3.05672 11.4142
3.10135 12.2102
3.14599 12.9179
3.19062 14.595
3.23527 14.9677
3.2799 15.7858
3.32454 16.8358
3.36917 16.7978
3.4138 18.7852
3.45844 19.1802
3.50309 20.1824
3.54773 21.2345
3.59237 21.909
3.637 22.9852
3.68164 23.0283
3.7263 24.2374
3.77094 25.0366
3.81558 25.636
3.86022 26.1218
3.90486 27.5195
3.9495 28.6254
3.99416 29.529
4.0388 30.6449
4.08344 31.9893
4.12809 32.7085
4.17273 34.5265
4.21738 35.3013
4.26204 36.2225
4.30669 37.582
4.35133 39.5365
4.39598 40.7529
4.44063 42.5025
4.4853 45.0511
4.52995 46.9954
4.5746 48.5628
4.61925 51.3545
4.6639 53.7545
4.70855 56.1632
4.75322 58.9225
4.79788 62.3941
4.84253 66.0095
4.88719 70.2864
4.93184 75.0649
4.97652 82.3269
5.02118 90.1738
5.06583 100.383
5.11049 117.035
5.15515 154.294
5.19981 546.066
5.24449 3766.58
5.28916 8186.05
5.33382 6352.21
5.37848 454.049
5.42315 162.772
5.46783 127.414
5.5125 114.205
5.55716 107.361
5.60183 100.831
5.6465 98.9233
5.69117 97.1493
5.73586 95.2376
5.78053 94.6885
5.8252 95.3171
5.86988 98.1721
5.91455 105.039
5.95924 124.196
6.00392 286.482
6.0486 1379.09
6.09328 2706.73
6.13795 3972.44
6.18263 728.498
6.22733 123.064
6.27201 89.4626
6.3167 78.2786
6.36138 72.472
6.40606 68.584
6.45075 66.1576
6.49545 64.2177
6.54014 61.737
6.58483 60.7334
6.62952 59.6722
6.67421 58.0656
6.71892 57.5242
6.76361 56.5269
6.8083 55.7284
6.853 55.1231
6.89769 54.5295
6.94239 54.4271
6.98711 53.2529
7.03181 52.8506
7.07651 52.643
7.12121 52.4917
7.16591 52.0657
7.21063 51.6135
7.25533 51.9637
7.30004 51.8297
7.34475 51.7543
7.38945 52.1186
7.43416 51.8102
7.47889 51.8453
7.5236 55.7185
7.56831 63.1998
7.61303 55.1724
7.65774 53.0905
7.70247 53.9978
7.74719 54.2458
7.79191 54.6282
7.83663 54.9117
7.88135 55.9832
7.92607 56.9449
7.97081 57.5956
8.01553 59.1272
8.06026 60.5175
8.10498 61.4655
8.14971 63.3952
8.19446 64.8657
8.23919 67.7755
8.28392 70.4956
8.32865 73.1522
8.37339 77.8988
8.41812 83.4515
8.46288 94.8088
8.50761 171.85
8.55235 602.019
8.59709 885.165
8.64183 1487.29
8.68658 1634.56
8.73134 402.583
8.77609 116.355
8.82083 96.9689
8.86558 90.7009
8.91033 87.3735
8.9551 85.0004
8.99985 83.832
9.04461 82.5751
9.08936 81.9679
9.13412 80.9224
9.17888 81.2
9.22365 86.5784
9.26841 97.5675
9.31318 86.5093
9.35794 81.9581
9.4027 81.6629
9.44749 82.9078
9.49226 83.3275
9.53703 84.1945
9.5818 85.4631
9.62657 86.859
9.67134 88.1726
9.71614 90.5401
9.76091 92.6172
9.80569 94.9006
9.85047 98.2333
9.89525 103.517
9.94005 113.351
9.98484 184.402
10.0296 544.141
10.0744 734.836
10.1192 1029.36
10.164 1660.51
10.2088 989.986
10.2536 213.995
10.2984 116.178
10.3432 107.286
10.388 104.578
10.4328 120.385
10.4776 214.171
10.5224 261.376
10.5672 330.234
10.612 484.603
10.6568 370.104
10.7017 134.419
10.7465 90.0502
10.7913 83.5795
10.8361 80.2384
10.8809 77.9574
10.9257 75.5781
10.9706 74.3235
11.0154 72.2967
11.0602 71.2768
11.105 70.2339
11.1499 68.5679
11.1947 67.5838
11.2395 66.4195
11.2844 65.94
11.3292 65.2146
11.374 64.3815
11.4189 63.9546
11.4637 63.1485
11.5086 62.5021
11.5534 61.9888
11.5983 61.8097
11.6431 61.9355
11.688 61.1099
11.7328 61.2948
11.7777 61.3236
11.8225 60.8935
11.8674 61.1761
11.9122 62.3165
11.9571 65.7381
12.002 65.1324
12.0468 67.5381
12.0917 90.2447
12.1366 107.882
12.1814 117.346
12.2263 150.414
12.2712 189.951
12.3161 138.812
12.3609 74.6782
12.4058 63.9993
12.4507 63.162
12.4956 62.8644
12.5405 62.8087
12.5853 63.352
12.6302 63.4841
12.6751 64.1619
12.72 64.8679
12.7649 66.0183
12.8098 66.9733
12.8547 68.159
12.8996 69.264
12.9445 70.986
12.9894 72.7857
13.0343 74.9912
13.0792 79.083
13.1242 86.0071
13.1691 132.332
13.214 186.597
13.2589 204.324
13.3038 244.282
13.3487 349.227
13.3937 381.627
13.4386 211.009
13.4835 119.306
13.5285 153.757
13.5734 182.079
13.6183 192.069
13.6633 236.841
13.7082 332.438
13.7531 308.899
13.7981 154.317
13.843 88.6756
13.888 80.2834
13.9329 77.4233
13.9779 75.7063
14.0228 74.1
14.0678 72.6852
14.1127 72.6277
14.1577 74.176
14.2027 72.3102
14.2476 70.4543
14.2926 69.3863
14.3376 68.8257
14.3825 68.2723
14.4275 67.9471
14.4725 67.9386
14.5175 68.2003
14.5624 67.9769
14.6074 68.4134
14.6524 68.6992
14.6974 69.2867
14.7424 70.9179
14.7874 80.3187
14.8324 106.688
14.8774 121.156
14.9224 126.495
14.9674 147.816
15.0124 191.364
15.0574 204.176
15.1024 140.234
15.1474 82.1522
15.1924 70.9182
15.2374 68.9594
15.2824 67.7412
15.3274 66.7631
15.3725 66.2229
15.4175 66.0387
15.4625 65.3754
15.5076 65.341
15.5526 65.3522
15.5976 65.4807
15.6426 66.3857
15.6877 73.3404
15.7327 94.9791
15.7778 107.781
15.8228 110.619
15.8679 124.188
15.9129 153.766
15.958 184.373
16.003 151.399
16.0481 88.6468
16.0931 66.1307
16.1382 61.5498
16.1833 60.0139
16.2283 58.657
16.2734 57.9677
16.3185 57.0661
16.3636 56.3863
16.4086 55.7262
16.4537 55.3569
16.4988 54.9262
16.5439 54.746
16.589 54.4805
16.6341 54.1302
16.6792 53.8335
16.7243 54.2366
16.7694 53.9417
16.8145 53.9802
16.8596 54.3134
16.9047 54.4315
16.9498 54.9858
16.9949 54.7047
17.04 55.2085
17.0851 56.5858
17.1302 60.8765
17.1754 64.0933
17.2205 65.2198
17.2656 67.0141
17.3108 72.3862
17.3559 79.214
17.401 81.0241
17.4462 70.9557
17.4913 61.458
17.5365 59.0458
17.5815 58.8023
17.6268 59.1058
17.6718 59.7063
17.7171 59.9936
17.7622 61.3371
17.8074 62.1784
17.8525 63.5869
17.8977 71.6907
17.9428 83.6803
17.9881 88.327
18.0331 90.6569
18.0784 97.915
18.1237 114.798
18.1688 140.369
18.214 142.05
18.2591 111.303
18.3044 88.2081
18.3495 86.4963
18.3948 94.7715
18.4399 103.457
18.4852 94.9983
18.5303 76.1351
18.5756 64.9647
18.6207 62.1581
18.666 60.8815
18.7112 60.1098
18.7565 59.2773
18.8016 58.5578
18.8469 58.0806
18.892 57.7853
18.9374 57.1336
18.9825 56.8809
19.0278 56.6349
19.073 56.5989
19.1183 56.983
19.1635 59.3633
19.2088 61.6682
19.254 62.3008
19.2993 62.8884
19.3447 65.055
19.3898 69.0232
19.4352 73.5451
19.4804 72.3224
19.5257 63.7353
19.5709 56.3186
19.6163 54.1242
19.6615 53.7368
19.7068 53.3879
19.752 53.1681
19.7974 53.4974
19.8426 54.5541
19.888 56.6521
19.9332 57.9676
19.9786 58.5388
20.0238 58.9925
20.0692 61.7556
20.1144 66.8791
20.1598 72.1813
20.205 70.7971
20.2504 65.2578
20.2957 61.0825
20.3411 61.462
20.3863 64.4559
20.4318 64.2023
20.477 58.9636
20.5224 53.2511
20.5677 50.8835
20.6131 50.1841
20.6586 49.6953
20.7038 49.6842
20.7493 49.0942
20.7945 49.0535
20.84 48.9928
20.8853 48.8332
20.9307 48.3393
20.976 48.7202
21.0215 48.8513
21.0668 49.2331
21.1122 49.4077
21.1575 49.4767
21.203 49.6574
21.2483 50.3086
21.2938 51.403
21.3391 51.4057
21.3846 50.304
21.4299 49.1415
21.4754 48.5968
21.5207 48.6777
21.5662 48.7795
21.6116 49.2034
21.6571 51.2194
21.7024 52.8425
21.7479 53.9442
21.7933 54.4649
21.8388 55.5336
21.8843 58.4289
21.9297 61.8953
21.9752 65.4233
22.0206 65.7118
22.0661 60.6443
22.1115 56.1839
22.157 55.5258
22.2024 56.2129
22.248 55.102
22.2933 52.3518
22.3389 50.0727
22.3843 49.2358
22.4299 48.7953
22.4753 48.6936
22.5208 48.7251
22.5662 48.6075
22.6118 48.8261
22.6572 49.1039
22.7028 50.217
22.7483 51.3022
22.7939 51.8606
22.8393 51.9364
22.8849 52.5137
22.9303 53.3945
22.9759 54.9072
23.0214 57.2462
23.067 58.3069
23.1126 55.8222
23.1581 52.1831
23.2037 49.6763
23.2492 49.219
23.2948 49.696
23.3403 50.9136
23.3859 51.7682
23.4314 51.6476
23.477 51.7789
23.5225 52.1772
23.5682 53.547
23.6137 55.7238
23.6593 57.8007
23.7048 57.0548
23.7505 53.3933
23.796 49.1514
23.8417 46.9065
23.8872 46.0593
23.9329 45.5508
23.9784 45.0845
24.0241 45.0312
24.0697 44.6461
24.1154 44.2878
24.1609 44.074
24.2066 43.9774
24.2522 43.8136
24.2979 43.6265
24.3434 43.3515
24.3892 43.1554
24.4349 43.1594
24.4805 42.8225
24.5262 43.016
24.5718 42.9219
24.6175 42.9327
24.6631 43.1181
24.7089 43.0276
24.7545 42.6366
24.8002 42.3621
24.8458 42.587
24.8916 42.4128
24.9372 42.5734
24.983 42.7559
25.0286 42.9481
25.0744 43.3909
25.12 43.9644
25.1658 44.2313
25.2114 44.4872
25.2572 45.1022
25.3029 44.7605
25.3487 44.7073
25.3943 44.8847
25.4402 44.8914
25.4858 44.3861
25.5316 43.1624
25.5773 41.7606
25.6231 41.3191
25.669 40.8731
25.7147 40.7663
25.7605 40.697
25.8062 40.8561
25.8521 40.9495
25.8977 40.9831
25.9436 40.9808
25.9893 40.8758
26.0352 41.0555
26.0809 41.293
26.1268 41.6139
26.1725 41.8475
26.2184 41.9468
26.2641 41.3963
26.31 40.8394
26.3557 40.8141
26.4017 40.7135
26.4474 40.8049
26.4933 40.88
26.5391 41.2052
26.585 41.3262
26.6308 41.5955
26.6767 41.9974
26.7225 42.5279
26.7684 42.6019
26.8142 41.9878
26.8601 41.2959
26.9059 41.0305
26.9519 40.4015
26.9979 40.0741
27.0437 39.608
27.0896 39.1211
27.1354 39.0373
27.1814 39.0246
27.2272 38.9377
27.2732 38.921
27.3191 38.6705
27.3651 38.7826
27.4109 38.5885
27.4569 38.4995
27.5027 38.687
27.5488 38.7432
27.5946 38.8271
27.6407 38.7593
27.6865 38.694
27.7326 38.5672
27.7784 38.4365
27.8245 38.3001
27.8703 38.2314
27.9164 38.4385
27.9623 38.4748
28.0084 38.6925
28.0543 38.9386
28.1003 39.1182
28.1462 39.4183
28.1923 39.302
28.2384 38.7909
28.2843 38.3362
28.3304 38.0964
28.3764 37.6694
28.4225 37.1283
28.4684 36.7965
28.5145 36.3258
28.5605 36.175
28.6066 36.0106
28.6526 35.9635
28.6987 35.8493
28.7447 35.6467
28.7908 35.5424
28.8368 35.3741
28.8829 35.5297
28.9289 35.4991
28.9751 35.4269
29.0211 35.3478
29.0673 35.1361
29.1133 34.9898
29.1595 34.8048
29.2055 34.4622
29.2517 34.5447
29.2977 34.419
29.3439 34.4552
29.3899 34.2341
29.4361 34.2648
29.4824 34.1826
29.5284 34.2383
29.5746 33.9
29.6207 33.452
29.6669 33.2406
29.713 33.2394
29.7593 32.9712
29.8053 33.0503
29.8516 32.9171
29.8977 32.9679
29.9439 32.775
29.99 32.7336
30.0363 32.6169
30.0824 32.653
30.1287 32.4874
30.1748 32.5738
30.2211 32.45
30.2673 32.4288
30.3136 32.5293
30.3597 32.5909
30.406 32.5263
30.4522 32.3214
30.4985 32.3312
30.5447 32.3024
30.591 32.2695
30.6372 32.2694
30.6835 32.142
30.7297 32.3036
30.7761 32.3277
30.8224 32.4504
30.8686 32.3012
30.915 32.0774
30.9612 31.9313
31.0076 31.7129
31.0538 31.4966
31.1002 31.4583
31.1464 31.3013
31.1928 31.3586
31.2391 31.1754
31.2855 31.1282
31.3317 31.038
31.3781 31.1182
31.4244 31.0243
31.4708 30.9723
31.5171 30.9774
31.5636 31.0916
31.6098 30.9941
31.6563 30.9115
31.7026 30.7222
31.7491 30.4943
31.7953 30.3698
31.8418 30.3023
31.8881 30.3638
31.9346 30.1978
31.9809 30.2398
32.0275 30.1576
32.074 30.1128
32.1203 29.9661
32.1668 29.9098
32.2132 29.6734
32.2597 29.5092
32.306 29.5185
32.3526 29.1917
32.399 29.052
32.4455 28.9727
32.4919 28.9208
32.5385 28.8223
32.5848 28.639
32.6314 28.636
32.6778 28.6603
32.7244 28.5064
32.7708 28.3304
32.8174 28.3323
32.8638 28.3078
32.9104 28.2555
32.9569 28.2755
33.0035 27.9958
33.0499 27.9979
33.0966 28.0553
33.143 27.9323
33.1897 27.9287
33.2361 27.787
33.2828 27.7198
33.3293 27.6391
33.3759 27.5981
33.4226 27.4856
33.4691 27.4357
33.5158 27.263
33.5623 27.1825
33.609 27.0494
33.6555 26.8312
33.7022 26.7051
33.7487 26.6536
33.7954 26.6092
33.842 26.5021
33.8887 26.4609
33.9353 26.3872
33.982 26.3529
34.0286 26.1714
34.0753 26.2401
34.1219 26.0966
34.1687 26.0721
34.2152 25.9345
34.262 25.7376
34.3086 25.6269
34.3554 25.7317
34.402 25.4863
34.4488 25.4997
34.4954 25.4456
34.5422 25.3719
34.5889 25.1993
34.6357 25.1175
34.6825 25.0319
34.7292 24.9328
34.776 24.9293
34.8227 24.838
34.8695 24.745
34.9162 24.7324
34.9631 24.6524
35.0098 24.5853
35.0566 24.5135
35.1033 24.507
35.1502 24.41
35.1969 24.3125
35.2438 24.3298
35.2906 24.1932
35.3375 24.2523
35.3842 24.0621
35.4311 24.1199
35.4779 24.0013
35.5248 24.0695
35.5716 24.0009
35.6185 23.8951
35.6653 23.7933
35.7123 23.7101
35.759 23.7212
35.806 23.5133
35.8528 23.3649
35.8998 23.3734
35.9468 23.2761
35.9936 23.1928
36.0406 23.1592
36.0874 23.0874
36.1345 23.0119
36.1813 22.9556
36.2283 22.8715
36.2752 22.799
36.3222 22.8534
36.3691 22.7434
36.4161 22.6294
36.463 22.6241
36.5101 22.5929
36.557 22.5145
36.6041 22.3534
36.651 22.3247
36.6981 22.3177
36.745 22.1935
36.7921 22.1687
36.839 22.0236
36.8861 21.992
36.9331 21.9633
36.9802 21.8313
37.0272 21.7103
37.0743 21.6944
37.1213 21.6656
37.1684 21.6091
37.2154 21.4394
37.2626 21.3887
37.3098 21.3443
37.3568 21.294
37.404 21.22
37.451 21.0989
37.4982 21.1163
37.5452 20.966
37.5924 20.9197
37.6395 20.9025
37.6867 20.8619
37.7337 20.7319
37.781 20.605
37.8281 20.6373
37.8753 20.562
37.9224 20.4582
37.9697 20.3978
38.0168 20.3853
38.064 20.2299
38.1111 20.2613
38.1584 20.1176
38.2056 20.0619
38.2529 20.0282
38.3 19.9481
38.3473 19.9668
38.3945 19.7658
38.4418 19.7945
38.489 19.7326
38.5363 19.6191
38.5837 19.5592
38.6309 19.4932
38.6782 19.438
38.7254 19.4017
38.7728 19.3333
38.82 19.2592
38.8674 19.2105
38.9146 19.1467
38.9621 19.0971
39.0093 19.0326
39.0567 18.9735
39.104 18.8462
39.1514 18.8784
39.1987 18.7961
39.2461 18.7105
39.2934 18.6843
39.3409 18.5924
39.3882 18.5173
39.4356 18.4868
39.483 18.4365
39.5304 18.3863
39.5778 18.3798
39.6253 18.2378
39.6726 18.2126
39.7201 18.1294
39.7675 18.0886
39.815 18.0348
39.8624 17.9575
39.9099 17.9641
39.9575 17.8673
40.0049 17.779
40.0525 17.7499
40.0999 17.7242
40.1474 17.6174
40.1949 17.5001
40.2425 17.4886
40.2899 17.4843
40.3375 17.4653
40.385 17.3219
40.4326 17.2818
40.48 17.2361
40.5277 17.1879
40.5752 17.0969
40.6228 17.0689
40.6703 17.0808
40.718 16.9709
40.7655 16.8856
40.8132 16.8338
40.8607 16.8649
40.9084 16.8055
40.9559 16.6853
41.0036 16.7171
41.0512 16.6442
41.0989 16.5371
41.1465 16.4354
41.1942 16.4216
41.242 16.3765
41.2896 16.3622
41.3373 16.2509
41.3849 16.1975
41.4327 16.171
41.4803 16.022
41.5281 15.9786
41.5758 15.9405
41.6236 15.9181
41.6712 15.8758
41.7191 15.8183
41.7667 15.7996
41.8146 15.7623
41.8622 15.6994
41.9101 15.6518
41.9578 15.5748
42.0057 15.496
42.0534 15.4866
42.1013 15.4565
42.149 15.3508
42.1969 15.3822
42.2446 15.2251
42.2925 15.2123
42.3403 15.1636
42.3882 15.1281
42.436 15.1059
42.4839 15.0053
42.5319 14.9578
42.5797 14.8979
42.6277 14.8385
42.6755 14.8107
42.7235 14.7416
42.7713 14.7221
42.8193 14.6503
42.8671 14.5751
42.9152 14.53
42.963 14.5082
43.0111 14.4895
43.0589 14.4186
43.107 14.3866
43.1549 14.3215
43.2029 14.1941
43.2508 14.2521
43.2989 14.1298
43.3468 14.0842
43.3949 14.0749
43.4429 13.9932
43.491 13.9441
43.5389 13.9189
43.5871 13.8533
43.635 13.84
43.6832 13.7756
43.7312 13.7074
43.7793 13.6317
43.8273 13.6512
43.8755 13.553
43.9237 13.5324
43.9717 13.4923
44.0199 13.3974
44.068 13.4126
44.1162 13.3275
44.1642 13.2798
44.2125 13.2732
44.2606 13.2302
44.3088 13.1715
44.3569 13.0906
44.4052 13.1153
44.4533 13.0097
44.5016 12.9584
44.5497 12.9415
44.598 12.8875
44.6461 12.8104
44.6945 12.8298
44.7426 12.7328
44.791 12.7065
44.8391 12.6229
44.8875 12.6162
44.9357 12.6013
44.984 12.5764
45.0322 12.4848
45.0806 12.4256
45.1288 12.3855
45.1773 12.3424
45.2257 12.3621
45.2739 12.2248
45.3224 12.2552
45.3706 12.1849
45.4191 12.1355
45.4673 12.1102
45.5158 12.0436
45.5641 12.0369
45.6126 11.9765
45.6609 11.9243
45.7094 11.8487
45.7577 11.8242
45.8063 11.7837
45.8546 11.7557
45.9031 11.6872
45.9515 11.6913
46.0001 11.6175
46.0484 11.5812
46.097 11.5402
46.1454 11.495
46.194 11.4714
46.2424 11.4137
46.291 11.4096
46.3395 11.3144
46.3881 11.2966
46.4365 11.2617
46.4852 11.1727
46.5337 11.1556
46.5823 11.1094
46.631 11.0636
46.6795 11.0588
46.7282 11.0279
46.7767 10.9833
46.8254 10.9099
46.8739 10.9231
46.9226 10.8512
46.9712 10.7815
47.0199 10.783
47.0685 10.7374
47.1173 10.7218
47.1658 10.6303
47.2146 10.5744
47.2632 10.5559
47.312 10.5205
47.3606 10.4992
47.4095 10.4251
47.4581 10.4254
47.5069 10.38
47.5556 10.3141
47.6044 10.2954
47.6531 10.2347
47.702 10.2116
47.7507 10.2297
47.7996 10.1286
47.8483 10.1106
47.8972 10.0629
47.9461 10.0503
47.9948 9.96269
48.0438 9.9665
48.0925 9.97545
48.1415 9.89356
48.1902 9.85277
48.2392 9.83489
48.288 9.7858
48.337 9.74906
48.3858 9.72283
48.4348 9.6697
48.4837 9.65485
48.5327 9.65225
48.5815 9.54835
48.6306 9.55803
48.6795 9.53476
48.7285 9.47516
48.7774 9.45889
48.8265 9.43262
48.8754 9.39715
48.9245 9.34313
48.9734 9.31743
49.0226 9.28217
49.0715 9.23929
49.1206 9.19845
49.1696 9.15698
49.2188 9.13713
49.2679 9.08791
49.3169 9.03397
49.3661 8.97984
49.4151 8.98445
49.4643 8.95527
49.5134 8.92224
49.5626 8.89349
49.6117 8.81552
49.6609 8.80818
49.71 8.74613
49.7592 8.76599
49.8083 8.70166
49.8576 8.70819
49.9067 8.61531
49.956 8.60789
50.0052 8.5524
50.0545 8.5552
50.1036 8.51957
50.153 8.51265
50.2022 8.44862
50.2515 8.4385
50.3007 8.36814
50.3501 8.34398
50.3993 8.30634
50.4487 8.31135
50.498 8.24821
50.5474 8.23932
50.5966 8.21908
50.6461 8.15767
50.6955 8.14114
50.7448 8.1291
50.7943 8.05098
50.8436 8.07652
50.8931 8.01161
50.9424 8.00807
50.9919 7.96466
51.0413 7.93233
51.0908 7.8508
51.1402 7.84928
51.1897 7.81783
51.2391 7.79356
51.2887 7.78159
51.3381 7.72876
51.3877 7.73661
51.4371 7.65769
51.4867 7.62288
51.5362 7.59881
51.5858 7.54227
51.6353 7.51852
51.6849 7.4855
51.7344 7.48872
51.7841 7.4659
51.8336 7.44327
51.8833 7.37727
51.9328 7.31513
51.9826 7.28549
52.0323 7.2867
52.0818 7.23593
52.1316 7.22545
52.1812 7.20419
52.231 7.17073
52.2806 7.14004
52.3304 7.1088
52.38 7.05728
52.4298 7.0479
52.4794 7.0604
52.5293 7.00505
52.5789 6.9547
52.6288 6.92536
52.6785 6.89717
52.7284 6.91585
52.7781 6.85882
52.828 6.83575
52.8777 6.80871
52.9276 6.78163
52.9774 6.74745
53.0273 6.68743
53.0771 6.6993
53.1271 6.67425
53.1769 6.618
53.2269 6.58351
53.2767 6.57867
53.3267 6.54716
53.3765 6.53692
53.4266 6.45906
53.4766 6.46579
53.5265 6.43225
53.5765 6.41228
53.6264 6.379
53.6765 6.31934
53.7264 6.31451
53.7765 6.27076
53.8265 6.26802
53.8766 6.28272
53.9266 6.1804
53.9767 6.2199
54.0267 6.16492
54.0769 6.12799
54.1269 6.10527
54.1771 6.04639
54.2271 6.02643
54.2773 5.99883
54.3274 5.95654
54.3776 5.92115
54.4277 5.89248
54.478 5.84568
54.528 5.75024
54.5783 5.7673
54.6285 5.68007
54.6788 5.71307
54.7289 5.58425
54.7792 5.57339
54.8296 5.49034
54.8798 5.4754
54.9301 5.43966
54.9803 5.40021
55.0307 5.38384
55.0809 5.35033
55.1314 5.31619
55.1816 5.19102
55.232 5.17201
55.2823 5.14226
55.3328 5.07075
55.383 4.99252
55.4335 5.05428
55.4838 4.95286
55.5344 4.90224
55.5847 4.86294
55.6352 4.79783
55.6856 4.80642
55.7361 4.75099