File: XRD/Ni3Fe_FD0095.xy
TT I
1.27165 9.10316
1.31627 7.92809
1.36089 7.87202
1.40551 7.29607
1.45013 7.74317
1.49476 7.55774
1.53938 7.5821
1.584 6.74115
1.62863 6.87313
1.67325 5.84706
1.71787 6.13703
1.7625 5.83361
1.80712 6.12388
1.85174 5.39389
1.89636 5.68808
1.94099 5.64916
1.98562 5.73062
2.03025 5.0421
2.07487 5.19243
2.11949 5.30054
2.16411 5.04187
2.20874 4.51705
2.25338 5.10714
2.298 4.74765
2.34263 4.18956
2.38725 4.4524
2.43188 5.02081
2.4765 4.37325
2.52115 3.86715
2.56577 4.58283
2.6104 5.00167
2.65503 5.03374
2.69965 5.0643
2.7443 6.08211
2.78893 6.16832
2.83356 6.61394
2.87818 7.59995
2.92281 8.6142
2.96744 9.22879
3.01209 11.0011
3.05672 11.3054
3.10135 12.3044
3.14599 12.8893
3.19062 14.2491
3.23527 14.8739
3.2799 15.8056
3.32454 16.5587
3.36917 17.6082
3.4138 18.3197
3.45844 19.3637
3.50309 20.178
3.54773 20.7308
3.59237 21.3353
3.637 22.552
3.68164 22.946
3.7263 23.8895
3.77094 24.9467
3.81558 25.6932
3.86022 26.1162
3.90486 27.1532
3.9495 28.1108
3.99416 28.7518
4.0388 29.8598
4.08344 31.0278
4.12809 32.4548
4.17273 33.8258
4.21738 35.3971
4.26204 36.5641
4.30669 36.7857
4.35133 39.5187
4.39598 41.1165
4.44063 43.0836
4.4853 44.6713
4.52995 47.204
4.5746 48.6211
4.61925 51.7539
4.6639 53.1769
4.70855 56.0838
4.75322 59.0249
4.79788 62.1745
4.84253 66.1499
4.88719 70.9626
4.93184 75.9609
4.97652 84.3988
5.02118 94.7664
5.06583 107.352
5.11049 127.507
5.15515 177.269
5.19981 699.717
5.24449 3784.58
5.28916 6298.14
5.33382 7351.18
5.37848 787.43
5.42315 199.918
5.46783 142.218
5.5125 122.815
5.55716 113.306
5.60183 105.955
5.6465 102.434
5.69117 101.148
5.73586 99.2334
5.78053 98.7515
5.8252 99.6
5.86988 103.866
5.91455 114.007
5.95924 140.168
6.00392 351.393
6.0486 1446.37
6.09328 2043.38
6.13795 3781.62
6.18263 995.571
6.22733 155.519
6.27201 98.6269
6.3167 82.9785
6.36138 74.4765
6.40606 69.4827
6.45075 67.1432
6.49545 64.6703
6.54014 62.3247
6.58483 60.8687
6.62952 59.3315
6.67421 57.9486
6.71892 56.6396
6.76361 56.0111
6.8083 54.8322
6.853 54.0717
6.89769 53.5361
6.94239 53.2325
6.98711 52.9028
7.03181 52.3591
7.07651 52.103
7.12121 51.7244
7.16591 51.528
7.21063 51.2459
7.25533 51.234
7.30004 51.4672
7.34475 50.8245
7.38945 51.4152
7.43416 51.0971
7.47889 51.8335
7.5236 60.5635
7.56831 81.5864
7.61303 60.4189
7.65774 53.3776
7.70247 53.263
7.74719 53.5871
7.79191 54.4212
7.83663 54.287
7.88135 55.3285
7.92607 56.3957
7.97081 57.5929
8.01553 58.6119
8.06026 59.7689
8.10498 61.1417
8.14971 62.9125
8.19446 64.557
8.23919 67.4655
8.28392 70.0538
8.32865 73.2865
8.37339 78.3656
8.41812 84.5208
8.46288 99.6549
8.50761 194.665
8.55235 659.331
8.59709 727.508
8.64183 1078.05
8.68658 1779.55
8.73134 598.355
8.77609 133.944
8.82083 101.645
8.86558 93.1354
8.91033 88.6764
8.9551 85.3078
8.99985 83.735
9.04461 82.5579
9.08936 82.0663
9.13412 81.1237
9.17888 81.8977
9.22365 94.5373
9.26841 126.947
9.31318 99.2668
9.35794 83.0174
9.4027 81.8647
9.44749 82.1404
9.49226 82.7023
9.53703 83.5798
9.5818 85.2841
9.62657 85.868
9.67134 87.3241
9.71614 89.7336
9.76091 91.986
9.80569 94.9123
9.85047 98.2206
9.89525 104.935
9.94005 117.052
9.98484 204.782
10.0296 600.783
10.0744 656.125
10.1192 715.891
10.164 1419.95
10.2088 1252.4
10.2536 298.441
10.2984 124.373
10.3432 110.495
10.388 105.572
10.4328 125.951
10.4776 230.848
10.5224 241.011
10.5672 247.444
10.612 416.415
10.6568 437.265
10.7017 169.794
10.7465 96.9848
10.7913 84.1494
10.8361 80.0147
10.8809 77.5303
10.9257 74.6952
10.9706 73.5937
11.0154 71.8053
11.0602 70.2813
11.105 68.8796
11.1499 67.596
11.1947 66.8905
11.2395 65.6642
11.2844 65.2466
11.3292 64.297
11.374 63.5309
11.4189 63.0786
11.4637 62.6209
11.5086 61.8839
11.5534 61.453
11.5983 61.2474
11.6431 61.25
11.688 60.2661
11.7328 60.7209
11.7777 60.4495
11.8225 60.2569
11.8674 60.6876
11.9122 62.9465
11.9571 71.3466
12.002 70.9119
12.0468 69.5991
12.0917 94.0104
12.1366 106.698
12.1814 101.017
12.2263 120.043
12.2712 175.405
12.3161 159.305
12.3609 83.1372
12.4058 64.7338
12.4507 62.7471
12.4956 62.2421
12.5405 62.0893
12.5853 62.2455
12.6302 62.626
12.6751 63.481
12.72 63.9751
12.7649 65.0131
12.8098 65.8768
12.8547 66.7497
12.8996 68.5823
12.9445 69.8907
12.9894 71.765
13.0343 73.9354
13.0792 79.0051
13.1242 88.6451
13.1691 141.032
13.214 194.976
13.2589 179.977
13.3038 187.423
13.3487 274.99
13.3937 393.38
13.4386 267.11
13.4835 134.778
13.5285 165.082
13.5734 183.938
13.6183 162.54
13.6633 181.047
13.7082 275.732
13.7531 335.564
13.7981 192.772
13.843 93.8107
13.888 80.9398
13.9329 76.8412
13.9779 75.2035
14.0228 73.6383
14.0678 72.1809
14.1127 72.8348
14.1577 78.0132
14.2027 76.4431
14.2476 71.0547
14.2926 68.6627
14.3376 68.1975
14.3825 67.6236
14.4275 67.2912
14.4725 67.1768
14.5175 67.2657
14.5624 67.1144
14.6074 67.4588
14.6524 68.017
14.6974 68.8839
14.7424 70.5614
14.7874 81.479
14.8324 111.077
14.8774 119.903
14.9224 110.848
14.9674 118.783
15.0124 157.172
15.0574 208.952
15.1024 167.41
15.1474 90.7867
15.1924 72.1084
15.2374 68.7396
15.2824 66.9983
15.3274 65.8379
15.3725 65.4154
15.4175 65.0987
15.4625 64.5099
15.5076 64.3364
15.5526 64.4574
15.5976 64.6565
15.6426 65.7208
15.6877 74.4341
15.7327 98.3192
15.7778 107.908
15.8228 99.3384
15.8679 101.474
15.9129 123.12
15.958 172.417
16.003 174.375
16.0481 105.015
16.0931 70.3766
16.1382 62.6459
16.1833 60.0673
16.2283 58.1893
16.2734 57.1488
16.3185 56.345
16.3636 55.6576
16.4086 54.7963
16.4537 54.7239
16.4988 53.9315
16.5439 54.0935
16.589 53.7058
16.6341 53.3501
16.6792 53.1857
16.7243 53.3811
16.7694 53.2978
16.8145 53.1039
16.8596 53.1828
16.9047 53.7781
16.9498 54.8103
16.9949 54.4839
17.04 54.623
17.0851 55.9958
17.1302 60.8604
17.1754 64.0884
17.2205 62.8027
17.2656 62.6173
17.3108 65.7041
17.3559 72.4236
17.401 80.8481
17.4462 75.1007
17.4913 62.65
17.5365 58.3127
17.5815 58.1582
17.6268 58.3549
17.6718 58.6868
17.7171 59.1475
17.7622 60.6164
17.8074 61.5813
17.8525 63.3339
17.8977 72.1661
17.9428 85.5141
17.9881 87.4663
18.0331 82.9624
18.0784 84.8109
18.1237 96.8099
18.1688 126.847
18.214 149.845
18.2591 123.669
18.3044 87.8956
18.3495 78.8107
18.3948 84.0858
18.4399 97.6605
18.4852 101.039
18.5303 83.1076
18.5756 66.6082
18.6207 61.9769
18.666 60.1928
18.7112 59.1615
18.7565 58.1832
18.8016 57.9651
18.8469 57.4164
18.892 56.8848
18.9374 56.4424
18.9825 55.8949
19.0278 55.688
19.073 55.9224
19.1183 56.3732
19.1635 59.369
19.2088 61.4097
19.254 61.0427
19.2993 60.3035
19.3447 61.5878
19.3898 64.1434
19.4352 69.4718
19.4804 73.1625
19.5257 67.1729
19.5709 57.2681
19.6163 53.8822
19.6615 53.0188
19.7068 52.7102
19.752 52.3772
19.7974 52.7336
19.8426 54.0801
19.888 56.3069
19.9332 57.6972
19.9786 57.0822
20.0238 56.3154
20.0692 58.1911
20.1144 62.5867
20.1598 69.2419
20.205 71.1095
20.2504 66.4037
20.2957 59.0973
20.3411 57.9405
20.3863 60.8934
20.4318 64.3091
20.477 61.329
20.5224 54.2953
20.5677 50.4832
20.6131 49.663
20.6586 49.0289
20.7038 48.7426
20.7493 48.5064
20.7945 48.5436
20.84 48.5515
20.8853 48.2136
20.9307 47.7047
20.976 47.9551
21.0215 48.2386
21.0668 48.678
21.1122 48.5588
21.1575 48.2697
21.203 48.1355
21.2483 48.4945
21.2938 49.8942
21.3391 50.3153
21.3846 50.1387
21.4299 49.0678
21.4754 48.1189
21.5207 48.024
21.5662 48.0692
21.6116 48.5999
21.6571 50.7466
21.7024 52.7947
21.7479 53.1636
21.7933 52.5788
21.8388 52.9136
21.8843 54.8605
21.9297 57.7939
21.9752 62.1152
22.0206 65.1771
22.0661 62.0395
22.1115 56.0567
22.157 53.7067
22.2024 54.9969
22.248 55.2323
22.2933 52.9424
22.3389 50.0869
22.3843 48.5641
22.4299 47.9063
22.4753 47.9033
22.5208 48.0115
22.5662 47.7341
22.6118 48.0242
22.6572 48.271
22.7028 49.6117
22.7483 50.8653
22.7939 51.2057
22.8393 50.6725
22.8849 50.4417
22.9303 50.7354
22.9759 51.9005
23.0214 53.8616
23.067 56.9446
23.1126 57.0844
23.1581 53.3218
23.2037 49.6381
23.2492 48.6397
23.2948 49.1589
23.3403 50.4813
23.3859 51.2262
23.4314 50.6573
23.477 50.1016
23.5225 50.04
23.5682 50.5117
23.6137 52.1597
23.6593 55.0416
23.7048 57.3062
23.7505 54.878
23.796 50.1619
23.8417 46.7075
23.8872 45.3934
23.9329 44.9284
23.9784 44.5776
24.0241 44.1486
24.0697 43.9636
24.1154 43.7653
24.1609 43.3377
24.2066 43.2176
24.2522 43.3764
24.2979 42.8917
24.3434 42.8185
24.3892 42.6168
24.4349 42.4377
24.4805 42.3968
24.5262 42.3366
24.5718 42.194
24.6175 42.2622
24.6631 42.342
24.7089 42.1402
24.7545 42.1976
24.8002 41.8346
24.8458 41.8388
24.8916 41.8521
24.9372 41.9833
24.983 42.002
25.0286 42.2149
25.0744 42.6571
25.12 42.7425
25.1658 43.1338
25.2114 43.1717
25.2572 43.6464
25.3029 43.9754
25.3487 43.6847
25.3943 43.3681
25.4402 43.8915
25.4858 44.2068
25.5316 42.994
25.5773 41.6667
25.6231 40.7532
25.669 40.1804
25.7147 40.0143
25.7605 40.1015
25.8062 40.3033
25.8521 40.6921
25.8977 40.3368
25.9436 40.2631
25.9893 39.9967
26.0352 40.1746
26.0809 40.099
26.1268 40.5113
26.1725 41.0023
26.2184 41.3888
26.2641 41.1572
26.31 40.6646
26.3557 40.4032
26.4017 40.2051
26.4474 40.2329
26.4933 40.0433
26.5391 40.0984
26.585 40.2287
26.6308 40.4222
26.6767 40.7012
26.7225 41.352
26.7684 41.92
26.8142 41.6091
26.8601 40.7505
26.9059 40.0978
26.9519 39.977
26.9979 39.6423
27.0437 38.9954
27.0896 38.6269
27.1354 38.589
27.1814 38.3756
27.2272 38.3292
27.2732 38.2707
27.3191 37.9665
27.3651 37.9786
27.4109 37.8715
27.4569 37.8597
27.5027 37.8598
27.5488 37.9156
27.5946 37.957
27.6407 37.933
27.6865 38.1873
27.7326 38.128
27.7784 38.0351
27.8245 37.8042
27.8703 37.7249
27.9164 37.6503
27.9623 37.6337
28.0084 37.7563
28.0543 37.8049
28.1003 37.89
28.1462 38.2884
28.1923 38.6117
28.2384 38.3372
28.2843 37.7407
28.3304 37.4753
28.3764 37.1922
28.4225 36.8129
28.4684 36.2774
28.5145 35.7747
28.5605 35.7392
28.6066 35.3832
28.6526 35.3142
28.6987 35.2427
28.7447 35.1381
28.7908 34.8808
28.8368 34.9367
28.8829 34.8203
28.9289 34.8282
28.9751 34.628
29.0211 34.6577
29.0673 34.6814
29.1133 34.5307
29.1595 34.1402
29.2055 34.0729
29.2517 33.8565
29.2977 33.5804
29.3439 33.6768
29.3899 33.5104
29.4361 33.5393
29.4824 33.5331
29.5284 33.5938
29.5746 33.3903
29.6207 33.1561
29.6669 32.754
29.713 32.6179
29.7593 32.4159
29.8053 32.4743
29.8516 32.3549
29.8977 32.3174
29.9439 32.1932
29.99 32.0786
30.0363 31.948
30.0824 32.0685
30.1287 31.9347
30.1748 31.884
30.2211 31.9103
30.2673 31.7424
30.3136 31.9937
30.3597 32.133
30.406 32.0292
30.4522 31.8488
30.4985 31.7639
30.5447 31.7637
30.591 31.6081
30.6372 31.5609
30.6835 31.4862
30.7297 31.5273
30.7761 31.7707
30.8224 31.8293
30.8686 31.681
30.915 31.3803
30.9612 31.3738
31.0076 31.1681
31.0538 31.0243
31.1002 30.8513
31.1464 30.7651
31.1928 30.6746
31.2391 30.6815
31.2855 30.5253
31.3317 30.4275
31.3781 30.4428
31.4244 30.3488
31.4708 30.2816
31.5171 30.3046
31.5636 30.3928
31.6098 30.3598
31.6563 30.3819
31.7026 30.112
31.7491 29.9283
31.7953 29.8705
31.8418 29.7675
31.8881 29.7019
31.9346 29.6415
31.9809 29.496
32.0275 29.5851
32.074 29.5224
32.1203 29.4404
32.1668 29.3751
32.2132 29.222
32.2597 29.1046
32.306 28.981
32.3526 28.7847
32.399 28.6104
32.4455 28.5583
32.4919 28.3888
32.5385 28.3837
32.5848 28.1436
32.6314 28.1266
32.6778 28.1038
32.7244 28.0499
32.7708 27.8587
32.8174 27.8557
32.8638 27.5902
32.9104 27.6605
32.9569 27.6762
33.0035 27.4975
33.0499 27.5158
33.0966 27.4574
33.143 27.3188
33.1897 27.2958
33.2361 27.24
33.2828 27.2002
33.3293 27.1321
33.3759 27.1815
33.4226 26.9887
33.4691 26.8986
33.5158 26.8376
33.5623 26.7288
33.609 26.4155
33.6555 26.3417
33.7022 26.2883
33.7487 26.2228
33.7954 26.115
33.842 26.0268
33.8887 25.8913
33.9353 25.8657
33.982 25.8452
34.0286 25.7204
34.0753 25.6866
34.1219 25.6241
34.1687 25.4866
34.2152 25.4594
34.262 25.1881
34.3086 25.2028
34.3554 25.1252
34.402 25.0169
34.4488 25.02
34.4954 24.9482
34.5422 24.892
34.5889 24.7625
34.6357 24.6094
34.6825 24.6553
34.7292 24.484
34.776 24.3755
34.8227 24.3499
34.8695 24.3224
34.9162 24.2742
34.9631 24.1441
35.0098 24.2178
35.0566 23.9952
35.1033 24.0118
35.1502 23.9078
35.1969 23.9499
35.2438 23.9087
35.2906 23.718
35.3375 23.7166
35.3842 23.6243
35.4311 23.5897
35.4779 23.5532
35.5248 23.5657
35.5716 23.428
35.6185 23.3941
35.6653 23.3876
35.7123 23.2323
35.759 23.2792
35.806 23.0742
35.8528 22.8869
35.8998 22.9144
35.9468 22.7972
35.9936 22.7711
36.0406 22.6776
36.0874 22.7128
36.1345 22.5728
36.1813 22.4655
36.2283 22.4588
36.2752 22.3308
36.3222 22.4023
36.3691 22.3111
36.4161 22.167
36.463 22.1828
36.5101 22.1955
36.557 22.0284
36.6041 21.8629
36.651 21.8798
36.6981 21.872
36.745 21.7777
36.7921 21.7503
36.839 21.6665
36.8861 21.6395
36.9331 21.5817
36.9802 21.4366
37.0272 21.3405
37.0743 21.2026
37.1213 21.2219
37.1684 21.1735
37.2154 21.0316
37.2626 21.0209
37.3098 20.9267
37.3568 20.8518
37.404 20.7992
37.451 20.6814
37.4982 20.7419
37.5452 20.5537
37.5924 20.5796
37.6395 20.5871
37.6867 20.4921
37.7337 20.3801
37.781 20.2116
37.8281 20.2482
37.8753 20.1917
37.9224 20.0248
37.9697 20.0359
38.0168 19.9207
38.064 19.8138
38.1111 19.8794
38.1584 19.8006
38.2056 19.6847
38.2529 19.6413
38.3 19.5923
38.3473 19.552
38.3945 19.3874
38.4418 19.3739
38.489 19.3584
38.5363 19.2534
38.5837 19.2405
38.6309 19.148
38.6782 19.1045
38.7254 19.0211
38.7728 18.9793
38.82 18.8847
38.8674 18.9062
38.9146 18.8294
38.9621 18.747
39.0093 18.6684
39.0567 18.6154
39.104 18.5683
39.1514 18.4633
39.1987 18.4927
39.2461 18.4485
39.2934 18.3405
39.3409 18.2527
39.3882 18.1446
39.4356 18.1269
39.483 18.0438
39.5304 17.9781
39.5778 17.9578
39.6253 17.9638
39.6726 17.7994
39.7201 17.8691
39.7675 17.7487
39.815 17.646
39.8624 17.6076
39.9099 17.5841
39.9575 17.5498
40.0049 17.4988
40.0525 17.4413
40.0999 17.3929
40.1474 17.3419
40.1949 17.2579
40.2425 17.2336
40.2899 17.2094
40.3375 17.1327
40.385 17.0282
40.4326 17.0349
40.48 16.9438
40.5277 16.8962
40.5752 16.8425
40.6228 16.761
40.6703 16.6612
40.718 16.6927
40.7655 16.6594
40.8132 16.5629
40.8607 16.5282
40.9084 16.5192
40.9559 16.4018
41.0036 16.3195
41.0512 16.3367
41.0989 16.2575
41.1465 16.1854
41.1942 16.1675
41.242 16.1052
41.2896 16.0313
41.3373 15.9583
41.3849 15.9545
41.4327 15.9039
41.4803 15.8139
41.5281 15.7355
41.5758 15.7066
41.6236 15.6558
41.6712 15.6033
41.7191 15.5256
41.7667 15.4957
41.8146 15.482
41.8622 15.4026
41.9101 15.3234
41.9578 15.2958
42.0057 15.199
42.0534 15.1845
42.1013 15.1409
42.149 15.0746
42.1969 15.0321
42.2446 14.9656
42.2925 14.9289
42.3403 14.8859
42.3882 14.8026
42.436 14.7905
42.4839 14.7145
42.5319 14.738
42.5797 14.644
42.6277 14.6053
42.6755 14.4945
42.7235 14.5032
42.7713 14.4674
42.8193 14.3754
42.8671 14.3383
42.9152 14.3118
42.963 14.2452
43.0111 14.1833
43.0589 14.1597
43.107 14.1221
43.1549 14.0878
43.2029 14.0064
43.2508 13.9886
43.2989 13.9139
43.3468 13.8554
43.3949 13.8088
43.4429 13.7689
43.491 13.7081
43.5389 13.6327
43.5871 13.601
43.635 13.5548
43.6832 13.5412
43.7312 13.4784
43.7793 13.4327
43.8273 13.3867
43.8755 13.3174
43.9237 13.3094
43.9717 13.2864
44.0199 13.1888
44.068 13.1254
44.1162 13.0959
44.1642 13.0869
44.2125 13.0398
44.2606 12.9931
44.3088 12.9604
44.3569 12.8374
44.4052 12.829
44.4533 12.7301
44.5016 12.7235
44.5497 12.7176
44.598 12.68
44.6461 12.6805
44.6945 12.5844
44.7426 12.51
44.791 12.4932
44.8391 12.4625
44.8875 12.3729
44.9357 12.3791
44.984 12.3046
45.0322 12.2665
45.0806 12.2116
45.1288 12.1682
45.1773 12.1272
45.2257 12.1049
45.2739 12.0186
45.3224 12.0123
45.3706 11.9991
45.4191 11.8971
45.4673 11.8597
45.5158 11.8706
45.5641 11.7786
45.6126 11.7466
45.6609 11.6769
45.7094 11.6193
45.7577 11.6036
45.8063 11.5392
45.8546 11.5688
45.9031 11.4941
45.9515 11.4946
46.0001 11.4609
46.0484 11.4006
46.097 11.3294
46.1454 11.3222
46.194 11.2582
46.2424 11.1991
46.291 11.2019
46.3395 11.1971
46.3881 11.0703
46.4365 11.0833
46.4852 11.0439
46.5337 10.9988
46.5823 10.9655
46.631 10.8694
46.6795 10.8645
46.7282 10.8195
46.7767 10.8078
46.8254 10.7138
46.8739 10.7337
46.9226 10.6225
46.9712 10.613
47.0199 10.5656
47.0685 10.5388
47.1173 10.4999
47.1658 10.4286
47.2146 10.4269
47.2632 10.3579
47.312 10.3339
47.3606 10.2972
47.4095 10.2749
47.4581 10.2318
47.5069 10.1819
47.5556 10.1674
47.6044 10.1107
47.6531 10.0922
47.702 10.0314
47.7507 10.0194
47.7996 9.92398
47.8483 9.98297
47.8972 9.90438
47.9461 9.86505
47.9948 9.82539
48.0438 9.76908
48.0925 9.72994
48.1415 9.70868
48.1902 9.66617
48.2392 9.68261
48.288 9.60828
48.337 9.56648
48.3858 9.55982
48.4348 9.5243
48.4837 9.46756
48.5327 9.49012
48.5815 9.41732
48.6306 9.40027
48.6795 9.39325
48.7285 9.31984
48.7774 9.30074
48.8265 9.29181
48.8754 9.22606
48.9245 9.17106
48.9734 9.15895
49.0226 9.17074
49.0715 9.09393
49.1206 9.02819
49.1696 9.01568
49.2188 8.99838
49.2679 8.93544
49.3169 8.90867
49.3661 8.8604
49.4151 8.86141
49.4643 8.83716
49.5134 8.74371
49.5626 8.71805
49.6117 8.70192
49.6609 8.69484
49.71 8.62649
49.7592 8.58687
49.8083 8.55956
49.8576 8.55741
49.9067 8.4939
49.956 8.46212
50.0052 8.45717
50.0545 8.42731
50.1036 8.38023
50.153 8.35366
50.2022 8.30678
50.2515 8.3243
50.3007 8.24508
50.3501 8.21179
50.3993 8.22092
50.4487 8.18563
50.498 8.12282
50.5474 8.11522
50.5966 8.05945
50.6461 8.05831
50.6955 7.99889
50.7448 7.9802
50.7943 7.95523
50.8436 7.92866
50.8931 7.8753
50.9424 7.87423
50.9919 7.78705
51.0413 7.75715
51.0908 7.8002
51.1402 7.73339
51.1897 7.71357
51.2391 7.68521
51.2887 7.61497
51.3381 7.59692
51.3877 7.58578
51.4371 7.54705
51.4867 7.49098
51.5362 7.5138
51.5858 7.48113
51.6353 7.38716
51.6849 7.39909
51.7344 7.35944
51.7841 7.33195
51.8336 7.28743
51.8833 7.27692
51.9328 7.23478
51.9826 7.18539
52.0323 7.17097
52.0818 7.12855
52.1316 7.07439
52.1812 7.09048
52.231 7.07072
52.2806 6.99385
52.3304 6.99106
52.38 6.95969
52.4298 6.92324
52.4794 6.87293
52.5293 6.87348
52.5789 6.85572
52.6288 6.82237
52.6785 6.7651
52.7284 6.76559
52.7781 6.72424
52.828 6.70777
52.8777 6.66697
52.9276 6.66797
52.9774 6.62452
53.0273 6.63632
53.0771 6.58233
53.1271 6.55501
53.1769 6.51792
53.2269 6.47493
53.2767 6.45747
53.3267 6.42308
53.3765 6.4426
53.4266 6.36679
53.4766 6.31156
53.5265 6.29623
53.5765 6.30527
53.6264 6.25994
53.6765 6.24721
53.7264 6.20519
53.7765 6.18744
53.8265 6.13153
53.8766 6.13083
53.9266 6.12761
53.9767 6.07191
54.0267 6.03443
54.0769 5.99423
54.1269 5.92277
54.1771 5.91947
54.2271 5.94161
54.2773 5.87862
54.3274 5.83263
54.3776 5.81314
54.4277 5.75005
54.478 5.69859
54.528 5.67491
54.5783 5.60046
54.6285 5.57905
54.6788 5.54443
54.7289 5.48944
54.7792 5.47616
54.8296 5.42883
54.8798 5.37515
54.9301 5.3038
54.9803 5.28121
55.0307 5.28518
55.0809 5.2369
55.1314 5.19271
55.1816 5.11535
55.232 5.05109
55.2823 5.04095
55.3328 4.94815
55.383 4.89507
55.4335 4.88913
55.4838 4.8163
55.5344 4.76975
55.5847 4.81143
55.6352 4.75478
55.6856 4.74524
55.7361 4.72396