File: XRD/Ni3Fe_FD1002.xy
TT I
1.27165 7.31066
1.31627 6.71143
1.36089 6.53249
1.40551 5.56242
1.45013 6.48871
1.49476 5.79194
1.53938 6.19486
1.584 5.36529
1.62863 4.81795
1.67325 4.80434
1.71787 5.38893
1.7625 4.91917
1.80712 4.79439
1.85174 4.58519
1.89636 4.30388
1.94099 4.57222
1.98562 4.43234
2.03025 4.67992
2.07487 4.78979
2.11949 5.33172
2.16411 5.20616
2.20874 16.3491
2.25338 27.3297
2.298 6.39417
2.34263 5.83203
2.38725 5.96457
2.43188 6.84545
2.4765 7.38089
2.52115 7.2256
2.56577 8.83688
2.6104 8.24754
2.65503 8.10192
2.69965 8.60689
2.7443 8.85304
2.78893 8.94393
2.83356 8.74993
2.87818 9.37495
2.92281 8.97424
2.96744 9.22185
3.01209 10.5706
3.05672 11.6285
3.10135 12.3889
3.14599 13.0646
3.19062 14.9845
3.23527 15.3528
3.2799 15.4786
3.32454 16.8854
3.36917 17.7033
3.4138 18.7822
3.45844 19.6482
3.50309 21.2181
3.54773 22.1617
3.59237 24.134
3.637 108.05
3.68164 68.9316
3.7263 26.467
3.77094 26.2244
3.81558 27.0048
3.86022 27.7099
3.90486 28.538
3.9495 29.4569
3.99416 30.7779
4.0388 32.0335
4.08344 33.72
4.12809 34.8055
4.17273 36.7118
4.21738 43.2969
4.26204 296.982
4.30669 266.301
4.35133 49.7209
4.39598 44.4737
4.44063 55.6211
4.4853 69.9368
4.52995 49.7642
4.5746 50.3121
4.61925 52.0972
4.6639 54.0721
4.70855 56.464
4.75322 59.7951
4.79788 62.1087
4.84253 65.698
4.88719 69.5696
4.93184 72.9352
4.97652 78.4153
5.02118 83.7241
5.06583 90.4065
5.11049 100.526
5.15515 171.868
5.19981 267.496
5.24449 2165.58
5.28916 13316.7
5.33382 2778.34
5.37848 173.686
5.42315 122.852
5.46783 109.738
5.5125 103.029
5.55716 99.0542
5.60183 95.793
5.6465 94.6065
5.69117 91.6708
5.73586 89.5249
5.78053 88.6433
5.8252 87.8149
5.86988 88.5424
5.91455 90.1137
5.95924 94.3663
6.00392 160.68
6.0486 737.423
6.09328 4560.46
6.13795 3287.02
6.18263 211.647
6.22733 89.8234
6.27201 81.2592
6.3167 106.885
6.36138 81.6011
6.40606 67.9363
6.45075 66.553
6.49545 64.4896
6.54014 63.0331
6.58483 62.3712
6.62952 62.203
6.67421 99.9353
6.71892 164.651
6.76361 71.1633
6.8083 58.0581
6.853 56.572
6.89769 56.5199
6.94239 56.2366
6.98711 54.994
7.03181 54.8888
7.07651 54.6458
7.12121 54.6017
7.16591 54.6845
7.21063 55.0353
7.25533 72.7764
7.30004 209.06
7.34475 102.056
7.38945 56.7477
7.43416 54.1648
7.47889 53.6473
7.5236 54.1197
7.56831 54.6036
7.61303 56.8298
7.65774 57.2968
7.70247 55.5433
7.74719 55.2119
7.79191 55.7746
7.83663 55.9499
7.88135 57.0356
7.92607 57.6832
7.97081 58.4991
8.01553 59.8194
8.06026 60.8363
8.10498 62.6537
8.14971 73.8279
8.19446 72.376
8.23919 67.8555
8.28392 70.1123
8.32865 72.069
8.37339 75.9515
8.41812 83.0604
8.46288 114.974
8.50761 138.497
8.55235 307.156
8.59709 1076.66
8.64183 2372.76
8.68658 960.666
8.73134 162.293
8.77609 96.6598
8.82083 90.308
8.86558 87.6923
8.91033 88.2551
8.9551 91.2925
8.99985 83.7673
9.04461 81.798
9.08936 80.6489
9.13412 80.0205
9.17888 80.4277
9.22365 81.4247
9.26841 80.0826
9.31318 80.8973
9.35794 81.1122
9.4027 81.0336
9.44749 81.6938
9.49226 82.3779
9.53703 83.3302
9.5818 85.061
9.62657 89.8482
9.67134 98.6286
9.71614 92.5633
9.76091 91.5694
9.80569 93.6807
9.85047 97.1974
9.89525 125.532
9.94005 138.051
9.98484 150.063
10.0296 277.096
10.0744 712.772
10.1192 1755.47
10.164 1567.2
10.2088 371.692
10.2536 122.941
10.2984 111.808
10.3432 114.741
10.388 102.014
10.4328 108.466
10.4776 141.167
10.5224 260.841
10.5672 524.12
10.612 514.317
10.6568 195.568
10.7017 94.157
10.7465 84.4511
10.7913 81.2694
10.8361 79.3961
10.8809 77.3163
10.9257 76.9422
10.9706 78.3447
11.0154 73.5848
11.0602 71.2317
11.105 70.6357
11.1499 76.2358
11.1947 86.0819
11.2395 74.8304
11.2844 69.7822
11.3292 66.0128
11.374 64.9263
11.4189 64.6045
11.4637 63.6722
11.5086 64.4594
11.5534 68.3525
11.5983 65.1869
11.6431 62.4702
11.688 61.757
11.7328 61.947
11.7777 61.531
11.8225 61.2415
11.8674 61.1919
11.9122 61.3431
11.9571 61.4443
12.002 61.8399
12.0468 64.4483
12.0917 74.0581
12.1366 96.1157
12.1814 148.334
12.2263 204.534
12.2712 164.464
12.3161 95.2824
12.3609 70.5634
12.4058 63.4536
12.4507 63.1103
12.4956 63.2577
12.5405 63.4924
12.5853 64.5241
12.6302 73.8472
12.6751 80.8179
12.72 69.7363
12.7649 66.5271
12.8098 66.8344
12.8547 68.1853
12.8996 69.3502
12.9445 70.4464
12.9894 71.9528
13.0343 73.8534
13.0792 76.5501
13.1242 82.8239
13.1691 101.985
13.214 133.192
13.2589 219.923
13.3038 371.417
13.3487 435.857
13.3937 258.74
13.4386 121.703
13.4835 98.7799
13.5285 109.945
13.5734 143.972
13.6183 234.779
13.6633 355.403
13.7082 340.697
13.7531 181.198
13.7981 95.0445
13.843 80.0033
13.888 77.9068
13.9329 75.3064
13.9779 74.1837
14.0228 72.6148
14.0678 71.4627
14.1127 71.1193
14.1577 70.9923
14.2027 69.9731
14.2476 68.8923
14.2926 69.2141
14.3376 70.4585
14.3825 69.2165
14.4275 67.6144
14.4725 67.1236
14.5175 67.1086
14.5624 67.6707
14.6074 69.8963
14.6524 70.6341
14.6974 68.7978
14.7424 69.3521
14.7874 73.9389
14.8324 82.5824
14.8774 102.139
14.9224 145.443
14.9674 209.125
15.0124 218.902
15.0574 151.357
15.1024 90.2724
15.1474 70.9164
15.1924 69.2171
15.2374 70.3253
15.2824 69.5061
15.3274 66.8706
15.3725 65.4467
15.4175 65.1014
15.4625 64.4077
15.5076 64.8335
15.5526 64.8371
15.5976 64.3859
15.6426 64.5575
15.6877 68.2205
15.7327 74.4911
15.7778 87.7902
15.8228 117.855
15.8679 168.966
15.9129 198.012
15.958 156.187
16.003 94.6792
16.0481 67.3425
16.0931 64.1282
16.1382 62.1347
16.1833 59.5058
16.2283 57.813
16.2734 57.2576
16.3185 57.8137
16.3636 58.6586
16.4086 57.0871
16.4537 55.4249
16.4988 54.3771
16.5439 54.2162
16.589 53.9329
16.6341 53.8234
16.6792 53.506
16.7243 53.9985
16.7694 53.8217
16.8145 53.7277
16.8596 54.2438
16.9047 56.2212
16.9498 56.2497
16.9949 54.7087
17.04 54.5624
17.0851 55.4187
17.1302 56.6652
17.1754 59.4955
17.2205 64.4344
17.2656 72.7129
17.3108 82.0057
17.3559 80.3809
17.401 69.0356
17.4462 60.5603
17.4913 57.7091
17.5365 57.7095
17.5815 57.8911
17.6268 57.9795
17.6718 59.0983
17.7171 59.5315
17.7622 59.8656
17.8074 60.2258
17.8525 61.8461
17.8977 65.1233
17.9428 69.8858
17.9881 77.9282
18.0331 95.1873
18.0784 120.379
18.1237 139.821
18.1688 128.507
18.214 99.9915
18.2591 83.2483
18.3044 87.7599
18.3495 99.6531
18.3948 107.199
18.4399 94.9849
18.4852 76.1605
18.5303 64.6226
18.5756 61.0517
18.6207 60.0094
18.666 59.1001
18.7112 58.4686
18.7565 57.4936
18.8016 57.4422
18.8469 56.7511
18.892 56.6574
18.9374 56.1468
18.9825 55.7286
19.0278 55.6374
19.073 55.7825
19.1183 55.776
19.1635 56.7894
19.2088 57.7609
19.254 60.1306
19.2993 64.7065
19.3447 71.6272
19.3898 75.9619
19.4352 71.2523
19.4804 61.9535
19.5257 55.4674
19.5709 52.9881
19.6163 52.8117
19.6615 52.7669
19.7068 52.2561
19.752 52.1121
19.7974 52.3467
19.8426 52.9683
19.888 53.6802
19.9332 54.6999
19.9786 57.0532
20.0238 60.4151
20.0692 65.8968
20.1144 68.9871
20.1598 66.7499
20.205 61.8502
20.2504 60.4838
20.2957 63.0998
20.3411 65.0514
20.3863 63.2181
20.4318 57.3418
20.477 52.6585
20.5224 50.757
20.5677 50.0214
20.6131 49.3804
20.6586 48.6902
20.7038 48.5504
20.7493 48.2899
20.7945 47.9841
20.84 47.8448
20.8853 47.6676
20.9307 47.5949
20.976 47.6982
21.0215 47.3693
21.0668 47.9795
21.1122 48.3904
21.1575 48.8946
21.203 49.7373
21.2483 50.5171
21.2938 50.4954
21.3391 48.8374
21.3846 47.7662
21.4299 47.5076
21.4754 47.4584
21.5207 47.4911
21.5662 47.612
21.6116 47.7981
21.6571 48.5461
21.7024 49.2085
21.7479 50.9321
21.7933 53.6013
21.8388 57.4049
21.8843 61.796
21.9297 63.5621
21.9752 61.9806
22.0206 58.0116
22.0661 55.3196
22.1115 55.2788
22.157 54.9989
22.2024 53.1087
22.248 50.3921
22.2933 48.8679
22.3389 48.2969
22.3843 47.9131
22.4299 47.9317
22.4753 47.9659
22.5208 47.6475
22.5662 47.5261
22.6118 47.4961
22.6572 47.7204
22.7028 48.0261
22.7483 48.2476
22.7939 49.1113
22.8393 50.4612
22.8849 52.8039
22.9303 55.2108
22.9759 57.0363
23.0214 56.5666
23.067 53.4806
23.1126 50.1334
23.1581 48.0745
23.2037 47.8385
23.2492 47.7844
23.2948 47.6189
23.3403 47.8863
23.3859 48.3296
23.4314 49.3277
23.477 51.0561
23.5225 53.6929
23.5682 56.2828
23.6137 57.2661
23.6593 54.7869
23.7048 50.7201
23.7505 47.452
23.796 45.7352
23.8417 45.2505
23.8872 44.6361
23.9329 44.3696
23.9784 44.0801
24.0241 43.7684
24.0697 43.6951
24.1154 43.2766
24.1609 43.1235
24.2066 42.9344
24.2522 42.9535
24.2979 42.6
24.3434 42.4197
24.3892 42.2151
24.4349 42.288
24.4805 42.071
24.5262 42.2816
24.5718 42.045
24.6175 42.0723
24.6631 42.1092
24.7089 41.6912
24.7545 41.4626
24.8002 41.3907
24.8458 41.4498
24.8916 41.0042
24.9372 41.3923
24.983 41.5099
25.0286 41.952
25.0744 42.3003
25.12 42.7675
25.1658 43.4138
25.2114 43.6872
25.2572 43.7564
25.3029 44.0898
25.3487 44.1383
25.3943 43.833
25.4402 42.8045
25.4858 41.6931
25.5316 40.6426
25.5773 40.1957
25.6231 40.1061
25.669 39.6964
25.7147 39.5863
25.7605 39.5334
25.8062 39.6913
25.8521 39.683
25.8977 39.7212
25.9436 39.9532
25.9893 40.1293
26.0352 40.7436
26.0809 40.7282
26.1268 40.9163
26.1725 40.5627
26.2184 39.9261
26.2641 39.367
26.31 39.3416
26.3557 39.2088
26.4017 39.2572
26.4474 39.5111
26.4933 39.8089
26.5391 40.4559
26.585 41.0532
26.6308 41.1584
26.6767 41.3203
26.7225 41.2751
26.7684 40.6151
26.8142 40.1127
26.8601 39.6411
26.9059 39.2277
26.9519 38.6515
26.9979 38.4619
27.0437 38.0627
27.0896 37.9693
27.1354 37.8913
27.1814 37.7777
27.2272 37.7827
27.2732 37.8341
27.3191 37.5116
27.3651 37.6723
27.4109 37.6069
27.4569 37.6615
27.5027 37.7771
27.5488 37.8277
27.5946 37.6659
27.6407 37.3132
27.6865 37.2889
27.7326 37.003
27.7784 37.1026
27.8245 37.1335
27.8703 37.3059
27.9164 37.4089
27.9623 37.6547
28.0084 37.8338
28.0543 38.4029
28.1003 38.2845
28.1462 38.1016
28.1923 37.7379
28.2384 37.1107
28.2843 36.8733
28.3304 36.3841
28.3764 36.0243
28.4225 35.8079
28.4684 35.5159
28.5145 35.3524
28.5605 35.219
28.6066 35.0607
28.6526 34.9654
28.6987 35.0076
28.7447 34.8733
28.7908 34.704
28.8368 34.7364
28.8829 34.739
28.9289 34.7585
28.9751 34.4254
29.0211 34.2976
29.0673 34.0151
29.1133 34.0087
29.1595 33.7056
29.2055 33.6675
29.2517 33.6751
29.2977 33.6688
29.3439 33.6282
29.3899 33.7271
29.4361 33.544
29.4824 33.301
29.5284 33.1528
29.5746 32.7454
29.6207 32.533
29.6669 32.5862
29.713 32.2741
29.7593 32.2406
29.8053 32.1652
29.8516 32.1881
29.8977 32.1468
29.9439 31.8803
29.99 31.9693
30.0363 31.8049
30.0824 31.8709
30.1287 31.8406
30.1748 31.8718
30.2211 31.8522
30.2673 31.7172
30.3136 31.7994
30.3597 31.5435
30.406 31.63
30.4522 31.4246
30.4985 31.4143
30.5447 31.523
30.591 31.4501
30.6372 31.4829
30.6835 31.5034
30.7297 31.6101
30.7761 31.5511
30.8224 31.4352
30.8686 31.1965
30.915 30.9659
30.9612 30.8358
31.0076 30.7057
31.0538 30.5179
31.1002 30.5558
31.1464 30.3824
31.1928 30.3174
31.2391 30.419
31.2855 30.3087
31.3317 30.3181
31.3781 30.2906
31.4244 30.3206
31.4708 30.2919
31.5171 30.2113
31.5636 30.1284
31.6098 29.8163
31.6563 29.8092
31.7026 29.6535
31.7491 29.5071
31.7953 29.5932
31.8418 29.5343
31.8881 29.626
31.9346 29.5597
31.9809 29.5001
32.0275 29.3304
32.074 29.1974
32.1203 29.1323
32.1668 29.0191
32.2132 28.7824
32.2597 28.6337
32.306 28.6204
32.3526 28.3509
32.399 28.3432
32.4455 28.2305
32.4919 28.0956
32.5385 28.1143
32.5848 27.8465
32.6314 27.9687
32.6778 27.8134
32.7244 27.8033
32.7708 27.6487
32.8174 27.6458
32.8638 27.5391
32.9104 27.4789
32.9569 27.4642
33.0035 27.298
33.0499 27.2898
33.0966 27.2658
33.143 27.3223
33.1897 27.1412
33.2361 27.0012
33.2828 27.0328
33.3293 26.967
33.3759 26.8945
33.4226 26.6796
33.4691 26.6933
33.5158 26.51
33.5623 26.418
33.609 26.3006
33.6555 26.1562
33.7022 26.1545
33.7487 26.0094
33.7954 26.0141
33.842 25.878
33.8887 25.8585
33.9353 25.763
33.982 25.5811
34.0286 25.5372
34.0753 25.4746
34.1219 25.4197
34.1687 25.3674
34.2152 25.3962
34.262 25.1661
34.3086 25.1353
34.3554 25.034
34.402 24.9509
34.4488 24.8075
34.4954 24.8305
34.5422 24.7633
34.5889 24.6284
34.6357 24.5803
34.6825 24.5398
34.7292 24.4785
34.776 24.3043
34.8227 24.2167
34.8695 24.1434
34.9162 24.1515
34.9631 24.0128
35.0098 24.0869
35.0566 23.909
35.1033 23.8396
35.1502 23.8401
35.1969 23.7163
35.2438 23.8067
35.2906 23.6986
35.3375 23.5644
35.3842 23.5403
35.4311 23.5227
35.4779 23.4754
35.5248 23.465
35.5716 23.3146
35.6185 23.2722
35.6653 23.1293
35.7123 23.1643
35.759 23.0552
35.806 22.9224
35.8528 22.8086
35.8998 22.7609
35.9468 22.7043
35.9936 22.6611
36.0406 22.5713
36.0874 22.5346
36.1345 22.4408
36.1813 22.4433
36.2283 22.279
36.2752 22.1889
36.3222 22.2296
36.3691 22.1632
36.4161 22.0275
36.463 22.0889
36.5101 21.9638
36.557 21.9608
36.6041 21.7983
36.651 21.8541
36.6981 21.7019
36.745 21.6562
36.7921 21.5441
36.839 21.435
36.8861 21.3986
36.9331 21.3418
36.9802 21.2378
37.0272 21.1997
37.0743 21.1943
37.1213 21.0179
37.1684 21.0645
37.2154 20.9032
37.2626 20.8994
37.3098 20.8245
37.3568 20.7564
37.404 20.7117
37.451 20.6184
37.4982 20.5569
37.5452 20.4765
37.5924 20.4574
37.6395 20.4463
37.6867 20.3719
37.7337 20.1931
37.781 20.1919
37.8281 20.1134
37.8753 20.0236
37.9224 19.9745
37.9697 19.9494
38.0168 19.839
38.064 19.7847
38.1111 19.7004
38.1584 19.6197
38.2056 19.6194
38.2529 19.5842
38.3 19.4803
38.3473 19.4732
38.3945 19.3859
38.4418 19.3108
38.489 19.1897
38.5363 19.199
38.5837 19.1419
38.6309 19.0223
38.6782 18.9005
38.7254 18.9166
38.7728 18.8787
38.82 18.8188
38.8674 18.7363
38.9146 18.6475
38.9621 18.5907
39.0093 18.6033
39.0567 18.4691
39.104 18.482
39.1514 18.3217
39.1987 18.2987
39.2461 18.2966
39.2934 18.2405
39.3409 18.14
39.3882 18.0599
39.4356 18.0345
39.483 17.9752
39.5304 17.8925
39.5778 17.8857
39.6253 17.8441
39.6726 17.7756
39.7201 17.7029
39.7675 17.6491
39.815 17.6311
39.8624 17.5099
39.9099 17.459
39.9575 17.3531
40.0049 17.3277
40.0525 17.2706
40.0999 17.2701
40.1474 17.1929
40.1949 17.1666
40.2425 17.1246
40.2899 17.0188
40.3375 17.0506
40.385 16.9678
40.4326 16.8523
40.48 16.8167
40.5277 16.7884
40.5752 16.7329
40.6228 16.6212
40.6703 16.6259
40.718 16.5923
40.7655 16.5144
40.8132 16.48
40.8607 16.4311
40.9084 16.3847
40.9559 16.2902
41.0036 16.3266
41.0512 16.181
41.0989 16.1784
41.1465 16.1118
41.1942 16.0855
41.242 15.9455
41.2896 15.905
41.3373 15.8242
41.3849 15.8381
41.4327 15.7561
41.4803 15.6897
41.5281 15.7023
41.5758 15.5969
41.6236 15.5953
41.6712 15.5174
41.7191 15.4453
41.7667 15.3965
41.8146 15.388
41.8622 15.2639
41.9101 15.2709
41.9578 15.2125
42.0057 15.1143
42.0534 15.1218
42.1013 15.0746
42.149 15.029
42.1969 14.9547
42.2446 14.9016
42.2925 14.8758
42.3403 14.8069
42.3882 14.7944
42.436 14.7178
42.4839 14.6536
42.5319 14.6332
42.5797 14.5546
42.6277 14.5029
42.6755 14.4869
42.7235 14.3708
42.7713 14.3839
42.8193 14.3121
42.8671 14.2133
42.9152 14.2411
42.963 14.1428
43.0111 14.1174
43.0589 14.0426
43.107 14.047
43.1549 13.9828
43.2029 13.8937
43.2508 13.9496
43.2989 13.845
43.3468 13.776
43.3949 13.77
43.4429 13.7242
43.491 13.6497
43.5389 13.6135
43.5871 13.5569
43.635 13.5124
43.6832 13.4912
43.7312 13.3537
43.7793 13.3546
43.8273 13.3559
43.8755 13.2299
43.9237 13.2606
43.9717 13.172
44.0199 13.1343
44.068 13.098
44.1162 13.0616
44.1642 12.993
44.2125 12.9841
44.2606 12.9139
44.3088 12.8636
44.3569 12.8247
44.4052 12.7888
44.4533 12.7172
44.5016 12.6476
44.5497 12.6427
44.598 12.6005
44.6461 12.5708
44.6945 12.4967
44.7426 12.4782
44.791 12.3806
44.8391 12.3908
44.8875 12.3493
44.9357 12.3258
44.984 12.2444
45.0322 12.2181
45.0806 12.1299
45.1288 12.1274
45.1773 12.0996
45.2257 12.0184
45.2739 11.99
45.3224 11.9813
45.3706 11.9196
45.4191 11.8788
45.4673 11.839
45.5158 11.7739
45.5641 11.6898
45.6126 11.6971
45.6609 11.6341
45.7094 11.5993
45.7577 11.5797
45.8063 11.4832
45.8546 11.4897
45.9031 11.4104
45.9515 11.3937
46.0001 11.3743
46.0484 11.3645
46.097 11.2995
46.1454 11.2281
46.194 11.2671
46.2424 11.1288
46.291 11.091
46.3395 11.128
46.3881 11.0115
46.4365 11.0869
46.4852 10.9815
46.5337 10.8771
46.5823 10.8739
46.631 10.8554
46.6795 10.7982
46.7282 10.7918
46.7767 10.738
46.8254 10.6889
46.8739 10.5926
46.9226 10.5982
46.9712 10.5719
47.0199 10.5443
47.0685 10.4628
47.1173 10.4473
47.1658 10.4349
47.2146 10.3631
47.2632 10.3125
47.312 10.2699
47.3606 10.2608
47.4095 10.2547
47.4581 10.2204
47.5069 10.138
47.5556 10.1021
47.6044 10.0825
47.6531 9.99834
47.702 9.97496
47.7507 9.95614
47.7996 9.94211
47.8483 9.86449
47.8972 9.84152
47.9461 9.82999
47.9948 9.75715
48.0438 9.76271
48.0925 9.7494
48.1415 9.66135
48.1902 9.61199
48.2392 9.64329
48.288 9.59049
48.337 9.55928
48.3858 9.48492
48.4348 9.4975
48.4837 9.46423
48.5327 9.42784
48.5815 9.37481
48.6306 9.32742
48.6795 9.29306
48.7285 9.25682
48.7774 9.22442
48.8265 9.20162
48.8754 9.14691
48.9245 9.1348
48.9734 9.08373
49.0226 9.04274
49.0715 9.00403
49.1206 8.93742
49.1696 8.95563
49.2188 8.92864
49.2679 8.86878
49.3169 8.84818
49.3661 8.8481
49.4151 8.76934
49.4643 8.74296
49.5134 8.70389
49.5626 8.671
49.6117 8.63383
49.6609 8.639
49.71 8.58646
49.7592 8.5379
49.8083 8.48606
49.8576 8.49642
49.9067 8.44467
49.956 8.42781
50.0052 8.37169
50.0545 8.36254
50.1036 8.3096
50.153 8.30926
50.2022 8.26474
50.2515 8.23323
50.3007 8.20178
50.3501 8.16048
50.3993 8.16081
50.4487 8.12158
50.498 8.10892
50.5474 8.03932
50.5966 8.03295
50.6461 7.97454
50.6955 7.91637
50.7448 7.95741
50.7943 7.89248
50.8436 7.84675
50.8931 7.77299
50.9424 7.79956
50.9919 7.73914
51.0413 7.71177
51.0908 7.7193
51.1402 7.67103
51.1897 7.64055
51.2391 7.6319
51.2887 7.55684
51.3381 7.55086
51.3877 7.50524
51.4371 7.46893
51.4867 7.46059
51.5362 7.44537
51.5858 7.39107
51.6353 7.36752
51.6849 7.32668
51.7344 7.29568
51.7841 7.28809
51.8336 7.2397
51.8833 7.24272
51.9328 7.18896
51.9826 7.13672
52.0323 7.11819
52.0818 7.11485
52.1316 7.09054
52.1812 7.05687
52.231 7.00893
52.2806 6.94534
52.3304 6.95031
52.38 6.92299
52.4298 6.92487
52.4794 6.84047
52.5293 6.88462
52.5789 6.83228
52.6288 6.79307
52.6785 6.76933
52.7284 6.71277
52.7781 6.68451
52.828 6.64826
52.8777 6.61909
52.9276 6.61758
52.9774 6.62888
53.0273 6.57158
53.0771 6.5129
53.1271 6.52937
53.1769 6.48132
53.2269 6.47403
53.2767 6.40029
53.3267 6.4018
53.3765 6.4133
53.4266 6.35604
53.4766 6.32551
53.5265 6.25439
53.5765 6.25319
53.6264 6.24179
53.6765 6.22108
53.7264 6.1832
53.7765 6.15196
53.8265 6.08942
53.8766 6.10309
53.9266 6.08846
53.9767 6.03523
54.0267 5.99141
54.0769 5.97725
54.1269 5.97065
54.1771 5.91133
54.2271 5.89842
54.2773 5.8566
54.3274 5.86164
54.3776 5.79353
54.4277 5.77734
54.478 5.72737
54.528 5.70393
54.5783 5.69497
54.6285 5.59974
54.6788 5.5607
54.7289 5.49962
54.7792 5.5022
54.8296 5.42875
54.8798 5.41468
54.9301 5.38495
54.9803 5.34597
55.0307 5.30671
55.0809 5.29687
55.1314 5.275
55.1816 5.19521
55.232 5.12773
55.2823 5.12348
55.3328 5.08605
55.383 5.01064
55.4335 4.96124
55.4838 4.92548
55.5344 4.88418
55.5847 4.81219
55.6352 4.82283
55.6856 4.81701
55.7361 4.72352