File: XRD/Ni3Fe_FD0836.xy
TT I
1.27165 7.079
1.31627 6.76464
1.36089 6.5288
1.40551 6.77009
1.45013 6.19654
1.49476 6.34599
1.53938 5.77293
1.584 5.67177
1.62863 5.3929
1.67325 4.7301
1.71787 5.49699
1.7625 4.60931
1.80712 4.40026
1.85174 4.9848
1.89636 4.94253
1.94099 4.58673
1.98562 4.87432
2.03025 4.66951
2.07487 4.19711
2.11949 5.07997
2.16411 4.79524
2.20874 10.6272
2.25338 15.9254
2.298 6.1351
2.34263 4.88574
2.38725 5.93747
2.43188 6.35386
2.4765 7.37603
2.52115 6.79289
2.56577 7.30034
2.6104 8.28056
2.65503 9.19891
2.69965 8.19023
2.7443 8.3475
2.78893 8.89116
2.83356 8.70447
2.87818 9.05288
2.92281 9.3254
2.96744 9.94864
3.01209 10.5049
3.05672 11.3352
3.10135 12.448
3.14599 13.1296
3.19062 13.7861
3.23527 15.6848
3.2799 15.6085
3.32454 16.7028
3.36917 17.3963
3.4138 18.6698
3.45844 19.3218
3.50309 20.9218
3.54773 21.6503
3.59237 23.8225
3.637 65.3299
3.68164 44.9966
3.7263 25.5546
3.77094 26.0631
3.81558 26.7477
3.86022 27.3353
3.90486 28.5546
3.9495 29.4912
3.99416 30.6089
4.0388 32.4747
4.08344 33.0483
4.12809 34.6998
4.17273 36.7727
4.21738 41.2978
4.26204 170.882
4.30669 146.575
4.35133 45.9708
4.39598 43.7475
4.44063 50.7401
4.4853 58.0497
4.52995 52.338
4.5746 53.7803
4.61925 53.3512
4.6639 54.938
4.70855 58.1321
4.75322 60.8719
4.79788 65.6708
4.84253 67.2343
4.88719 72.8327
4.93184 75.1359
4.97652 80.2511
5.02118 86.2477
5.06583 93.694
5.11049 104.118
5.15515 157.719
5.19981 333.26
5.24449 2732.26
5.28916 12293.7
5.33382 2714.81
5.37848 184.836
5.42315 127.051
5.46783 114.31
5.5125 107.758
5.55716 100.972
5.60183 97.2515
5.6465 95.4996
5.69117 93.553
5.73586 91.5583
5.78053 93.5129
5.8252 93.2552
5.86988 94.4945
5.91455 93.2434
5.95924 100.151
6.00392 203.359
6.0486 926.179
6.09328 4362.62
6.13795 3080.88
6.18263 224.55
6.22733 89.7746
6.27201 80.5997
6.3167 90.0726
6.36138 75.8085
6.40606 68.4536
6.45075 67.7862
6.49545 64.6656
6.54014 63.2826
6.58483 62.2167
6.62952 62.1838
6.67421 81.379
6.71892 108.28
6.76361 64.1545
6.8083 58.3527
6.853 57.8492
6.89769 55.8898
6.94239 55.7461
6.98711 55.1103
7.03181 55.1745
7.07651 54.6369
7.12121 54.7386
7.16591 55.4526
7.21063 54.9614
7.25533 65.4806
7.30004 127.987
7.34475 75.4661
7.38945 55.0058
7.43416 53.5544
7.47889 53.6637
7.5236 53.8679
7.56831 54.6523
7.61303 55.7575
7.65774 55.9343
7.70247 55.9874
7.74719 55.572
7.79191 56.2742
7.83663 56.2565
7.88135 57.1192
7.92607 57.9562
7.97081 58.968
8.01553 60.1148
8.06026 61.7285
8.10498 63.2632
8.14971 70.8613
8.19446 70.6411
8.23919 68.798
8.28392 70.9264
8.32865 73.3041
8.37339 77.6368
8.41812 83.5166
8.46288 103.955
8.50761 159.145
8.55235 372.817
8.59709 1187.89
8.64183 2161.21
8.68658 932.963
8.73134 161.426
8.77609 97.7563
8.82083 91.3085
8.86558 90.0822
8.91033 89.7565
8.9551 89.2058
8.99985 84.6346
9.04461 83.2118
9.08936 82.8496
9.13412 81.657
9.17888 81.4924
9.22365 81.756
9.26841 81.63
9.31318 82.7024
9.35794 83.6733
9.4027 83.6407
9.44749 83.7872
9.49226 83.9509
9.53703 84.8888
9.5818 87.5213
9.62657 91.8786
9.67134 95.1306
9.71614 92.0896
9.76091 93.3158
9.80569 96.8752
9.85047 99.3709
9.89525 115.24
9.94005 125.514
9.98484 172.797
10.0296 332.583
10.0744 823.289
10.1192 1738.52
10.164 1533.13
10.2088 402.697
10.2536 124.616
10.2984 110.347
10.3432 109.35
10.388 103.062
10.4328 117.073
10.4776 158.662
10.5224 290.554
10.5672 523.039
10.612 489.112
10.6568 197.526
10.7017 95.4695
10.7465 85.3225
10.7913 82.2872
10.8361 80.2467
10.8809 78.5021
10.9257 77.0841
10.9706 77.6119
11.0154 74.3941
11.0602 72.0334
11.105 71.1768
11.1499 73.4564
11.1947 76.9167
11.2395 71.1331
11.2844 68.7041
11.3292 66.5495
11.374 65.6778
11.4189 64.9216
11.4637 64.1652
11.5086 64.312
11.5534 65.7717
11.5983 64.1278
11.6431 62.9392
11.688 62.2551
11.7328 62.3165
11.7777 62.1181
11.8225 61.8735
11.8674 62.0584
11.9122 62.1225
11.9571 62.241
12.002 62.8142
12.0468 67.0521
12.0917 77.3339
12.1366 102.354
12.1814 157.066
12.2263 208.108
12.2712 170.049
12.3161 92.8053
12.3609 67.7975
12.4058 63.6642
12.4507 63.6264
12.4956 63.7437
12.5405 64.3617
12.5853 64.5744
12.6302 69.6173
12.6751 72.7228
12.72 68.0797
12.7649 67.1265
12.8098 67.4915
12.8547 68.9978
12.8996 70.4411
12.9445 71.6618
12.9894 73.6056
13.0343 75.0683
13.0792 78.2949
13.1242 87.507
13.1691 108.976
13.214 147.218
13.2589 244.659
13.3038 381.021
13.3487 411.793
13.3937 254.088
13.4386 122.671
13.4835 104.101
13.5285 118.13
13.5734 158.339
13.6183 251.584
13.6633 354.812
13.7082 331.117
13.7531 181.358
13.7981 96.3569
13.843 80.9067
13.888 78.9154
13.9329 76.1705
13.9779 75.015
14.0228 73.5201
14.0678 72.3003
14.1127 71.6407
14.1577 71.3526
14.2027 70.4869
14.2476 69.555
14.2926 69.5638
14.3376 70.1975
14.3825 69.1348
14.4275 67.995
14.4725 67.9857
14.5175 68.1225
14.5624 68.0978
14.6074 69.5381
14.6524 70.0198
14.6974 69.6172
14.7424 71.364
14.7874 77.7672
14.8324 87.762
14.8774 110.801
14.9224 157.589
14.9674 211.588
15.0124 213.573
15.0574 145.23
15.1024 89.7181
15.1474 71.6118
15.1924 69.7251
15.2374 69.3619
15.2824 68.5474
15.3274 66.9678
15.3725 66.0807
15.4175 65.7572
15.4625 65.2009
15.5076 65.1303
15.5526 65.3934
15.5976 64.9347
15.6426 66.2837
15.6877 71.5285
15.7327 78.8468
15.7778 94.801
15.8228 128.448
15.8679 172.907
15.9129 190.362
15.958 150.859
16.003 93.9653
16.0481 66.9628
16.0931 63.2977
16.1382 61.1866
16.1833 59.556
16.2283 58.0557
16.2734 57.6991
16.3185 57.5833
16.3636 57.5872
16.4086 56.4832
16.4537 55.4323
16.4988 54.7708
16.5439 54.9549
16.589 54.3978
16.6341 54.165
16.6792 53.8691
16.7243 54.3139
16.7694 54.297
16.8145 54.1443
16.8596 54.4803
16.9047 55.5514
16.9498 55.5611
16.9949 54.7087
17.04 55.1544
17.0851 56.2066
17.1302 58.25
17.1754 60.9868
17.2205 66.5964
17.2656 74.5254
17.3108 82.0905
17.3559 80.9506
17.401 69.7045
17.4462 61.1879
17.4913 58.6317
17.5365 58.3729
17.5815 58.4154
17.6268 58.984
17.6718 59.5847
17.7171 60.2035
17.7622 60.5179
17.8074 61.1684
17.8525 63.6575
17.8977 67.4105
17.9428 72.7175
17.9881 82.221
18.0331 100.727
18.0784 122.805
18.1237 137.607
18.1688 127.431
18.214 102.288
18.2591 86.1224
18.3044 91.3193
18.3495 100.185
18.3948 103.627
18.4399 93.2722
18.4852 75.9886
18.5303 65.3481
18.5756 61.4956
18.6207 60.5324
18.666 59.7751
18.7112 59.0764
18.7565 58.4294
18.8016 58.1036
18.8469 57.6279
18.892 57.1063
18.9374 56.6773
18.9825 56.2901
19.0278 56.1986
19.073 56.3332
19.1183 56.8756
19.1635 57.2143
19.2088 58.5586
19.254 61.4541
19.2993 66.1939
19.3447 71.9641
19.3898 74.9124
19.4352 70.0687
19.4804 61.9265
19.5257 55.838
19.5709 53.6703
19.6163 53.3435
19.6615 53.1186
19.7068 52.8884
19.752 52.6836
19.7974 53.1155
19.8426 53.6745
19.888 54.3694
19.9332 55.7335
19.9786 58.647
20.0238 62.5742
20.0692 67.0969
20.1144 69.1957
20.1598 67.4445
20.205 62.8966
20.2504 62.1655
20.2957 63.725
20.3411 64.8805
20.3863 63.0196
20.4318 57.5743
20.477 53.1063
20.5224 50.8171
20.5677 50.3591
20.6131 49.7349
20.6586 48.9753
20.7038 48.9532
20.7493 48.6108
20.7945 48.548
20.84 48.3478
20.8853 48.2163
20.9307 48.148
20.976 48.2071
21.0215 47.9495
21.0668 48.5535
21.1122 49.0219
21.1575 49.7887
21.203 50.46
21.2483 50.8991
21.2938 50.8609
21.3391 49.5056
21.3846 48.574
21.4299 47.9006
21.4754 47.9273
21.5207 48.0613
21.5662 48.4163
21.6116 48.6818
21.6571 49.4279
21.7024 50.25
21.7479 52.2017
21.7933 55.1573
21.8388 58.8684
21.8843 62.1575
21.9297 63.5458
21.9752 62.1228
22.0206 58.6339
22.0661 56.0893
22.1115 55.4995
22.157 54.9768
22.2024 53.3591
22.248 50.7655
22.2933 49.3212
22.3389 48.6489
22.3843 48.4242
22.4299 48.3123
22.4753 48.1326
22.5208 48.041
22.5662 48.0158
22.6118 48.1927
22.6572 48.3377
22.7028 48.6666
22.7483 49.1672
22.7939 49.984
22.8393 51.6294
22.8849 53.9634
22.9303 55.8216
22.9759 57.0209
23.0214 56.3482
23.067 53.8309
23.1126 50.5995
23.1581 48.6072
23.2037 48.2655
23.2492 48.3068
23.2948 48.2748
23.3403 48.6224
23.3859 49.1228
23.4314 50.3889
23.477 52.3452
23.5225 54.5443
23.5682 56.4497
23.6137 57.0032
23.6593 54.8419
23.7048 50.8648
23.7505 47.8496
23.796 46.1313
23.8417 45.4534
23.8872 45.0333
23.9329 44.797
23.9784 44.4014
24.0241 44.0708
24.0697 43.8647
24.1154 43.5527
24.1609 43.4876
24.2066 43.3337
24.2522 43.2448
24.2979 42.9516
24.3434 42.774
24.3892 42.7631
24.4349 42.61
24.4805 42.6149
24.5262 42.6642
24.5718 42.325
24.6175 42.3611
24.6631 42.3463
24.7089 42.032
24.7545 41.9833
24.8002 41.7975
24.8458 41.8287
24.8916 41.6139
24.9372 41.7791
24.983 41.9759
25.0286 42.4902
25.0744 42.8947
25.12 43.2924
25.1658 43.8803
25.2114 44.2275
25.2572 44.2822
25.3029 44.3484
25.3487 44.4544
25.3943 44.1597
25.4402 43.0089
25.4858 41.9531
25.5316 40.9885
25.5773 40.4943
25.6231 40.4706
25.669 39.9863
25.7147 40.186
25.7605 39.9007
25.8062 40.0904
25.8521 40.1276
25.8977 40.252
25.9436 40.54
25.9893 40.6677
26.0352 41.127
26.0809 41.1989
26.1268 41.2015
26.1725 40.9321
26.2184 40.3262
26.2641 39.8717
26.31 39.6406
26.3557 39.7066
26.4017 39.6803
26.4474 39.8702
26.4933 40.4419
26.5391 40.8623
26.585 41.4168
26.6308 41.7161
26.6767 41.6263
26.7225 41.5574
26.7684 40.9565
26.8142 40.4155
26.8601 40.0896
26.9059 39.6058
26.9519 39.0796
26.9979 38.8003
27.0437 38.5153
27.0896 38.1869
27.1354 38.3392
27.1814 38.179
27.2272 38.1741
27.2732 38.1076
27.3191 37.8942
27.3651 38.1027
27.4109 37.9853
27.4569 38.0681
27.5027 38.1974
27.5488 38.2134
27.5946 37.9314
27.6407 37.8272
27.6865 37.714
27.7326 37.3825
27.7784 37.4809
27.8245 37.3607
27.8703 37.715
27.9164 37.8447
27.9623 38.1082
28.0084 38.3119
28.0543 38.741
28.1003 38.5943
28.1462 38.4118
28.1923 38.107
28.2384 37.5567
28.2843 37.2039
28.3304 36.7293
28.3764 36.2828
28.4225 36.0654
28.4684 35.9112
28.5145 35.4837
28.5605 35.4266
28.6066 35.3837
28.6526 35.2636
28.6987 35.2919
28.7447 35.0769
28.7908 34.9864
28.8368 35.0857
28.8829 35.1401
28.9289 35.0674
28.9751 34.7721
29.0211 34.5918
29.0673 34.3032
29.1133 34.2943
29.1595 34.0912
29.2055 33.8605
29.2517 33.9721
29.2977 33.9103
29.3439 33.8387
29.3899 33.9459
29.4361 33.6919
29.4824 33.5327
29.5284 33.366
29.5746 33.1308
29.6207 32.7839
29.6669 32.713
29.713 32.6498
29.7593 32.5788
29.8053 32.4913
29.8516 32.4164
29.8977 32.4444
29.9439 32.2915
29.99 32.2307
30.0363 32.1289
30.0824 32.1763
30.1287 32.065
30.1748 32.0725
30.2211 32.1179
30.2673 31.8881
30.3136 31.9738
30.3597 32.0133
30.406 31.8043
30.4522 31.701
30.4985 31.6972
30.5447 31.7914
30.591 31.8263
30.6372 32.0095
30.6835 31.8736
30.7297 31.8285
30.7761 31.7755
30.8224 31.6805
30.8686 31.5033
30.915 31.3424
30.9612 31.1726
31.0076 30.9318
31.0538 30.8976
31.1002 30.8253
31.1464 30.5526
31.1928 30.6561
31.2391 30.5562
31.2855 30.492
31.3317 30.4219
31.3781 30.559
31.4244 30.5334
31.4708 30.5328
31.5171 30.5131
31.5636 30.385
31.6098 30.1929
31.6563 30.0538
31.7026 29.885
31.7491 29.8302
31.7953 29.8428
31.8418 29.8319
31.8881 29.8581
31.9346 29.7777
31.9809 29.7574
32.0275 29.6591
32.074 29.5427
32.1203 29.3842
32.1668 29.2961
32.2132 29.0953
32.2597 28.9729
32.306 28.8581
32.3526 28.6307
32.399 28.6159
32.4455 28.5011
32.4919 28.4151
32.5385 28.4613
32.5848 28.2085
32.6314 28.1664
32.6778 28.1606
32.7244 27.9951
32.7708 27.8146
32.8174 27.7631
32.8638 27.7494
32.9104 27.7544
32.9569 27.7943
33.0035 27.6752
33.0499 27.5469
33.0966 27.525
33.143 27.4493
33.1897 27.4055
33.2361 27.3855
33.2828 27.3342
33.3293 27.0897
33.3759 27.0506
33.4226 27.0442
33.4691 26.812
33.5158 26.78
33.5623 26.5199
33.609 26.5424
33.6555 26.4613
33.7022 26.2989
33.7487 26.2597
33.7954 26.2331
33.842 26.1302
33.8887 26.0962
33.9353 26.0113
33.982 25.9094
34.0286 25.7916
34.0753 25.6462
34.1219 25.6452
34.1687 25.5885
34.2152 25.5278
34.262 25.4131
34.3086 25.2692
34.3554 25.2309
34.402 25.0231
34.4488 25.0418
34.4954 25.0325
34.5422 24.9024
34.5889 24.824
34.6357 24.698
34.6825 24.6718
34.7292 24.6423
34.776 24.4705
34.8227 24.5224
34.8695 24.3577
34.9162 24.3585
34.9631 24.2534
35.0098 24.2063
35.0566 24.1175
35.1033 24.0511
35.1502 23.9962
35.1969 23.9562
35.2438 23.8734
35.2906 23.8898
35.3375 23.868
35.3842 23.7199
35.4311 23.7659
35.4779 23.6958
35.5248 23.603
35.5716 23.5018
35.6185 23.4262
35.6653 23.4369
35.7123 23.301
35.759 23.1869
35.806 23.1953
35.8528 23.0321
35.8998 23.0176
35.9468 22.8796
35.9936 22.8221
36.0406 22.6955
36.0874 22.7407
36.1345 22.6508
36.1813 22.6517
36.2283 22.5391
36.2752 22.3861
36.3222 22.455
36.3691 22.3541
36.4161 22.2242
36.463 22.2564
36.5101 22.1781
36.557 22.0963
36.6041 21.9912
36.651 21.9344
36.6981 21.8693
36.745 21.7873
36.7921 21.7303
36.839 21.6809
36.8861 21.5893
36.9331 21.5494
36.9802 21.3887
37.0272 21.4296
37.0743 21.2394
37.1213 21.2493
37.1684 21.2272
37.2154 21.0448
37.2626 21.0569
37.3098 20.9972
37.3568 20.9586
37.404 20.8339
37.451 20.8097
37.4982 20.7272
37.5452 20.625
37.5924 20.5927
37.6395 20.6376
37.6867 20.5061
37.7337 20.4337
37.781 20.3175
37.8281 20.2025
37.8753 20.2412
37.9224 20.1619
37.9697 20.0281
38.0168 19.9505
38.064 19.8869
38.1111 19.8188
38.1584 19.8051
38.2056 19.6974
38.2529 19.6621
38.3 19.6099
38.3473 19.5474
38.3945 19.4428
38.4418 19.4792
38.489 19.4171
38.5363 19.3581
38.5837 19.2077
38.6309 19.2033
38.6782 19.149
38.7254 19.0501
38.7728 19.0413
38.82 18.9135
38.8674 18.9379
38.9146 18.8961
38.9621 18.7713
39.0093 18.7481
39.0567 18.6629
39.104 18.5921
39.1514 18.5165
39.1987 18.5389
39.2461 18.4833
39.2934 18.3162
39.3409 18.2854
39.3882 18.2246
39.4356 18.1392
39.483 18.138
39.5304 18.0321
39.5778 18.0072
39.6253 17.9885
39.6726 17.912
39.7201 17.8716
39.7675 17.8051
39.815 17.7116
39.8624 17.615
39.9099 17.6659
39.9575 17.5435
40.0049 17.5537
40.0525 17.4331
40.0999 17.3877
40.1474 17.3499
40.1949 17.2601
40.2425 17.1686
40.2899 17.1375
40.3375 17.0979
40.385 17.0164
40.4326 16.9996
40.48 16.952
40.5277 16.8893
40.5752 16.8542
40.6228 16.7945
40.6703 16.735
40.718 16.6595
40.7655 16.6676
40.8132 16.6066
40.8607 16.5617
40.9084 16.4695
40.9559 16.4753
41.0036 16.3888
41.0512 16.3005
41.0989 16.2177
41.1465 16.2124
41.1942 16.156
41.242 16.0517
41.2896 16.0119
41.3373 16.0399
41.3849 16.0011
41.4327 15.928
41.4803 15.8251
41.5281 15.7869
41.5758 15.7166
41.6236 15.7147
41.6712 15.5916
41.7191 15.5771
41.7667 15.4963
41.8146 15.491
41.8622 15.4196
41.9101 15.4295
41.9578 15.29
42.0057 15.2443
42.0534 15.2399
42.1013 15.1737
42.149 15.1022
42.1969 15.0659
42.2446 15.0114
42.2925 14.924
42.3403 14.914
42.3882 14.8778
42.436 14.8371
42.4839 14.7694
42.5319 14.7468
42.5797 14.6616
42.6277 14.5637
42.6755 14.5823
42.7235 14.4768
42.7713 14.4761
42.8193 14.4188
42.8671 14.3165
42.9152 14.3348
42.963 14.2604
43.0111 14.2395
43.0589 14.1643
43.107 14.1182
43.1549 14.0812
43.2029 14.0188
43.2508 14.0194
43.2989 13.9276
43.3468 13.8682
43.3949 13.7881
43.4429 13.7712
43.491 13.7778
43.5389 13.682
43.5871 13.6606
43.635 13.5971
43.6832 13.5737
43.7312 13.4237
43.7793 13.4415
43.8273 13.4224
43.8755 13.3545
43.9237 13.2844
43.9717 13.3142
44.0199 13.2087
44.068 13.1826
44.1162 13.1337
44.1642 13.0948
44.2125 13.082
44.2606 12.9491
44.3088 12.9335
44.3569 12.9607
44.4052 12.9125
44.4533 12.8211
44.5016 12.7453
44.5497 12.7431
44.598 12.6685
44.6461 12.6333
44.6945 12.5399
44.7426 12.5557
44.791 12.4809
44.8391 12.4419
44.8875 12.3896
44.9357 12.399
44.984 12.3412
45.0322 12.2637
45.0806 12.2254
45.1288 12.2303
45.1773 12.138
45.2257 12.1247
45.2739 12.0982
45.3224 12.0465
45.3706 11.9969
45.4191 11.9574
45.4673 11.892
45.5158 11.8734
45.5641 11.8189
45.6126 11.8004
45.6609 11.7274
45.7094 11.6598
45.7577 11.6654
45.8063 11.541
45.8546 11.5954
45.9031 11.4942
45.9515 11.5272
46.0001 11.4625
46.0484 11.3924
46.097 11.4038
46.1454 11.3877
46.194 11.3186
46.2424 11.2141
46.291 11.2052
46.3395 11.1286
46.3881 11.1004
46.4365 11.0762
46.4852 11.0521
46.5337 11.0282
46.5823 10.9598
46.631 10.932
46.6795 10.9315
46.7282 10.8539
46.7767 10.8117
46.8254 10.7634
46.8739 10.7161
46.9226 10.6726
46.9712 10.6373
47.0199 10.5785
47.0685 10.5787
47.1173 10.4862
47.1658 10.4669
47.2146 10.4357
47.2632 10.4054
47.312 10.384
47.3606 10.3264
47.4095 10.2639
47.4581 10.2475
47.5069 10.1982
47.5556 10.1713
47.6044 10.1355
47.6531 10.0986
47.702 10.0237
47.7507 10.0081
47.7996 10.0378
47.8483 9.97853
47.8972 9.91743
47.9461 9.86552
47.9948 9.81503
48.0438 9.81514
48.0925 9.78372
48.1415 9.77023
48.1902 9.68795
48.2392 9.69758
48.288 9.61962
48.337 9.59735
48.3858 9.54657
48.4348 9.52975
48.4837 9.56881
48.5327 9.44807
48.5815 9.44043
48.6306 9.38176
48.6795 9.37902
48.7285 9.33123
48.7774 9.29849
48.8265 9.28312
48.8754 9.23691
48.9245 9.18916
48.9734 9.13169
49.0226 9.13109
49.0715 9.07796
49.1206 9.03341
49.1696 9.00487
49.2188 8.98781
49.2679 8.9489
49.3169 8.91978
49.3661 8.87098
49.4151 8.86279
49.4643 8.8223
49.5134 8.82304
49.5626 8.71008
49.6117 8.74124
49.6609 8.65401
49.71 8.6298
49.7592 8.59806
49.8083 8.54846
49.8576 8.56191
49.9067 8.47972
49.956 8.517
50.0052 8.4344
50.0545 8.41331
50.1036 8.37055
50.153 8.34464
50.2022 8.31164
50.2515 8.26342
50.3007 8.21273
50.3501 8.22713
50.3993 8.18022
50.4487 8.19451
50.498 8.12263
50.5474 8.09211
50.5966 8.06496
50.6461 8.02928
50.6955 8.01233
50.7448 7.94533
50.7943 7.9511
50.8436 7.89442
50.8931 7.89183
50.9424 7.85169
50.9919 7.81424
51.0413 7.80077
51.0908 7.77881
51.1402 7.70755
51.1897 7.69629
51.2391 7.69228
51.2887 7.60912
51.3381 7.60099
51.3877 7.60158
51.4371 7.51437
51.4867 7.50568
51.5362 7.4757
51.5858 7.47247
51.6353 7.38049
51.6849 7.40841
51.7344 7.37699
51.7841 7.31375
51.8336 7.27067
51.8833 7.30192
51.9328 7.2301
51.9826 7.18164
52.0323 7.17046
52.0818 7.1334
52.1316 7.11145
52.1812 7.08779
52.231 7.0475
52.2806 7.00188
52.3304 6.99713
52.38 6.95255
52.4298 6.91963
52.4794 6.93624
52.5293 6.88167
52.5789 6.86033
52.6288 6.83197
52.6785 6.79972
52.7284 6.76957
52.7781 6.72895
52.828 6.72446
52.8777 6.66859
52.9276 6.63694
52.9774 6.61615
53.0273 6.60198
53.0771 6.5535
53.1271 6.57786
53.1769 6.48224
53.2269 6.50924
53.2767 6.45472
53.3267 6.41221
53.3765 6.44454
53.4266 6.3926
53.4766 6.30885
53.5265 6.30704
53.5765 6.31601
53.6264 6.26538
53.6765 6.21195
53.7264 6.20583
53.7765 6.18735
53.8265 6.17712
53.8766 6.13604
53.9266 6.10272
53.9767 6.05503
54.0267 6.07966
54.0769 6.04195
54.1269 6.01072
54.1771 5.93766
54.2271 5.93765
54.2773 5.91062
54.3274 5.89387
54.3776 5.87248
54.4277 5.8028
54.478 5.7624
54.528 5.75631
54.5783 5.68793
54.6285 5.66708
54.6788 5.65701
54.7289 5.65013
54.7792 5.52902
54.8296 5.49933
54.8798 5.41747
54.9301 5.409
54.9803 5.35515
55.0307 5.36847
55.0809 5.29072
55.1314 5.32311
55.1816 5.23414
55.232 5.17854
55.2823 5.1478
55.3328 5.09695
55.383 5.00876
55.4335 5.0131
55.4838 4.97488
55.5344 4.88328
55.5847 4.89615
55.6352 4.85399
55.6856 4.78867
55.7361 4.78131