File: XRD/Ni3Fe_FD0444.xy
TT I
1.27165 7.46657
1.31627 7.02126
1.36089 6.964
1.40551 6.4829
1.45013 6.30349
1.49476 6.23557
1.53938 5.88486
1.584 5.67017
1.62863 5.46087
1.67325 4.99401
1.71787 5.40581
1.7625 4.96058
1.80712 5.28084
1.85174 4.78285
1.89636 4.74213
1.94099 5.07942
1.98562 5.2019
2.03025 4.85242
2.07487 4.25803
2.11949 4.86318
2.16411 4.48056
2.20874 12.0907
2.25338 17.7322
2.298 5.67678
2.34263 4.59515
2.38725 5.98241
2.43188 5.6405
2.4765 6.53033
2.52115 7.09475
2.56577 6.84919
2.6104 7.38059
2.65503 6.87467
2.69965 7.1296
2.7443 7.60953
2.78893 7.76215
2.83356 8.1155
2.87818 9.02682
2.92281 8.72134
2.96744 9.40135
3.01209 9.95259
3.05672 10.8541
3.10135 11.8531
3.14599 12.2355
3.19062 14.339
3.23527 15.0075
3.2799 15.9682
3.32454 16.7965
3.36917 17.6824
3.4138 19.0251
3.45844 19.7342
3.50309 21.2586
3.54773 21.4926
3.59237 23.6831
3.637 73.1727
3.68164 48.7507
3.7263 26.0285
3.77094 26.0857
3.81558 26.9499
3.86022 27.8446
3.90486 29.3111
3.9495 30.068
3.99416 31.0863
4.0388 32.3573
4.08344 33.8904
4.12809 34.8033
4.17273 36.6701
4.21738 41.4305
4.26204 193.71
4.30669 162.243
4.35133 46.5343
4.39598 44.6352
4.44063 51.9903
4.4853 60.8237
4.52995 51.3996
4.5746 52.527
4.61925 54.1072
4.6639 56.5222
4.70855 58.8678
4.75322 62.3279
4.79788 64.9843
4.84253 68.581
4.88719 73.1003
4.93184 77.198
4.97652 82.7816
5.02118 89.5875
5.06583 98.0714
5.11049 111.12
5.15515 173.158
5.19981 484.041
5.24449 3356.1
5.28916 11730.6
5.33382 2995.85
5.37848 204.181
5.42315 133.573
5.46783 117.028
5.5125 108.523
5.55716 104.905
5.60183 100.32
5.6465 98.5457
5.69117 96.5169
5.73586 94.3431
5.78053 94.168
5.8252 94.1886
5.86988 95.4832
5.91455 98.202
5.95924 110.483
6.00392 269.502
6.0486 1161.24
6.09328 4346.15
6.13795 3362.27
6.18263 281.268
6.22733 97.3882
6.27201 84.3727
6.3167 95.995
6.36138 78.744
6.40606 69.8906
6.45075 68.1638
6.49545 66.5105
6.54014 64.5124
6.58483 63.5768
6.62952 63.0366
6.67421 85.529
6.71892 119.295
6.76361 66.7939
6.8083 58.9092
6.853 57.8408
6.89769 57.3748
6.94239 57.2653
6.98711 56.5177
7.03181 56.1618
7.07651 55.8509
7.12121 55.7817
7.16591 55.8009
7.21063 55.7148
7.25533 67.5376
7.30004 142.782
7.34475 81.7994
7.38945 56.5321
7.43416 54.8771
7.47889 55.1883
7.5236 55.4462
7.56831 55.9898
7.61303 57.2862
7.65774 57.4722
7.70247 56.7473
7.74719 56.7358
7.79191 57.621
7.83663 57.6281
7.88135 58.467
7.92607 59.5976
7.97081 60.8118
8.01553 61.9026
8.06026 63.7168
8.10498 64.7333
8.14971 72.4154
8.19446 71.6863
8.23919 70.6492
8.28392 73.3175
8.32865 75.5233
8.37339 80.1813
8.41812 86.94
8.46288 112.886
8.50761 197.001
8.55235 456.227
8.59709 1235.08
8.64183 2144.25
8.68658 1015.68
8.73134 173.45
8.77609 101.913
8.82083 94.5635
8.86558 91.3021
8.91033 90.7617
8.9551 90.9989
8.99985 86.3776
9.04461 85.1698
9.08936 84.235
9.13412 83.0807
9.17888 83.447
9.22365 84.3626
9.26841 83.4814
9.31318 84.2436
9.35794 84.6236
9.4027 84.6577
9.44749 85.5468
9.49226 86.1771
9.53703 87.5647
9.5818 88.9485
9.62657 92.7482
9.67134 98.12
9.71614 94.9621
9.76091 95.6474
9.80569 98.4149
9.85047 101.793
9.89525 121.098
9.94005 136.808
9.98484 208.801
10.0296 399.481
10.0744 862.722
10.1192 1711.85
10.164 1630.77
10.2088 423.827
10.2536 130.811
10.2984 114.309
10.3432 113.785
10.388 107.07
10.4328 128.189
10.4776 176.571
10.5224 294.75
10.5672 502.542
10.612 502.733
10.6568 206.015
10.7017 97.9869
10.7465 88.1699
10.7913 84.573
10.8361 82.1841
10.8809 79.9775
10.9257 79.2913
10.9706 79.3165
11.0154 75.8947
11.0602 74.0694
11.105 72.6558
11.1499 75.594
11.1947 80.3326
11.2395 73.6704
11.2844 70.6601
11.3292 67.9324
11.374 67.21
11.4189 66.7723
11.4637 66.0977
11.5086 66.1151
11.5534 68.1533
11.5983 66.0038
11.6431 64.5077
11.688 63.7876
11.7328 63.9456
11.7777 63.8576
11.8225 63.4057
11.8674 63.2661
11.9122 63.6944
11.9571 64.2286
12.002 65.1806
12.0468 71.0433
12.0917 83.7908
12.1366 108.254
12.1814 154.137
12.2263 202.534
12.2712 172.864
12.3161 95.3071
12.3609 70.3047
12.4058 65.6399
12.4507 65.2398
12.4956 65.3765
12.5405 65.3945
12.5853 66.4542
12.6302 71.6751
12.6751 76.2398
12.72 70.1489
12.7649 69.0616
12.8098 69.693
12.8547 70.9162
12.8996 72.278
12.9445 73.6068
12.9894 75.371
13.0343 77.4399
13.0792 81.1251
13.1242 94.2984
13.1691 121.0
13.214 160.696
13.2589 247.415
13.3038 362.206
13.3487 422.039
13.3937 268.816
13.4386 126.369
13.4835 112.772
13.5285 129.758
13.5734 168.941
13.6183 250.241
13.6633 337.674
13.7082 343.268
13.7531 191.879
13.7981 98.7224
13.843 83.1112
13.888 80.9901
13.9329 78.3165
13.9779 76.8956
14.0228 75.6571
14.0678 74.5742
14.1127 73.775
14.1577 73.5347
14.2027 72.6198
14.2476 71.6065
14.2926 71.4964
14.3376 72.4164
14.3825 71.2102
14.4275 70.0837
14.4725 70.1384
14.5175 70.1749
14.5624 70.2255
14.6074 72.0284
14.6524 72.4126
14.6974 71.788
14.7424 74.7242
14.7874 83.0666
14.8324 94.3066
14.8774 117.081
14.9224 156.333
14.9674 202.73
15.0124 218.21
15.0574 151.671
15.1024 91.2961
15.1474 73.3316
15.1924 71.2293
15.2374 71.61
15.2824 70.8863
15.3274 69.0141
15.3725 67.8897
15.4175 67.645
15.4625 67.0513
15.5076 67.3655
15.5526 67.2329
15.5976 67.299
15.6426 69.1294
15.6877 76.016
15.7327 84.3914
15.7778 100.098
15.8228 129.432
15.8679 167.364
15.9129 190.777
15.958 157.309
16.003 97.0827
16.0481 68.9224
16.0931 64.9289
16.1382 63.3348
16.1833 61.2704
16.2283 59.8985
16.2734 59.2326
16.3185 59.3785
16.3636 59.5049
16.4086 58.3347
16.4537 56.8164
16.4988 56.3368
16.5439 56.4295
16.589 56.2435
16.6341 55.6712
16.6792 55.4554
16.7243 55.7177
16.7694 55.8499
16.8145 55.8001
16.8596 56.1116
16.9047 57.1575
16.9498 57.5361
16.9949 56.6239
17.04 56.9633
17.0851 58.62
17.1302 60.1042
17.1754 63.583
17.2205 68.4162
17.2656 74.9956
17.3108 82.374
17.3559 82.6122
17.401 72.3632
17.4462 62.8387
17.4913 60.1162
17.5365 60.0127
17.5815 60.2825
17.6268 60.7548
17.6718 61.3631
17.7171 61.7661
17.7622 62.5298
17.8074 63.1995
17.8525 66.4753
17.8977 70.9926
17.9428 77.1244
17.9881 85.98
18.0331 101.911
18.0784 120.947
18.1237 138.763
18.1688 133.369
18.214 105.907
18.2591 88.5201
18.3044 91.7873
18.3495 100.217
18.3948 106.712
18.4399 97.1348
18.4852 78.5298
18.5303 66.7916
18.5756 63.4037
18.6207 62.4073
18.666 61.2629
18.7112 60.559
18.7565 59.9484
18.8016 59.4698
18.8469 58.9554
18.892 58.8101
18.9374 58.2243
18.9825 58.0449
19.0278 58.0097
19.073 57.914
19.1183 58.6212
19.1635 59.4906
19.2088 61.0886
19.254 63.6365
19.2993 67.5378
19.3447 72.9036
19.3898 77.1533
19.4352 73.1836
19.4804 64.1169
19.5257 57.5442
19.5709 55.1307
19.6163 54.7359
19.6615 54.6302
19.7068 54.1705
19.752 54.1788
19.7974 54.7074
19.8426 55.6994
19.888 56.3382
19.9332 57.5422
19.9786 60.1109
20.0238 63.2846
20.0692 67.7569
20.1144 70.9234
20.1598 69.2042
20.205 64.7735
20.2504 63.0713
20.2957 64.4901
20.3411 66.2688
20.3863 64.9017
20.4318 59.2853
20.477 54.3408
20.5224 52.2629
20.5677 51.6006
20.6131 51.1604
20.6586 50.4701
20.7038 50.4656
20.7493 49.8115
20.7945 49.7901
20.84 49.7157
20.8853 49.6497
20.9307 49.4758
20.976 49.6135
21.0215 49.4883
21.0668 50.0773
21.1122 50.4092
21.1575 50.8413
21.203 51.6203
21.2483 52.0642
21.2938 52.4378
21.3391 50.8822
21.3846 49.7523
21.4299 49.4452
21.4754 49.2305
21.5207 49.3544
21.5662 49.8231
21.6116 50.3554
21.6571 51.0668
21.7024 52.0849
21.7479 53.9399
21.7933 56.4628
21.8388 59.7859
21.8843 63.323
21.9297 65.4004
21.9752 64.2203
22.0206 60.5844
22.0661 57.3247
22.1115 56.6668
22.157 56.9042
22.2024 55.4805
22.248 52.4703
22.2933 50.7646
22.3389 49.8925
22.3843 49.8937
22.4299 49.548
22.4753 49.5852
22.5208 49.3876
22.5662 49.3572
22.6118 49.6876
22.6572 49.8381
22.7028 50.3025
22.7483 50.7783
22.7939 51.6332
22.8393 53.1504
22.8849 54.9685
22.9303 56.9052
22.9759 58.5492
23.0214 58.0288
23.067 55.5141
23.1126 52.0802
23.1581 50.1371
23.2037 49.5926
23.2492 49.9653
23.2948 49.8939
23.3403 50.176
23.3859 50.8507
23.4314 52.0603
23.477 53.5297
23.5225 55.5199
23.5682 57.3527
23.6137 58.6444
23.6593 56.5437
23.7048 52.6472
23.7505 49.1818
23.796 47.4138
23.8417 46.8604
23.8872 46.3708
23.9329 45.9386
23.9784 45.6773
24.0241 45.4382
24.0697 45.1878
24.1154 45.0138
24.1609 44.7011
24.2066 44.4515
24.2522 44.5528
24.2979 44.0799
24.3434 44.0607
24.3892 43.9084
24.4349 43.8401
24.4805 43.5748
24.5262 43.8386
24.5718 43.7592
24.6175 43.6805
24.6631 43.4819
24.7089 43.3182
24.7545 42.9826
24.8002 43.1415
24.8458 42.9302
24.8916 42.946
24.9372 42.9774
24.983 43.3787
25.0286 43.6676
25.0744 44.0674
25.12 44.5299
25.1658 45.1137
25.2114 45.4727
25.2572 45.397
25.3029 45.416
25.3487 45.6993
25.3943 45.3389
25.4402 44.175
25.4858 43.0692
25.5316 42.0705
25.5773 41.5297
25.6231 41.6204
25.669 41.2333
25.7147 41.2922
25.7605 41.0821
25.8062 41.2984
25.8521 41.362
25.8977 41.2292
25.9436 41.5931
25.9893 41.6434
26.0352 42.0987
26.0809 42.2808
26.1268 42.5088
26.1725 42.0958
26.2184 41.5322
26.2641 40.9979
26.31 40.7459
26.3557 40.9607
26.4017 40.7846
26.4474 41.1768
26.4933 41.5018
26.5391 42.0165
26.585 42.4013
26.6308 42.8365
26.6767 42.9698
26.7225 42.6382
26.7684 42.044
26.8142 41.3564
26.8601 41.1344
26.9059 40.7975
26.9519 40.1583
26.9979 39.8385
27.0437 39.5215
27.0896 39.5022
27.1354 39.49
27.1814 39.3319
27.2272 39.2136
27.2732 39.1519
27.3191 38.9904
27.3651 39.1255
27.4109 39.0195
27.4569 39.1605
27.5027 39.19
27.5488 39.2272
27.5946 39.0924
27.6407 38.7857
27.6865 38.7677
27.7326 38.6431
27.7784 38.5009
27.8245 38.4441
27.8703 38.7712
27.9164 39.0157
27.9623 39.0846
28.0084 39.4218
28.0543 39.7316
28.1003 39.6488
28.1462 39.4746
28.1923 39.0232
28.2384 38.6827
28.2843 38.2846
28.3304 37.8824
28.3764 37.3055
28.4225 36.9072
28.4684 36.9168
28.5145 36.5573
28.5605 36.4631
28.6066 36.209
28.6526 36.2243
28.6987 36.2566
28.7447 36.0216
28.7908 36.0092
28.8368 36.0826
28.8829 35.9009
28.9289 35.9021
28.9751 35.7556
29.0211 35.5529
29.0673 35.3963
29.1133 35.1072
29.1595 35.0095
29.2055 34.9245
29.2517 34.8737
29.2977 34.847
29.3439 34.8655
29.3899 34.911
29.4361 34.589
29.4824 34.5136
29.5284 34.3506
29.5746 34.0411
29.6207 33.6325
29.6669 33.5677
29.713 33.5822
29.7593 33.558
29.8053 33.4463
29.8516 33.385
29.8977 33.352
29.9439 33.1357
29.99 33.1441
30.0363 32.9964
30.0824 33.1278
30.1287 32.957
30.1748 32.9623
30.2211 32.8924
30.2673 32.7603
30.3136 32.8958
30.3597 32.8374
30.406 32.7613
30.4522 32.6437
30.4985 32.5903
30.5447 32.6668
30.591 32.5656
30.6372 32.7207
30.6835 32.6948
30.7297 32.6696
30.7761 32.6358
30.8224 32.5934
30.8686 32.5092
30.915 32.1353
30.9612 31.9719
31.0076 31.8358
31.0538 31.6891
31.1002 31.6856
31.1464 31.478
31.1928 31.5372
31.2391 31.4932
31.2855 31.4356
31.3317 31.3872
31.3781 31.5395
31.4244 31.4006
31.4708 31.25
31.5171 31.3617
31.5636 31.3367
31.6098 31.0609
31.6563 30.8732
31.7026 30.7899
31.7491 30.6636
31.7953 30.7155
31.8418 30.6503
31.8881 30.6923
31.9346 30.5716
31.9809 30.5132
32.0275 30.4507
32.074 30.3535
32.1203 30.1168
32.1668 29.9191
32.2132 29.9012
32.2597 29.6592
32.306 29.6708
32.3526 29.4208
32.399 29.4111
32.4455 29.2737
32.4919 29.1828
32.5385 29.1135
32.5848 28.9502
32.6314 29.0322
32.6778 28.9505
32.7244 28.7948
32.7708 28.6239
32.8174 28.6267
32.8638 28.6016
32.9104 28.5039
32.9569 28.5086
33.0035 28.3736
33.0499 28.3638
33.0966 28.2333
33.143 28.2318
33.1897 28.1634
33.2361 28.0919
33.2828 28.1463
33.3293 27.7853
33.3759 27.8592
33.4226 27.6743
33.4691 27.4803
33.5158 27.4837
33.5623 27.3004
33.609 27.2069
33.6555 27.0467
33.7022 27.0164
33.7487 26.9028
33.7954 26.8989
33.842 26.8365
33.8887 26.7113
33.9353 26.6373
33.982 26.5507
34.0286 26.499
34.0753 26.4283
34.1219 26.3191
34.1687 26.2685
34.2152 26.2323
34.262 26.0773
34.3086 25.9795
34.3554 25.994
34.402 25.8938
34.4488 25.7735
34.4954 25.7192
34.5422 25.6491
34.5889 25.4812
34.6357 25.3727
34.6825 25.3243
34.7292 25.2276
34.776 25.2149
34.8227 25.0702
34.8695 25.0473
34.9162 25.0129
34.9631 24.9281
35.0098 25.0019
35.0566 24.817
35.1033 24.7649
35.1502 24.7195
35.1969 24.5992
35.2438 24.6325
35.2906 24.5508
35.3375 24.5158
35.3842 24.3664
35.4311 24.3434
35.4779 24.4625
35.5248 24.2831
35.5716 24.2039
35.6185 24.0916
35.6653 24.0612
35.7123 23.9665
35.759 23.8561
35.806 23.7707
35.8528 23.636
35.8998 23.6082
35.9468 23.4776
35.9936 23.4541
36.0406 23.4414
36.0874 23.2965
36.1345 23.3004
36.1813 23.1764
36.2283 23.0626
36.2752 22.9957
36.3222 23.0735
36.3691 22.9874
36.4161 22.743
36.463 22.8196
36.5101 22.8109
36.557 22.73
36.6041 22.5454
36.651 22.5178
36.6981 22.4926
36.745 22.4578
36.7921 22.319
36.839 22.2056
36.8861 22.1777
36.9331 22.0806
36.9802 22.1034
37.0272 21.9517
37.0743 21.7962
37.1213 21.8127
37.1684 21.8048
37.2154 21.6727
37.2626 21.6049
37.3098 21.5615
37.3568 21.4982
37.404 21.4591
37.451 21.3518
37.4982 21.2688
37.5452 21.2375
37.5924 21.1847
37.6395 21.1824
37.6867 21.0081
37.7337 20.974
37.781 20.9142
37.8281 20.8389
37.8753 20.6827
37.9224 20.7283
37.9697 20.6344
38.0168 20.5511
38.064 20.4503
38.1111 20.4491
38.1584 20.313
38.2056 20.2992
38.2529 20.2821
38.3 20.1873
38.3473 20.0885
38.3945 20.0159
38.4418 19.9667
38.489 19.9273
38.5363 19.8363
38.5837 19.7691
38.6309 19.7361
38.6782 19.6587
38.7254 19.5345
38.7728 19.495
38.82 19.4202
38.8674 19.473
38.9146 19.3228
38.9621 19.2695
39.0093 19.1843
39.0567 19.1583
39.104 19.0836
39.1514 18.9448
39.1987 19.0262
39.2461 18.969
39.2934 18.8663
39.3409 18.77
39.3882 18.6804
39.4356 18.6262
39.483 18.6284
39.5304 18.5748
39.5778 18.5078
39.6253 18.4182
39.6726 18.3896
39.7201 18.3385
39.7675 18.2907
39.815 18.2547
39.8624 18.1779
39.9099 18.071
39.9575 17.9732
40.0049 18.0066
40.0525 17.9043
40.0999 17.896
40.1474 17.8084
40.1949 17.7162
40.2425 17.679
40.2899 17.6419
40.3375 17.5801
40.385 17.499
40.4326 17.477
40.48 17.4542
40.5277 17.4442
40.5752 17.3077
40.6228 17.1835
40.6703 17.2082
40.718 17.2081
40.7655 17.1455
40.8132 17.0189
40.8607 17.0394
40.9084 16.9711
40.9559 16.8226
41.0036 16.8537
41.0512 16.7538
41.0989 16.7327
41.1465 16.6056
41.1942 16.6172
41.242 16.5123
41.2896 16.4537
41.3373 16.3716
41.3849 16.3761
41.4327 16.2974
41.4803 16.2621
41.5281 16.2133
41.5758 16.1463
41.6236 16.0812
41.6712 15.9702
41.7191 15.9878
41.7667 15.9856
41.8146 15.933
41.8622 15.8511
41.9101 15.7535
41.9578 15.7159
42.0057 15.7001
42.0534 15.6311
42.1013 15.5681
42.149 15.5317
42.1969 15.4698
42.2446 15.3873
42.2925 15.3733
42.3403 15.2697
42.3882 15.3313
42.436 15.2116
42.4839 15.109
42.5319 15.112
42.5797 15.054
42.6277 14.9575
42.6755 15.0318
42.7235 14.8983
42.7713 14.9107
42.8193 14.7894
42.8671 14.7685
42.9152 14.6761
42.963 14.6316
43.0111 14.535
43.0589 14.5512
43.107 14.4576
43.1549 14.3936
43.2029 14.4332
43.2508 14.3708
43.2989 14.2817
43.3468 14.2685
43.3949 14.2574
43.4429 14.1557
43.491 14.0975
43.5389 14.0283
43.5871 14.0266
43.635 14.0029
43.6832 13.9283
43.7312 13.8343
43.7793 13.8247
43.8273 13.8083
43.8755 13.715
43.9237 13.6737
43.9717 13.6545
44.0199 13.558
44.068 13.5474
44.1162 13.4769
44.1642 13.4783
44.2125 13.3957
44.2606 13.3444
44.3088 13.2904
44.3569 13.244
44.4052 13.2189
44.4533 13.1634
44.5016 13.1033
44.5497 13.1027
44.598 13.0283
44.6461 12.9196
44.6945 12.9345
44.7426 12.9087
44.791 12.8034
44.8391 12.7996
44.8875 12.7597
44.9357 12.7312
44.984 12.6634
45.0322 12.6388
45.0806 12.5704
45.1288 12.4991
45.1773 12.4603
45.2257 12.4169
45.2739 12.4024
45.3224 12.3136
45.3706 12.3059
45.4191 12.2674
45.4673 12.221
45.5158 12.2173
45.5641 12.061
45.6126 12.0921
45.6609 12.0885
45.7094 12.0059
45.7577 11.9801
45.8063 11.8992
45.8546 11.8437
45.9031 11.7722
45.9515 11.8054
46.0001 11.7748
46.0484 11.7218
46.097 11.6629
46.1454 11.6351
46.194 11.5661
46.2424 11.553
46.291 11.4333
46.3395 11.4761
46.3881 11.4054
46.4365 11.3722
46.4852 11.3252
46.5337 11.2996
46.5823 11.2071
46.631 11.1979
46.6795 11.1672
46.7282 11.1439
46.7767 11.0827
46.8254 11.0097
46.8739 10.9814
46.9226 10.9707
46.9712 10.8983
47.0199 10.8511
47.0685 10.8522
47.1173 10.7994
47.1658 10.7917
47.2146 10.74
47.2632 10.6562
47.312 10.6879
47.3606 10.6512
47.4095 10.5428
47.4581 10.543
47.5069 10.4525
47.5556 10.4141
47.6044 10.3731
47.6531 10.3633
47.702 10.299
47.7507 10.2955
47.7996 10.2517
47.8483 10.209
47.8972 10.1855
47.9461 10.1506
47.9948 10.1061
48.0438 10.0573
48.0925 9.98572
48.1415 10.0293
48.1902 9.96244
48.2392 9.92234
48.288 9.89932
48.337 9.85619
48.3858 9.8346
48.4348 9.7789
48.4837 9.76885
48.5327 9.69531
48.5815 9.70901
48.6306 9.6747
48.6795 9.61982
48.7285 9.57003
48.7774 9.54678
48.8265 9.53936
48.8754 9.45022
48.9245 9.44781
48.9734 9.41619
49.0226 9.3478
49.0715 9.32187
49.1206 9.30987
49.1696 9.25213
49.2188 9.22635
49.2679 9.20504
49.3169 9.16321
49.3661 9.10224
49.4151 9.1071
49.4643 9.0602
49.5134 8.98642
49.5626 8.95942
49.6117 8.93158
49.6609 8.91079
49.71 8.85762
49.7592 8.83729
49.8083 8.8133
49.8576 8.78636
49.9067 8.74513
49.956 8.74031
50.0052 8.67777
50.0545 8.65269
50.1036 8.59329
50.153 8.56464
50.2022 8.52413
50.2515 8.49724
50.3007 8.46661
50.3501 8.41873
50.3993 8.38064
50.4487 8.35279
50.498 8.33636
50.5474 8.32573
50.5966 8.28401
50.6461 8.26008
50.6955 8.213
50.7448 8.22724
50.7943 8.16235
50.8436 8.14026
50.8931 8.06497
50.9424 8.06021
50.9919 8.03682
51.0413 8.00909
51.0908 7.97843
51.1402 7.9412
51.1897 7.88324
51.2391 7.85016
51.2887 7.85235
51.3381 7.821
51.3877 7.75816
51.4371 7.72595
51.4867 7.69626
51.5362 7.68693
51.5858 7.66145
51.6353 7.5884
51.6849 7.57455
51.7344 7.56687
51.7841 7.50445
51.8336 7.45506
51.8833 7.46412
51.9328 7.42387
51.9826 7.3753
52.0323 7.37395
52.0818 7.3414
52.1316 7.30368
52.1812 7.26738
52.231 7.2535
52.2806 7.21023
52.3304 7.20091
52.38 7.1582
52.4298 7.11564
52.4794 7.09388
52.5293 7.03811
52.5789 7.03677
52.6288 6.99112
52.6785 6.98376
52.7284 6.95488
52.7781 6.91652
52.828 6.85995
52.8777 6.80178
52.9276 6.85141
52.9774 6.78189
53.0273 6.79368
53.0771 6.71586
53.1271 6.69056
53.1769 6.69324
53.2269 6.67437
53.2767 6.64628
53.3267 6.5673
53.3765 6.52857
53.4266 6.57244
53.4766 6.56319
53.5265 6.50975
53.5765 6.48145
53.6264 6.45944
53.6765 6.40793
53.7264 6.38384
53.7765 6.30277
53.8265 6.30594
53.8766 6.28023
53.9266 6.25521
53.9767 6.23709
54.0267 6.22052
54.0769 6.1949
54.1269 6.15192
54.1771 6.13253
54.2271 6.12527
54.2773 6.02022
54.3274 6.0524
54.3776 5.99371
54.4277 5.97091
54.478 5.92668
54.528 5.89534
54.5783 5.84057
54.6285 5.77446
54.6788 5.76711
54.7289 5.72765
54.7792 5.6686
54.8296 5.62034
54.8798 5.60006
54.9301 5.56629
54.9803 5.53951
55.0307 5.51389
55.0809 5.43066
55.1314 5.41896
55.1816 5.39126
55.232 5.32565
55.2823 5.32204
55.3328 5.20844
55.383 5.23156
55.4335 5.1322
55.4838 5.05493
55.5344 5.05784
55.5847 5.0329
55.6352 4.9653
55.6856 4.91859
55.7361 4.83852