File: XRD/Ni3Fe_FD0673.xy
TT I
1.27165 6.78661
1.31627 6.53828
1.36089 6.74367
1.40551 6.64628
1.45013 6.39007
1.49476 5.49889
1.53938 5.41448
1.584 5.64016
1.62863 5.27726
1.67325 5.17723
1.71787 5.29601
1.7625 4.70545
1.80712 5.28723
1.85174 4.90102
1.89636 4.58656
1.94099 4.4938
1.98562 4.20172
2.03025 4.05428
2.07487 4.30939
2.11949 4.88527
2.16411 4.53362
2.20874 11.3881
2.25338 16.4219
2.298 6.47374
2.34263 5.64321
2.38725 5.32597
2.43188 6.0305
2.4765 6.67228
2.52115 7.16636
2.56577 7.52989
2.6104 8.48509
2.65503 8.01137
2.69965 7.86209
2.7443 8.48429
2.78893 8.09005
2.83356 8.56053
2.87818 8.74449
2.92281 8.80675
2.96744 9.46888
3.01209 10.2712
3.05672 11.2198
3.10135 12.4148
3.14599 13.2506
3.19062 13.9366
3.23527 14.9405
3.2799 16.2365
3.32454 16.3583
3.36917 17.852
3.4138 18.9264
3.45844 19.7166
3.50309 20.4429
3.54773 21.9002
3.59237 22.949
3.637 71.9383
3.68164 47.4507
3.7263 25.434
3.77094 26.0262
3.81558 26.4835
3.86022 27.733
3.90486 28.5769
3.9495 29.4097
3.99416 30.2987
4.0388 32.0674
4.08344 33.3015
4.12809 34.7326
4.17273 36.2692
4.21738 41.1409
4.26204 187.713
4.30669 159.835
4.35133 46.5722
4.39598 44.0943
4.44063 51.4982
4.4853 59.0185
4.52995 50.6465
4.5746 51.7907
4.61925 52.9811
4.6639 55.5042
4.70855 58.0967
4.75322 61.6768
4.79788 64.3575
4.84253 67.5502
4.88719 71.7171
4.93184 75.4323
4.97652 80.8155
5.02118 87.1708
5.06583 95.2469
5.11049 106.004
5.15515 162.344
5.19981 384.915
5.24449 2973.54
5.28916 12652.4
5.33382 2664.22
5.37848 182.209
5.42315 127.502
5.46783 113.244
5.5125 106.174
5.55716 101.893
5.60183 98.3663
5.6465 96.4842
5.69117 94.4816
5.73586 92.3102
5.78053 92.1729
5.8252 91.9787
5.86988 92.6949
5.91455 95.1974
5.95924 104.447
6.00392 227.401
6.0486 1003.2
6.09328 4564.21
6.13795 3228.95
6.18263 222.343
6.22733 91.4164
6.27201 81.7215
6.3167 93.8009
6.36138 77.4911
6.40606 68.6378
6.45075 67.2823
6.49545 65.4831
6.54014 63.7453
6.58483 62.3174
6.62952 62.1599
6.67421 83.7455
6.71892 117.591
6.76361 65.0515
6.8083 58.1565
6.853 57.682
6.89769 56.6066
6.94239 56.2705
6.98711 55.5263
7.03181 55.3437
7.07651 55.1248
7.12121 54.8929
7.16591 55.462
7.21063 55.1682
7.25533 65.8425
7.30004 139.465
7.34475 80.1825
7.38945 55.6773
7.43416 54.2372
7.47889 53.7153
7.5236 54.4086
7.56831 55.1967
7.61303 56.3153
7.65774 56.6202
7.70247 55.927
7.74719 55.6615
7.79191 56.4815
7.83663 56.6121
7.88135 57.6878
7.92607 58.9694
7.97081 59.6969
8.01553 60.5817
8.06026 62.1356
8.10498 63.807
8.14971 71.0113
8.19446 70.7183
8.23919 69.3736
8.28392 72.0037
8.32865 74.1435
8.37339 78.6644
8.41812 84.9773
8.46288 108.634
8.50761 176.08
8.55235 405.698
8.59709 1221.18
8.64183 2220.99
8.68658 922.508
8.73134 154.079
8.77609 98.0546
8.82083 92.08
8.86558 89.7396
8.91033 88.9252
8.9551 89.6655
8.99985 84.5899
9.04461 83.7957
9.08936 82.5938
9.13412 82.2034
9.17888 81.9861
9.22365 82.3405
9.26841 81.6551
9.31318 82.7035
9.35794 82.8517
9.4027 83.5783
9.44749 83.781
9.49226 84.5408
9.53703 85.4974
9.5818 87.3596
9.62657 91.3533
9.67134 95.6973
9.71614 93.3196
9.76091 94.0614
9.80569 96.3591
9.85047 99.5293
9.89525 117.758
9.94005 132.111
9.98484 188.136
10.0296 360.627
10.0744 838.017
10.1192 1789.77
10.164 1580.83
10.2088 373.272
10.2536 123.29
10.2984 110.599
10.3432 111.371
10.388 104.389
10.4328 121.263
10.4776 163.984
10.5224 288.354
10.5672 514.109
10.612 495.172
10.6568 187.142
10.7017 94.4276
10.7465 86.2946
10.7913 82.8892
10.8361 80.8862
10.8809 78.8072
10.9257 77.52
10.9706 77.3749
11.0154 74.5121
11.0602 72.5985
11.105 71.4604
11.1499 74.1156
11.1947 78.8133
11.2395 72.1067
11.2844 69.4888
11.3292 67.2281
11.374 65.838
11.4189 65.1354
11.4637 64.8383
11.5086 64.839
11.5534 66.5685
11.5983 64.8514
11.6431 63.4319
11.688 62.5805
11.7328 62.6182
11.7777 62.4859
11.8225 62.2756
11.8674 62.3927
11.9122 62.7178
11.9571 62.9511
12.002 63.8173
12.0468 68.3875
12.0917 79.3967
12.1366 103.854
12.1814 155.371
12.2263 207.038
12.2712 159.033
12.3161 89.7519
12.3609 68.6915
12.4058 64.2755
12.4507 64.0199
12.4956 64.1635
12.5405 64.038
12.5853 65.1557
12.6302 70.4543
12.6751 74.7717
12.72 68.9497
12.7649 67.5475
12.8098 68.3201
12.8547 69.3142
12.8996 70.8459
12.9445 72.2543
12.9894 74.0138
13.0343 75.8723
13.0792 79.4787
13.1242 90.2564
13.1691 113.935
13.214 152.173
13.2589 245.705
13.3038 378.13
13.3487 419.781
13.3937 249.697
13.4386 119.971
13.4835 107.06
13.5285 122.344
13.5734 161.846
13.6183 253.756
13.6633 353.845
13.7082 325.648
13.7531 170.925
13.7981 93.6159
13.843 81.3666
13.888 79.2862
13.9329 76.6488
13.9779 75.2904
14.0228 73.9266
14.0678 72.7622
14.1127 72.3831
14.1577 72.0881
14.2027 71.0583
14.2476 70.1031
14.2926 69.9939
14.3376 71.0218
14.3825 69.7196
14.4275 68.8325
14.4725 68.6091
14.5175 68.756
14.5624 68.6843
14.6074 70.277
14.6524 70.7374
14.6974 70.4466
14.7424 72.5414
14.7874 79.7647
14.8324 89.9695
14.8774 112.256
14.9224 157.661
14.9674 210.325
15.0124 214.941
15.0574 141.125
15.1024 86.689
15.1474 71.6929
15.1924 70.0844
15.2374 69.974
15.2824 69.2948
15.3274 67.7228
15.3725 66.7357
15.4175 66.2097
15.4625 65.7892
15.5076 65.8298
15.5526 66.0787
15.5976 65.8291
15.6426 67.076
15.6877 73.3133
15.7327 80.3209
15.7778 96.368
15.8228 129.032
15.8679 175.009
15.9129 194.804
15.958 151.508
16.003 93.0912
16.0481 66.6865
16.0931 63.5086
16.1382 61.8196
16.1833 60.1331
16.2283 58.6075
16.2734 57.9824
16.3185 58.044
16.3636 58.1716
16.4086 57.1786
16.4537 55.8862
16.4988 55.351
16.5439 55.0322
16.589 54.9078
16.6341 54.6188
16.6792 54.3191
16.7243 54.6382
16.7694 54.6628
16.8145 54.516
16.8596 55.0881
16.9047 56.1503
16.9498 56.2814
16.9949 55.4371
17.04 55.7339
17.0851 56.9836
17.1302 58.7125
17.1754 61.7404
17.2205 67.099
17.2656 74.7819
17.3108 83.2772
17.3559 81.7199
17.401 69.8423
17.4462 61.4667
17.4913 58.9221
17.5365 59.0698
17.5815 59.1566
17.6268 59.466
17.6718 59.9516
17.7171 60.7893
17.7622 60.9296
17.8074 61.8316
17.8525 64.6416
17.8977 68.9452
17.9428 74.1572
17.9881 83.4077
18.0331 101.49
18.0784 124.557
18.1237 142.728
18.1688 130.449
18.214 100.695
18.2591 85.7489
18.3044 91.1358
18.3495 100.573
18.3948 105.44
18.4399 94.6062
18.4852 75.351
18.5303 65.1317
18.5756 61.855
18.6207 60.9675
18.666 60.2975
18.7112 59.5103
18.7565 58.6769
18.8016 58.393
18.8469 57.98
18.892 57.6227
18.9374 56.9152
18.9825 57.0021
19.0278 56.7853
19.073 56.6774
19.1183 57.388
19.1635 58.0555
19.2088 59.4822
19.254 62.2543
19.2993 67.1232
19.3447 73.5036
19.3898 76.6506
19.4352 71.4791
19.4804 62.1559
19.5257 56.1289
19.5709 53.8714
19.6163 53.642
19.6615 53.5519
19.7068 53.1668
19.752 53.1584
19.7974 53.6591
19.8426 54.2021
19.888 54.836
19.9332 56.0369
19.9786 58.9817
20.0238 62.8717
20.0692 67.6829
20.1144 69.6989
20.1598 67.6197
20.205 62.8251
20.2504 61.9333
20.2957 64.0791
20.3411 65.462
20.3863 63.1867
20.4318 57.454
20.477 52.8382
20.5224 51.2489
20.5677 50.7357
20.6131 50.1109
20.6586 49.4589
20.7038 49.3614
20.7493 48.9285
20.7945 48.6845
20.84 48.6552
20.8853 48.57
20.9307 48.3145
20.976 48.5337
21.0215 48.3963
21.0668 48.8982
21.1122 49.311
21.1575 50.0334
21.203 50.8348
21.2483 51.3373
21.2938 51.104
21.3391 49.8341
21.3846 48.7277
21.4299 48.2374
21.4754 48.1871
21.5207 48.4616
21.5662 48.5808
21.6116 49.2153
21.6571 49.8179
21.7024 50.9231
21.7479 52.6335
21.7933 55.5812
21.8388 59.3509
21.8843 63.173
21.9297 64.8602
21.9752 62.8127
22.0206 59.0267
22.0661 56.4204
22.1115 56.0717
22.157 55.6926
22.2024 53.9121
22.248 51.0727
22.2933 49.5922
22.3389 49.0157
22.3843 48.8024
22.4299 48.7949
22.4753 48.7065
22.5208 48.4716
22.5662 48.477
22.6118 48.6468
22.6572 48.8466
22.7028 49.2864
22.7483 49.5371
22.7939 50.2912
22.8393 51.9519
22.8849 54.184
22.9303 56.2175
22.9759 58.0544
23.0214 57.0459
23.067 54.0839
23.1126 50.6227
23.1581 49.0422
23.2037 48.7077
23.2492 48.8073
23.2948 48.6783
23.3403 49.1953
23.3859 49.6168
23.4314 50.8096
23.477 52.7462
23.5225 55.1513
23.5682 57.146
23.6137 57.9369
23.6593 55.1244
23.7048 50.8916
23.7505 47.8171
23.796 46.3729
23.8417 45.8773
23.8872 45.485
23.9329 45.1034
23.9784 44.7423
24.0241 44.5
24.0697 44.4134
24.1154 43.9017
24.1609 43.836
24.2066 43.7264
24.2522 43.5373
24.2979 43.2807
24.3434 43.0941
24.3892 42.9405
24.4349 43.0159
24.4805 42.6506
24.5262 43.0765
24.5718 42.8399
24.6175 42.7418
24.6631 42.6795
24.7089 42.3406
24.7545 42.1598
24.8002 42.2082
24.8458 42.2039
24.8916 42.0939
24.9372 42.1026
24.983 42.3907
25.0286 42.8372
25.0744 43.2524
25.12 43.7536
25.1658 44.4004
25.2114 44.6415
25.2572 44.7229
25.3029 44.6862
25.3487 44.9189
25.3943 44.489
25.4402 43.1959
25.4858 42.0621
25.5316 41.2987
25.5773 40.7514
25.6231 40.7427
25.669 40.2665
25.7147 40.3595
25.7605 40.293
25.8062 40.3072
25.8521 40.4792
25.8977 40.4109
25.9436 40.7782
25.9893 41.0454
26.0352 41.3532
26.0809 41.5302
26.1268 41.7016
26.1725 41.2667
26.2184 40.6409
26.2641 40.1795
26.31 40.0285
26.3557 39.9615
26.4017 40.0857
26.4474 40.3159
26.4933 40.5681
26.5391 41.2125
26.585 41.7024
26.6308 42.0831
26.6767 42.1123
26.7225 41.706
26.7684 41.3313
26.8142 40.7216
26.8601 40.4438
26.9059 39.8667
26.9519 39.3982
26.9979 39.0733
27.0437 38.6982
27.0896 38.6039
27.1354 38.7047
27.1814 38.517
27.2272 38.4234
27.2732 38.3728
27.3191 38.3141
27.3651 38.3498
27.4109 38.3172
27.4569 38.3404
27.5027 38.467
27.5488 38.4961
27.5946 38.3332
27.6407 38.0947
27.6865 37.9992
27.7326 37.5484
27.7784 37.881
27.8245 37.8075
27.8703 37.9395
27.9164 38.2542
27.9623 38.4489
28.0084 38.6194
28.0543 39.0891
28.1003 39.0036
28.1462 38.6322
28.1923 38.2563
28.2384 37.8451
28.2843 37.5761
28.3304 36.9825
28.3764 36.3834
28.4225 36.1843
28.4684 36.0606
28.5145 35.7732
28.5605 35.6963
28.6066 35.5371
28.6526 35.4875
28.6987 35.5812
28.7447 35.2841
28.7908 35.2371
28.8368 35.4198
28.8829 35.3904
28.9289 35.2852
28.9751 35.0376
29.0211 34.7335
29.0673 34.5695
29.1133 34.4507
29.1595 34.3214
29.2055 34.2616
29.2517 34.4283
29.2977 34.0913
29.3439 34.2464
29.3899 34.152
29.4361 34.0438
29.4824 33.8104
29.5284 33.6602
29.5746 33.2355
29.6207 33.0872
29.6669 32.967
29.713 32.8557
29.7593 32.8016
29.8053 32.7734
29.8516 32.7114
29.8977 32.7932
29.9439 32.4551
29.99 32.4495
30.0363 32.485
30.0824 32.3591
30.1287 32.4288
30.1748 32.3609
30.2211 32.3457
30.2673 32.2604
30.3136 32.3322
30.3597 32.2255
30.406 32.2082
30.4522 31.9363
30.4985 31.9541
30.5447 32.2766
30.591 32.1037
30.6372 32.1729
30.6835 32.1285
30.7297 32.138
30.7761 32.0183
30.8224 31.9061
30.8686 31.7568
30.915 31.5078
30.9612 31.3715
31.0076 31.2462
31.0538 31.0736
31.1002 31.053
31.1464 30.8611
31.1928 30.9529
31.2391 30.9124
31.2855 30.7766
31.3317 30.8468
31.3781 30.799
31.4244 30.8436
31.4708 30.7312
31.5171 30.7623
31.5636 30.6839
31.6098 30.3983
31.6563 30.1915
31.7026 30.1756
31.7491 30.0186
31.7953 30.1885
31.8418 30.2242
31.8881 30.1705
31.9346 30.0769
31.9809 29.9923
32.0275 29.8179
32.074 29.7274
32.1203 29.5729
32.1668 29.476
32.2132 29.2811
32.2597 29.0681
32.306 29.1598
32.3526 28.9713
32.399 28.9167
32.4455 28.7463
32.4919 28.6203
32.5385 28.5759
32.5848 28.4106
32.6314 28.4975
32.6778 28.2725
32.7244 28.1777
32.7708 28.0936
32.8174 28.0607
32.8638 27.9891
32.9104 28.0103
32.9569 27.9708
33.0035 27.813
33.0499 27.759
33.0966 27.8249
33.143 27.7312
33.1897 27.6287
33.2361 27.5857
33.2828 27.4938
33.3293 27.3027
33.3759 27.4523
33.4226 27.1508
33.4691 27.0266
33.5158 26.9676
33.5623 26.843
33.609 26.6772
33.6555 26.6698
33.7022 26.521
33.7487 26.4207
33.7954 26.4365
33.842 26.3195
33.8887 26.2565
33.9353 26.1836
33.982 26.1184
34.0286 26.07
34.0753 25.9509
34.1219 25.8833
34.1687 25.7499
34.2152 25.7735
34.262 25.6211
34.3086 25.5156
34.3554 25.4799
34.402 25.3577
34.4488 25.1952
34.4954 25.1826
34.5422 25.132
34.5889 25.049
34.6357 24.9927
34.6825 24.8644
34.7292 24.8186
34.776 24.606
34.8227 24.6315
34.8695 24.5912
34.9162 24.513
34.9631 24.414
35.0098 24.3745
35.0566 24.1999
35.1033 24.2428
35.1502 24.2352
35.1969 24.1888
35.2438 24.1669
35.2906 23.9998
35.3375 24.0423
35.3842 23.9732
35.4311 23.9272
35.4779 23.8855
35.5248 23.8094
35.5716 23.7178
35.6185 23.6752
35.6653 23.5535
35.7123 23.4329
35.759 23.4748
35.806 23.2695
35.8528 23.1611
35.8998 23.2011
35.9468 23.0461
35.9936 23.0708
36.0406 23.0201
36.0874 22.8987
36.1345 22.7746
36.1813 22.7366
36.2283 22.6158
36.2752 22.6255
36.3222 22.6255
36.3691 22.4914
36.4161 22.3856
36.463 22.4719
36.5101 22.3846
36.557 22.2867
36.6041 22.1188
36.651 22.1805
36.6981 22.0157
36.745 22.0459
36.7921 21.9511
36.839 21.8256
36.8861 21.7408
36.9331 21.6669
36.9802 21.6134
37.0272 21.5375
37.0743 21.4727
37.1213 21.4314
37.1684 21.3026
37.2154 21.3003
37.2626 21.3077
37.3098 21.2425
37.3568 21.1014
37.404 21.1232
37.451 20.9727
37.4982 20.9001
37.5452 20.7668
37.5924 20.724
37.6395 20.7515
37.6867 20.6753
37.7337 20.5193
37.781 20.4254
37.8281 20.4084
37.8753 20.4069
37.9224 20.293
37.9697 20.2319
38.0168 20.1955
38.064 20.0633
38.1111 20.0624
38.1584 19.9975
38.2056 19.8773
38.2529 19.8815
38.3 19.7647
38.3473 19.8126
38.3945 19.6331
38.4418 19.6395
38.489 19.5372
38.5363 19.5246
38.5837 19.4394
38.6309 19.3376
38.6782 19.2707
38.7254 19.2484
38.7728 19.1637
38.82 19.1032
38.8674 18.9991
38.9146 19.0199
38.9621 18.922
39.0093 18.9198
39.0567 18.805
39.104 18.8443
39.1514 18.6877
39.1987 18.5946
39.2461 18.6063
39.2934 18.5058
39.3409 18.4704
39.3882 18.3167
39.4356 18.3292
39.483 18.262
39.5304 18.2041
39.5778 18.2063
39.6253 18.1478
39.6726 18.0693
39.7201 18.015
39.7675 17.9506
39.815 17.9047
39.8624 17.7628
39.9099 17.7716
39.9575 17.723
40.0049 17.6655
40.0525 17.5729
40.0999 17.5491
40.1474 17.4984
40.1949 17.3569
40.2425 17.3733
40.2899 17.384
40.3375 17.2693
40.385 17.1696
40.4326 17.1595
40.48 17.0441
40.5277 17.0347
40.5752 17.0317
40.6228 16.9071
40.6703 16.8596
40.718 16.7721
40.7655 16.7881
40.8132 16.7017
40.8607 16.7099
40.9084 16.6081
40.9559 16.5518
41.0036 16.5152
41.0512 16.468
41.0989 16.462
41.1465 16.3515
41.1942 16.2804
41.242 16.1676
41.2896 16.2048
41.3373 16.1406
41.3849 16.055
41.4327 16.0541
41.4803 15.9222
41.5281 15.8973
41.5758 15.858
41.6236 15.7762
41.6712 15.7575
41.7191 15.631
41.7667 15.634
41.8146 15.5458
41.8622 15.5211
41.9101 15.5185
41.9578 15.3949
42.0057 15.3487
42.0534 15.3424
42.1013 15.3123
42.149 15.2183
42.1969 15.1763
42.2446 15.1639
42.2925 15.055
42.3403 15.034
42.3882 14.9996
42.436 14.9219
42.4839 14.8827
42.5319 14.8213
42.5797 14.7293
42.6277 14.7612
42.6755 14.7394
42.7235 14.6602
42.7713 14.6604
42.8193 14.5204
42.8671 14.4944
42.9152 14.4415
42.963 14.4324
43.0111 14.3419
43.0589 14.3126
43.107 14.2255
43.1549 14.1812
43.2029 14.1029
43.2508 14.0925
43.2989 14.0499
43.3468 13.9845
43.3949 13.9944
43.4429 13.8841
43.491 13.8143
43.5389 13.8313
43.5871 13.7832
43.635 13.7001
43.6832 13.6508
43.7312 13.5879
43.7793 13.5754
43.8273 13.5091
43.8755 13.4157
43.9237 13.4629
43.9717 13.3941
44.0199 13.3492
44.068 13.3177
44.1162 13.2317
44.1642 13.1506
44.2125 13.1507
44.2606 13.1061
44.3088 13.0535
44.3569 13.0411
44.4052 12.9597
44.4533 12.8878
44.5016 12.8624
44.5497 12.8416
44.598 12.7903
44.6461 12.7404
44.6945 12.678
44.7426 12.6755
44.791 12.577
44.8391 12.5779
44.8875 12.5616
44.9357 12.5265
44.984 12.4265
45.0322 12.4151
45.0806 12.3429
45.1288 12.2826
45.1773 12.2552
45.2257 12.2196
45.2739 12.1445
45.3224 12.1303
45.3706 12.1195
45.4191 12.0312
45.4673 12.0383
45.5158 11.9925
45.5641 11.9444
45.6126 11.8947
45.6609 11.85
45.7094 11.8058
45.7577 11.7608
45.8063 11.7164
45.8546 11.6708
45.9031 11.6247
45.9515 11.6011
46.0001 11.5656
46.0484 11.5101
46.097 11.4722
46.1454 11.4061
46.194 11.4112
46.2424 11.3165
46.291 11.247
46.3395 11.2441
46.3881 11.2082
46.4365 11.1885
46.4852 11.1488
46.5337 11.1301
46.5823 11.0669
46.631 10.9866
46.6795 10.9487
46.7282 10.9659
46.7767 10.9106
46.8254 10.8501
46.8739 10.7944
46.9226 10.737
46.9712 10.7258
47.0199 10.6867
47.0685 10.6375
47.1173 10.5858
47.1658 10.5525
47.2146 10.5742
47.2632 10.4657
47.312 10.4746
47.3606 10.4227
47.4095 10.3742
47.4581 10.3208
47.5069 10.2798
47.5556 10.2238
47.6044 10.2396
47.6531 10.138
47.702 10.1233
47.7507 10.1098
47.7996 10.0662
47.8483 10.0538
47.8972 10.0483
47.9461 9.97493
47.9948 9.90875
48.0438 9.87124
48.0925 9.86256
48.1415 9.81122
48.1902 9.81012
48.2392 9.76315
48.288 9.74091
48.337 9.65368
48.3858 9.65718
48.4348 9.5905
48.4837 9.62392
48.5327 9.55218
48.5815 9.52269
48.6306 9.46414
48.6795 9.42008
48.7285 9.42681
48.7774 9.35083
48.8265 9.33308
48.8754 9.2905
48.9245 9.25711
48.9734 9.21768
49.0226 9.18308
49.0715 9.14858
49.1206 9.10774
49.1696 9.06894
49.2188 9.0504
49.2679 8.99832
49.3169 9.00105
49.3661 8.92738
49.4151 8.90785
49.4643 8.8731
49.5134 8.83165
49.5626 8.7701
49.6117 8.78994
49.6609 8.73708
49.71 8.67675
49.7592 8.69654
49.8083 8.64798
49.8576 8.62663
49.9067 8.559
49.956 8.56099
50.0052 8.50522
50.0545 8.48822
50.1036 8.43618
50.153 8.45725
50.2022 8.37816
50.2515 8.31811
50.3007 8.33781
50.3501 8.24296
50.3993 8.24555
50.4487 8.23233
50.498 8.20377
50.5474 8.13823
50.5966 8.13035
50.6461 8.10168
50.6955 8.06494
50.7448 8.04271
50.7943 8.00961
50.8436 7.99236
50.8931 7.94047
50.9424 7.93787
50.9919 7.8899
51.0413 7.84322
51.0908 7.82537
51.1402 7.78134
51.1897 7.74507
51.2391 7.733
51.2887 7.68022
51.3381 7.64466
51.3877 7.63032
51.4371 7.57873
51.4867 7.56634
51.5362 7.49878
51.5858 7.49604
51.6353 7.42704
51.6849 7.40528
51.7344 7.40068
51.7841 7.35572
51.8336 7.32781
51.8833 7.29172
51.9328 7.30373
51.9826 7.20633
52.0323 7.25477
52.0818 7.15131
52.1316 7.13957
52.1812 7.15862
52.231 7.08757
52.2806 7.09323
52.3304 7.05014
52.38 6.98847
52.4298 6.99262
52.4794 6.93184
52.5293 6.93736
52.5789 6.903
52.6288 6.88081
52.6785 6.82614
52.7284 6.80588
52.7781 6.82105
52.828 6.77415
52.8777 6.71302
52.9276 6.68734
52.9774 6.65527
53.0273 6.6787
53.0771 6.64371
53.1271 6.6059
53.1769 6.60527
53.2269 6.56241
53.2767 6.4913
53.3267 6.49377
53.3765 6.46885
53.4266 6.42875
53.4766 6.39391
53.5265 6.36468
53.5765 6.36825
53.6264 6.28394
53.6765 6.30597
53.7264 6.25777
53.7765 6.21019
53.8265 6.17374
53.8766 6.18822
53.9266 6.15995
53.9767 6.11452
54.0267 6.0764
54.0769 6.03622
54.1269 6.05453
54.1771 6.03261
54.2271 5.93522
54.2773 5.94806
54.3274 5.95631
54.3776 5.89853
54.4277 5.84061
54.478 5.83233
54.528 5.77024
54.5783 5.75397
54.6285 5.70165
54.6788 5.72548
54.7289 5.6399
54.7792 5.58897
54.8296 5.56303
54.8798 5.46967
54.9301 5.48949
54.9803 5.421
55.0307 5.40539
55.0809 5.39397
55.1314 5.31434
55.1816 5.30641
55.232 5.21871
55.2823 5.24053
55.3328 5.1453
55.383 5.0906
55.4335 5.09197
55.4838 4.96349
55.5344 4.94285
55.5847 4.89608
55.6352 4.91732
55.6856 4.80814
55.7361 4.84244