File: XRD/Ni3Fe_FD0623.xy
TT I
1.27165 6.96123
1.31627 6.58391
1.36089 6.90482
1.40551 5.70134
1.45013 6.51473
1.49476 6.23393
1.53938 5.79696
1.584 5.18697
1.62863 5.2844
1.67325 5.19725
1.71787 4.66394
1.7625 4.93963
1.80712 4.38841
1.85174 4.76207
1.89636 4.68395
1.94099 4.34967
1.98562 3.93774
2.03025 4.36994
2.07487 4.49702
2.11949 4.42157
2.16411 4.84209
2.20874 14.3126
2.25338 22.903
2.298 5.56102
2.34263 5.24676
2.38725 5.74706
2.43188 5.9341
2.4765 6.25632
2.52115 7.22567
2.56577 7.02019
2.6104 7.654
2.65503 7.35397
2.69965 7.59517
2.7443 8.26674
2.78893 7.87439
2.83356 8.0737
2.87818 9.14115
2.92281 8.5326
2.96744 9.17663
3.01209 9.96279
3.05672 11.0627
3.10135 12.0389
3.14599 12.9296
3.19062 14.1106
3.23527 15.0021
3.2799 15.8703
3.32454 16.7074
3.36917 17.6962
3.4138 18.9631
3.45844 19.6558
3.50309 21.191
3.54773 21.951
3.59237 23.9823
3.637 95.1285
3.68164 60.487
3.7263 26.1325
3.77094 26.0735
3.81558 27.0527
3.86022 27.9953
3.90486 29.0556
3.9495 30.2457
3.99416 30.9814
4.0388 32.3493
4.08344 33.7111
4.12809 35.1447
4.17273 37.1437
4.21738 43.6291
4.26204 252.186
4.30669 218.911
4.35133 49.0355
4.39598 44.6517
4.44063 54.6928
4.4853 65.8395
4.52995 50.4798
4.5746 51.22
4.61925 53.7428
4.6639 55.6562
4.70855 57.7774
4.75322 60.853
4.79788 64.0963
4.84253 67.4271
4.88719 71.808
4.93184 75.169
4.97652 81.1938
5.02118 87.0881
5.06583 94.8741
5.11049 105.727
5.15515 175.019
5.19981 349.267
5.24449 2843.67
5.28916 12668.8
5.33382 2984.27
5.37848 194.507
5.42315 130.376
5.46783 114.235
5.5125 106.655
5.55716 102.826
5.60183 99.0211
5.6465 97.0755
5.69117 94.6287
5.73586 92.8283
5.78053 92.1049
5.8252 91.1124
5.86988 91.8683
5.91455 94.0779
5.95924 101.844
6.00392 202.674
6.0486 968.809
6.09328 4378.0
6.13795 3506.53
6.18263 254.376
6.22733 94.6051
6.27201 83.6358
6.3167 103.521
6.36138 80.9496
6.40606 69.5324
6.45075 67.8431
6.49545 66.0024
6.54014 63.9518
6.58483 63.6644
6.62952 63.1567
6.67421 95.9057
6.71892 146.2
6.76361 69.2212
6.8083 59.2421
6.853 57.8974
6.89769 57.2207
6.94239 57.1746
6.98711 56.268
7.03181 55.9045
7.07651 55.6697
7.12121 55.4792
7.16591 55.5925
7.21063 56.0449
7.25533 70.9638
7.30004 183.084
7.34475 92.6981
7.38945 57.3074
7.43416 55.0811
7.47889 54.6825
7.5236 55.18
7.56831 55.8072
7.61303 57.1874
7.65774 57.7257
7.70247 56.6793
7.74719 56.6428
7.79191 57.0223
7.83663 57.1786
7.88135 57.86
7.92607 58.9801
7.97081 59.8277
8.01553 61.2193
8.06026 62.0678
8.10498 64.0463
8.14971 73.5427
8.19446 72.7256
8.23919 69.5909
8.28392 71.8784
8.32865 74.2982
8.37339 78.47
8.41812 85.7142
8.46288 114.813
8.50761 161.409
8.55235 384.619
8.59709 1171.22
8.64183 2177.23
8.68658 993.726
8.73134 170.62
8.77609 100.59
8.82083 93.0476
8.86558 89.6769
8.91033 90.121
8.9551 92.1627
8.99985 85.3892
9.04461 83.604
9.08936 83.121
9.13412 81.9001
9.17888 82.5282
9.22365 82.8406
9.26841 82.1644
9.31318 82.5993
9.35794 83.2543
9.4027 83.335
9.44749 83.9321
9.49226 84.6711
9.53703 85.4035
9.5818 87.8703
9.62657 92.3526
9.67134 99.5233
9.71614 93.764
9.76091 94.4
9.80569 96.9875
9.85047 100.218
9.89525 124.447
9.94005 136.381
9.98484 172.98
10.0296 337.373
10.0744 807.896
10.1192 1702.68
10.164 1602.68
10.2088 422.913
10.2536 129.905
10.2984 114.809
10.3432 115.481
10.388 105.218
10.4328 117.097
10.4776 159.152
10.5224 279.068
10.5672 503.822
10.612 501.697
10.6568 208.354
10.7017 97.7697
10.7465 87.2317
10.7913 83.5742
10.8361 81.5824
10.8809 79.383
10.9257 78.9726
10.9706 79.1826
11.0154 75.7124
11.0602 73.1451
11.105 72.3581
11.1499 76.6893
11.1947 84.0848
11.2395 75.0829
11.2844 70.6657
11.3292 67.4479
11.374 66.4112
11.4189 65.9054
11.4637 65.3449
11.5086 65.8891
11.5534 68.893
11.5983 66.0985
11.6431 63.9544
11.688 63.2824
11.7328 63.1946
11.7777 63.2649
11.8225 62.885
11.8674 62.7614
11.9122 62.8597
11.9571 63.2142
12.002 63.7372
12.0468 67.7398
12.0917 79.0088
12.1366 103.017
12.1814 152.454
12.2263 200.787
12.2712 168.293
12.3161 99.53
12.3609 71.2473
12.4058 65.3723
12.4507 64.5567
12.4956 64.5726
12.5405 65.0369
12.5853 66.0549
12.6302 73.9753
12.6751 79.4476
12.72 70.4881
12.7649 68.0152
12.8098 68.4479
12.8547 70.1632
12.8996 70.9782
12.9445 72.4281
12.9894 74.2662
13.0343 76.0965
13.0792 79.07
13.1242 87.7451
13.1691 111.211
13.214 147.735
13.2589 236.795
13.3038 367.95
13.3487 426.326
13.3937 272.344
13.4386 128.296
13.4835 105.647
13.5285 119.52
13.5734 158.028
13.6183 247.209
13.6633 345.793
13.7082 345.186
13.7531 193.791
13.7981 100.321
13.843 82.3019
13.888 79.9279
13.9329 77.8193
13.9779 76.0462
14.0228 74.6238
14.0678 73.0649
14.1127 72.9255
14.1577 72.7433
14.2027 71.8826
14.2476 70.6101
14.2926 71.1199
14.3376 72.0722
14.3825 70.5413
14.4275 69.2361
14.4725 68.887
14.5175 69.2255
14.5624 69.208
14.6074 71.6138
14.6524 72.0742
14.6974 70.5646
14.7424 71.9749
14.7874 78.5955
14.8324 88.8054
14.8774 110.578
14.9224 153.651
14.9674 205.693
15.0124 215.66
15.0574 151.194
15.1024 92.8188
15.1474 72.9463
15.1924 70.9938
15.2374 71.6857
15.2824 70.7227
15.3274 68.3534
15.3725 67.1202
15.4175 66.5725
15.4625 66.4599
15.5076 66.5907
15.5526 66.3732
15.5976 65.888
15.6426 66.6707
15.6877 72.0313
15.7327 79.4784
15.7778 94.6697
15.8228 125.908
15.8679 168.175
15.9129 191.83
15.958 156.778
16.003 98.7689
16.0481 68.9609
16.0931 64.9017
16.1382 63.1019
16.1833 61.067
16.2283 59.2446
16.2734 58.7435
16.3185 59.2252
16.3636 59.8448
16.4086 58.1538
16.4537 56.5511
16.4988 55.8614
16.5439 55.6049
16.589 55.4726
16.6341 55.1724
16.6792 54.715
16.7243 55.3436
16.7694 55.0495
16.8145 55.2208
16.8596 55.6031
16.9047 57.0314
16.9498 57.3578
16.9949 55.9684
17.04 56.0084
17.0851 57.1333
17.1302 58.9643
17.1754 62.0638
17.2205 66.9528
17.2656 74.6047
17.3108 82.557
17.3559 82.8256
17.401 72.8366
17.4462 63.0264
17.4913 59.6311
17.5365 59.2963
17.5815 59.43
17.6268 59.6538
17.6718 60.6271
17.7171 61.1148
17.7622 61.6207
17.8074 61.9238
17.8525 64.2427
17.8977 68.1141
17.9428 73.7465
17.9881 82.5625
18.0331 99.6691
18.0784 121.082
18.1237 138.935
18.1688 131.731
18.214 105.165
18.2591 87.7206
18.3044 90.8711
18.3495 99.9088
18.3948 105.969
18.4399 97.3903
18.4852 78.7032
18.5303 66.8043
18.5756 62.6653
18.6207 61.6465
18.666 60.8097
18.7112 60.148
18.7565 59.3455
18.8016 58.8378
18.8469 58.4263
18.892 58.014
18.9374 57.3729
18.9825 57.3432
19.0278 57.2623
19.073 57.2387
19.1183 57.7697
19.1635 58.4194
19.2088 59.6618
19.254 62.2267
19.2993 66.7717
19.3447 73.0365
19.3898 76.4804
19.4352 72.9806
19.4804 63.7727
19.5257 57.128
19.5709 54.4496
19.6163 54.2817
19.6615 54.1244
19.7068 53.5318
19.752 53.5693
19.7974 53.8244
19.8426 54.5749
19.888 55.382
19.9332 56.3446
19.9786 59.0117
20.0238 62.6287
20.0692 67.4641
20.1144 69.8785
20.1598 68.4567
20.205 64.0354
20.2504 62.4987
20.2957 64.1723
20.3411 65.5766
20.3863 64.356
20.4318 58.8413
20.477 54.2207
20.5224 52.2464
20.5677 51.2465
20.6131 50.5892
20.6586 49.8758
20.7038 49.7413
20.7493 49.2622
20.7945 49.2302
20.84 49.0702
20.8853 48.9643
20.9307 48.8315
20.976 49.047
21.0215 48.9603
21.0668 49.3618
21.1122 49.659
21.1575 50.1324
21.203 51.0228
21.2483 51.5571
21.2938 51.6594
21.3391 50.2928
21.3846 49.3332
21.4299 48.7607
21.4754 48.5853
21.5207 48.7827
21.5662 48.9777
21.6116 49.3264
21.6571 50.0467
21.7024 50.8777
21.7479 52.8765
21.7933 55.4036
21.8388 59.1409
21.8843 62.6511
21.9297 64.3055
21.9752 63.5006
22.0206 59.9725
22.0661 56.9175
22.1115 56.2811
22.157 56.122
22.2024 54.5084
22.248 51.9352
22.2933 50.1762
22.3389 49.4257
22.3843 49.39
22.4299 49.217
22.4753 49.0625
22.5208 48.8855
22.5662 48.6779
22.6118 48.907
22.6572 49.0318
22.7028 49.41
22.7483 49.6133
22.7939 50.4932
22.8393 52.1568
22.8849 54.3324
22.9303 56.2725
22.9759 57.8301
23.0214 57.5119
23.067 55.0121
23.1126 51.6746
23.1581 49.6503
23.2037 48.952
23.2492 49.1952
23.2948 48.8163
23.3403 49.2631
23.3859 50.0644
23.4314 51.0811
23.477 52.6924
23.5225 54.9679
23.5682 57.1866
23.6137 57.9648
23.6593 55.9515
23.7048 52.2154
23.7505 48.7981
23.796 47.002
23.8417 46.2834
23.8872 45.5704
23.9329 45.4494
23.9784 45.1825
24.0241 44.8577
24.0697 44.6195
24.1154 44.389
24.1609 44.2424
24.2066 44.0499
24.2522 44.0608
24.2979 43.6244
24.3434 43.5264
24.3892 43.4026
24.4349 43.3072
24.4805 43.108
24.5262 43.2939
24.5718 43.178
24.6175 43.165
24.6631 43.0287
24.7089 42.746
24.7545 42.5114
24.8002 42.435
24.8458 42.4021
24.8916 42.2139
24.9372 42.3776
24.983 42.7059
25.0286 43.1236
25.0744 43.5213
25.12 43.8637
25.1658 44.4542
25.2114 44.7713
25.2572 45.0179
25.3029 44.9785
25.3487 45.0649
25.3943 44.9133
25.4402 43.9022
25.4858 42.683
25.5316 41.7682
25.5773 41.2698
25.6231 41.0678
25.669 40.7018
25.7147 40.8114
25.7605 40.6559
25.8062 40.7756
25.8521 40.9659
25.8977 40.8493
25.9436 41.1159
25.9893 41.1788
26.0352 41.5953
26.0809 41.7272
26.1268 41.7167
26.1725 41.5861
26.2184 41.0089
26.2641 40.5325
26.31 40.3599
26.3557 40.2564
26.4017 40.3742
26.4474 40.6908
26.4933 40.9829
26.5391 41.5132
26.585 41.8508
26.6308 42.1769
26.6767 42.395
26.7225 42.2787
26.7684 41.6889
26.8142 40.9876
26.8601 40.7122
26.9059 40.2148
26.9519 39.6798
26.9979 39.2359
27.0437 39.1258
27.0896 38.8626
27.1354 39.066
27.1814 38.7469
27.2272 38.6576
27.2732 38.786
27.3191 38.5134
27.3651 38.6724
27.4109 38.6056
27.4569 38.707
27.5027 38.651
27.5488 38.766
27.5946 38.5585
27.6407 38.2608
27.6865 38.2795
27.7326 38.0779
27.7784 38.0962
27.8245 38.0722
27.8703 38.1691
27.9164 38.4363
27.9623 38.5892
28.0084 38.9152
28.0543 39.308
28.1003 39.1549
28.1462 39.0038
28.1923 38.5559
28.2384 38.2518
28.2843 37.7759
28.3304 37.3443
28.3764 36.9598
28.4225 36.7013
28.4684 36.548
28.5145 36.173
28.5605 36.0641
28.6066 35.8018
28.6526 35.9509
28.6987 35.7264
28.7447 35.6345
28.7908 35.577
28.8368 35.6611
28.8829 35.5369
28.9289 35.5317
28.9751 35.4406
29.0211 35.1165
29.0673 34.8466
29.1133 34.7231
29.1595 34.5902
29.2055 34.5209
29.2517 34.4727
29.2977 34.5293
29.3439 34.4498
29.3899 34.4022
29.4361 34.3343
29.4824 34.0626
29.5284 33.9431
29.5746 33.5429
29.6207 33.3262
29.6669 33.2147
29.713 33.2049
29.7593 33.031
29.8053 33.0221
29.8516 32.8638
29.8977 32.9019
29.9439 32.7556
29.99 32.7624
30.0363 32.5131
30.0824 32.6157
30.1287 32.5478
30.1748 32.5986
30.2211 32.6303
30.2673 32.4549
30.3136 32.5777
30.3597 32.4899
30.406 32.3693
30.4522 32.1863
30.4985 32.2228
30.5447 32.2578
30.591 32.3049
30.6372 32.3689
30.6835 32.3089
30.7297 32.3776
30.7761 32.3265
30.8224 32.2128
30.8686 32.0035
30.915 31.881
30.9612 31.69
31.0076 31.464
31.0538 31.2877
31.1002 31.2579
31.1464 31.1336
31.1928 31.0154
31.2391 31.0994
31.2855 31.0324
31.3317 30.939
31.3781 31.0383
31.4244 31.1087
31.4708 31.0197
31.5171 30.9454
31.5636 30.9222
31.6098 30.6606
31.6563 30.4344
31.7026 30.4432
31.7491 30.2113
31.7953 30.3984
31.8418 30.3185
31.8881 30.2845
31.9346 30.1945
31.9809 30.1801
32.0275 29.9855
32.074 29.9196
32.1203 29.772
32.1668 29.6611
32.2132 29.4693
32.2597 29.4877
32.306 29.3428
32.3526 29.1322
32.399 29.1708
32.4455 29.0039
32.4919 28.8892
32.5385 28.7852
32.5848 28.6242
32.6314 28.6717
32.6778 28.5446
32.7244 28.3792
32.7708 28.3466
32.8174 28.2785
32.8638 28.1303
32.9104 28.1766
32.9569 28.173
33.0035 28.1036
33.0499 27.878
33.0966 27.9262
33.143 27.9476
33.1897 27.7971
33.2361 27.7401
33.2828 27.7622
33.3293 27.521
33.3759 27.5321
33.4226 27.4424
33.4691 27.2572
33.5158 27.1591
33.5623 27.0509
33.609 26.882
33.6555 26.7212
33.7022 26.8315
33.7487 26.7218
33.7954 26.5992
33.842 26.4882
33.8887 26.4974
33.9353 26.4178
33.982 26.1792
34.0286 26.2233
34.0753 26.0967
34.1219 26.0978
34.1687 26.0121
34.2152 25.9665
34.262 25.741
34.3086 25.6905
34.3554 25.7113
34.402 25.5426
34.4488 25.4868
34.4954 25.3938
34.5422 25.2367
34.5889 25.1179
34.6357 25.1976
34.6825 25.0673
34.7292 24.9545
34.776 24.9317
34.8227 24.8964
34.8695 24.7726
34.9162 24.6814
34.9631 24.7029
35.0098 24.7182
35.0566 24.4725
35.1033 24.3781
35.1502 24.42
35.1969 24.3282
35.2438 24.3879
35.2906 24.2456
35.3375 24.1871
35.3842 24.0672
35.4311 24.0832
35.4779 24.1449
35.5248 24.0407
35.5716 23.965
35.6185 23.8872
35.6653 23.7269
35.7123 23.6921
35.759 23.5842
35.806 23.5635
35.8528 23.3541
35.8998 23.3147
35.9468 23.1885
35.9936 23.2214
36.0406 23.1256
36.0874 23.114
36.1345 23.0401
36.1813 22.8919
36.2283 22.8599
36.2752 22.7038
36.3222 22.8
36.3691 22.6696
36.4161 22.6042
36.463 22.5876
36.5101 22.608
36.557 22.4874
36.6041 22.2212
36.651 22.3264
36.6981 22.2803
36.745 22.1379
36.7921 22.0698
36.839 22.0
36.8861 21.9409
36.9331 21.8166
36.9802 21.8084
37.0272 21.7686
37.0743 21.6085
37.1213 21.613
37.1684 21.5182
37.2154 21.4638
37.2626 21.3214
37.3098 21.3339
37.3568 21.2204
37.404 21.227
37.451 21.1342
37.4982 21.0312
37.5452 20.9335
37.5924 20.9112
37.6395 20.9363
37.6867 20.8129
37.7337 20.6528
37.781 20.6425
37.8281 20.5728
37.8753 20.512
37.9224 20.4318
37.9697 20.3869
38.0168 20.3153
38.064 20.2655
38.1111 20.227
38.1584 20.1136
38.2056 20.0165
38.2529 20.03
38.3 19.9941
38.3473 19.9297
38.3945 19.8037
38.4418 19.8029
38.489 19.7369
38.5363 19.6217
38.5837 19.5644
38.6309 19.5001
38.6782 19.4042
38.7254 19.3231
38.7728 19.3548
38.82 19.2319
38.8674 19.2498
38.9146 19.1612
38.9621 19.0767
39.0093 19.0662
39.0567 18.9766
39.104 18.885
39.1514 18.8272
39.1987 18.7873
39.2461 18.7405
39.2934 18.7102
39.3409 18.5574
39.3882 18.4857
39.4356 18.4859
39.483 18.3755
39.5304 18.287
39.5778 18.3194
39.6253 18.2316
39.6726 18.1421
39.7201 18.1705
39.7675 18.1214
39.815 18.035
39.8624 17.9198
39.9099 17.8854
39.9575 17.8444
40.0049 17.7804
40.0525 17.6209
40.0999 17.6865
40.1474 17.5865
40.1949 17.4957
40.2425 17.4944
40.2899 17.4641
40.3375 17.368
40.385 17.3898
40.4326 17.3068
40.48 17.2299
40.5277 17.2019
40.5752 17.1058
40.6228 17.0617
40.6703 17.046
40.718 17.0005
40.7655 16.8876
40.8132 16.859
40.8607 16.8816
40.9084 16.7702
40.9559 16.6879
41.0036 16.67
41.0512 16.5979
41.0989 16.59
41.1465 16.4998
41.1942 16.402
41.242 16.37
41.2896 16.2905
41.3373 16.259
41.3849 16.1897
41.4327 16.086
41.4803 16.0754
41.5281 15.9905
41.5758 16.0442
41.6236 15.9145
41.6712 15.8459
41.7191 15.8137
41.7667 15.7814
41.8146 15.7682
41.8622 15.6039
41.9101 15.6308
41.9578 15.5715
42.0057 15.5376
42.0534 15.4355
42.1013 15.3718
42.149 15.3107
42.1969 15.3015
42.2446 15.2434
42.2925 15.1296
42.3403 15.0749
42.3882 15.1366
42.436 15.0791
42.4839 14.9864
42.5319 14.9752
42.5797 14.9244
42.6277 14.8454
42.6755 14.8287
42.7235 14.7263
42.7713 14.7339
42.8193 14.6471
42.8671 14.6126
42.9152 14.5604
42.963 14.4884
43.0111 14.4668
43.0589 14.4327
43.107 14.3496
43.1549 14.2948
43.2029 14.2735
43.2508 14.1996
43.2989 14.1721
43.3468 14.1045
43.3949 14.0552
43.4429 14.0082
43.491 13.9487
43.5389 13.9368
43.5871 13.918
43.635 13.846
43.6832 13.7749
43.7312 13.7066
43.7793 13.6814
43.8273 13.6348
43.8755 13.5584
43.9237 13.504
43.9717 13.5473
44.0199 13.4642
44.068 13.3989
44.1162 13.321
44.1642 13.3502
44.2125 13.2813
44.2606 13.2486
44.3088 13.1512
44.3569 13.0858
44.4052 13.1
44.4533 12.9673
44.5016 12.9336
44.5497 12.9143
44.598 12.881
44.6461 12.8383
44.6945 12.7822
44.7426 12.7795
44.791 12.6819
44.8391 12.6736
44.8875 12.5777
44.9357 12.5974
44.984 12.551
45.0322 12.455
45.0806 12.479
45.1288 12.4037
45.1773 12.3317
45.2257 12.3375
45.2739 12.2632
45.3224 12.1901
45.3706 12.19
45.4191 12.1347
45.4673 12.1005
45.5158 12.0718
45.5641 11.9845
45.6126 11.9771
45.6609 11.8983
45.7094 11.8778
45.7577 11.8554
45.8063 11.7713
45.8546 11.7902
45.9031 11.6911
45.9515 11.7218
46.0001 11.6573
46.0484 11.5845
46.097 11.5495
46.1454 11.4939
46.194 11.4645
46.2424 11.3969
46.291 11.3852
46.3395 11.3192
46.3881 11.2529
46.4365 11.2978
46.4852 11.2196
46.5337 11.1569
46.5823 11.1426
46.631 11.0458
46.6795 11.046
46.7282 11.0181
46.7767 10.9443
46.8254 10.9194
46.8739 10.9004
46.9226 10.8602
46.9712 10.8128
47.0199 10.7972
47.0685 10.6854
47.1173 10.7269
47.1658 10.6097
47.2146 10.6009
47.2632 10.5539
47.312 10.5196
47.3606 10.4548
47.4095 10.4178
47.4581 10.4146
47.5069 10.3822
47.5556 10.3174
47.6044 10.2722
47.6531 10.2619
47.702 10.2318
47.7507 10.1705
47.7996 10.1149
47.8483 10.0871
47.8972 10.1046
47.9461 10.0594
47.9948 9.97462
48.0438 9.9948
48.0925 9.93676
48.1415 9.85767
48.1902 9.85172
48.2392 9.86758
48.288 9.80305
48.337 9.75396
48.3858 9.7241
48.4348 9.70351
48.4837 9.67646
48.5327 9.58487
48.5815 9.5857
48.6306 9.5448
48.6795 9.51658
48.7285 9.47546
48.7774 9.44293
48.8265 9.41137
48.8754 9.35699
48.9245 9.35717
48.9734 9.29706
49.0226 9.28097
49.0715 9.23257
49.1206 9.18831
49.1696 9.15867
49.2188 9.11792
49.2679 9.10949
49.3169 9.06919
49.3661 9.032
49.4151 8.97585
49.4643 8.94128
49.5134 8.90476
49.5626 8.85951
49.6117 8.87288
49.6609 8.78673
49.71 8.72277
49.7592 8.74602
49.8083 8.73372
49.8576 8.6988
49.9067 8.62338
49.956 8.62619
50.0052 8.59394
50.0545 8.55873
50.1036 8.51118
50.153 8.5048
50.2022 8.44029
50.2515 8.39256
50.3007 8.3594
50.3501 8.34482
50.3993 8.32154
50.4487 8.29617
50.498 8.224
50.5474 8.22301
50.5966 8.21673
50.6461 8.17548
50.6955 8.12438
50.7448 8.07331
50.7943 8.10433
50.8436 8.03687
50.8931 8.0036
50.9424 7.955
50.9919 7.90601
51.0413 7.8946
51.0908 7.89613
51.1402 7.82197
51.1897 7.81634
51.2391 7.76488
51.2887 7.72725
51.3381 7.73559
51.3877 7.71831
51.4371 7.63594
51.4867 7.61069
51.5362 7.60882
51.5858 7.57184
51.6353 7.53633
51.6849 7.45665
51.7344 7.46252
51.7841 7.44432
51.8336 7.42175
51.8833 7.40432
51.9328 7.3189
51.9826 7.28902
52.0323 7.27828
52.0818 7.27479
52.1316 7.1846
52.1812 7.18095
52.231 7.15612
52.2806 7.10163
52.3304 7.10867
52.38 7.06568
52.4298 7.06126
52.4794 6.9718
52.5293 6.98613
52.5789 6.96643
52.6288 6.91656
52.6785 6.87064
52.7284 6.88605
52.7781 6.85711
52.828 6.80833
52.8777 6.73773
52.9276 6.73368
52.9774 6.72331
53.0273 6.70958
53.0771 6.65173
53.1271 6.63774
53.1769 6.60264
53.2269 6.6193
53.2767 6.57644
53.3267 6.56048
53.3765 6.52104
53.4266 6.48193
53.4766 6.45207
53.5265 6.3839
53.5765 6.42742
53.6264 6.35696
53.6765 6.34387
53.7264 6.30332
53.7765 6.29769
53.8265 6.2787
53.8766 6.23363
53.9266 6.18345
53.9767 6.14272
54.0267 6.16583
54.0769 6.12137
54.1269 6.09578
54.1771 6.061
54.2271 6.02851
54.2773 5.97506
54.3274 5.94965
54.3776 5.93016
54.4277 5.87989
54.478 5.8866
54.528 5.79789
54.5783 5.78757
54.6285 5.72275
54.6788 5.70547
54.7289 5.67491
54.7792 5.64077
54.8296 5.54853
54.8798 5.52175
54.9301 5.50832
54.9803 5.5184
55.0307 5.46657
55.0809 5.38029
55.1314 5.32886
55.1816 5.34993
55.232 5.34962
55.2823 5.1896
55.3328 5.19714
55.383 5.10166
55.4335 5.08383
55.4838 5.03964
55.5344 5.02392
55.5847 4.94407
55.6352 4.88816
55.6856 4.83416
55.7361 4.85472