File: XRD/Ni3Fe_FD0106.xy
TT I
1.27165 8.17298
1.31627 7.11124
1.36089 7.60388
1.40551 6.3572
1.45013 7.07216
1.49476 6.29476
1.53938 6.21441
1.584 5.96197
1.62863 6.25375
1.67325 5.50633
1.71787 5.76151
1.7625 5.33396
1.80712 5.31328
1.85174 5.15145
1.89636 4.8337
1.94099 5.72694
1.98562 5.13027
2.03025 4.89294
2.07487 4.92321
2.11949 4.91601
2.16411 4.7831
2.20874 4.84901
2.25338 4.06932
2.298 3.84637
2.34263 3.89837
2.38725 4.01727
2.43188 3.83254
2.4765 4.54625
2.52115 4.52047
2.56577 4.48531
2.6104 5.18872
2.65503 5.2088
2.69965 4.69085
2.7443 5.20712
2.78893 6.29735
2.83356 6.06085
2.87818 7.63666
2.92281 8.0449
2.96744 8.98333
3.01209 9.76766
3.05672 10.3491
3.10135 12.1339
3.14599 12.3839
3.19062 13.4622
3.23527 15.0398
3.2799 15.4415
3.32454 16.0939
3.36917 17.0525
3.4138 18.4072
3.45844 19.0626
3.50309 20.2399
3.54773 20.6508
3.59237 21.1431
3.637 22.3349
3.68164 22.515
3.7263 24.0444
3.77094 24.6607
3.81558 24.8877
3.86022 26.2038
3.90486 27.1019
3.9495 28.0225
3.99416 28.9069
4.0388 30.231
4.08344 31.6095
4.12809 32.2045
4.17273 33.3751
4.21738 35.0332
4.26204 35.3671
4.30669 36.9536
4.35133 39.1631
4.39598 40.645
4.44063 42.5087
4.4853 44.2373
4.52995 46.307
4.5746 48.2033
4.61925 50.6941
4.6639 52.7788
4.70855 56.1261
4.75322 59.0587
4.79788 61.7803
4.84253 65.2618
4.88719 69.9356
4.93184 75.4611
4.97652 83.1537
5.02118 91.8425
5.06583 104.054
5.11049 122.467
5.15515 167.027
5.19981 638.918
5.24449 3784.27
5.28916 6933.6
5.33382 6812.65
5.37848 627.049
5.42315 181.922
5.46783 134.802
5.5125 118.128
5.55716 110.385
5.60183 103.392
5.6465 100.688
5.69117 98.6912
5.73586 96.8679
5.78053 96.839
5.8252 97.2671
5.86988 101.074
5.91455 109.694
5.95924 132.657
6.00392 325.104
6.0486 1426.77
6.09328 2287.18
6.13795 3863.25
6.18263 889.799
6.22733 140.422
6.27201 93.8106
6.3167 80.5922
6.36138 73.2506
6.40606 68.8202
6.45075 66.3939
6.49545 63.9114
6.54014 61.6344
6.58483 60.6038
6.62952 59.5686
6.67421 57.7494
6.71892 56.7717
6.76361 56.0835
6.8083 55.0719
6.853 54.2925
6.89769 53.801
6.94239 53.642
6.98711 52.8292
7.03181 52.2044
7.07651 52.1613
7.12121 51.7408
7.16591 51.7403
7.21063 50.8257
7.25533 51.0971
7.30004 51.2239
7.34475 51.5343
7.38945 51.7498
7.43416 50.8304
7.47889 51.52
7.5236 57.4687
7.56831 71.886
7.61303 57.3992
7.65774 53.3118
7.70247 53.1018
7.74719 53.4057
7.79191 54.2101
7.83663 54.7689
7.88135 55.5138
7.92607 56.3184
7.97081 57.5645
8.01553 58.3339
8.06026 59.744
8.10498 61.0541
8.14971 62.8103
8.19446 64.5079
8.23919 67.0208
8.28392 70.5003
8.32865 72.9767
8.37339 78.0487
8.41812 83.9039
8.46288 97.5697
8.50761 184.435
8.55235 638.782
8.59709 783.095
8.64183 1228.07
8.68658 1742.66
8.73134 538.68
8.77609 125.957
8.82083 99.2786
8.86558 91.8463
8.91033 87.7571
8.9551 84.713
8.99985 83.3021
9.04461 82.4845
9.08936 81.6357
9.13412 80.9328
9.17888 81.1008
9.22365 90.2777
9.26841 111.54
9.31318 91.7631
9.35794 81.9709
9.4027 81.1321
9.44749 81.9418
9.49226 82.4733
9.53703 83.4434
9.5818 85.2396
9.62657 86.0057
9.67134 87.4058
9.71614 89.5303
9.76091 91.5916
9.80569 94.564
9.85047 98.1255
9.89525 103.907
9.94005 115.466
9.98484 195.968
10.0296 580.829
10.0744 684.448
10.1192 831.896
10.164 1511.09
10.2088 1151.39
10.2536 259.114
10.2984 120.248
10.3432 108.798
10.388 104.598
10.4328 123.229
10.4776 224.264
10.5224 248.018
10.5672 277.04
10.612 445.449
10.6568 414.35
10.7017 153.752
10.7465 93.3317
10.7913 83.2509
10.8361 79.9083
10.8809 77.2965
10.9257 74.7368
10.9706 73.4065
11.0154 71.905
11.0602 70.4734
11.105 69.1246
11.1499 67.8351
11.1947 66.6782
11.2395 65.8503
11.2844 65.0495
11.3292 64.4824
11.374 63.3761
11.4189 63.1246
11.4637 62.6586
11.5086 61.6674
11.5534 61.4008
11.5983 61.1654
11.6431 61.1801
11.688 60.6674
11.7328 60.5871
11.7777 60.3595
11.8225 60.2799
11.8674 60.817
11.9122 62.1817
11.9571 68.1892
12.002 67.7563
12.0468 68.5586
12.0917 92.4644
12.1366 106.615
12.1814 106.623
12.2263 131.788
12.2712 182.599
12.3161 155.275
12.3609 79.6066
12.4058 64.0397
12.4507 62.7336
12.4956 62.3311
12.5405 62.3586
12.5853 62.8287
12.6302 62.8608
12.6751 63.3485
12.72 64.3022
12.7649 65.4613
12.8098 65.8105
12.8547 67.2302
12.8996 68.698
12.9445 70.3141
12.9894 72.3283
13.0343 73.9205
13.0792 78.5103
13.1242 87.1406
13.1691 136.983
13.214 191.912
13.2589 188.605
13.3038 207.65
13.3487 303.751
13.3937 388.19
13.4386 241.302
13.4835 127.297
13.5285 160.327
13.5734 183.148
13.6183 173.045
13.6633 201.646
13.7082 295.261
13.7531 323.011
13.7981 174.838
13.843 90.7734
13.888 80.442
13.9329 76.7908
13.9779 74.9647
14.0228 73.6746
14.0678 72.2225
14.1127 72.3985
14.1577 75.5953
14.2027 73.8682
14.2476 70.3268
14.2926 68.6457
14.3376 68.0115
14.3825 67.7803
14.4275 66.9751
14.4725 67.2569
14.5175 67.527
14.5624 67.185
14.6074 67.6987
14.6524 68.2607
14.6974 68.7631
14.7424 70.695
14.7874 80.6187
14.8324 109.175
14.8774 120.037
14.9224 116.118
14.9674 128.957
15.0124 170.534
15.0574 206.856
15.1024 154.396
15.1474 86.2457
15.1924 71.4639
15.2374 68.6046
15.2824 66.9506
15.3274 66.0471
15.3725 65.433
15.4175 65.0638
15.4625 64.953
15.5076 64.4438
15.5526 64.606
15.5976 64.8957
15.6426 65.7142
15.6877 73.6182
15.7327 96.5371
15.7778 107.488
15.8228 103.252
15.8679 109.931
15.9129 135.029
15.958 177.707
16.003 164.581
16.0481 97.5557
16.0931 67.9841
16.1382 62.0533
16.1833 59.9354
16.2283 58.2815
16.2734 57.4149
16.3185 56.5615
16.3636 56.002
16.4086 54.9821
16.4537 54.758
16.4988 54.0395
16.5439 54.0696
16.589 53.9773
16.6341 53.6919
16.6792 53.2419
16.7243 53.507
16.7694 53.3268
16.8145 53.1974
16.8596 53.412
16.9047 53.8914
16.9498 54.5017
16.9949 54.5043
17.04 54.4887
17.0851 56.1786
17.1302 60.651
17.1754 64.0231
17.2205 63.3798
17.2656 63.7182
17.3108 68.1366
17.3559 75.0379
17.401 81.2642
17.4462 73.6309
17.4913 62.1272
17.5365 58.2834
17.5815 58.1378
17.6268 58.4187
17.6718 58.6916
17.7171 59.3186
17.7622 60.3851
17.8074 61.4283
17.8525 63.0496
17.8977 71.7086
17.9428 84.4212
17.9881 87.7136
18.0331 85.98
18.0784 89.4469
18.1237 103.403
18.1688 131.883
18.214 146.679
18.2591 118.504
18.3044 87.4013
18.3495 81.3863
18.3948 88.0357
18.4399 99.9611
18.4852 98.3417
18.5303 79.764
18.5756 65.8673
18.6207 61.6808
18.666 60.1626
18.7112 59.3934
18.7565 58.5651
18.8016 57.9416
18.8469 57.4626
18.892 57.0196
18.9374 56.5679
18.9825 56.2903
19.0278 55.9408
19.073 55.9
19.1183 56.5222
19.1635 59.0924
19.2088 61.4798
19.254 61.2906
19.2993 61.0866
19.3447 62.6188
19.3898 65.5734
19.4352 70.9386
19.4804 72.8237
19.5257 65.686
19.5709 56.7028
19.6163 53.771
19.6615 52.9725
19.7068 52.6994
19.752 52.5574
19.7974 52.7929
19.8426 53.9721
19.888 56.3822
19.9332 57.7957
19.9786 57.2761
20.0238 57.2043
20.0692 59.498
20.1144 64.3848
20.1598 70.3056
20.205 70.8799
20.2504 65.4492
20.2957 59.6519
20.3411 59.0513
20.3863 62.0983
20.4318 64.268
20.477 60.2648
20.5224 53.59
20.5677 50.4459
20.6131 49.5097
20.6586 49.1707
20.7038 48.942
20.7493 48.6287
20.7945 48.3976
20.84 48.3912
20.8853 48.1216
20.9307 47.9797
20.976 48.1147
21.0215 48.3495
21.0668 48.8296
21.1122 48.6712
21.1575 48.4001
21.203 48.5534
21.2483 49.006
21.2938 50.0748
21.3391 50.641
21.3846 50.1827
21.4299 48.873
21.4754 47.897
21.5207 48.0965
21.5662 48.1991
21.6116 48.5698
21.6571 50.9724
21.7024 52.5916
21.7479 53.3695
21.7933 52.9982
21.8388 53.8173
21.8843 56.2527
21.9297 59.1573
21.9752 63.5023
22.0206 65.3061
22.0661 61.2777
22.1115 55.869
22.157 54.2222
22.2024 55.3128
22.248 54.7674
22.2933 52.6904
22.3389 49.6898
22.3843 48.5913
22.4299 48.2917
22.4753 48.2748
22.5208 48.0324
22.5662 48.0703
22.6118 48.2086
22.6572 48.3585
22.7028 49.7688
22.7483 50.8584
22.7939 51.2312
22.8393 51.0916
22.8849 51.0185
22.9303 51.6206
22.9759 52.8331
23.0214 55.1031
23.067 57.3945
23.1126 56.5338
23.1581 52.721
23.2037 49.6684
23.2492 48.7317
23.2948 49.0039
23.3403 50.5363
23.3859 51.4907
23.4314 51.0312
23.477 50.5991
23.5225 50.6648
23.5682 51.4969
23.6137 53.4158
23.6593 56.0638
23.7048 57.3448
23.7505 54.195
23.796 49.4862
23.8417 46.5962
23.8872 45.6323
23.9329 44.932
23.9784 44.6502
24.0241 44.4295
24.0697 44.1573
24.1154 43.794
24.1609 43.5992
24.2066 43.3468
24.2522 43.3498
24.2979 43.078
24.3434 43.0035
24.3892 42.8703
24.4349 42.6154
24.4805 42.3592
24.5262 42.4879
24.5718 42.2082
24.6175 42.3334
24.6631 42.6354
24.7089 42.4162
24.7545 42.1092
24.8002 42.0094
24.8458 41.8569
24.8916 42.069
24.9372 42.2409
24.983 42.1652
25.0286 42.3353
25.0744 42.7863
25.12 43.1554
25.1658 43.4411
25.2114 43.6186
25.2572 43.9858
25.3029 44.1576
25.3487 44.0336
25.3943 43.7782
25.4402 44.2998
25.4858 44.3254
25.5316 43.0922
25.5773 41.4477
25.6231 40.9008
25.669 40.2849
25.7147 40.2198
25.7605 40.1749
25.8062 40.4543
25.8521 40.6155
25.8977 40.4692
25.9436 40.4618
25.9893 40.2635
26.0352 40.5086
26.0809 40.5046
26.1268 40.7276
26.1725 41.1553
26.2184 41.3684
26.2641 41.122
26.31 40.5793
26.3557 40.3541
26.4017 40.3142
26.4474 40.4089
26.4933 40.1935
26.5391 40.4302
26.585 40.5292
26.6308 40.796
26.6767 41.1675
26.7225 41.7585
26.7684 42.1981
26.8142 41.7441
26.8601 40.9124
26.9059 40.2983
26.9519 40.0014
26.9979 39.7752
27.0437 39.0834
27.0896 38.7713
27.1354 38.5723
27.1814 38.421
27.2272 38.3217
27.2732 38.5637
27.3191 38.2409
27.3651 38.2649
27.4109 38.1277
27.4569 38.0772
27.5027 38.0433
27.5488 38.0544
27.5946 38.1746
27.6407 38.1546
27.6865 38.2609
27.7326 38.2137
27.7784 38.0159
27.8245 37.865
27.8703 37.8784
27.9164 37.9388
27.9623 37.8647
28.0084 37.9718
28.0543 38.2046
28.1003 38.3621
28.1462 38.6649
28.1923 38.8458
28.2384 38.3581
28.2843 37.9641
28.3304 37.5607
28.3764 37.1963
28.4225 36.8499
28.4684 36.3763
28.5145 35.8158
28.5605 35.7123
28.6066 35.6199
28.6526 35.5092
28.6987 35.4231
28.7447 35.1166
28.7908 35.0156
28.8368 35.027
28.8829 34.9477
28.9289 34.9191
28.9751 34.8055
29.0211 34.9191
29.0673 34.7043
29.1133 34.5219
29.1595 34.3256
29.2055 34.1599
29.2517 34.0053
29.2977 33.9399
29.3439 33.6691
29.3899 33.6457
29.4361 33.6402
29.4824 33.721
29.5284 33.7476
29.5746 33.5053
29.6207 33.2011
29.6669 32.9489
29.713 32.7384
29.7593 32.6134
29.8053 32.5415
29.8516 32.5956
29.8977 32.4654
29.9439 32.414
29.99 32.4063
30.0363 32.175
30.0824 32.2014
30.1287 32.0764
30.1748 32.0714
30.2211 32.0134
30.2673 31.9682
30.3136 32.1265
30.3597 32.1192
30.406 32.204
30.4522 32.0422
30.4985 31.8235
30.5447 31.8848
30.591 31.7414
30.6372 31.7838
30.6835 31.6744
30.7297 31.7175
30.7761 31.7622
30.8224 31.9576
30.8686 31.8652
30.915 31.6307
30.9612 31.5074
31.0076 31.2744
31.0538 31.1084
31.1002 30.9876
31.1464 30.8445
31.1928 30.8438
31.2391 30.7517
31.2855 30.6324
31.3317 30.6083
31.3781 30.6292
31.4244 30.4953
31.4708 30.4191
31.5171 30.4871
31.5636 30.7019
31.6098 30.5337
31.6563 30.4979
31.7026 30.3332
31.7491 30.0772
31.7953 29.9471
31.8418 29.926
31.8881 29.8956
31.9346 29.8152
31.9809 29.8339
32.0275 29.7432
32.074 29.7226
32.1203 29.6153
32.1668 29.4509
32.2132 29.3382
32.2597 29.1254
32.306 29.0351
32.3526 28.7986
32.399 28.71
32.4455 28.5562
32.4919 28.6106
32.5385 28.4445
32.5848 28.3381
32.6314 28.3279
32.6778 28.2932
32.7244 28.0179
32.7708 27.9505
32.8174 28.0063
32.8638 27.7938
32.9104 27.8954
32.9569 27.7663
33.0035 27.6867
33.0499 27.6101
33.0966 27.5466
33.143 27.5374
33.1897 27.439
33.2361 27.2969
33.2828 27.3687
33.3293 27.213
33.3759 27.3077
33.4226 27.1953
33.4691 27.0777
33.5158 26.9639
33.5623 26.742
33.609 26.5697
33.6555 26.4479
33.7022 26.4543
33.7487 26.3155
33.7954 26.2748
33.842 26.1667
33.8887 26.1161
33.9353 26.0757
33.982 25.986
34.0286 25.9305
34.0753 25.7691
34.1219 25.7352
34.1687 25.5983
34.2152 25.5531
34.262 25.4129
34.3086 25.3369
34.3554 25.3332
34.402 25.1727
34.4488 25.0886
34.4954 25.049
34.5422 24.9574
34.5889 24.8542
34.6357 24.7415
34.6825 24.8146
34.7292 24.671
34.776 24.5123
34.8227 24.4382
34.8695 24.3542
34.9162 24.3769
34.9631 24.2241
35.0098 24.2546
35.0566 24.179
35.1033 24.0471
35.1502 24.0901
35.1969 23.9684
35.2438 23.9683
35.2906 23.9253
35.3375 23.8239
35.3842 23.7409
35.4311 23.7363
35.4779 23.6969
35.5248 23.7876
35.5716 23.5923
35.6185 23.4763
35.6653 23.5155
35.7123 23.3836
35.759 23.3458
35.806 23.2271
35.8528 23.1261
35.8998 23.0174
35.9468 22.9303
35.9936 22.8722
36.0406 22.8369
36.0874 22.8412
36.1345 22.6478
36.1813 22.5548
36.2283 22.5469
36.2752 22.404
36.3222 22.467
36.3691 22.4658
36.4161 22.2393
36.463 22.2441
36.5101 22.3252
36.557 22.2046
36.6041 22.0052
36.651 22.0487
36.6981 21.9961
36.745 21.8841
36.7921 21.8623
36.839 21.6937
36.8861 21.7398
36.9331 21.6095
36.9802 21.5227
37.0272 21.4836
37.0743 21.3256
37.1213 21.2995
37.1684 21.154
37.2154 21.117
37.2626 21.0376
37.3098 21.0544
37.3568 20.9539
37.404 20.9466
37.451 20.8212
37.4982 20.8256
37.5452 20.6987
37.5924 20.6451
37.6395 20.6427
37.6867 20.5119
37.7337 20.4042
37.781 20.371
37.8281 20.3296
37.8753 20.2002
37.9224 20.1991
37.9697 20.0707
38.0168 20.0482
38.064 19.9793
38.1111 19.9447
38.1584 19.8838
38.2056 19.808
38.2529 19.7771
38.3 19.6432
38.3473 19.6906
38.3945 19.5009
38.4418 19.5411
38.489 19.4499
38.5363 19.3323
38.5837 19.2711
38.6309 19.2342
38.6782 19.1439
38.7254 19.0823
38.7728 19.0664
38.82 18.9886
38.8674 18.9278
38.9146 18.8474
38.9621 18.8
39.0093 18.8612
39.0567 18.7135
39.104 18.6365
39.1514 18.5313
39.1987 18.5678
39.2461 18.4556
39.2934 18.4144
39.3409 18.2802
39.3882 18.2486
39.4356 18.2337
39.483 18.1573
39.5304 18.0954
39.5778 18.0346
39.6253 18.0995
39.6726 17.9541
39.7201 17.985
39.7675 17.8312
39.815 17.7809
39.8624 17.6703
39.9099 17.6424
39.9575 17.6165
40.0049 17.6207
40.0525 17.4985
40.0999 17.4773
40.1474 17.3556
40.1949 17.3081
40.2425 17.2358
40.2899 17.2055
40.3375 17.2465
40.385 17.0926
40.4326 17.0503
40.48 16.9851
40.5277 17.004
40.5752 16.9405
40.6228 16.8448
40.6703 16.8011
40.718 16.7841
40.7655 16.7244
40.8132 16.6316
40.8607 16.5916
40.9084 16.5503
40.9559 16.4657
41.0036 16.4351
41.0512 16.3792
41.0989 16.3828
41.1465 16.2476
41.1942 16.2286
41.242 16.1686
41.2896 16.1214
41.3373 16.0729
41.3849 15.9918
41.4327 15.9641
41.4803 15.8558
41.5281 15.895
41.5758 15.7894
41.6236 15.712
41.6712 15.6967
41.7191 15.593
41.7667 15.5467
41.8146 15.5134
41.8622 15.4301
41.9101 15.4254
41.9578 15.3356
42.0057 15.3358
42.0534 15.2483
42.1013 15.2157
42.149 15.1702
42.1969 15.0516
42.2446 15.0849
42.2925 14.9885
42.3403 14.9275
42.3882 14.9416
42.436 14.8636
42.4839 14.7725
42.5319 14.7674
42.5797 14.6726
42.6277 14.6599
42.6755 14.6456
42.7235 14.5463
42.7713 14.481
42.8193 14.4619
42.8671 14.385
42.9152 14.3659
42.963 14.2974
43.0111 14.2605
43.0589 14.21
43.107 14.1354
43.1549 14.1306
43.2029 14.0574
43.2508 14.0693
43.2989 13.9298
43.3468 13.9069
43.3949 13.8912
43.4429 13.8483
43.491 13.7375
43.5389 13.7462
43.5871 13.666
43.635 13.6154
43.6832 13.5867
43.7312 13.553
43.7793 13.4545
43.8273 13.4275
43.8755 13.3855
43.9237 13.3323
43.9717 13.3083
44.0199 13.2265
44.068 13.2493
44.1162 13.1946
44.1642 13.1319
44.2125 13.1573
44.2606 13.0318
44.3088 12.9774
44.3569 12.9279
44.4052 12.9288
44.4533 12.8253
44.5016 12.766
44.5497 12.7722
44.598 12.7481
44.6461 12.65
44.6945 12.6079
44.7426 12.5902
44.791 12.4884
44.8391 12.5079
44.8875 12.4298
44.9357 12.404
44.984 12.3433
45.0322 12.3017
45.0806 12.2584
45.1288 12.2206
45.1773 12.1931
45.2257 12.138
45.2739 12.0897
45.3224 12.0713
45.3706 12.0166
45.4191 11.923
45.4673 11.9243
45.5158 11.9062
45.5641 11.8254
45.6126 11.7936
45.6609 11.7074
45.7094 11.6804
45.7577 11.6884
45.8063 11.5596
45.8546 11.5894
45.9031 11.5493
45.9515 11.5
46.0001 11.4674
46.0484 11.4622
46.097 11.3804
46.1454 11.3338
46.194 11.3486
46.2424 11.2732
46.291 11.2044
46.3395 11.2184
46.3881 11.0958
46.4365 11.1217
46.4852 11.0783
46.5337 10.9911
46.5823 10.9918
46.631 10.9388
46.6795 10.8975
46.7282 10.8906
46.7767 10.8173
46.8254 10.7305
46.8739 10.7421
46.9226 10.7242
46.9712 10.718
47.0199 10.6117
47.0685 10.5779
47.1173 10.5172
47.1658 10.4634
47.2146 10.4409
47.2632 10.425
47.312 10.4244
47.3606 10.3357
47.4095 10.3418
47.4581 10.2805
47.5069 10.199
47.5556 10.1501
47.6044 10.1588
47.6531 10.1238
47.702 10.0671
47.7507 10.0535
47.7996 9.99934
47.8483 9.96275
47.8972 9.92721
47.9461 9.87516
47.9948 9.85028
48.0438 9.82365
48.0925 9.80301
48.1415 9.77521
48.1902 9.69352
48.2392 9.73138
48.288 9.64805
48.337 9.61344
48.3858 9.55223
48.4348 9.55162
48.4837 9.52604
48.5327 9.48266
48.5815 9.43328
48.6306 9.47808
48.6795 9.38135
48.7285 9.32016
48.7774 9.29905
48.8265 9.27487
48.8754 9.24418
48.9245 9.21729
48.9734 9.19064
49.0226 9.15093
49.0715 9.1036
49.1206 9.09315
49.1696 9.05662
49.2188 8.9777
49.2679 8.93004
49.3169 8.92706
49.3661 8.88529
49.4151 8.83745
49.4643 8.84828
49.5134 8.83609
49.5626 8.74082
49.6117 8.73558
49.6609 8.71368
49.71 8.61978
49.7592 8.64445
49.8083 8.58645
49.8576 8.5775
49.9067 8.53377
49.956 8.53189
50.0052 8.50267
50.0545 8.44443
50.1036 8.43045
50.153 8.35298
50.2022 8.35837
50.2515 8.31253
50.3007 8.27486
50.3501 8.242
50.3993 8.27286
50.4487 8.1623
50.498 8.17299
50.5474 8.1269
50.5966 8.07294
50.6461 8.0466
50.6955 8.04516
50.7448 7.99773
50.7943 8.00715
50.8436 7.91079
50.8931 7.92016
50.9424 7.88902
50.9919 7.88499
51.0413 7.82246
51.0908 7.78303
51.1402 7.81793
51.1897 7.73337
51.2391 7.69679
51.2887 7.65898
51.3381 7.59036
51.3877 7.57077
51.4371 7.5493
51.4867 7.52819
51.5362 7.48363
51.5858 7.4942
51.6353 7.45272
51.6849 7.4021
51.7344 7.36992
51.7841 7.35685
51.8336 7.33371
51.8833 7.28668
51.9328 7.25182
51.9826 7.20056
52.0323 7.19112
52.0818 7.20105
52.1316 7.11991
52.1812 7.14784
52.231 7.08874
52.2806 7.06998
52.3304 7.00223
52.38 6.97927
52.4298 6.94028
52.4794 6.90696
52.5293 6.88468
52.5789 6.88103
52.6288 6.8246
52.6785 6.82642
52.7284 6.83017
52.7781 6.76178
52.828 6.72066
52.8777 6.70955
52.9276 6.67378
52.9774 6.69154
53.0273 6.64509
53.0771 6.61152
53.1271 6.56921
53.1769 6.55613
53.2269 6.53743
53.2767 6.53573
53.3267 6.4619
53.3765 6.44916
53.4266 6.38268
53.4766 6.36856
53.5265 6.33656
53.5765 6.34474
53.6264 6.27627
53.6765 6.26383
53.7264 6.25745
53.7765 6.1619
53.8265 6.17929
53.8766 6.14696
53.9266 6.11656
53.9767 6.05695
54.0267 6.08355
54.0769 6.0668
54.1269 6.01886
54.1771 5.92776
54.2271 5.94886
54.2773 5.86476
54.3274 5.86806
54.3776 5.83933
54.4277 5.7683
54.478 5.75032
54.528 5.75477
54.5783 5.63875
54.6285 5.59065
54.6788 5.60725
54.7289 5.52594
54.7792 5.47665
54.8296 5.42413
54.8798 5.37386
54.9301 5.33142
54.9803 5.32125
55.0307 5.2991
55.0809 5.23382
55.1314 5.21707
55.1816 5.10447
55.232 5.10239
55.2823 5.04898
55.3328 4.94689
55.383 4.94132
55.4335 4.90736
55.4838 4.81522
55.5344 4.80009
55.5847 4.77448
55.6352 4.78458
55.6856 4.6909
55.7361 4.69723