File: XRD/Ni3Fe_FD0229.xy
TT I
1.27165 7.73107
1.31627 7.17644
1.36089 6.96
1.40551 6.91177
1.45013 6.20841
1.49476 6.43124
1.53938 7.28654
1.584 5.74953
1.62863 5.40591
1.67325 5.44506
1.71787 5.65901
1.7625 5.5056
1.80712 4.8904
1.85174 4.88085
1.89636 5.58444
1.94099 5.24913
1.98562 5.02131
2.03025 4.52641
2.07487 4.43931
2.11949 4.67989
2.16411 4.55825
2.20874 4.62629
2.25338 4.99545
2.298 3.79007
2.34263 4.45134
2.38725 4.8412
2.43188 4.64556
2.4765 4.88473
2.52115 4.52632
2.56577 5.34671
2.6104 5.97228
2.65503 5.72663
2.69965 6.44463
2.7443 6.60425
2.78893 7.30352
2.83356 7.46179
2.87818 7.87079
2.92281 8.46878
2.96744 8.93652
3.01209 10.0982
3.05672 11.1745
3.10135 11.7333
3.14599 12.9553
3.19062 13.3325
3.23527 15.3961
3.2799 15.2043
3.32454 17.0706
3.36917 18.1235
3.4138 18.6383
3.45844 19.5272
3.50309 20.8858
3.54773 21.579
3.59237 22.4393
3.637 23.0966
3.68164 23.7794
3.7263 25.0162
3.77094 25.6899
3.81558 26.5201
3.86022 27.4037
3.90486 29.2952
3.9495 29.6658
3.99416 30.6861
4.0388 32.2731
4.08344 33.7863
4.12809 34.9816
4.17273 36.2423
4.21738 37.9603
4.26204 39.4863
4.30669 40.3744
4.35133 42.787
4.39598 44.1026
4.44063 46.525
4.4853 48.4672
4.52995 52.1615
4.5746 54.4169
4.61925 55.7679
4.6639 57.8291
4.70855 61.154
4.75322 64.2445
4.79788 68.0248
4.84253 71.8996
4.88719 77.0533
4.93184 81.3432
4.97652 88.2705
5.02118 96.954
5.06583 107.245
5.11049 124.374
5.15515 169.247
5.19981 885.626
5.24449 3979.38
5.28916 10674.6
5.33382 4113.3
5.37848 277.929
5.42315 153.755
5.46783 129.73
5.5125 118.248
5.55716 112.574
5.60183 106.508
5.6465 104.321
5.69117 103.298
5.73586 101.336
5.78053 102.171
5.8252 102.028
5.86988 105.289
5.91455 110.05
5.95924 133.385
6.00392 446.795
6.0486 1418.24
6.09328 3645.45
6.13795 3674.58
6.18263 360.539
6.22733 109.817
6.27201 89.1725
6.3167 81.1433
6.36138 76.2706
6.40606 73.2275
6.45075 71.1169
6.49545 68.2685
6.54014 66.7293
6.58483 65.4627
6.62952 64.0924
6.67421 62.6342
6.71892 61.9512
6.76361 60.6493
6.8083 60.0706
6.853 59.2251
6.89769 58.6354
6.94239 58.4083
6.98711 57.4914
7.03181 57.0105
7.07651 56.4659
7.12121 56.4125
7.16591 56.5779
7.21063 55.8675
7.25533 55.5563
7.30004 55.5327
7.34475 55.6804
7.38945 56.0594
7.43416 55.6958
7.47889 55.5096
7.5236 55.9893
7.56831 57.2734
7.61303 57.1377
7.65774 57.2954
7.70247 58.0984
7.74719 58.4949
7.79191 58.713
7.83663 59.0441
7.88135 60.367
7.92607 61.3917
7.97081 62.7033
8.01553 63.5465
8.06026 65.6428
8.10498 66.8866
8.14971 69.1668
8.19446 70.6654
8.23919 73.2615
8.28392 76.218
8.32865 79.1643
8.37339 84.6402
8.41812 90.1143
8.46288 110.947
8.50761 291.289
8.55235 586.677
8.59709 1069.52
8.64183 1979.51
8.68658 1203.76
8.73134 215.585
8.77609 110.468
8.82083 100.555
8.86558 96.0832
8.91033 93.7716
8.9551 90.9382
8.99985 89.5081
9.04461 88.4355
9.08936 88.2087
9.13412 86.9858
9.17888 86.299
9.22365 86.3335
9.26841 86.7966
9.31318 87.8705
9.35794 88.074
9.4027 88.645
9.44749 89.3342
9.49226 89.7974
9.53703 90.9
9.5818 92.8447
9.62657 94.4959
9.67134 95.386
9.71614 97.5136
9.76091 99.83
9.80569 103.753
9.85047 106.75
9.89525 112.453
9.94005 136.723
9.98484 303.753
10.0296 517.936
10.0744 805.003
10.1192 1452.3
10.164 1689.69
10.2088 550.516
10.2536 148.136
10.2984 117.663
10.3432 112.812
10.388 115.064
10.4328 159.349
10.4776 211.77
10.5224 281.083
10.5672 445.994
10.612 531.936
10.6568 249.254
10.7017 107.911
10.7465 92.0742
10.7913 88.1424
10.8361 85.2629
10.8809 82.9639
10.9257 80.9632
10.9706 79.3965
11.0154 77.7505
11.0602 76.1338
11.105 74.9556
11.1499 73.3086
11.1947 72.0899
11.2395 71.142
11.2844 70.7727
11.3292 69.8971
11.374 68.9394
11.4189 68.6344
11.4637 67.9268
11.5086 66.9273
11.5534 66.5598
11.5983 66.5449
11.6431 66.2791
11.688 65.7133
11.7328 65.5263
11.7777 65.2757
11.8225 65.6045
11.8674 65.2944
11.9122 65.7807
11.9571 66.0248
12.002 68.6805
12.0468 79.7907
12.0917 94.0162
12.1366 108.692
12.1814 141.411
12.2263 193.327
12.2712 185.938
12.3161 103.591
12.3609 69.806
12.4058 67.2091
12.4507 67.1935
12.4956 67.46
12.5405 67.1489
12.5853 68.2348
12.6302 68.0553
12.6751 68.7359
12.72 69.6944
12.7649 70.6372
12.8098 71.578
12.8547 73.0914
12.8996 74.5727
12.9445 76.3394
12.9894 78.5713
13.0343 80.5803
13.0792 86.3853
13.1242 111.078
13.1691 147.251
13.214 174.07
13.2589 228.971
13.3038 321.994
13.3487 421.391
13.3937 310.39
13.4386 150.552
13.4835 133.742
13.5285 153.113
13.5734 174.456
13.6183 226.3
13.6633 309.382
13.7082 358.108
13.7531 228.88
13.7981 111.417
13.843 87.0321
13.888 84.3061
13.9329 81.249
13.9779 79.997
14.0228 78.3459
14.0678 76.8672
14.1127 76.2329
14.1577 75.3542
14.2027 74.7528
14.2476 74.077
14.2926 73.5574
14.3376 73.2297
14.3825 72.6512
14.4275 72.2102
14.4725 72.0815
14.5175 72.7155
14.5624 72.5225
14.6074 73.0218
14.6524 73.5866
14.6974 74.6752
14.7424 81.0047
14.7874 95.361
14.8324 106.319
14.8774 119.525
14.9224 145.394
14.9674 187.312
15.0124 221.579
15.0574 169.958
15.1024 101.516
15.1474 77.1949
15.1924 73.9329
15.2374 72.1559
15.2824 71.1952
15.3274 70.6925
15.3725 69.9975
15.4175 69.7906
15.4625 69.3928
15.5076 69.2043
15.5526 69.4011
15.5976 70.0566
15.6426 74.9952
15.6877 85.9887
15.7327 94.8771
15.7778 103.782
15.8228 122.384
15.8679 153.087
15.9129 189.611
15.958 175.605
16.003 111.933
16.0481 72.9383
16.0931 65.8559
16.1382 63.7763
16.1833 62.8575
16.2283 61.7483
16.2734 61.0742
16.3185 60.1784
16.3636 59.5921
16.4086 58.9468
16.4537 58.4528
16.4988 58.1135
16.5439 57.909
16.589 57.5637
16.6341 57.7128
16.6792 56.8892
16.7243 57.1299
16.7694 57.2782
16.8145 57.1791
16.8596 57.2264
16.9047 57.4708
16.9498 57.6444
16.9949 57.8102
17.04 59.0867
17.0851 61.8972
17.1302 63.7857
17.1754 65.7589
17.2205 68.9496
17.2656 73.8467
17.3108 82.2613
17.3559 85.8778
17.401 76.9572
17.4462 66.8049
17.4913 62.5561
17.5365 62.011
17.5815 62.1757
17.6268 62.5607
17.6718 63.2537
17.7171 63.533
17.7622 64.5523
17.8074 66.5125
17.8525 72.3195
17.8977 78.2477
17.9428 82.6157
17.9881 88.3704
18.0331 99.1496
18.0784 115.201
18.1237 139.104
18.1688 144.895
18.214 118.242
18.2591 93.7306
18.3044 90.297
18.3495 97.0158
18.3948 106.764
18.4399 102.616
18.4852 83.633
18.5303 70.4341
18.5756 65.494
18.6207 64.3568
18.666 63.4399
18.7112 62.6608
18.7565 62.0564
18.8016 61.5518
18.8469 60.9926
18.892 60.6073
18.9374 59.9734
18.9825 59.873
19.0278 59.6324
19.073 60.3421
19.1183 61.3171
19.1635 61.9493
19.2088 63.1033
19.254 64.5752
19.2993 67.3863
19.3447 71.3171
19.3898 76.2802
19.4352 75.9903
19.4804 68.3325
19.5257 60.6157
19.5709 56.9663
19.6163 56.7682
19.6615 56.3334
19.7068 55.9135
19.752 56.1894
19.7974 56.9676
19.8426 58.3601
19.888 58.8517
19.9332 59.5162
19.9786 61.342
20.0238 64.0963
20.0692 68.3869
20.1144 72.5704
20.1598 72.7895
20.205 67.9633
20.2504 64.3668
20.2957 64.2815
20.3411 66.9488
20.3863 67.3374
20.4318 62.3889
20.477 56.7885
20.5224 53.7665
20.5677 52.893
20.6131 52.4711
20.6586 52.0827
20.7038 52.1278
20.7493 51.4787
20.7945 51.3348
20.84 51.0965
20.8853 51.2927
20.9307 50.9503
20.976 51.4552
21.0215 51.1934
21.0668 51.4851
21.1122 51.7834
21.1575 51.9432
21.203 52.5232
21.2483 53.3467
21.2938 53.907
21.3391 52.8425
21.3846 51.7082
21.4299 50.9275
21.4754 50.9241
21.5207 51.248
21.5662 51.8929
21.6116 52.7685
21.6571 53.4486
21.7024 54.2889
21.7479 55.3099
21.7933 57.6154
21.8388 60.1083
21.8843 63.4743
21.9297 66.6104
21.9752 66.9951
22.0206 63.1283
22.0661 58.7923
22.1115 57.7404
22.157 58.4594
22.2024 57.7083
22.248 54.7588
22.2933 52.6785
22.3389 51.5677
22.3843 51.3281
22.4299 51.1438
22.4753 50.9264
22.5208 50.9483
22.5662 51.0382
22.6118 51.3768
22.6572 51.9471
22.7028 52.5015
22.7483 52.7444
22.7939 53.2018
22.8393 54.0745
22.8849 55.4805
22.9303 57.1829
22.9759 59.1723
23.0214 60.09
23.067 57.9991
23.1126 54.2861
23.1581 51.9801
23.2037 51.5461
23.2492 51.8459
23.2948 52.1571
23.3403 52.2948
23.3859 52.5461
23.4314 53.2313
23.477 54.4381
23.5225 55.6352
23.5682 57.6637
23.6137 59.5999
23.6593 58.7659
23.7048 55.0659
23.7505 51.2502
23.796 48.9803
23.8417 48.219
23.8872 47.813
23.9329 47.3824
23.9784 47.0193
24.0241 46.7871
24.0697 46.6007
24.1154 46.1781
24.1609 46.0637
24.2066 45.8825
24.2522 45.778
24.2979 45.4764
24.3434 45.2527
24.3892 45.0819
24.4349 45.1148
24.4805 44.9337
24.5262 45.0889
24.5718 44.9235
24.6175 44.9452
24.6631 44.8611
24.7089 44.6425
24.7545 44.1707
24.8002 44.3684
24.8458 44.3199
24.8916 44.2491
24.9372 44.4042
24.983 44.6965
25.0286 45.0806
25.0744 45.3145
25.12 45.6486
25.1658 46.2587
25.2114 46.5761
25.2572 46.5794
25.3029 46.3003
25.3487 46.7067
25.3943 46.7944
25.4402 45.9235
25.4858 44.8731
25.5316 43.4669
25.5773 43.0251
25.6231 42.926
25.669 42.4537
25.7147 42.6087
25.7605 42.4882
25.8062 42.5065
25.8521 42.5605
25.8977 42.4052
25.9436 42.5825
25.9893 42.823
26.0352 43.0728
26.0809 43.1814
26.1268 43.6491
26.1725 43.4908
26.2184 42.9617
26.2641 42.4749
26.31 42.1918
26.3557 42.1326
26.4017 42.1516
26.4474 42.4302
26.4933 42.4331
26.5391 42.8822
26.585 43.1441
26.6308 43.6316
26.6767 43.9605
26.7225 43.8371
26.7684 43.4705
26.8142 42.8185
26.8601 42.2635
26.9059 41.9493
26.9519 41.506
26.9979 41.1921
27.0437 40.7768
27.0896 40.6098
27.1354 40.6732
27.1814 40.4364
27.2272 40.3267
27.2732 40.472
27.3191 40.1411
27.3651 40.192
27.4109 40.2207
27.4569 40.2428
27.5027 40.2897
27.5488 40.3348
27.5946 40.3113
27.6407 40.1917
27.6865 40.0355
27.7326 39.8267
27.7784 39.7602
27.8245 39.7059
27.8703 39.7454
27.9164 40.0601
27.9623 40.0045
28.0084 40.287
28.0543 40.6943
28.1003 40.7183
28.1462 40.4937
28.1923 40.2127
28.2384 39.6993
28.2843 39.3449
28.3304 38.9889
28.3764 38.5075
28.4225 38.0402
28.4684 38.0244
28.5145 37.6722
28.5605 37.5791
28.6066 37.2504
28.6526 37.3932
28.6987 37.1795
28.7447 37.1828
28.7908 36.959
28.8368 37.009
28.8829 36.9056
28.9289 37.0306
28.9751 36.7893
29.0211 36.7542
29.0673 36.3683
29.1133 36.143
29.1595 36.0246
29.2055 36.1256
29.2517 35.8641
29.2977 35.7761
29.3439 35.6707
29.3899 35.6714
29.4361 35.7238
29.4824 35.6068
29.5284 35.4287
29.5746 34.9776
29.6207 34.7701
29.6669 34.6228
29.713 34.5418
29.7593 34.4579
29.8053 34.399
29.8516 34.3452
29.8977 34.2523
29.9439 34.1343
29.99 34.0267
30.0363 33.8876
30.0824 34.1093
30.1287 33.8137
30.1748 33.8776
30.2211 33.8541
30.2673 33.7946
30.3136 33.8623
30.3597 33.765
30.406 33.7155
30.4522 33.6372
30.4985 33.6395
30.5447 33.6568
30.591 33.5933
30.6372 33.5988
30.6835 33.6453
30.7297 33.6227
30.7761 33.6854
30.8224 33.4777
30.8686 33.3494
30.915 33.128
30.9612 33.0157
31.0076 32.7898
31.0538 32.715
31.1002 32.5353
31.1464 32.456
31.1928 32.2935
31.2391 32.4627
31.2855 32.2953
31.3317 32.3043
31.3781 32.3005
31.4244 32.2755
31.4708 32.1763
31.5171 32.156
31.5636 32.2701
31.6098 31.9674
31.6563 31.8602
31.7026 31.6489
31.7491 31.5035
31.7953 31.6045
31.8418 31.4702
31.8881 31.3767
31.9346 31.5078
31.9809 31.4435
32.0275 31.319
32.074 31.189
32.1203 30.9379
32.1668 30.8916
32.2132 30.8287
32.2597 30.6505
32.306 30.5866
32.3526 30.3865
32.399 30.1898
32.4455 30.1093
32.4919 29.9682
32.5385 29.9777
32.5848 29.7704
32.6314 29.9052
32.6778 29.8322
32.7244 29.5644
32.7708 29.3601
32.8174 29.5769
32.8638 29.3161
32.9104 29.3178
32.9569 29.2515
33.0035 29.1523
33.0499 29.109
33.0966 29.0442
33.143 29.0617
33.1897 28.9337
33.2361 28.801
33.2828 28.8915
33.3293 28.6602
33.3759 28.6457
33.4226 28.5189
33.4691 28.321
33.5158 28.3743
33.5623 28.2058
33.609 28.024
33.6555 27.8417
33.7022 27.852
33.7487 27.7169
33.7954 27.6871
33.842 27.5742
33.8887 27.5265
33.9353 27.4895
33.982 27.3435
34.0286 27.3285
34.0753 27.2065
34.1219 27.0387
34.1687 26.9643
34.2152 26.9028
34.262 26.8206
34.3086 26.6167
34.3554 26.7432
34.402 26.5221
34.4488 26.4552
34.4954 26.3717
34.5422 26.3818
34.5889 26.3165
34.6357 26.0737
34.6825 26.0738
34.7292 25.9682
34.776 25.9018
34.8227 25.9026
34.8695 25.7984
34.9162 25.7135
34.9631 25.6362
35.0098 25.6166
35.0566 25.4517
35.1033 25.3189
35.1502 25.4795
35.1969 25.2677
35.2438 25.2523
35.2906 25.2161
35.3375 25.1131
35.3842 25.0902
35.4311 24.9685
35.4779 25.0136
35.5248 24.9433
35.5716 24.8109
35.6185 24.763
35.6653 24.7184
35.7123 24.6111
35.759 24.4891
35.806 24.4138
35.8528 24.3191
35.8998 24.2722
35.9468 24.1873
35.9936 24.1177
36.0406 24.0311
36.0874 24.0492
36.1345 23.9744
36.1813 23.8221
36.2283 23.8419
36.2752 23.6624
36.3222 23.5921
36.3691 23.705
36.4161 23.5007
36.463 23.4552
36.5101 23.3984
36.557 23.4041
36.6041 23.1733
36.651 23.2122
36.6981 23.1601
36.745 23.093
36.7921 22.997
36.839 22.9443
36.8861 22.7505
36.9331 22.7578
36.9802 22.657
37.0272 22.5932
37.0743 22.4556
37.1213 22.5085
37.1684 22.3693
37.2154 22.286
37.2626 22.2921
37.3098 22.1977
37.3568 22.0876
37.404 22.0361
37.451 21.9676
37.4982 21.8971
37.5452 21.865
37.5924 21.715
37.6395 21.7798
37.6867 21.6134
37.7337 21.5166
37.781 21.4368
37.8281 21.3286
37.8753 21.2816
37.9224 21.3201
37.9697 21.205
38.0168 21.0784
38.064 21.0246
38.1111 21.0271
38.1584 20.8815
38.2056 20.8855
38.2529 20.8385
38.3 20.7259
38.3473 20.6653
38.3945 20.5862
38.4418 20.596
38.489 20.5379
38.5363 20.4359
38.5837 20.2578
38.6309 20.2896
38.6782 20.2402
38.7254 20.1601
38.7728 20.062
38.82 20.0424
38.8674 19.9465
38.9146 19.9386
38.9621 19.8442
39.0093 19.8027
39.0567 19.6594
39.104 19.6889
39.1514 19.5515
39.1987 19.5351
39.2461 19.4704
39.2934 19.3749
39.3409 19.3389
39.3882 19.2217
39.4356 19.2033
39.483 19.1914
39.5304 19.0783
39.5778 19.0638
39.6253 18.9436
39.6726 18.9036
39.7201 18.8735
39.7675 18.7517
39.815 18.7506
39.8624 18.6989
39.9099 18.67
39.9575 18.561
40.0049 18.5585
40.0525 18.4395
40.0999 18.391
40.1474 18.3075
40.1949 18.2256
40.2425 18.2204
40.2899 18.1783
40.3375 18.1292
40.385 18.0418
40.4326 17.9936
40.48 17.9065
40.5277 17.9553
40.5752 17.7809
40.6228 17.6798
40.6703 17.7047
40.718 17.6983
40.7655 17.594
40.8132 17.4962
40.8607 17.5178
40.9084 17.4157
40.9559 17.337
41.0036 17.3006
41.0512 17.2584
41.0989 17.2243
41.1465 17.1811
41.1942 17.1209
41.242 16.9846
41.2896 16.9771
41.3373 16.9181
41.3849 16.8422
41.4327 16.7739
41.4803 16.736
41.5281 16.6701
41.5758 16.6378
41.6236 16.5873
41.6712 16.4559
41.7191 16.4382
41.7667 16.4149
41.8146 16.3888
41.8622 16.269
41.9101 16.2691
41.9578 16.0781
42.0057 16.1004
42.0534 16.0687
42.1013 16.0079
42.149 15.9163
42.1969 15.9201
42.2446 15.868
42.2925 15.8225
42.3403 15.7907
42.3882 15.6742
42.436 15.6777
42.4839 15.5553
42.5319 15.555
42.5797 15.5321
42.6277 15.4327
42.6755 15.3952
42.7235 15.3579
42.7713 15.2831
42.8193 15.2281
42.8671 15.1443
42.9152 15.1653
42.963 15.1215
43.0111 14.9834
43.0589 14.9439
43.107 14.892
43.1549 14.889
43.2029 14.8349
43.2508 14.7591
43.2989 14.6805
43.3468 14.6013
43.3949 14.6258
43.4429 14.5634
43.491 14.4673
43.5389 14.4685
43.5871 14.4301
43.635 14.355
43.6832 14.2884
43.7312 14.1812
43.7793 14.1831
43.8273 14.1435
43.8755 14.137
43.9237 14.0573
43.9717 14.032
44.0199 13.966
44.068 13.873
44.1162 13.8493
44.1642 13.8259
44.2125 13.7511
44.2606 13.7007
44.3088 13.6265
44.3569 13.6221
44.4052 13.561
44.4533 13.5067
44.5016 13.4184
44.5497 13.4201
44.598 13.4174
44.6461 13.3349
44.6945 13.2684
44.7426 13.2299
44.791 13.1627
44.8391 13.1085
44.8875 13.1153
44.9357 13.0915
44.984 13.0115
45.0322 12.9329
45.0806 12.9278
45.1288 12.8723
45.1773 12.8478
45.2257 12.8047
45.2739 12.7665
45.3224 12.6567
45.3706 12.6378
45.4191 12.5869
45.4673 12.6031
45.5158 12.4851
45.5641 12.4329
45.6126 12.4607
45.6609 12.3331
45.7094 12.303
45.7577 12.2752
45.8063 12.1963
45.8546 12.2281
45.9031 12.1418
45.9515 12.1043
46.0001 12.0604
46.0484 12.0505
46.097 11.9486
46.1454 11.9394
46.194 11.8981
46.2424 11.85
46.291 11.8185
46.3395 11.8191
46.3881 11.7188
46.4365 11.6753
46.4852 11.6205
46.5337 11.5935
46.5823 11.544
46.631 11.5128
46.6795 11.4796
46.7282 11.4715
46.7767 11.3555
46.8254 11.3091
46.8739 11.302
46.9226 11.2252
46.9712 11.2182
47.0199 11.1457
47.0685 11.1537
47.1173 11.0722
47.1658 11.0399
47.2146 10.9829
47.2632 10.928
47.312 10.9157
47.3606 10.8668
47.4095 10.7931
47.4581 10.8295
47.5069 10.7708
47.5556 10.6922
47.6044 10.6306
47.6531 10.63
47.702 10.5978
47.7507 10.5853
47.7996 10.5398
47.8483 10.4897
47.8972 10.4698
47.9461 10.3632
47.9948 10.36
48.0438 10.3074
48.0925 10.3087
48.1415 10.2602
48.1902 10.1866
48.2392 10.196
48.288 10.1445
48.337 10.1206
48.3858 10.0829
48.4348 10.0375
48.4837 10.0136
48.5327 10.0184
48.5815 9.94982
48.6306 9.9039
48.6795 9.87065
48.7285 9.81273
48.7774 9.79936
48.8265 9.77507
48.8754 9.6788
48.9245 9.72367
48.9734 9.65222
49.0226 9.64817
49.0715 9.5672
49.1206 9.52476
49.1696 9.5128
49.2188 9.4605
49.2679 9.42395
49.3169 9.3325
49.3661 9.36664
49.4151 9.33228
49.4643 9.27383
49.5134 9.25365
49.5626 9.19684
49.6117 9.15706
49.6609 9.14216
49.71 9.10565
49.7592 9.09329
49.8083 9.02843
49.8576 9.01628
49.9067 8.94992
49.956 8.95878
50.0052 8.90708
50.0545 8.86933
50.1036 8.85296
50.153 8.76985
50.2022 8.78046
50.2515 8.75974
50.3007 8.69187
50.3501 8.66319
50.3993 8.61384
50.4487 8.59916
50.498 8.55528
50.5474 8.53708
50.5966 8.44131
50.6461 8.44946
50.6955 8.44268
50.7448 8.39155
50.7943 8.36349
50.8436 8.34623
50.8931 8.29515
50.9424 8.28775
50.9919 8.23759
51.0413 8.19154
51.0908 8.17014
51.1402 8.15481
51.1897 8.0741
51.2391 8.08939
51.2887 8.00399
51.3381 7.99192
51.3877 8.00569
51.4371 7.94014
51.4867 7.86806
51.5362 7.89365
51.5858 7.84129
51.6353 7.80817
51.6849 7.7762
51.7344 7.75315
51.7841 7.7015
51.8336 7.67984
51.8833 7.63299
51.9328 7.5761
51.9826 7.56651
52.0323 7.54079
52.0818 7.49309
52.1316 7.45531
52.1812 7.44937
52.231 7.42573
52.2806 7.38475
52.3304 7.36441
52.38 7.32287
52.4298 7.30892
52.4794 7.28637
52.5293 7.25437
52.5789 7.22694
52.6288 7.22014
52.6785 7.13626
52.7284 7.1645
52.7781 7.10057
52.828 7.05631
52.8777 7.01391
52.9276 6.97036
52.9774 7.02192
53.0273 6.93455
53.0771 6.90951
53.1271 6.91054
53.1769 6.82572
53.2269 6.83432
53.2767 6.82919
53.3267 6.7983
53.3765 6.73437
53.4266 6.71522
53.4766 6.66432
53.5265 6.64813
53.5765 6.63602
53.6264 6.55267
53.6765 6.58909
53.7264 6.51273
53.7765 6.51295
53.8265 6.49759
53.8766 6.46011
53.9266 6.37456
53.9767 6.39445
54.0267 6.36232
54.0769 6.33861
54.1269 6.29882
54.1771 6.25098
54.2271 6.2591
54.2773 6.16939
54.3274 6.20097
54.3776 6.13116
54.4277 6.10267
54.478 6.03045
54.528 6.04491
54.5783 5.98951
54.6285 5.9269
54.6788 5.86459
54.7289 5.93182
54.7792 5.80637
54.8296 5.77681
54.8798 5.73761
54.9301 5.67576
54.9803 5.59207
55.0307 5.61834
55.0809 5.51411
55.1314 5.53508
55.1816 5.43044
55.232 5.40071
55.2823 5.3974
55.3328 5.33028
55.383 5.21543
55.4335 5.21874
55.4838 5.18115
55.5344 5.10445
55.5847 5.10964
55.6352 5.07371
55.6856 4.96191
55.7361 5.04757