File: XRD/Ni3Fe_FD0528.xy
TT I
1.27165 7.12341
1.31627 7.14014
1.36089 6.62375
1.40551 5.44658
1.45013 6.27022
1.49476 6.366
1.53938 5.99782
1.584 5.05466
1.62863 5.51287
1.67325 4.98373
1.71787 5.28
1.7625 4.77686
1.80712 4.77236
1.85174 4.18116
1.89636 4.7236
1.94099 4.82262
1.98562 4.645
2.03025 4.84121
2.07487 4.48974
2.11949 4.90518
2.16411 4.98555
2.20874 16.3675
2.25338 28.0125
2.298 6.58252
2.34263 5.65254
2.38725 5.69114
2.43188 5.7031
2.4765 7.3329
2.52115 7.23632
2.56577 7.3888
2.6104 7.55058
2.65503 7.68218
2.69965 7.90047
2.7443 7.91712
2.78893 8.22889
2.83356 8.2887
2.87818 8.06405
2.92281 8.46127
2.96744 9.60926
3.01209 10.2352
3.05672 10.6224
3.10135 12.0624
3.14599 13.4678
3.19062 14.4527
3.23527 14.8118
3.2799 16.2119
3.32454 16.9906
3.36917 17.7992
3.4138 19.04
3.45844 19.64
3.50309 21.3733
3.54773 22.4949
3.59237 24.3196
3.637 110.607
3.68164 69.2589
3.7263 26.3115
3.77094 26.6211
3.81558 27.8206
3.86022 27.8493
3.90486 29.0008
3.9495 30.1545
3.99416 31.1241
4.0388 32.945
4.08344 33.7276
4.12809 35.0434
4.17273 37.6407
4.21738 45.0407
4.26204 301.135
4.30669 270.709
4.35133 51.0277
4.39598 45.4825
4.44063 56.2437
4.4853 71.1593
4.52995 51.241
4.5746 51.2501
4.61925 53.7797
4.6639 55.777
4.70855 58.1626
4.75322 61.5894
4.79788 64.0641
4.84253 67.3573
4.88719 71.5542
4.93184 75.2744
4.97652 80.7198
5.02118 87.4422
5.06583 94.7723
5.11049 107.228
5.15515 189.591
5.19981 371.164
5.24449 2750.83
5.28916 11929.1
5.33382 3357.34
5.37848 205.934
5.42315 133.833
5.46783 115.805
5.5125 107.234
5.55716 102.893
5.60183 99.7398
5.6465 97.885
5.69117 95.0385
5.73586 92.9476
5.78053 92.3144
5.8252 92.0307
5.86988 92.4667
5.91455 94.954
5.95924 102.863
6.00392 206.975
6.0486 949.351
6.09328 4134.69
6.13795 3515.76
6.18263 300.69
6.22733 97.1182
6.27201 85.5244
6.3167 110.55
6.36138 84.3277
6.40606 69.9703
6.45075 68.1004
6.49545 66.3504
6.54014 64.4725
6.58483 64.0211
6.62952 63.825
6.67421 101.808
6.71892 168.592
6.76361 72.7734
6.8083 59.5788
6.853 58.247
6.89769 57.918
6.94239 57.3497
6.98711 56.5094
7.03181 56.482
7.07651 56.129
7.12121 55.9456
7.16591 55.9604
7.21063 56.6966
7.25533 74.2096
7.30004 213.427
7.34475 103.724
7.38945 57.8132
7.43416 55.5006
7.47889 55.152
7.5236 55.6046
7.56831 56.325
7.61303 58.1618
7.65774 58.6368
7.70247 56.7988
7.74719 56.532
7.79191 57.7127
7.83663 57.648
7.88135 58.3899
7.92607 59.1463
7.97081 60.6089
8.01553 61.7358
8.06026 62.8537
8.10498 64.5368
8.14971 75.9621
8.19446 74.5821
8.23919 70.3085
8.28392 72.2413
8.32865 74.686
8.37339 78.9838
8.41812 86.5167
8.46288 121.332
8.50761 164.534
8.55235 379.169
8.59709 1101.18
8.64183 2152.93
8.68658 1078.5
8.73134 196.029
8.77609 102.401
8.82083 93.9352
8.86558 90.7839
8.91033 91.1323
8.9551 93.8979
8.99985 86.3277
9.04461 84.3287
9.08936 83.4311
9.13412 82.4387
9.17888 82.8614
9.22365 83.8103
9.26841 82.7672
9.31318 83.0808
9.35794 83.2195
9.4027 83.5
9.44749 84.5634
9.49226 84.9367
9.53703 86.1138
9.5818 87.9389
9.62657 93.3186
9.67134 101.388
9.71614 95.0484
9.76091 94.6052
9.80569 97.376
9.85047 100.905
9.89525 129.666
9.94005 144.163
9.98484 174.431
10.0296 334.488
10.0744 762.713
10.1192 1641.62
10.164 1667.7
10.2088 465.961
10.2536 135.228
10.2984 116.642
10.3432 119.185
10.388 106.108
10.4328 117.923
10.4776 157.968
10.5224 269.532
10.5672 491.683
10.612 540.968
10.6568 226.709
10.7017 100.298
10.7465 87.6547
10.7913 84.4271
10.8361 82.0014
10.8809 79.6495
10.9257 79.6707
10.9706 80.8756
11.0154 75.8659
11.0602 73.4912
11.105 72.6807
11.1499 78.3562
11.1947 88.3284
11.2395 77.0643
11.2844 72.2047
11.3292 68.1036
11.374 66.7597
11.4189 66.1773
11.4637 65.704
11.5086 66.3516
11.5534 70.3942
11.5983 66.6148
11.6431 64.3324
11.688 63.6762
11.7328 63.4975
11.7777 63.7293
11.8225 63.0484
11.8674 62.9651
11.9122 63.2433
11.9571 63.3936
12.002 64.1921
12.0468 67.9015
12.0917 79.6678
12.1366 101.919
12.1814 146.616
12.2263 203.692
12.2712 178.021
12.3161 103.694
12.3609 73.1082
12.4058 65.7866
12.4507 64.969
12.4956 64.9432
12.5405 65.2272
12.5853 66.0474
12.6302 76.0336
12.6751 83.3871
12.72 71.8589
12.7649 68.3339
12.8098 68.7716
12.8547 70.3331
12.8996 71.7294
12.9445 72.6849
12.9894 74.3748
13.0343 76.2495
13.0792 79.0749
13.1242 87.7281
13.1691 111.822
13.214 146.898
13.2589 225.851
13.3038 349.579
13.3487 436.821
13.3937 289.748
13.4386 132.253
13.4835 106.657
13.5285 119.995
13.5734 155.257
13.6183 237.401
13.6633 338.657
13.7082 353.677
13.7531 202.654
13.7981 103.715
13.843 83.2909
13.888 80.4413
13.9329 77.8823
13.9779 76.4412
14.0228 75.3094
14.0678 73.7074
14.1127 73.3281
14.1577 73.4692
14.2027 72.2664
14.2476 71.0112
14.2926 71.4626
14.3376 72.9071
14.3825 71.2367
14.4275 69.3647
14.4725 69.2336
14.5175 69.2539
14.5624 69.5795
14.6074 72.2877
14.6524 72.8863
14.6974 71.0729
14.7424 72.3071
14.7874 78.7806
14.8324 88.7711
14.8774 108.568
14.9224 147.025
14.9674 197.89
15.0124 218.567
15.0574 159.078
15.1024 95.5721
15.1474 73.7719
15.1924 71.3068
15.2374 72.3409
15.2824 71.8428
15.3274 68.9023
15.3725 67.5548
15.4175 66.9977
15.4625 66.6753
15.5076 67.0823
15.5526 66.8796
15.5976 66.2389
15.6426 67.1353
15.6877 72.301
15.7327 79.7313
15.7778 94.0852
15.8228 121.404
15.8679 164.262
15.9129 194.75
15.958 164.783
16.003 103.597
16.0481 70.764
16.0931 66.2858
16.1382 64.0756
16.1833 61.4645
16.2283 59.8929
16.2734 59.3363
16.3185 59.5209
16.3636 60.7782
16.4086 58.8901
16.4537 57.0772
16.4988 56.2221
16.5439 56.2153
16.589 55.8364
16.6341 55.668
16.6792 55.165
16.7243 55.5599
16.7694 55.7184
16.8145 55.6124
16.8596 55.9719
16.9047 57.9436
16.9498 58.1329
16.9949 56.5399
17.04 56.2588
17.0851 57.5354
17.1302 59.1235
17.1754 61.9756
17.2205 66.5499
17.2656 73.5538
17.3108 82.3991
17.3559 83.0309
17.401 73.447
17.4462 63.6945
17.4913 59.9916
17.5365 59.6758
17.5815 59.7198
17.6268 60.0139
17.6718 61.3039
17.7171 61.5305
17.7622 61.7777
17.8074 62.1402
17.8525 64.5268
17.8977 68.5149
17.9428 73.5928
17.9881 82.0123
18.0331 97.5886
18.0784 117.482
18.1237 137.39
18.1688 135.172
18.214 108.976
18.2591 88.1871
18.3044 89.4183
18.3495 98.7962
18.3948 106.845
18.4399 100.259
18.4852 81.2762
18.5303 67.8336
18.5756 63.0057
18.6207 61.7384
18.666 61.0422
18.7112 60.2982
18.7565 59.6669
18.8016 59.2635
18.8469 58.7627
18.892 58.3247
18.9374 57.8808
18.9825 57.6735
19.0278 57.5331
19.073 57.499
19.1183 58.2672
19.1635 59.0107
19.2088 59.9989
19.254 62.3125
19.2993 66.3145
19.3447 72.127
19.3898 76.5782
19.4352 74.0393
19.4804 65.1027
19.5257 57.8209
19.5709 55.0663
19.6163 54.5202
19.6615 54.3016
19.7068 53.9444
19.752 53.9743
19.7974 54.1886
19.8426 54.7325
19.888 55.5719
19.9332 56.585
19.9786 58.8651
20.0238 62.0347
20.0692 66.9713
20.1144 70.3198
20.1598 69.4366
20.205 64.5232
20.2504 62.5391
20.2957 63.7868
20.3411 66.0357
20.3863 65.1785
20.4318 59.7859
20.477 54.7738
20.5224 52.4005
20.5677 51.7644
20.6131 50.8009
20.6586 50.3591
20.7038 50.1423
20.7493 49.6459
20.7945 49.4426
20.84 49.4396
20.8853 49.2935
20.9307 49.0296
20.976 49.246
21.0215 49.1226
21.0668 49.6072
21.1122 49.9649
21.1575 50.2872
21.203 51.2621
21.2483 51.8702
21.2938 52.0836
21.3391 50.9477
21.3846 49.7793
21.4299 49.1025
21.4754 48.7042
21.5207 49.0085
21.5662 49.2315
21.6116 49.6302
21.6571 50.1888
21.7024 51.2581
21.7479 52.7307
21.7933 55.3975
21.8388 58.6485
21.8843 62.3667
21.9297 65.1445
21.9752 64.5087
22.0206 61.1634
22.0661 57.3377
22.1115 56.3925
22.157 56.7534
22.2024 55.3957
22.248 52.3144
22.2933 50.8196
22.3389 49.6263
22.3843 49.6105
22.4299 49.5135
22.4753 49.4631
22.5208 49.0729
22.5662 49.1012
22.6118 49.1181
22.6572 49.3285
22.7028 49.8996
22.7483 50.1171
22.7939 50.7485
22.8393 52.1567
22.8849 54.1138
22.9303 55.9597
22.9759 58.068
23.0214 58.4412
23.067 55.6632
23.1126 52.074
23.1581 49.9901
23.2037 49.3583
23.2492 49.5348
23.2948 49.3156
23.3403 49.5154
23.3859 50.201
23.4314 50.9817
23.477 52.6977
23.5225 54.6756
23.5682 56.9139
23.6137 58.562
23.6593 56.8339
23.7048 52.931
23.7505 49.1546
23.796 47.224
23.8417 46.5481
23.8872 46.1519
23.9329 45.541
23.9784 45.3061
24.0241 45.3752
24.0697 44.8826
24.1154 44.6263
24.1609 44.6134
24.2066 44.3565
24.2522 44.3387
24.2979 44.0953
24.3434 43.8818
24.3892 43.6607
24.4349 43.5699
24.4805 43.2884
24.5262 43.5367
24.5718 43.4242
24.6175 43.4749
24.6631 43.3124
24.7089 42.9766
24.7545 42.8904
24.8002 42.7783
24.8458 42.7493
24.8916 42.4443
24.9372 42.6384
24.983 42.8511
25.0286 43.2474
25.0744 43.7281
25.12 44.1232
25.1658 44.7273
25.2114 45.0371
25.2572 45.1475
25.3029 45.1144
25.3487 45.3264
25.3943 45.4115
25.4402 44.1316
25.4858 43.1649
25.5316 42.1031
25.5773 41.3564
25.6231 41.5307
25.669 41.0566
25.7147 40.9566
25.7605 40.8645
25.8062 41.0708
25.8521 41.1059
25.8977 41.0894
25.9436 41.1828
25.9893 41.4258
26.0352 41.7318
26.0809 41.8368
26.1268 42.1544
26.1725 42.0344
26.2184 41.3553
26.2641 40.6974
26.31 40.6519
26.3557 40.6214
26.4017 40.5628
26.4474 40.7531
26.4933 41.0565
26.5391 41.698
26.585 41.9239
26.6308 42.5103
26.6767 42.44
26.7225 42.478
26.7684 42.068
26.8142 41.2815
26.8601 40.9733
26.9059 40.5512
26.9519 40.0726
26.9979 39.6841
27.0437 39.302
27.0896 39.1777
27.1354 39.2185
27.1814 38.8781
27.2272 39.0262
27.2732 38.95
27.3191 38.7129
27.3651 38.9184
27.4109 38.7677
27.4569 38.9072
27.5027 38.9971
27.5488 38.9564
27.5946 38.8745
27.6407 38.5068
27.6865 38.5532
27.7326 38.2221
27.7784 38.3425
27.8245 38.2155
27.8703 38.3588
27.9164 38.5968
27.9623 38.7698
28.0084 38.9886
28.0543 39.3616
28.1003 39.4168
28.1462 39.3179
28.1923 38.9649
28.2384 38.4983
28.2843 38.1205
28.3304 37.6513
28.3764 37.1709
28.4225 36.9014
28.4684 36.7264
28.5145 36.3778
28.5605 36.2364
28.6066 36.0723
28.6526 36.0892
28.6987 36.1357
28.7447 35.8258
28.7908 35.854
28.8368 35.8845
28.8829 35.7761
28.9289 35.6765
28.9751 35.4863
29.0211 35.3674
29.0673 35.0241
29.1133 34.8985
29.1595 34.8619
29.2055 34.6866
29.2517 34.7166
29.2977 34.6085
29.3439 34.5933
29.3899 34.6565
29.4361 34.5964
29.4824 34.3444
29.5284 34.1386
29.5746 33.7826
29.6207 33.5132
29.6669 33.4264
29.713 33.3432
29.7593 33.2108
29.8053 33.212
29.8516 33.1776
29.8977 33.1401
29.9439 32.8708
29.99 32.8487
30.0363 32.8977
30.0824 32.8461
30.1287 32.711
30.1748 32.8135
30.2211 32.8118
30.2673 32.696
30.3136 32.8086
30.3597 32.5957
30.406 32.6267
30.4522 32.4752
30.4985 32.3446
30.5447 32.5186
30.591 32.4106
30.6372 32.5059
30.6835 32.564
30.7297 32.5094
30.7761 32.4943
30.8224 32.4227
30.8686 32.2527
30.915 31.9458
30.9612 31.8459
31.0076 31.6624
31.0538 31.5488
31.1002 31.4186
31.1464 31.3083
31.1928 31.2408
31.2391 31.349
31.2855 31.2816
31.3317 31.1771
31.3781 31.3408
31.4244 31.2652
31.4708 31.1659
31.5171 31.0719
31.5636 31.1106
31.6098 30.8749
31.6563 30.754
31.7026 30.613
31.7491 30.5
31.7953 30.4951
31.8418 30.4836
31.8881 30.5029
31.9346 30.4472
31.9809 30.4918
32.0275 30.312
32.074 30.1977
32.1203 30.0364
32.1668 29.7957
32.2132 29.5271
32.2597 29.7173
32.306 29.4261
32.3526 29.3737
32.399 29.2478
32.4455 29.1136
32.4919 29.0904
32.5385 29.0304
32.5848 28.6676
32.6314 28.8383
32.6778 28.8206
32.7244 28.5201
32.7708 28.4155
32.8174 28.5173
32.8638 28.364
32.9104 28.3673
32.9569 28.2874
33.0035 28.1704
33.0499 28.1853
33.0966 28.0988
33.143 28.0315
33.1897 27.9597
33.2361 27.8905
33.2828 27.9375
33.3293 27.7498
33.3759 27.7201
33.4226 27.5072
33.4691 27.4527
33.5158 27.3107
33.5623 27.1774
33.609 27.0218
33.6555 26.9557
33.7022 26.9089
33.7487 26.7357
33.7954 26.8441
33.842 26.7376
33.8887 26.6637
33.9353 26.538
33.982 26.4409
34.0286 26.3193
34.0753 26.2932
34.1219 26.1769
34.1687 26.1144
34.2152 26.0876
34.262 25.9225
34.3086 25.9011
34.3554 25.8239
34.402 25.7416
34.4488 25.6696
34.4954 25.5076
34.5422 25.476
34.5889 25.3214
34.6357 25.2402
34.6825 25.266
34.7292 25.0935
34.776 25.027
34.8227 24.9575
34.8695 24.932
34.9162 24.8013
34.9631 24.7905
35.0098 24.7262
35.0566 24.6288
35.1033 24.5765
35.1502 24.5264
35.1969 24.4064
35.2438 24.3255
35.2906 24.3416
35.3375 24.2243
35.3842 24.239
35.4311 24.2495
35.4779 24.2202
35.5248 24.1627
35.5716 24.0081
35.6185 24.0023
35.6653 23.9375
35.7123 23.8662
35.759 23.6691
35.806 23.6102
35.8528 23.5196
35.8998 23.5313
35.9468 23.4029
35.9936 23.366
36.0406 23.306
36.0874 23.2557
36.1345 23.1377
36.1813 23.0653
36.2283 22.996
36.2752 22.958
36.3222 22.9868
36.3691 22.8572
36.4161 22.6705
36.463 22.6948
36.5101 22.623
36.557 22.6781
36.6041 22.4238
36.651 22.4712
36.6981 22.407
36.745 22.3064
36.7921 22.3128
36.839 22.1822
36.8861 22.0729
36.9331 21.9651
36.9802 21.9488
37.0272 21.8708
37.0743 21.7557
37.1213 21.7219
37.1684 21.6699
37.2154 21.6378
37.2626 21.5288
37.3098 21.4896
37.3568 21.4303
37.404 21.3249
37.451 21.2506
37.4982 21.2194
37.5452 21.1192
37.5924 21.0029
37.6395 21.0404
37.6867 21.0144
37.7337 20.8849
37.781 20.7503
37.8281 20.7397
37.8753 20.6357
37.9224 20.6047
37.9697 20.4807
38.0168 20.4524
38.064 20.3831
38.1111 20.3759
38.1584 20.2513
38.2056 20.1826
38.2529 20.1427
38.3 20.0809
38.3473 20.0106
38.3945 19.9056
38.4418 19.9109
38.489 19.8388
38.5363 19.7621
38.5837 19.6583
38.6309 19.6621
38.6782 19.6065
38.7254 19.4582
38.7728 19.449
38.82 19.3734
38.8674 19.2867
38.9146 19.2994
38.9621 19.1321
39.0093 19.1264
39.0567 19.0473
39.104 19.0447
39.1514 18.8832
39.1987 18.9365
39.2461 18.8685
39.2934 18.8294
39.3409 18.6491
39.3882 18.6149
39.4356 18.6156
39.483 18.5679
39.5304 18.4872
39.5778 18.458
39.6253 18.3374
39.6726 18.3651
39.7201 18.2861
39.7675 18.1934
39.815 18.1465
39.8624 18.072
39.9099 18.002
39.9575 17.9058
40.0049 17.9455
40.0525 17.8125
40.0999 17.8193
40.1474 17.7637
40.1949 17.7173
40.2425 17.6285
40.2899 17.6129
40.3375 17.4995
40.385 17.4202
40.4326 17.3772
40.48 17.3069
40.5277 17.3039
40.5752 17.2363
40.6228 17.1851
40.6703 17.1488
40.718 17.1452
40.7655 17.0661
40.8132 16.9594
40.8607 16.926
40.9084 16.9063
40.9559 16.7552
41.0036 16.7493
41.0512 16.6992
41.0989 16.7112
41.1465 16.6534
41.1942 16.5372
41.242 16.442
41.2896 16.379
41.3373 16.3018
41.3849 16.3185
41.4327 16.2872
41.4803 16.1714
41.5281 16.1362
41.5758 16.1
41.6236 15.9907
41.6712 16.0128
41.7191 15.9168
41.7667 15.8824
41.8146 15.8414
41.8622 15.755
41.9101 15.7319
41.9578 15.6496
42.0057 15.606
42.0534 15.5493
42.1013 15.561
42.149 15.406
42.1969 15.3597
42.2446 15.3308
42.2925 15.3416
42.3403 15.2957
42.3882 15.1882
42.436 15.1723
42.4839 15.0926
42.5319 15.0712
42.5797 15.0126
42.6277 14.8939
42.6755 14.9066
42.7235 14.8519
42.7713 14.8098
42.8193 14.7414
42.8671 14.6998
42.9152 14.6525
42.963 14.6098
43.0111 14.5196
43.0589 14.4905
43.107 14.4346
43.1549 14.3665
43.2029 14.3312
43.2508 14.3242
43.2989 14.2191
43.3468 14.2178
43.3949 14.1309
43.4429 14.1037
43.491 14.0499
43.5389 14.0172
43.5871 13.9768
43.635 13.9013
43.6832 13.8834
43.7312 13.7901
43.7793 13.7669
43.8273 13.719
43.8755 13.666
43.9237 13.6092
43.9717 13.5656
44.0199 13.5273
44.068 13.4992
44.1162 13.4191
44.1642 13.4022
44.2125 13.3446
44.2606 13.3402
44.3088 13.207
44.3569 13.1965
44.4052 13.1654
44.4533 13.1154
44.5016 13.0433
44.5497 13.0446
44.598 12.9648
44.6461 12.9087
44.6945 12.9139
44.7426 12.8722
44.791 12.7751
44.8391 12.821
44.8875 12.7454
44.9357 12.6625
44.984 12.5944
45.0322 12.5894
45.0806 12.5505
45.1288 12.4723
45.1773 12.4228
45.2257 12.4097
45.2739 12.3541
45.3224 12.3078
45.3706 12.2725
45.4191 12.1915
45.4673 12.1922
45.5158 12.1462
45.5641 12.0561
45.6126 12.0405
45.6609 11.9996
45.7094 11.8926
45.7577 11.9027
45.8063 11.8703
45.8546 11.8419
45.9031 11.804
45.9515 11.7877
46.0001 11.7114
46.0484 11.6629
46.097 11.674
46.1454 11.6293
46.194 11.5684
46.2424 11.5054
46.291 11.4665
46.3395 11.4257
46.3881 11.3592
46.4365 11.3604
46.4852 11.2665
46.5337 11.2475
46.5823 11.1856
46.631 11.1102
46.6795 11.1304
46.7282 11.0921
46.7767 11.0543
46.8254 10.9606
46.8739 10.9476
46.9226 10.9627
46.9712 10.8717
47.0199 10.8251
47.0685 10.8216
47.1173 10.7361
47.1658 10.7246
47.2146 10.7047
47.2632 10.6305
47.312 10.5674
47.3606 10.56
47.4095 10.5045
47.4581 10.4882
47.5069 10.4531
47.5556 10.3878
47.6044 10.3752
47.6531 10.3442
47.702 10.2692
47.7507 10.2592
47.7996 10.2073
47.8483 10.173
47.8972 10.1551
47.9461 10.1199
47.9948 10.0729
48.0438 10.0279
48.0925 9.98925
48.1415 9.97365
48.1902 9.91159
48.2392 9.89246
48.288 9.8863
48.337 9.84036
48.3858 9.81788
48.4348 9.74722
48.4837 9.73618
48.5327 9.68381
48.5815 9.66854
48.6306 9.60742
48.6795 9.58315
48.7285 9.52934
48.7774 9.49827
48.8265 9.47013
48.8754 9.44035
48.9245 9.4159
48.9734 9.3378
49.0226 9.36809
49.0715 9.27779
49.1206 9.24465
49.1696 9.20909
49.2188 9.21173
49.2679 9.12877
49.3169 9.1012
49.3661 9.08773
49.4151 9.05539
49.4643 9.02166
49.5134 9.01511
49.5626 8.95253
49.6117 8.89342
49.6609 8.89431
49.71 8.83812
49.7592 8.82428
49.8083 8.7669
49.8576 8.73559
49.9067 8.68994
49.956 8.70827
50.0052 8.65807
50.0545 8.61367
50.1036 8.57124
50.153 8.55624
50.2022 8.48149
50.2515 8.49173
50.3007 8.40702
50.3501 8.38668
50.3993 8.38508
50.4487 8.3372
50.498 8.31853
50.5474 8.33312
50.5966 8.24403
50.6461 8.22737
50.6955 8.18065
50.7448 8.1917
50.7943 8.12594
50.8436 8.07926
50.8931 8.06365
50.9424 8.02154
50.9919 7.99209
51.0413 7.99623
51.0908 7.9371
51.1402 7.92464
51.1897 7.87953
51.2391 7.79895
51.2887 7.7767
51.3381 7.73169
51.3877 7.73465
51.4371 7.6959
51.4867 7.66459
51.5362 7.63385
51.5858 7.6437
51.6353 7.59673
51.6849 7.55206
51.7344 7.55942
51.7841 7.47073
51.8336 7.46569
51.8833 7.41116
51.9328 7.39256
51.9826 7.34187
52.0323 7.35463
52.0818 7.28922
52.1316 7.25294
52.1812 7.27119
52.231 7.23106
52.2806 7.18207
52.3304 7.1623
52.38 7.11993
52.4298 7.07738
52.4794 7.06469
52.5293 7.00871
52.5789 7.02325
52.6288 6.96617
52.6785 6.92398
52.7284 6.91866
52.7781 6.91071
52.828 6.9133
52.8777 6.82902
52.9276 6.824
52.9774 6.75912
53.0273 6.78451
53.0771 6.71594
53.1271 6.66968
53.1769 6.65458
53.2269 6.69046
53.2767 6.63299
53.3267 6.58236
53.3765 6.56529
53.4266 6.52913
53.4766 6.46992
53.5265 6.41782
53.5765 6.46204
53.6264 6.41997
53.6765 6.39098
53.7264 6.35129
53.7765 6.34354
53.8265 6.27477
53.8766 6.28927
53.9266 6.26704
53.9767 6.24555
54.0267 6.21735
54.0769 6.16397
54.1269 6.10811
54.1771 6.08587
54.2271 6.07241
54.2773 6.03699
54.3274 6.04511
54.3776 5.96823
54.4277 5.94723
54.478 5.95549
54.528 5.8971
54.5783 5.81234
54.6285 5.81307
54.6788 5.76103
54.7289 5.73298
54.7792 5.65945
54.8296 5.65229
54.8798 5.58484
54.9301 5.60201
54.9803 5.52144
55.0307 5.4832
55.0809 5.44831
55.1314 5.42776
55.1816 5.3426
55.232 5.26934
55.2823 5.2981
55.3328 5.19864
55.383 5.18118
55.4335 5.09742
55.4838 5.08286
55.5344 5.06824
55.5847 5.00614
55.6352 4.97716
55.6856 4.92337
55.7361 4.9209