File: XRD/Ni3Fe_FD0097.xy
TT I
1.27165 8.98674
1.31627 7.70993
1.36089 7.795
1.40551 8.06322
1.45013 7.1771
1.49476 6.75507
1.53938 6.57683
1.584 6.12909
1.62863 6.46379
1.67325 5.77759
1.71787 5.66545
1.7625 5.67937
1.80712 5.95109
1.85174 5.52502
1.89636 5.51485
1.94099 5.29913
1.98562 5.28569
2.03025 5.06002
2.07487 4.66492
2.11949 6.06451
2.16411 5.054
2.20874 5.10699
2.25338 4.81362
2.298 4.78057
2.34263 4.25495
2.38725 3.71152
2.43188 4.34295
2.4765 4.28527
2.52115 3.63457
2.56577 4.25736
2.6104 4.9571
2.65503 4.5462
2.69965 4.44378
2.7443 5.6481
2.78893 5.96069
2.83356 6.84482
2.87818 7.60199
2.92281 7.83462
2.96744 8.86999
3.01209 10.5973
3.05672 11.01
3.10135 12.1034
3.14599 12.9184
3.19062 13.8881
3.23527 14.9945
3.2799 15.6186
3.32454 16.7728
3.36917 17.5731
3.4138 17.9578
3.45844 19.317
3.50309 20.2203
3.54773 20.5922
3.59237 21.3795
3.637 22.3797
3.68164 23.2567
3.7263 23.3439
3.77094 24.7129
3.81558 25.1602
3.86022 26.0897
3.90486 27.4192
3.9495 28.072
3.99416 28.9455
4.0388 30.3837
4.08344 31.4119
4.12809 32.2794
4.17273 33.3663
4.21738 35.0795
4.26204 35.5563
4.30669 37.3315
4.35133 38.9842
4.39598 40.8468
4.44063 42.2696
4.4853 44.2897
4.52995 46.4286
4.5746 48.651
4.61925 51.3824
4.6639 52.9118
4.70855 56.0934
4.75322 59.2092
4.79788 62.1678
4.84253 65.5018
4.88719 70.1549
4.93184 75.9518
4.97652 84.0848
5.02118 93.9814
5.06583 106.312
5.11049 126.194
5.15515 173.957
5.19981 681.593
5.24449 3790.85
5.28916 6380.12
5.33382 7213.77
5.37848 726.82
5.42315 195.596
5.46783 140.0
5.5125 121.925
5.55716 112.359
5.60183 105.525
5.6465 101.772
5.69117 100.142
5.73586 97.8418
5.78053 98.1512
5.8252 99.137
5.86988 103.284
5.91455 112.344
5.95924 138.414
6.00392 345.034
6.0486 1442.27
6.09328 2091.33
6.13795 3830.83
6.18263 970.113
6.22733 151.99
6.27201 97.1327
6.3167 82.0272
6.36138 74.0047
6.40606 68.9531
6.45075 66.677
6.49545 64.4048
6.54014 62.0758
6.58483 60.5504
6.62952 59.1802
6.67421 57.8468
6.71892 56.76
6.76361 56.0702
6.8083 55.1875
6.853 54.22
6.89769 53.6378
6.94239 53.473
6.98711 52.7934
7.03181 52.6807
7.07651 51.687
7.12121 51.7726
7.16591 51.6858
7.21063 51.0289
7.25533 51.2552
7.30004 51.1755
7.34475 51.5367
7.38945 51.5695
7.43416 51.2539
7.47889 51.6473
7.5236 59.324
7.56831 78.6703
7.61303 59.5433
7.65774 53.0762
7.70247 53.3243
7.74719 53.3141
7.79191 53.8858
7.83663 54.2193
7.88135 55.2765
7.92607 56.0366
7.97081 57.5244
8.01553 58.5852
8.06026 60.025
8.10498 61.0085
8.14971 62.8356
8.19446 64.3237
8.23919 67.2309
8.28392 70.1663
8.32865 72.9475
8.37339 78.3523
8.41812 84.3283
8.46288 98.6822
8.50761 190.641
8.55235 656.616
8.59709 740.626
8.64183 1109.36
8.68658 1772.98
8.73134 576.799
8.77609 131.636
8.82083 101.215
8.86558 92.3392
8.91033 88.0537
8.9551 85.1586
8.99985 83.3346
9.04461 82.2189
9.08936 81.7251
9.13412 80.7518
9.17888 81.3085
9.22365 93.4119
9.26841 122.85
9.31318 96.9882
9.35794 82.266
9.4027 81.3345
9.44749 82.0005
9.49226 82.4907
9.53703 83.5179
9.5818 84.7013
9.62657 85.5434
9.67134 87.1401
9.71614 89.2029
9.76091 91.5367
9.80569 94.7869
9.85047 98.3389
9.89525 104.293
9.94005 116.942
9.98484 201.259
10.0296 596.118
10.0744 665.031
10.1192 738.752
10.164 1437.82
10.2088 1225.18
10.2536 290.163
10.2984 123.561
10.3432 109.959
10.388 105.604
10.4328 125.025
10.4776 229.098
10.5224 242.667
10.5672 252.936
10.612 422.928
10.6568 438.282
10.7017 167.357
10.7465 96.3282
10.7913 83.651
10.8361 79.8644
10.8809 77.2231
10.9257 74.8579
10.9706 73.4147
11.0154 71.6214
11.0602 70.3204
11.105 69.1599
11.1499 67.5564
11.1947 66.4724
11.2395 65.6192
11.2844 65.0119
11.3292 64.2982
11.374 63.3561
11.4189 62.8767
11.4637 62.5167
11.5086 61.4694
11.5534 61.1716
11.5983 61.1727
11.6431 61.1529
11.688 60.3622
11.7328 60.3495
11.7777 60.0279
11.8225 60.1941
11.8674 60.3164
11.9122 62.4021
11.9571 70.5529
12.002 70.2708
12.0468 69.2854
12.0917 93.1406
12.1366 106.691
12.1814 102.236
12.2263 122.141
12.2712 178.289
12.3161 157.278
12.3609 82.2365
12.4058 64.2767
12.4507 62.7916
12.4956 62.2081
12.5405 61.9601
12.5853 62.3896
12.6302 62.5526
12.6751 63.2117
12.72 64.2157
12.7649 64.9943
12.8098 65.788
12.8547 66.9886
12.8996 68.4279
12.9445 69.7394
12.9894 71.6568
13.0343 74.1637
13.0792 78.5931
13.1242 88.03
13.1691 139.783
13.214 194.774
13.2589 182.103
13.3038 191.204
13.3487 280.863
13.3937 392.986
13.4386 263.51
13.4835 133.497
13.5285 163.479
13.5734 184.14
13.6183 165.34
13.6633 185.578
13.7082 279.503
13.7531 334.169
13.7981 190.479
13.843 93.1676
13.888 80.4426
13.9329 76.8524
13.9779 75.2642
14.0228 73.4254
14.0678 71.935
14.1127 72.6344
14.1577 77.3688
14.2027 75.7493
14.2476 70.8454
14.2926 68.5551
14.3376 67.8617
14.3825 67.3557
14.4275 66.8785
14.4725 67.012
14.5175 67.309
14.5624 67.1002
14.6074 67.3646
14.6524 67.9106
14.6974 68.5051
14.7424 70.5157
14.7874 81.0522
14.8324 110.48
14.8774 120.155
14.9224 112.133
14.9674 120.726
15.0124 159.883
15.0574 208.197
15.1024 164.321
15.1474 89.8734
15.1924 71.7742
15.2374 68.447
15.2824 67.2211
15.3274 65.8262
15.3725 65.3579
15.4175 64.8482
15.4625 64.5193
15.5076 64.3337
15.5526 64.3398
15.5976 64.567
15.6426 65.6286
15.6877 74.1041
15.7327 98.1021
15.7778 108.269
15.8228 100.181
15.8679 103.233
15.9129 125.705
15.958 173.085
16.003 171.434
16.0481 104.339
16.0931 70.0837
16.1382 62.4341
16.1833 59.8209
16.2283 58.0859
16.2734 57.2328
16.3185 56.5629
16.3636 55.6091
16.4086 54.8517
16.4537 54.7021
16.4988 53.9867
16.5439 53.8992
16.589 53.7155
16.6341 53.3927
16.6792 52.925
16.7243 53.2131
16.7694 53.1925
16.8145 52.985
16.8596 53.3036
16.9047 53.7714
16.9498 54.5614
16.9949 54.4536
17.04 54.637
17.0851 55.9702
17.1302 60.6307
17.1754 63.916
17.2205 62.9568
17.2656 62.622
17.3108 65.995
17.3559 72.9996
17.401 80.6938
17.4462 75.0369
17.4913 62.3905
17.5365 58.3598
17.5815 58.0866
17.6268 58.1398
17.6718 58.5697
17.7171 59.1892
17.7622 60.5625
17.8074 61.4701
17.8525 63.0735
17.8977 72.1943
17.9428 85.0098
17.9881 87.3044
18.0331 83.7714
18.0784 85.5853
18.1237 98.1932
18.1688 127.549
18.214 149.377
18.2591 122.616
18.3044 87.7177
18.3495 79.5226
18.3948 84.9031
18.4399 97.5075
18.4852 100.163
18.5303 82.1586
18.5756 66.4028
18.6207 61.8282
18.666 60.1277
18.7112 59.0687
18.7565 58.1696
18.8016 57.8464
18.8469 57.3273
18.892 56.8242
18.9374 56.3472
18.9825 55.9277
19.0278 55.8504
19.073 55.8895
19.1183 56.5841
19.1635 59.2364
19.2088 61.4266
19.254 60.9842
19.2993 60.45
19.3447 61.8085
19.3898 64.473
19.4352 70.0255
19.4804 73.1153
19.5257 66.6807
19.5709 57.1842
19.6163 53.7599
19.6615 52.9914
19.7068 52.4949
19.752 52.5465
19.7974 52.5334
19.8426 53.7728
19.888 56.1781
19.9332 57.6404
19.9786 57.0514
20.0238 56.49
20.0692 58.4267
20.1144 62.7757
20.1598 69.2593
20.205 71.1635
20.2504 66.2186
20.2957 59.3267
20.3411 58.1323
20.3863 61.0206
20.4318 64.1422
20.477 61.0437
20.5224 54.1559
20.5677 50.416
20.6131 49.564
20.6586 49.0803
20.7038 48.8126
20.7493 48.3651
20.7945 48.6122
20.84 48.3744
20.8853 48.1433
20.9307 47.6947
20.976 48.057
21.0215 48.1852
21.0668 48.612
21.1122 48.6925
21.1575 48.2639
21.203 48.2826
21.2483 48.5921
21.2938 49.7087
21.3391 50.4957
21.3846 50.3071
21.4299 48.9753
21.4754 48.1308
21.5207 47.8261
21.5662 48.111
21.6116 48.7299
21.6571 50.7033
21.7024 52.6477
21.7479 53.224
21.7933 52.5371
21.8388 53.042
21.8843 55.2557
21.9297 57.9019
21.9752 62.4612
22.0206 65.3459
22.0661 61.9471
22.1115 56.0844
22.157 53.9261
22.2024 55.0342
22.248 55.2468
22.2933 52.9986
22.3389 49.8884
22.3843 48.4708
22.4299 47.9712
22.4753 48.0221
22.5208 47.8834
22.5662 47.8524
22.6118 48.1871
22.6572 48.341
22.7028 49.7122
22.7483 50.8684
22.7939 51.2276
22.8393 50.8571
22.8849 50.7671
22.9303 51.0333
22.9759 52.0481
23.0214 54.2592
23.067 57.0819
23.1126 56.8915
23.1581 53.1563
23.2037 49.8058
23.2492 48.586
23.2948 48.9559
23.3403 50.5665
23.3859 51.2291
23.4314 50.8961
23.477 50.1161
23.5225 50.3168
23.5682 50.7364
23.6137 52.5753
23.6593 55.0782
23.7048 57.1787
23.7505 54.8896
23.796 50.0574
23.8417 46.6673
23.8872 45.4124
23.9329 44.9565
23.9784 44.6602
24.0241 44.4237
24.0697 43.9463
24.1154 43.5859
24.1609 43.4321
24.2066 43.2352
24.2522 43.2353
24.2979 42.8934
24.3434 42.5952
24.3892 42.7844
24.4349 42.5051
24.4805 42.2265
24.5262 42.3337
24.5718 42.1414
24.6175 42.2681
24.6631 42.3742
24.7089 42.3127
24.7545 42.2217
24.8002 41.8036
24.8458 41.9089
24.8916 41.7887
24.9372 41.9382
24.983 42.1354
25.0286 42.222
25.0744 42.6753
25.12 42.9988
25.1658 43.058
25.2114 43.1246
25.2572 43.7565
25.3029 43.9796
25.3487 43.6337
25.3943 43.4878
25.4402 44.0551
25.4858 44.3606
25.5316 43.0897
25.5773 41.4549
25.6231 40.8065
25.669 40.1395
25.7147 40.1217
25.7605 39.9801
25.8062 40.3554
25.8521 40.6111
25.8977 40.2943
25.9436 40.259
25.9893 40.0345
26.0352 40.2249
26.0809 40.272
26.1268 40.4077
26.1725 40.8898
26.2184 41.3764
26.2641 41.1504
26.31 40.6088
26.3557 40.4199
26.4017 40.1141
26.4474 40.2469
26.4933 40.1244
26.5391 40.2653
26.585 40.4221
26.6308 40.4294
26.6767 40.6644
26.7225 41.4103
26.7684 42.0235
26.8142 41.6153
26.8601 40.8332
26.9059 40.2448
26.9519 39.9323
26.9979 39.651
27.0437 39.1509
27.0896 38.5598
27.1354 38.4567
27.1814 38.3202
27.2272 38.333
27.2732 38.3571
27.3191 38.1466
27.3651 38.148
27.4109 37.786
27.4569 37.9176
27.5027 37.9188
27.5488 37.9135
27.5946 37.8104
27.6407 38.097
27.6865 38.2734
27.7326 38.1097
27.7784 38.0352
27.8245 37.8407
27.8703 37.7136
27.9164 37.8019
27.9623 37.6405
28.0084 37.8348
28.0543 37.8448
28.1003 38.0013
28.1462 38.3356
28.1923 38.6527
28.2384 38.265
28.2843 37.8524
28.3304 37.528
28.3764 37.2391
28.4225 36.8141
28.4684 36.3556
28.5145 35.8831
28.5605 35.6452
28.6066 35.419
28.6526 35.4827
28.6987 35.4226
28.7447 35.1089
28.7908 34.893
28.8368 34.8803
28.8829 34.8046
28.9289 34.7759
28.9751 34.5766
29.0211 34.7143
29.0673 34.7123
29.1133 34.5502
29.1595 34.297
29.2055 33.9144
29.2517 33.8884
29.2977 33.7412
29.3439 33.6026
29.3899 33.6053
29.4361 33.5709
29.4824 33.607
29.5284 33.6017
29.5746 33.4927
29.6207 33.1282
29.6669 32.8632
29.713 32.6333
29.7593 32.422
29.8053 32.5845
29.8516 32.4435
29.8977 32.4365
29.9439 32.2321
29.99 32.2749
30.0363 31.9038
30.0824 32.0831
30.1287 31.9415
30.1748 31.9652
30.2211 31.9621
30.2673 31.7727
30.3136 32.0257
30.3597 32.0774
30.406 31.9309
30.4522 31.8732
30.4985 31.677
30.5447 31.6824
30.591 31.5507
30.6372 31.6611
30.6835 31.5016
30.7297 31.5774
30.7761 31.6077
30.8224 31.7944
30.8686 31.807
30.915 31.5947
30.9612 31.4707
31.0076 31.1812
31.0538 31.0431
31.1002 31.0987
31.1464 30.737
31.1928 30.7068
31.2391 30.6677
31.2855 30.4879
31.3317 30.4789
31.3781 30.4864
31.4244 30.39
31.4708 30.3391
31.5171 30.2991
31.5636 30.4405
31.6098 30.4017
31.6563 30.4207
31.7026 30.264
31.7491 29.9352
31.7953 29.7765
31.8418 29.784
31.8881 29.7313
31.9346 29.618
31.9809 29.607
32.0275 29.6132
32.074 29.6099
32.1203 29.4468
32.1668 29.4493
32.2132 29.2164
32.2597 29.1034
32.306 28.9341
32.3526 28.7759
32.399 28.6976
32.4455 28.5352
32.4919 28.3474
32.5385 28.4221
32.5848 28.2263
32.6314 28.1974
32.6778 28.1797
32.7244 28.0481
32.7708 27.868
32.8174 27.8473
32.8638 27.7029
32.9104 27.7185
32.9569 27.7142
33.0035 27.4768
33.0499 27.5477
33.0966 27.4379
33.143 27.3334
33.1897 27.2047
33.2361 27.2646
33.2828 27.3283
33.3293 27.1457
33.3759 27.0927
33.4226 27.0569
33.4691 26.8704
33.5158 26.874
33.5623 26.6852
33.609 26.5066
33.6555 26.3723
33.7022 26.3303
33.7487 26.1719
33.7954 26.1952
33.842 26.0434
33.8887 26.0375
33.9353 25.9015
33.982 25.8223
34.0286 25.7385
34.0753 25.8221
34.1219 25.5704
34.1687 25.4695
34.2152 25.447
34.262 25.2895
34.3086 25.2425
34.3554 25.2038
34.402 25.0801
34.4488 24.9522
34.4954 24.9208
34.5422 24.8646
34.5889 24.7924
34.6357 24.6897
34.6825 24.6142
34.7292 24.5487
34.776 24.4268
34.8227 24.4473
34.8695 24.3282
34.9162 24.2877
34.9631 24.1472
35.0098 24.22
35.0566 24.0028
35.1033 24.0265
35.1502 23.9855
35.1969 23.8775
35.2438 23.8394
35.2906 23.8182
35.3375 23.7037
35.3842 23.7246
35.4311 23.6314
35.4779 23.5558
35.5248 23.5907
35.5716 23.522
35.6185 23.4372
35.6653 23.4304
35.7123 23.2864
35.759 23.2138
35.806 23.0217
35.8528 23.0744
35.8998 22.9075
35.9468 22.8198
35.9936 22.8673
36.0406 22.6872
36.0874 22.6853
36.1345 22.6523
36.1813 22.6184
36.2283 22.3676
36.2752 22.3509
36.3222 22.3379
36.3691 22.33
36.4161 22.197
36.463 22.1686
36.5101 22.1174
36.557 22.0848
36.6041 21.9208
36.651 21.8991
36.6981 21.8217
36.745 21.8295
36.7921 21.8088
36.839 21.6616
36.8861 21.572
36.9331 21.5278
36.9802 21.4176
37.0272 21.3456
37.0743 21.2716
37.1213 21.1999
37.1684 21.1713
37.2154 21.0591
37.2626 21.0117
37.3098 20.9065
37.3568 20.8717
37.404 20.8816
37.451 20.6792
37.4982 20.7356
37.5452 20.6144
37.5924 20.5535
37.6395 20.5544
37.6867 20.4914
37.7337 20.3709
37.781 20.3041
37.8281 20.2337
37.8753 20.2055
37.9224 20.117
37.9697 20.0372
38.0168 19.9719
38.064 19.8957
38.1111 19.8358
38.1584 19.7687
38.2056 19.6563
38.2529 19.6386
38.3 19.6216
38.3473 19.5798
38.3945 19.507
38.4418 19.3543
38.489 19.3321
38.5363 19.2913
38.5837 19.2038
38.6309 19.1595
38.6782 19.0733
38.7254 19.0285
38.7728 18.9672
38.82 18.913
38.8674 18.8603
38.9146 18.7941
38.9621 18.7725
39.0093 18.7329
39.0567 18.6566
39.104 18.5571
39.1514 18.494
39.1987 18.4321
39.2461 18.3957
39.2934 18.3013
39.3409 18.2346
39.3882 18.1914
39.4356 18.1268
39.483 18.0906
39.5304 18.0058
39.5778 18.057
39.6253 17.9557
39.6726 17.8815
39.7201 17.8315
39.7675 17.7471
39.815 17.6893
39.8624 17.6047
39.9099 17.6408
39.9575 17.5282
40.0049 17.5073
40.0525 17.4253
40.0999 17.3668
40.1474 17.3147
40.1949 17.221
40.2425 17.2053
40.2899 17.1799
40.3375 17.0973
40.385 16.9856
40.4326 17.0032
40.48 16.9292
40.5277 16.8659
40.5752 16.8268
40.6228 16.7262
40.6703 16.6901
40.718 16.7229
40.7655 16.6371
40.8132 16.5924
40.8607 16.5354
40.9084 16.5045
40.9559 16.3949
41.0036 16.3684
41.0512 16.3072
41.0989 16.2769
41.1465 16.2454
41.1942 16.1831
41.242 16.0416
41.2896 16.0436
41.3373 15.9258
41.3849 15.9899
41.4327 15.8891
41.4803 15.7881
41.5281 15.8044
41.5758 15.6705
41.6236 15.6707
41.6712 15.5439
41.7191 15.5471
41.7667 15.5561
41.8146 15.4746
41.8622 15.3609
41.9101 15.3237
41.9578 15.2623
42.0057 15.2771
42.0534 15.1854
42.1013 15.1961
42.149 15.099
42.1969 15.0155
42.2446 14.9991
42.2925 14.9793
42.3403 14.8873
42.3882 14.8219
42.436 14.771
42.4839 14.7379
42.5319 14.6637
42.5797 14.6004
42.6277 14.5558
42.6755 14.5557
42.7235 14.4273
42.7713 14.4515
42.8193 14.3755
42.8671 14.3573
42.9152 14.2946
42.963 14.2664
43.0111 14.1626
43.0589 14.1497
43.107 14.1405
43.1549 14.1026
43.2029 13.9748
43.2508 14.0203
43.2989 13.8715
43.3468 13.8388
43.3949 13.8381
43.4429 13.7831
43.491 13.7178
43.5389 13.645
43.5871 13.6554
43.635 13.5545
43.6832 13.5534
43.7312 13.4719
43.7793 13.4278
43.8273 13.4013
43.8755 13.3176
43.9237 13.2859
43.9717 13.2613
44.0199 13.2044
44.068 13.1491
44.1162 13.1111
44.1642 13.1337
44.2125 13.0666
44.2606 12.964
44.3088 12.9145
44.3569 12.8854
44.4052 12.8729
44.4533 12.7623
44.5016 12.7495
44.5497 12.7355
44.598 12.6696
44.6461 12.6173
44.6945 12.5746
44.7426 12.5282
44.791 12.5042
44.8391 12.4665
44.8875 12.4173
44.9357 12.3778
44.984 12.3035
45.0322 12.2912
45.0806 12.2129
45.1288 12.1934
45.1773 12.1256
45.2257 12.096
45.2739 12.0531
45.3224 12.0023
45.3706 11.9721
45.4191 11.9016
45.4673 11.9036
45.5158 11.8336
45.5641 11.8319
45.6126 11.7355
45.6609 11.7508
45.7094 11.6481
45.7577 11.6262
45.8063 11.5497
45.8546 11.5454
45.9031 11.4859
45.9515 11.4704
46.0001 11.4431
46.0484 11.3808
46.097 11.409
46.1454 11.3119
46.194 11.3125
46.2424 11.236
46.291 11.2321
46.3395 11.1584
46.3881 11.0639
46.4365 11.0852
46.4852 11.0453
46.5337 11.0021
46.5823 10.932
46.631 10.8593
46.6795 10.8614
46.7282 10.8306
46.7767 10.7926
46.8254 10.7354
46.8739 10.6956
46.9226 10.675
46.9712 10.6298
47.0199 10.6086
47.0685 10.5618
47.1173 10.4829
47.1658 10.4701
47.2146 10.438
47.2632 10.3699
47.312 10.3198
47.3606 10.2938
47.4095 10.3048
47.4581 10.2237
47.5069 10.2058
47.5556 10.1432
47.6044 10.1092
47.6531 10.1121
47.702 10.0512
47.7507 10.004
47.7996 9.97194
47.8483 9.91947
47.8972 9.90333
47.9461 9.87205
47.9948 9.82588
48.0438 9.77542
48.0925 9.7715
48.1415 9.74691
48.1902 9.70784
48.2392 9.66169
48.288 9.62365
48.337 9.57846
48.3858 9.55873
48.4348 9.51327
48.4837 9.52569
48.5327 9.43768
48.5815 9.43267
48.6306 9.36924
48.6795 9.35277
48.7285 9.3248
48.7774 9.28032
48.8265 9.26739
48.8754 9.20449
48.9245 9.17458
48.9734 9.16669
49.0226 9.12871
49.0715 9.09657
49.1206 9.04265
49.1696 9.02288
49.2188 8.99516
49.2679 8.9049
49.3169 8.91173
49.3661 8.85435
49.4151 8.8524
49.4643 8.80017
49.5134 8.76732
49.5626 8.73167
49.6117 8.71165
49.6609 8.64737
49.71 8.6273
49.7592 8.57245
49.8083 8.56636
49.8576 8.56104
49.9067 8.53756
49.956 8.50387
50.0052 8.46502
50.0545 8.43545
50.1036 8.40983
50.153 8.36838
50.2022 8.34044
50.2515 8.26439
50.3007 8.27246
50.3501 8.22145
50.3993 8.22856
50.4487 8.14621
50.498 8.16085
50.5474 8.11247
50.5966 8.05557
50.6461 8.07115
50.6955 8.0293
50.7448 7.9658
50.7943 7.94008
50.8436 7.95112
50.8931 7.89715
50.9424 7.86997
50.9919 7.8127
51.0413 7.77656
51.0908 7.7587
51.1402 7.7497
51.1897 7.70589
51.2391 7.68357
51.2887 7.64431
51.3381 7.60998
51.3877 7.59673
51.4371 7.53903
51.4867 7.48759
51.5362 7.51927
51.5858 7.47787
51.6353 7.4059
51.6849 7.38376
51.7344 7.3828
51.7841 7.36327
51.8336 7.29976
51.8833 7.3
51.9328 7.22116
51.9826 7.20449
52.0323 7.17192
52.0818 7.14614
52.1316 7.09978
52.1812 7.11338
52.231 7.09293
52.2806 7.00463
52.3304 7.02911
52.38 6.95973
52.4298 6.96744
52.4794 6.89094
52.5293 6.88092
52.5789 6.87581
52.6288 6.82311
52.6785 6.80172
52.7284 6.74807
52.7781 6.72977
52.828 6.67932
52.8777 6.70395
52.9276 6.67414
52.9774 6.63908
53.0273 6.62743
53.0771 6.53736
53.1271 6.5636
53.1769 6.50324
53.2269 6.51644
53.2767 6.49013
53.3267 6.41187
53.3765 6.44913
53.4266 6.40015
53.4766 6.35663
53.5265 6.3167
53.5765 6.31979
53.6264 6.2718
53.6765 6.23013
53.7264 6.20999
53.7765 6.18478
53.8265 6.17085
53.8766 6.1344
53.9266 6.08867
53.9767 6.05252
54.0267 6.03235
54.0769 6.00893
54.1269 5.98531
54.1771 5.93017
54.2271 5.86999
54.2773 5.84142
54.3274 5.88631
54.3776 5.85858
54.4277 5.77463
54.478 5.72882
54.528 5.70374
54.5783 5.60649
54.6285 5.55649
54.6788 5.54788
54.7289 5.55125
54.7792 5.46852
54.8296 5.40859
54.8798 5.38778
54.9301 5.34669
54.9803 5.28367
55.0307 5.21688
55.0809 5.22115
55.1314 5.15714
55.1816 5.12339
55.232 5.10293
55.2823 5.03187
55.3328 4.95419
55.383 4.90261
55.4335 4.87614
55.4838 4.84873
55.5344 4.76206
55.5847 4.74075
55.6352 4.73263
55.6856 4.7333
55.7361 4.70832