File: XRD/Ni3Fe_FD0306.xy
TT I
1.27165 7.63219
1.31627 7.07591
1.36089 6.78259
1.40551 6.63018
1.45013 5.90367
1.49476 6.36669
1.53938 6.70711
1.584 6.02534
1.62863 5.67171
1.67325 5.38925
1.71787 5.41188
1.7625 5.2689
1.80712 4.84317
1.85174 4.84258
1.89636 4.35181
1.94099 5.37294
1.98562 5.01352
2.03025 4.57013
2.07487 4.25282
2.11949 5.0161
2.16411 4.94002
2.20874 18.8251
2.25338 33.4212
2.298 6.22248
2.34263 4.96652
2.38725 4.99884
2.43188 5.09723
2.4765 5.611
2.52115 5.68291
2.56577 6.62025
2.6104 6.93859
2.65503 6.87237
2.69965 7.14446
2.7443 6.94926
2.78893 7.07219
2.83356 8.17952
2.87818 8.29931
2.92281 8.92093
2.96744 9.60072
3.01209 10.5093
3.05672 11.4195
3.10135 12.5222
3.14599 13.3693
3.19062 13.8454
3.23527 15.3817
3.2799 16.1496
3.32454 17.3266
3.36917 18.0871
3.4138 19.5017
3.45844 20.097
3.50309 21.8778
3.54773 22.4123
3.59237 25.5083
3.637 131.907
3.68164 80.2173
3.7263 27.7564
3.77094 26.7947
3.81558 27.0953
3.86022 28.2999
3.90486 29.5296
3.9495 31.2765
3.99416 31.8658
4.0388 33.4948
4.08344 34.5885
4.12809 36.3412
4.17273 39.0571
4.21738 47.4178
4.26204 361.905
4.30669 322.267
4.35133 53.6738
4.39598 46.9235
4.44063 59.4759
4.4853 77.5831
4.52995 53.6812
4.5746 52.9898
4.61925 55.0978
4.6639 56.6703
4.70855 59.4088
4.75322 62.6196
4.79788 65.7042
4.84253 69.055
4.88719 73.1058
4.93184 77.1947
4.97652 83.2331
5.02118 90.3999
5.06583 98.8242
5.11049 113.897
5.15515 218.806
5.19981 484.152
5.24449 2899.32
5.28916 11098.6
5.33382 4275.52
5.37848 254.563
5.42315 145.465
5.46783 122.61
5.5125 112.295
5.55716 106.708
5.60183 102.96
5.6465 101.257
5.69117 97.9483
5.73586 95.5634
5.78053 96.3821
5.8252 95.8675
5.86988 96.7921
5.91455 99.5577
5.95924 110.776
6.00392 249.961
6.0486 1018.82
6.09328 3693.11
6.13795 3958.1
6.18263 361.765
6.22733 106.395
6.27201 90.331
6.3167 121.357
6.36138 89.4281
6.40606 72.6156
6.45075 70.0177
6.49545 67.9294
6.54014 66.4727
6.58483 65.7458
6.62952 66.1545
6.67421 112.112
6.71892 194.784
6.76361 76.7813
6.8083 61.6508
6.853 60.2034
6.89769 59.4948
6.94239 58.9968
6.98711 57.7477
7.03181 57.8914
7.07651 57.8706
7.12121 57.6964
7.16591 58.1755
7.21063 58.9283
7.25533 79.3834
7.30004 251.008
7.34475 116.293
7.38945 59.8492
7.43416 57.2113
7.47889 56.8135
7.5236 56.9105
7.56831 57.431
7.61303 60.1141
7.65774 60.8833
7.70247 58.6322
7.74719 58.4482
7.79191 58.8056
7.83663 59.1192
7.88135 60.0684
7.92607 60.495
7.97081 61.8662
8.01553 63.1312
8.06026 64.3742
8.10498 66.272
8.14971 79.9805
8.19446 78.0436
8.23919 71.996
8.28392 74.2147
8.32865 76.4292
8.37339 80.7703
8.41812 89.6982
8.46288 132.503
8.50761 188.713
8.55235 422.394
8.59709 970.217
8.64183 2027.74
8.68658 1256.87
8.73134 223.511
8.77609 107.559
8.82083 97.4998
8.86558 93.8956
8.91033 94.3364
8.9551 98.2313
8.99985 88.9046
9.04461 86.2051
9.08936 85.5186
9.13412 84.6005
9.17888 84.6056
9.22365 85.8761
9.26841 84.6016
9.31318 85.4727
9.35794 85.6403
9.4027 85.5169
9.44749 86.3014
9.49226 87.0458
9.53703 87.854
9.5818 90.0961
9.62657 96.6535
9.67134 106.317
9.71614 97.4743
9.76091 97.0377
9.80569 99.9048
9.85047 103.451
9.89525 138.636
9.94005 157.302
9.98484 194.803
10.0296 367.899
10.0744 690.95
10.1192 1469.53
10.164 1804.82
10.2088 591.248
10.2536 153.812
10.2984 123.148
10.3432 126.056
10.388 110.709
10.4328 125.718
10.4776 169.262
10.5224 250.788
10.5672 441.908
10.612 543.344
10.6568 258.207
10.7017 106.171
10.7465 90.5223
10.7913 86.6692
10.8361 84.113
10.8809 81.8883
10.9257 82.14
10.9706 83.9016
11.0154 78.208
11.0602 75.6152
11.105 74.6252
11.1499 81.5615
11.1947 94.4866
11.2395 80.5289
11.2844 74.4533
11.3292 70.2118
11.374 68.6638
11.4189 68.1403
11.4637 67.3685
11.5086 68.2005
11.5534 73.2309
11.5983 69.1783
11.6431 65.8103
11.688 65.1556
11.7328 65.3073
11.7777 65.1461
11.8225 64.7294
11.8674 64.5976
11.9122 64.8769
11.9571 65.443
12.002 65.9361
12.0468 70.8794
12.0917 83.2654
12.1366 100.956
12.1814 134.872
12.2263 197.477
12.2712 192.936
12.3161 116.529
12.3609 77.9573
12.4058 67.6011
12.4507 66.9159
12.4956 66.9941
12.5405 67.2739
12.5853 68.2956
12.6302 79.7983
12.6751 88.8183
12.72 74.4841
12.7649 70.2936
12.8098 70.851
12.8547 71.8609
12.8996 73.3047
12.9445 74.6171
12.9894 76.4008
13.0343 78.0841
13.0792 81.5407
13.1242 92.3625
13.1691 119.714
13.214 151.099
13.2589 208.817
13.3038 319.795
13.3487 447.524
13.3937 327.516
13.4386 150.368
13.4835 113.781
13.5285 127.626
13.5734 154.063
13.6183 210.459
13.6633 311.378
13.7082 370.772
13.7531 235.407
13.7981 112.29
13.843 85.8775
13.888 82.7943
13.9329 80.2346
13.9779 78.4255
14.0228 76.8397
14.0678 75.4638
14.1127 75.1838
14.1577 75.7248
14.2027 74.253
14.2476 72.5834
14.2926 73.2267
14.3376 75.5211
14.3825 73.3166
14.4275 71.1985
14.4725 70.794
14.5175 71.1627
14.5624 71.4714
14.6074 74.7992
14.6524 75.3821
14.6974 72.9309
14.7424 74.7677
14.7874 82.3299
14.8324 92.7697
14.8774 107.96
14.9224 135.89
14.9674 185.643
15.0124 226.317
15.0574 174.527
15.1024 104.091
15.1474 76.6401
15.1924 73.5189
15.2374 75.1453
15.2824 74.4477
15.3274 71.1767
15.3725 69.5027
15.4175 68.6561
15.4625 68.4911
15.5076 68.9986
15.5526 68.8253
15.5976 68.056
15.6426 69.348
15.6877 75.3699
15.7327 83.5835
15.7778 94.4066
15.8228 114.258
15.8679 151.033
15.9129 194.191
15.958 182.557
16.003 116.996
16.0481 75.036
16.0931 68.9417
16.1382 66.5447
16.1833 63.4241
16.2283 61.4906
16.2734 60.7753
16.3185 61.5096
16.3636 63.004
16.4086 60.903
16.4537 58.701
16.4988 57.7864
16.5439 57.4977
16.589 57.1856
16.6341 56.7969
16.6792 56.4828
16.7243 56.9623
16.7694 57.3224
16.8145 57.1
16.8596 57.4059
16.9047 59.7728
16.9498 60.2068
16.9949 58.0299
17.04 57.9169
17.0851 59.1112
17.1302 61.0537
17.1754 63.6502
17.2205 66.8273
17.2656 72.1025
17.3108 81.5043
17.3559 85.7134
17.401 77.3568
17.4462 66.2223
17.4913 61.5192
17.5365 61.2007
17.5815 61.2094
17.6268 61.5685
17.6718 62.5861
17.7171 63.2017
17.7622 63.2727
17.8074 63.8803
17.8525 66.3498
17.8977 71.0097
17.9428 76.4421
17.9881 82.5384
18.0331 93.4359
18.0784 111.797
18.1237 137.504
18.1688 143.47
18.214 117.902
18.2591 91.7752
18.3044 88.0896
18.3495 96.1535
18.3948 107.985
18.4399 106.382
18.4852 85.8282
18.5303 70.2777
18.5756 64.7719
18.6207 63.5859
18.666 62.8273
18.7112 62.0546
18.7565 61.1866
18.8016 60.7804
18.8469 60.3006
18.892 59.8333
18.9374 59.3203
18.9825 59.181
19.0278 58.997
19.073 59.2725
19.1183 59.665
19.1635 61.0482
19.2088 61.8956
19.254 62.9502
19.2993 65.8578
19.3447 71.8602
19.3898 78.5006
19.4352 77.6397
19.4804 68.9395
19.5257 60.4401
19.5709 56.4959
19.6163 55.8479
19.6615 55.712
19.7068 55.3225
19.752 55.2408
19.7974 55.3222
19.8426 56.5998
19.888 57.2661
19.9332 57.966
19.9786 59.5761
20.0238 62.0699
20.0692 66.5414
20.1144 71.2568
20.1598 72.261
20.205 67.0693
20.2504 63.2425
20.2957 63.765
20.3411 66.4446
20.3863 67.5755
20.4318 62.7747
20.477 56.8923
20.5224 54.2554
20.5677 53.2797
20.6131 52.2738
20.6586 51.5981
20.7038 51.5045
20.7493 50.9634
20.7945 50.7773
20.84 50.562
20.8853 50.4569
20.9307 50.243
20.976 50.4412
21.0215 50.4075
21.0668 50.8133
21.1122 51.1366
21.1575 51.6164
21.203 52.0053
21.2483 52.8166
21.2938 53.4384
21.3391 52.3883
21.3846 51.121
21.4299 50.2107
21.4754 50.118
21.5207 50.2432
21.5662 50.4161
21.6116 50.8023
21.6571 51.5632
21.7024 52.6082
21.7479 53.8607
21.7933 55.8848
21.8388 58.6888
21.8843 62.364
21.9297 66.3779
21.9752 67.0102
22.0206 63.1986
22.0661 58.6425
22.1115 57.2311
22.157 57.9394
22.2024 57.4159
22.248 54.2973
22.2933 52.2994
22.3389 51.0512
22.3843 51.0141
22.4299 51.1122
22.4753 50.9563
22.5208 50.4694
22.5662 50.2161
22.6118 50.4815
22.6572 50.5692
22.7028 50.9553
22.7483 51.251
22.7939 52.0159
22.8393 52.793
22.8849 54.4607
22.9303 56.301
22.9759 58.8788
23.0214 59.967
23.067 58.0152
23.1126 54.0413
23.1581 51.3915
23.2037 50.7606
23.2492 50.7931
23.2948 50.6118
23.3403 50.9439
23.3859 51.285
23.4314 51.9713
23.477 53.2122
23.5225 54.6443
23.5682 57.2769
23.6137 59.4804
23.6593 59.0263
23.7048 55.2854
23.7505 50.9417
23.796 48.6705
23.8417 47.9542
23.8872 47.1922
23.9329 46.932
23.9784 46.5663
24.0241 46.4027
24.0697 45.9575
24.1154 45.7574
24.1609 45.7067
24.2066 45.5826
24.2522 45.5248
24.2979 45.0419
24.3434 45.025
24.3892 44.833
24.4349 44.423
24.4805 44.3927
24.5262 44.7121
24.5718 44.4184
24.6175 44.5405
24.6631 44.4801
24.7089 44.1535
24.7545 44.0027
24.8002 43.8164
24.8458 43.8094
24.8916 43.4288
24.9372 43.82
24.983 43.807
25.0286 44.178
25.0744 44.5919
25.12 44.848
25.1658 45.5184
25.2114 46.1013
25.2572 46.1988
25.3029 46.0124
25.3487 46.4022
25.3943 46.2484
25.4402 45.6479
25.4858 44.4901
25.5316 43.2671
25.5773 42.442
25.6231 42.4423
25.669 42.053
25.7147 42.0267
25.7605 42.0255
25.8062 42.0164
25.8521 42.1088
25.8977 42.127
25.9436 42.1337
25.9893 42.1608
26.0352 42.6503
26.0809 42.7613
26.1268 43.1606
26.1725 43.0906
26.2184 42.5289
26.2641 41.9932
26.31 41.5437
26.3557 41.6082
26.4017 41.5286
26.4474 41.7748
26.4933 42.151
26.5391 42.4438
26.585 42.6968
26.6308 43.1011
26.6767 43.4576
26.7225 43.6285
26.7684 43.0742
26.8142 42.426
26.8601 42.1171
26.9059 41.6223
26.9519 40.971
26.9979 40.7564
27.0437 40.276
27.0896 40.1907
27.1354 40.1916
27.1814 39.8884
27.2272 39.9016
27.2732 39.9776
27.3191 39.7287
27.3651 39.7898
27.4109 39.5743
27.4569 39.8576
27.5027 39.7725
27.5488 39.8539
27.5946 39.7453
27.6407 39.5961
27.6865 39.4199
27.7326 39.2007
27.7784 39.1998
27.8245 38.9965
27.8703 39.213
27.9164 39.3105
27.9623 39.388
28.0084 39.7013
28.0543 40.2108
28.1003 40.2887
28.1462 40.1532
28.1923 39.8358
28.2384 39.4074
28.2843 39.1204
28.3304 38.6928
28.3764 38.3348
28.4225 37.8576
28.4684 37.6584
28.5145 37.3865
28.5605 37.1732
28.6066 36.9037
28.6526 36.8256
28.6987 36.7961
28.7447 36.7539
28.7908 36.517
28.8368 36.6635
28.8829 36.6454
28.9289 36.6449
28.9751 36.4086
29.0211 36.2423
29.0673 35.951
29.1133 35.9296
29.1595 35.5833
29.2055 35.5125
29.2517 35.5326
29.2977 35.4198
29.3439 35.5137
29.3899 35.3619
29.4361 35.3965
29.4824 35.2406
29.5284 35.1526
29.5746 34.7294
29.6207 34.3679
29.6669 34.3032
29.713 34.1112
29.7593 33.9484
29.8053 34.0238
29.8516 34.0016
29.8977 33.956
29.9439 33.7199
29.99 33.7747
30.0363 33.6031
30.0824 33.5702
30.1287 33.5789
30.1748 33.5464
30.2211 33.5382
30.2673 33.3642
30.3136 33.611
30.3597 33.5629
30.406 33.3814
30.4522 33.2739
30.4985 33.1163
30.5447 33.2537
30.591 33.1348
30.6372 33.1941
30.6835 33.2528
30.7297 33.3174
30.7761 33.3275
30.8224 33.211
30.8686 32.9561
30.915 32.7971
30.9612 32.6375
31.0076 32.4403
31.0538 32.2722
31.1002 32.256
31.1464 32.0448
31.1928 32.0394
31.2391 32.0783
31.2855 31.9502
31.3317 31.9077
31.3781 31.9242
31.4244 31.9152
31.4708 31.9187
31.5171 31.8733
31.5636 31.8776
31.6098 31.7114
31.6563 31.5132
31.7026 31.3455
31.7491 31.1873
31.7953 31.2552
31.8418 31.2033
31.8881 31.2316
31.9346 31.1637
31.9809 31.1286
32.0275 30.9791
32.074 30.9332
32.1203 30.7504
32.1668 30.6509
32.2132 30.481
32.2597 30.4073
32.306 30.238
32.3526 30.0417
32.399 29.9091
32.4455 29.8877
32.4919 29.7779
32.5385 29.7193
32.5848 29.5266
32.6314 29.5059
32.6778 29.4932
32.7244 29.2798
32.7708 29.1073
32.8174 29.1815
32.8638 28.98
32.9104 29.1432
32.9569 28.9475
33.0035 28.8826
33.0499 28.8461
33.0966 28.7813
33.143 28.7215
33.1897 28.6125
33.2361 28.5655
33.2828 28.5709
33.3293 28.3355
33.3759 28.4015
33.4226 28.2701
33.4691 28.1385
33.5158 28.0708
33.5623 27.9044
33.609 27.6801
33.6555 27.6103
33.7022 27.545
33.7487 27.5049
33.7954 27.4831
33.842 27.3081
33.8887 27.2405
33.9353 27.1893
33.982 27.0461
34.0286 27.0032
34.0753 26.9594
34.1219 26.8652
34.1687 26.7361
34.2152 26.7589
34.262 26.5248
34.3086 26.4631
34.3554 26.4335
34.402 26.3191
34.4488 26.1689
34.4954 26.1944
34.5422 26.0903
34.5889 25.9661
34.6357 25.8573
34.6825 25.8939
34.7292 25.7039
34.776 25.6907
34.8227 25.5843
34.8695 25.5606
34.9162 25.4828
34.9631 25.3577
35.0098 25.4168
35.0566 25.168
35.1033 25.2228
35.1502 25.155
35.1969 25.0544
35.2438 25.0196
35.2906 24.9245
35.3375 24.9216
35.3842 24.7788
35.4311 24.9272
35.4779 24.7985
35.5248 24.7265
35.5716 24.6494
35.6185 24.5078
35.6653 24.5281
35.7123 24.4255
35.759 24.3166
35.806 24.1498
35.8528 24.0418
35.8998 24.0668
35.9468 23.9301
35.9936 23.9005
36.0406 23.8041
36.0874 23.8143
36.1345 23.735
36.1813 23.6622
36.2283 23.5495
36.2752 23.43
36.3222 23.4609
36.3691 23.3919
36.4161 23.2703
36.463 23.2104
36.5101 23.205
36.557 23.1755
36.6041 22.9819
36.651 23.0524
36.6981 22.9
36.745 22.8288
36.7921 22.7567
36.839 22.6803
36.8861 22.6161
36.9331 22.5573
36.9802 22.4265
37.0272 22.315
37.0743 22.2514
37.1213 22.2234
37.1684 22.1862
37.2154 22.1128
37.2626 21.9927
37.3098 21.917
37.3568 21.8789
37.404 21.8198
37.451 21.7366
37.4982 21.645
37.5452 21.5689
37.5924 21.4632
37.6395 21.5767
37.6867 21.4756
37.7337 21.3944
37.781 21.299
37.8281 21.2787
37.8753 21.1328
37.9224 21.0953
37.9697 21.0222
38.0168 20.9581
38.064 20.82
38.1111 20.7662
38.1584 20.7537
38.2056 20.6669
38.2529 20.6585
38.3 20.5853
38.3473 20.5066
38.3945 20.3956
38.4418 20.3454
38.489 20.3012
38.5363 20.1879
38.5837 20.1505
38.6309 20.0822
38.6782 20.0464
38.7254 19.9609
38.7728 19.9258
38.82 19.8495
38.8674 19.7987
38.9146 19.7012
38.9621 19.7345
39.0093 19.5854
39.0567 19.5948
39.104 19.3813
39.1514 19.3585
39.1987 19.4067
39.2461 19.335
39.2934 19.1762
39.3409 19.0837
39.3882 19.0663
39.4356 19.0652
39.483 18.9527
39.5304 18.8846
39.5778 18.8782
39.6253 18.7982
39.6726 18.7627
39.7201 18.6779
39.7675 18.6463
39.815 18.6379
39.8624 18.4561
39.9099 18.5218
39.9575 18.3823
40.0049 18.3479
40.0525 18.238
40.0999 18.2097
40.1474 18.2435
40.1949 18.1274
40.2425 18.0259
40.2899 17.9336
40.3375 17.9436
40.385 17.8518
40.4326 17.7904
40.48 17.7615
40.5277 17.7285
40.5752 17.6379
40.6228 17.5483
40.6703 17.5333
40.718 17.4724
40.7655 17.4611
40.8132 17.361
40.8607 17.3286
40.9084 17.2606
40.9559 17.1351
41.0036 17.0967
41.0512 17.1177
41.0989 17.1174
41.1465 16.998
41.1942 16.9833
41.242 16.807
41.2896 16.7692
41.3373 16.7287
41.3849 16.6892
41.4327 16.6683
41.4803 16.5437
41.5281 16.5747
41.5758 16.4961
41.6236 16.3879
41.6712 16.3032
41.7191 16.3016
41.7667 16.26
41.8146 16.2242
41.8622 16.1905
41.9101 16.0762
41.9578 15.9978
42.0057 15.9888
42.0534 15.971
42.1013 15.8858
42.149 15.8145
42.1969 15.7993
42.2446 15.7672
42.2925 15.6809
42.3403 15.6105
42.3882 15.5669
42.436 15.5155
42.4839 15.443
42.5319 15.4427
42.5797 15.4024
42.6277 15.313
42.6755 15.237
42.7235 15.1588
42.7713 15.1796
42.8193 15.0775
42.8671 15.0736
42.9152 14.9865
42.963 15.0137
43.0111 14.8429
43.0589 14.8806
43.107 14.7509
43.1549 14.7266
43.2029 14.6729
43.2508 14.6272
43.2989 14.6118
43.3468 14.5479
43.3949 14.4975
43.4429 14.3943
43.491 14.3932
43.5389 14.347
43.5871 14.2904
43.635 14.2204
43.6832 14.1939
43.7312 14.1353
43.7793 14.0691
43.8273 14.0506
43.8755 13.9515
43.9237 13.924
43.9717 13.916
44.0199 13.8429
44.068 13.7823
44.1162 13.7296
44.1642 13.7173
44.2125 13.6855
44.2606 13.6279
44.3088 13.5297
44.3569 13.5383
44.4052 13.4891
44.4533 13.4254
44.5016 13.3761
44.5497 13.3393
44.598 13.2736
44.6461 13.2245
44.6945 13.1671
44.7426 13.1707
44.791 13.0722
44.8391 13.077
44.8875 13.0252
44.9357 12.943
44.984 12.9193
45.0322 12.8713
45.0806 12.8199
45.1288 12.7762
45.1773 12.7596
45.2257 12.7353
45.2739 12.6694
45.3224 12.6222
45.3706 12.5619
45.4191 12.5146
45.4673 12.4752
45.5158 12.3919
45.5641 12.3778
45.6126 12.3534
45.6609 12.2748
45.7094 12.2453
45.7577 12.2088
45.8063 12.1483
45.8546 12.1406
45.9031 12.0269
45.9515 12.0274
46.0001 11.9434
46.0484 11.9245
46.097 11.9061
46.1454 11.8582
46.194 11.8231
46.2424 11.7814
46.291 11.7006
46.3395 11.668
46.3881 11.6313
46.4365 11.5785
46.4852 11.5823
46.5337 11.5031
46.5823 11.4798
46.631 11.4398
46.6795 11.3794
46.7282 11.3496
46.7767 11.3061
46.8254 11.238
46.8739 11.1934
46.9226 11.1763
46.9712 11.1465
47.0199 11.1033
47.0685 11.0279
47.1173 11.0046
47.1658 10.9633
47.2146 10.9231
47.2632 10.8982
47.312 10.8892
47.3606 10.7641
47.4095 10.7256
47.4581 10.7507
47.5069 10.7038
47.5556 10.6658
47.6044 10.6454
47.6531 10.5341
47.702 10.5398
47.7507 10.5077
47.7996 10.4533
47.8483 10.3916
47.8972 10.3674
47.9461 10.3589
47.9948 10.2777
48.0438 10.3
48.0925 10.2926
48.1415 10.2286
48.1902 10.1335
48.2392 10.1368
48.288 10.0771
48.337 10.007
48.3858 10.0173
48.4348 10.0081
48.4837 9.93361
48.5327 9.90562
48.5815 9.86606
48.6306 9.8743
48.6795 9.81325
48.7285 9.79973
48.7774 9.72209
48.8265 9.73132
48.8754 9.63668
48.9245 9.60679
48.9734 9.57816
49.0226 9.52742
49.0715 9.50386
49.1206 9.45899
49.1696 9.44139
49.2188 9.4177
49.2679 9.34498
49.3169 9.31843
49.3661 9.27971
49.4151 9.26206
49.4643 9.20436
49.5134 9.19328
49.5626 9.14162
49.6117 9.10258
49.6609 9.11716
49.71 9.02557
49.7592 9.02695
49.8083 8.9507
49.8576 8.91247
49.9067 8.87282
49.956 8.85182
50.0052 8.83709
50.0545 8.80705
50.1036 8.76181
50.153 8.77363
50.2022 8.70083
50.2515 8.65295
50.3007 8.64371
50.3501 8.60667
50.3993 8.57193
50.4487 8.52859
50.498 8.5286
50.5474 8.48532
50.5966 8.41238
50.6461 8.43222
50.6955 8.37404
50.7448 8.34213
50.7943 8.31675
50.8436 8.28739
50.8931 8.22467
50.9424 8.21774
50.9919 8.18622
51.0413 8.15712
51.0908 8.13642
51.1402 8.09425
51.1897 8.06336
51.2391 8.04088
51.2887 7.98848
51.3381 7.94998
51.3877 7.95416
51.4371 7.86774
51.4867 7.85127
51.5362 7.80827
51.5858 7.7906
51.6353 7.75697
51.6849 7.72684
51.7344 7.67987
51.7841 7.68579
51.8336 7.61107
51.8833 7.61492
51.9328 7.56003
51.9826 7.54661
52.0323 7.52083
52.0818 7.46664
52.1316 7.44356
52.1812 7.42037
52.231 7.40199
52.2806 7.33476
52.3304 7.32253
52.38 7.23842
52.4298 7.25596
52.4794 7.24792
52.5293 7.2103
52.5789 7.17386
52.6288 7.15
52.6785 7.07621
52.7284 7.07987
52.7781 7.05916
52.828 7.01632
52.8777 6.97823
52.9276 6.93191
52.9774 6.98505
53.0273 6.91434
53.0771 6.8795
53.1271 6.85874
53.1769 6.8519
53.2269 6.77851
53.2767 6.71597
53.3267 6.78622
53.3765 6.69536
53.4266 6.69236
53.4766 6.64478
53.5265 6.63929
53.5765 6.58549
53.6264 6.57236
53.6765 6.52107
53.7264 6.49256
53.7765 6.44768
53.8265 6.43169
53.8766 6.38932
53.9266 6.37513
53.9767 6.35738
54.0267 6.29772
54.0769 6.28485
54.1269 6.27686
54.1771 6.24285
54.2271 6.26131
54.2773 6.16934
54.3274 6.17524
54.3776 6.08157
54.4277 6.03287
54.478 6.01326
54.528 5.99854
54.5783 5.94279
54.6285 5.89896
54.6788 5.90205
54.7289 5.84188
54.7792 5.81607
54.8296 5.75714
54.8798 5.6996
54.9301 5.69196
54.9803 5.61612
55.0307 5.64576
55.0809 5.57408
55.1314 5.53186
55.1816 5.42827
55.232 5.44432
55.2823 5.40068
55.3328 5.28823
55.383 5.26531
55.4335 5.20312
55.4838 5.13729
55.5344 5.09351
55.5847 5.10724
55.6352 5.07961
55.6856 4.99069
55.7361 4.99989