File: XRD/Ni3Fe_FD0215.xy
TT I
1.27165 7.763
1.31627 7.23096
1.36089 7.30643
1.40551 6.35251
1.45013 6.71508
1.49476 7.29461
1.53938 6.30898
1.584 5.99843
1.62863 6.01644
1.67325 6.04724
1.71787 5.62215
1.7625 5.64935
1.80712 5.40265
1.85174 4.74877
1.89636 4.86285
1.94099 5.90448
1.98562 4.96917
2.03025 5.1379
2.07487 4.64765
2.11949 4.92904
2.16411 4.8391
2.20874 4.67636
2.25338 4.4138
2.298 4.21182
2.34263 4.95196
2.38725 4.44618
2.43188 4.45834
2.4765 4.94834
2.52115 5.10902
2.56577 5.34284
2.6104 5.62373
2.65503 5.73996
2.69965 6.45951
2.7443 6.50212
2.78893 6.86477
2.83356 7.01718
2.87818 8.22896
2.92281 8.80948
2.96744 9.18579
3.01209 10.5438
3.05672 11.1632
3.10135 12.5664
3.14599 13.0264
3.19062 14.2431
3.23527 15.6737
3.2799 15.7854
3.32454 16.8421
3.36917 18.0041
3.4138 19.3023
3.45844 19.8314
3.50309 20.9197
3.54773 21.2548
3.59237 22.2126
3.637 23.0059
3.68164 24.0018
3.7263 25.3398
3.77094 25.8814
3.81558 27.1485
3.86022 27.8499
3.90486 29.4681
3.9495 30.0858
3.99416 31.1613
4.0388 32.5936
4.08344 33.9331
4.12809 34.6457
4.17273 36.681
4.21738 38.2993
4.26204 39.3229
4.30669 40.8387
4.35133 42.813
4.39598 44.7437
4.44063 47.0275
4.4853 48.852
4.52995 52.1669
4.5746 54.1206
4.61925 56.2844
4.6639 58.1792
4.70855 61.2543
4.75322 64.4666
4.79788 68.0286
4.84253 71.939
4.88719 76.9398
4.93184 81.587
4.97652 89.5134
5.02118 97.1974
5.06583 107.716
5.11049 125.506
5.15515 170.499
5.19981 898.151
5.24449 3968.63
5.28916 10582.1
5.33382 4294.5
5.37848 278.102
5.42315 154.884
5.46783 129.681
5.5125 118.804
5.55716 112.892
5.60183 106.789
5.6465 104.98
5.69117 103.423
5.73586 101.524
5.78053 102.036
5.8252 102.192
5.86988 105.453
5.91455 111.47
5.95924 134.769
6.00392 449.296
6.0486 1428.24
6.09328 3589.18
6.13795 3785.05
6.18263 383.355
6.22733 110.993
6.27201 89.563
6.3167 81.7082
6.36138 76.4494
6.40606 73.4583
6.45075 71.3239
6.49545 68.7597
6.54014 67.1416
6.58483 65.753
6.62952 64.4501
6.67421 62.9442
6.71892 61.8258
6.76361 60.7139
6.8083 59.923
6.853 59.4215
6.89769 59.1533
6.94239 58.6576
6.98711 57.6374
7.03181 57.3449
7.07651 56.9614
7.12121 56.7174
7.16591 56.547
7.21063 55.962
7.25533 55.7639
7.30004 55.758
7.34475 56.1006
7.38945 56.3111
7.43416 55.8957
7.47889 55.5714
7.5236 56.5948
7.56831 57.7986
7.61303 57.3589
7.65774 57.3744
7.70247 58.2819
7.74719 58.0974
7.79191 59.0829
7.83663 59.4605
7.88135 60.456
7.92607 61.4302
7.97081 62.8654
8.01553 64.0036
8.06026 65.1834
8.10498 66.5862
8.14971 69.3614
8.19446 70.5909
8.23919 73.4045
8.28392 76.7588
8.32865 79.5027
8.37339 84.0429
8.41812 90.8188
8.46288 110.856
8.50761 293.048
8.55235 593.728
8.59709 1055.44
8.64183 1962.51
8.68658 1252.12
8.73134 230.375
8.77609 111.652
8.82083 101.086
8.86558 96.7381
8.91033 93.2159
8.9551 91.0959
8.99985 89.7825
9.04461 89.2038
9.08936 88.3875
9.13412 87.1212
9.17888 86.7999
9.22365 87.6397
9.26841 87.4714
9.31318 88.4054
9.35794 88.5687
9.4027 88.6152
9.44749 89.0335
9.49226 89.8943
9.53703 91.1671
9.5818 93.3427
9.62657 94.4734
9.67134 95.9616
9.71614 97.8621
9.76091 100.393
9.80569 104.123
9.85047 107.009
9.89525 112.892
9.94005 136.105
9.98484 306.058
10.0296 525.532
10.0744 798.69
10.1192 1436.85
10.164 1726.69
10.2088 567.253
10.2536 151.101
10.2984 118.05
10.3432 113.125
10.388 114.832
10.4328 160.405
10.4776 213.885
10.5224 280.043
10.5672 436.726
10.612 530.982
10.6568 260.933
10.7017 108.601
10.7465 93.0289
10.7913 88.5058
10.8361 85.5648
10.8809 83.106
10.9257 81.1341
10.9706 79.8529
11.0154 77.886
11.0602 76.5785
11.105 75.1981
11.1499 73.5651
11.1947 72.5255
11.2395 71.2532
11.2844 71.1983
11.3292 70.3217
11.374 69.2934
11.4189 68.8904
11.4637 68.0512
11.5086 67.3353
11.5534 66.8255
11.5983 66.3778
11.6431 66.455
11.688 65.8335
11.7328 65.7737
11.7777 65.4897
11.8225 65.7351
11.8674 65.6137
11.9122 66.0956
11.9571 66.7895
12.002 68.7532
12.0468 80.1646
12.0917 95.2933
12.1366 108.907
12.1814 139.046
12.2263 189.595
12.2712 187.252
12.3161 105.21
12.3609 70.8003
12.4058 67.5155
12.4507 67.5833
12.4956 67.2777
12.5405 67.73
12.5853 68.0204
12.6302 68.4181
12.6751 68.9706
12.72 69.8953
12.7649 70.9802
12.8098 71.9569
12.8547 73.4964
12.8996 74.7636
12.9445 76.4038
12.9894 78.8544
13.0343 80.9314
13.0792 86.2784
13.1242 110.583
13.1691 149.31
13.214 175.51
13.2589 227.141
13.3038 316.255
13.3487 416.253
13.3937 314.011
13.4386 151.917
13.4835 134.948
13.5285 155.038
13.5734 174.15
13.6183 223.808
13.6633 307.205
13.7082 355.737
13.7531 230.768
13.7981 113.216
13.843 87.6449
13.888 84.3858
13.9329 81.5197
13.9779 80.3354
14.0228 78.7484
14.0678 77.3137
14.1127 76.5896
14.1577 75.846
14.2027 75.2109
14.2476 74.2189
14.2926 74.0029
14.3376 73.501
14.3825 72.9817
14.4275 72.3828
14.4725 72.6924
14.5175 73.0941
14.5624 72.7907
14.6074 73.296
14.6524 73.8632
14.6974 74.8508
14.7424 81.0895
14.7874 95.94
14.8324 107.575
14.8774 119.213
14.9224 143.871
14.9674 185.091
15.0124 222.573
15.0574 174.628
15.1024 104.2
15.1474 77.4525
15.1924 73.9599
15.2374 72.6218
15.2824 71.6537
15.3274 70.7218
15.3725 70.5774
15.4175 70.1043
15.4625 69.5591
15.5076 69.5536
15.5526 69.6433
15.5976 70.2249
15.6426 74.7475
15.6877 86.6291
15.7327 95.7812
15.7778 103.579
15.8228 121.699
15.8679 151.628
15.9129 189.204
15.958 178.989
16.003 115.371
16.0481 74.0906
16.0931 66.0432
16.1382 64.1369
16.1833 63.33
16.2283 61.9432
16.2734 61.2134
16.3185 60.3856
16.3636 59.834
16.4086 59.096
16.4537 58.6944
16.4988 58.1318
16.5439 58.2847
16.589 57.7085
16.6341 57.5263
16.6792 57.1846
16.7243 57.4511
16.7694 57.2842
16.8145 57.328
16.8596 57.5894
16.9047 57.6186
16.9498 58.0225
16.9949 57.966
17.04 59.1919
17.0851 62.046
17.1302 64.1366
17.1754 65.8228
17.2205 68.9226
17.2656 73.8611
17.3108 82.0842
17.3559 85.4763
17.401 77.927
17.4462 67.1512
17.4913 62.6649
17.5365 62.215
17.5815 62.4478
17.6268 62.7004
17.6718 63.511
17.7171 63.8597
17.7622 64.8545
17.8074 66.3737
17.8525 72.3547
17.8977 78.6372
17.9428 82.9065
17.9881 88.0993
18.0331 98.6132
18.0784 114.396
18.1237 138.255
18.1688 145.946
18.214 120.621
18.2591 94.2806
18.3044 90.1888
18.3495 96.402
18.3948 106.094
18.4399 103.132
18.4852 84.8351
18.5303 70.5738
18.5756 65.6827
18.6207 64.6202
18.666 63.5961
18.7112 62.6731
18.7565 62.2054
18.8016 61.7322
18.8469 61.0288
18.892 60.9382
18.9374 60.2826
18.9825 59.7676
19.0278 59.6413
19.073 60.4629
19.1183 61.5607
19.1635 62.1983
19.2088 63.1289
19.254 64.7515
19.2993 67.2815
19.3447 71.0841
19.3898 76.227
19.4352 76.4179
19.4804 69.1479
19.5257 60.8092
19.5709 57.2506
19.6163 56.7024
19.6615 56.4588
19.7068 56.1549
19.752 56.1976
19.7974 57.3551
19.8426 58.4953
19.888 59.0371
19.9332 59.8419
19.9786 61.1716
20.0238 64.0403
20.0692 68.2284
20.1144 72.5587
20.1598 73.1591
20.205 68.0519
20.2504 64.3075
20.2957 64.2961
20.3411 66.6743
20.3863 67.3863
20.4318 62.7496
20.477 56.9377
20.5224 53.9241
20.5677 53.1672
20.6131 52.6621
20.6586 52.2961
20.7038 52.0159
20.7493 51.4579
20.7945 51.4619
20.84 51.2118
20.8853 51.3501
20.9307 51.372
20.976 51.6074
21.0215 51.4403
21.0668 51.7487
21.1122 51.8454
21.1575 52.2076
21.203 52.5648
21.2483 53.357
21.2938 54.1347
21.3391 53.1823
21.3846 51.7815
21.4299 51.0639
21.4754 51.0225
21.5207 51.2178
21.5662 51.9766
21.6116 52.9417
21.6571 53.641
21.7024 54.4147
21.7479 55.5113
21.7933 57.4915
21.8388 60.0541
21.8843 63.3149
21.9297 66.5153
21.9752 67.1537
22.0206 63.5325
22.0661 59.0127
22.1115 57.7541
22.157 58.3056
22.2024 57.5772
22.248 54.692
22.2933 52.7803
22.3389 51.5918
22.3843 51.4361
22.4299 50.9399
22.4753 51.0496
22.5208 50.8855
22.5662 51.2331
22.6118 51.5577
22.6572 52.0366
22.7028 52.6312
22.7483 52.9802
22.7939 53.2842
22.8393 54.1883
22.8849 55.5832
22.9303 57.1632
22.9759 59.1811
23.0214 60.0477
23.067 58.2292
23.1126 54.7263
23.1581 52.1277
23.2037 51.4682
23.2492 52.0224
23.2948 52.1613
23.3403 52.522
23.3859 52.8162
23.4314 53.2998
23.477 54.2163
23.5225 55.5753
23.5682 57.4103
23.6137 59.5673
23.6593 59.0904
23.7048 55.491
23.7505 51.6309
23.796 49.4251
23.8417 48.5321
23.8872 47.8091
23.9329 47.454
23.9784 47.3213
24.0241 46.8107
24.0697 46.7029
24.1154 46.3285
24.1609 46.0415
24.2066 45.939
24.2522 46.0111
24.2979 45.6558
24.3434 45.5126
24.3892 45.2134
24.4349 45.2095
24.4805 45.0227
24.5262 45.3005
24.5718 44.9043
24.6175 45.0226
24.6631 45.0081
24.7089 44.6833
24.7545 44.5953
24.8002 44.4827
24.8458 44.3899
24.8916 44.4518
24.9372 44.4252
24.983 44.7573
25.0286 45.1874
25.0744 45.4265
25.12 45.5639
25.1658 46.3041
25.2114 46.6638
25.2572 46.7679
25.3029 46.5198
25.3487 46.8247
25.3943 46.7811
25.4402 46.0874
25.4858 44.8951
25.5316 43.737
25.5773 43.0254
25.6231 43.0746
25.669 42.5038
25.7147 42.7265
25.7605 42.7218
25.8062 42.7331
25.8521 42.705
25.8977 42.6162
25.9436 42.7567
25.9893 42.8169
26.0352 43.2923
26.0809 43.2385
26.1268 43.7158
26.1725 43.5723
26.2184 43.083
26.2641 42.4672
26.31 42.2981
26.3557 42.2348
26.4017 42.2127
26.4474 42.4953
26.4933 42.5524
26.5391 42.9724
26.585 43.1603
26.6308 43.7712
26.6767 43.984
26.7225 44.0685
26.7684 43.5301
26.8142 42.8854
26.8601 42.4307
26.9059 41.9575
26.9519 41.5029
26.9979 41.3044
27.0437 40.7358
27.0896 40.77
27.1354 40.7564
27.1814 40.5695
27.2272 40.503
27.2732 40.5698
27.3191 40.286
27.3651 40.3584
27.4109 40.2489
27.4569 40.3366
27.5027 40.401
27.5488 40.4482
27.5946 40.4311
27.6407 40.142
27.6865 40.1488
27.7326 39.9218
27.7784 39.8483
27.8245 39.8409
27.8703 39.8225
27.9164 40.1026
27.9623 39.9683
28.0084 40.3389
28.0543 40.6614
28.1003 40.7029
28.1462 40.6078
28.1923 40.3733
28.2384 39.7555
28.2843 39.4811
28.3304 39.0788
28.3764 38.6145
28.4225 38.3035
28.4684 37.9586
28.5145 37.602
28.5605 37.6285
28.6066 37.4962
28.6526 37.2292
28.6987 37.3643
28.7447 37.228
28.7908 37.0037
28.8368 37.0795
28.8829 37.0159
28.9289 37.07
28.9751 36.9515
29.0211 36.7686
29.0673 36.5008
29.1133 36.2739
29.1595 36.1031
29.2055 35.9366
29.2517 35.9551
29.2977 35.9942
29.3439 35.8577
29.3899 35.8634
29.4361 35.7395
29.4824 35.6385
29.5284 35.5462
29.5746 35.1252
29.6207 34.8334
29.6669 34.7892
29.713 34.5973
29.7593 34.4673
29.8053 34.6257
29.8516 34.389
29.8977 34.5089
29.9439 34.2003
29.99 34.1297
30.0363 34.1079
30.0824 34.1277
30.1287 33.9104
30.1748 34.0215
30.2211 33.9407
30.2673 33.7787
30.3136 34.0415
30.3597 33.8777
30.406 33.8465
30.4522 33.6869
30.4985 33.6331
30.5447 33.655
30.591 33.7175
30.6372 33.6692
30.6835 33.6711
30.7297 33.6318
30.7761 33.7001
30.8224 33.5618
30.8686 33.397
30.915 33.1147
30.9612 33.0882
31.0076 32.9084
31.0538 32.7435
31.1002 32.6178
31.1464 32.4748
31.1928 32.5423
31.2391 32.4691
31.2855 32.3904
31.3317 32.2453
31.3781 32.4706
31.4244 32.376
31.4708 32.195
31.5171 32.1592
31.5636 32.2445
31.6098 32.0117
31.6563 31.829
31.7026 31.7475
31.7491 31.5526
31.7953 31.6152
31.8418 31.5783
31.8881 31.5081
31.9346 31.4618
31.9809 31.4374
32.0275 31.2648
32.074 31.3544
32.1203 30.9817
32.1668 31.0373
32.2132 30.8316
32.2597 30.809
32.306 30.6375
32.3526 30.4675
32.399 30.3829
32.4455 30.2282
32.4919 30.0712
32.5385 30.0826
32.5848 29.847
32.6314 29.9162
32.6778 29.8232
32.7244 29.7027
32.7708 29.5327
32.8174 29.5391
32.8638 29.376
32.9104 29.4418
32.9569 29.4666
33.0035 29.1741
33.0499 29.2652
33.0966 29.1957
33.143 29.0904
33.1897 29.1116
33.2361 28.9099
33.2828 28.9393
33.3293 28.7786
33.3759 28.7394
33.4226 28.7201
33.4691 28.424
33.5158 28.2709
33.5623 28.2208
33.609 28.0783
33.6555 27.9442
33.7022 27.8842
33.7487 27.7845
33.7954 27.8024
33.842 27.6708
33.8887 27.5018
33.9353 27.5413
33.982 27.3706
34.0286 27.3528
34.0753 27.1957
34.1219 27.1097
34.1687 27.2156
34.2152 26.9725
34.262 26.8362
34.3086 26.8669
34.3554 26.7485
34.402 26.6123
34.4488 26.4987
34.4954 26.4835
34.5422 26.4376
34.5889 26.2708
34.6357 26.1831
34.6825 26.1115
34.7292 26.0769
34.776 26.0394
34.8227 25.8819
34.8695 25.8657
34.9162 25.785
34.9631 25.674
35.0098 25.7455
35.0566 25.5644
35.1033 25.5406
35.1502 25.4738
35.1969 25.3983
35.2438 25.3511
35.2906 25.2248
35.3375 25.1875
35.3842 25.0665
35.4311 25.1571
35.4779 25.0801
35.5248 24.9578
35.5716 24.8657
35.6185 24.8254
35.6653 24.7846
35.7123 24.6358
35.759 24.5924
35.806 24.4472
35.8528 24.3401
35.8998 24.3332
35.9468 24.2102
35.9936 24.1799
36.0406 24.1556
36.0874 24.0783
36.1345 23.9215
36.1813 23.8718
36.2283 23.8271
36.2752 23.7515
36.3222 23.7331
36.3691 23.5878
36.4161 23.5088
36.463 23.4852
36.5101 23.57
36.557 23.4278
36.6041 23.2542
36.651 23.2187
36.6981 23.1762
36.745 23.1343
36.7921 22.9583
36.839 22.9458
36.8861 22.8892
36.9331 22.8328
36.9802 22.7295
37.0272 22.5775
37.0743 22.5017
37.1213 22.5258
37.1684 22.4505
37.2154 22.3403
37.2626 22.2286
37.3098 22.1843
37.3568 22.0556
37.404 22.0712
37.451 22.0066
37.4982 22.0268
37.5452 21.831
37.5924 21.7767
37.6395 21.8533
37.6867 21.712
37.7337 21.5491
37.781 21.5167
37.8281 21.396
37.8753 21.3749
37.9224 21.2322
37.9697 21.1992
38.0168 21.1678
38.064 21.1322
38.1111 21.0138
38.1584 20.9653
38.2056 20.9203
38.2529 20.8433
38.3 20.7553
38.3473 20.7403
38.3945 20.5602
38.4418 20.5499
38.489 20.5452
38.5363 20.3914
38.5837 20.3509
38.6309 20.3293
38.6782 20.3104
38.7254 20.1699
38.7728 20.0876
38.82 20.0691
38.8674 20.0457
38.9146 19.9838
38.9621 19.8022
39.0093 19.822
39.0567 19.7595
39.104 19.6863
39.1514 19.6111
39.1987 19.5883
39.2461 19.5272
39.2934 19.4777
39.3409 19.3787
39.3882 19.2651
39.4356 19.2384
39.483 19.1695
39.5304 19.127
39.5778 19.0362
39.6253 18.945
39.6726 18.9568
39.7201 18.9656
39.7675 18.8562
39.815 18.7325
39.8624 18.6798
39.9099 18.668
39.9575 18.5775
40.0049 18.5731
40.0525 18.4718
40.0999 18.4571
40.1474 18.3353
40.1949 18.281
40.2425 18.2453
40.2899 18.23
40.3375 18.1159
40.385 18.0548
40.4326 17.9746
40.48 17.8858
40.5277 17.9546
40.5752 17.8737
40.6228 17.7851
40.6703 17.7136
40.718 17.6702
40.7655 17.6239
40.8132 17.5366
40.8607 17.4967
40.9084 17.4223
40.9559 17.4361
41.0036 17.3677
41.0512 17.2634
41.0989 17.294
41.1465 17.1532
41.1942 17.0586
41.242 17.0011
41.2896 16.9506
41.3373 16.9036
41.3849 16.9103
41.4327 16.8842
41.4803 16.7177
41.5281 16.6804
41.5758 16.6184
41.6236 16.6275
41.6712 16.5231
41.7191 16.4948
41.7667 16.4724
41.8146 16.3831
41.8622 16.3443
41.9101 16.2826
41.9578 16.155
42.0057 16.1469
42.0534 16.0844
42.1013 16.0517
42.149 15.9825
42.1969 15.8932
42.2446 15.8512
42.2925 15.7912
42.3403 15.7697
42.3882 15.7489
42.436 15.6232
42.4839 15.6224
42.5319 15.5642
42.5797 15.5099
42.6277 15.4582
42.6755 15.4309
42.7235 15.3801
42.7713 15.3083
42.8193 15.2378
42.8671 15.1883
42.9152 15.1267
42.963 15.1049
43.0111 15.0145
43.0589 14.9667
43.107 14.8704
43.1549 14.9163
43.2029 14.8089
43.2508 14.8336
43.2989 14.7135
43.3468 14.688
43.3949 14.6326
43.4429 14.6022
43.491 14.5362
43.5389 14.5006
43.5871 14.4153
43.635 14.3612
43.6832 14.3317
43.7312 14.2507
43.7793 14.224
43.8273 14.2189
43.8755 14.0967
43.9237 14.0534
43.9717 14.0886
44.0199 14.0239
44.068 13.9848
44.1162 13.8661
44.1642 13.8696
44.2125 13.806
44.2606 13.8052
44.3088 13.6959
44.3569 13.6862
44.4052 13.5912
44.4533 13.5986
44.5016 13.5018
44.5497 13.4976
44.598 13.4594
44.6461 13.3779
44.6945 13.317
44.7426 13.293
44.791 13.2237
44.8391 13.2296
44.8875 13.1983
44.9357 13.0653
44.984 13.0571
45.0322 12.9893
45.0806 12.9482
45.1288 12.89
45.1773 12.8563
45.2257 12.7941
45.2739 12.7634
45.3224 12.7036
45.3706 12.6996
45.4191 12.5948
45.4673 12.5679
45.5158 12.5461
45.5641 12.5245
45.6126 12.4348
45.6609 12.4178
45.7094 12.3536
45.7577 12.2785
45.8063 12.2696
45.8546 12.2387
45.9031 12.1366
45.9515 12.1349
46.0001 12.0897
46.0484 12.0569
46.097 12.0073
46.1454 11.9282
46.194 11.9638
46.2424 11.8654
46.291 11.8441
46.3395 11.7652
46.3881 11.7603
46.4365 11.7342
46.4852 11.6912
46.5337 11.6103
46.5823 11.61
46.631 11.5596
46.6795 11.4908
46.7282 11.4591
46.7767 11.3879
46.8254 11.3884
46.8739 11.3079
46.9226 11.2747
46.9712 11.2309
47.0199 11.1921
47.0685 11.168
47.1173 11.143
47.1658 11.0536
47.2146 11.031
47.2632 10.9821
47.312 10.9476
47.3606 10.8942
47.4095 10.8508
47.4581 10.8571
47.5069 10.7802
47.5556 10.7215
47.6044 10.705
47.6531 10.6819
47.702 10.6458
47.7507 10.6307
47.7996 10.5573
47.8483 10.5199
47.8972 10.4799
47.9461 10.4301
47.9948 10.3852
48.0438 10.3626
48.0925 10.3127
48.1415 10.3042
48.1902 10.2713
48.2392 10.2273
48.288 10.2124
48.337 10.1122
48.3858 10.1118
48.4348 10.0462
48.4837 10.0358
48.5327 10.0493
48.5815 9.97389
48.6306 9.9168
48.6795 9.89281
48.7285 9.85895
48.7774 9.75467
48.8265 9.77546
48.8754 9.74019
48.9245 9.74738
48.9734 9.65063
49.0226 9.6493
49.0715 9.59899
49.1206 9.55799
49.1696 9.52934
49.2188 9.49447
49.2679 9.44243
49.3169 9.4213
49.3661 9.36797
49.4151 9.33372
49.4643 9.28676
49.5134 9.26406
49.5626 9.22976
49.6117 9.20205
49.6609 9.17728
49.71 9.11765
49.7592 9.09732
49.8083 9.03784
49.8576 8.99544
49.9067 8.97913
49.956 8.96705
50.0052 8.97319
50.0545 8.86136
50.1036 8.85316
50.153 8.8135
50.2022 8.77711
50.2515 8.75145
50.3007 8.70952
50.3501 8.6839
50.3993 8.65482
50.4487 8.63407
50.498 8.60694
50.5474 8.55752
50.5966 8.48781
50.6461 8.47517
50.6955 8.46785
50.7448 8.44444
50.7943 8.39398
50.8436 8.34724
50.8931 8.32973
50.9424 8.30652
50.9919 8.26184
51.0413 8.23275
51.0908 8.19333
51.1402 8.13121
51.1897 8.10329
51.2391 8.10602
51.2887 8.0818
51.3381 8.00143
51.3877 7.98999
51.4371 7.9604
51.4867 7.90797
51.5362 7.87601
51.5858 7.88896
51.6353 7.80829
51.6849 7.78604
51.7344 7.78486
51.7841 7.75941
51.8336 7.7185
51.8833 7.66141
51.9328 7.59809
51.9826 7.60069
52.0323 7.57389
52.0818 7.51201
52.1316 7.50122
52.1812 7.51706
52.231 7.43835
52.2806 7.39729
52.3304 7.3996
52.38 7.3327
52.4298 7.29521
52.4794 7.29994
52.5293 7.27406
52.5789 7.23013
52.6288 7.21734
52.6785 7.1809
52.7284 7.14915
52.7781 7.08432
52.828 7.12559
52.8777 7.04471
52.9276 7.00932
52.9774 7.02066
53.0273 7.00426
53.0771 6.93555
53.1271 6.94006
53.1769 6.84766
53.2269 6.86652
53.2767 6.81044
53.3267 6.77756
53.3765 6.81718
53.4266 6.73678
53.4766 6.70636
53.5265 6.68293
53.5765 6.64349
53.6264 6.60429
53.6765 6.63937
53.7264 6.53849
53.7765 6.55992
53.8265 6.4748
53.8766 6.4416
53.9266 6.4261
53.9767 6.42164
54.0267 6.38744
54.0769 6.32748
54.1269 6.29261
54.1771 6.26803
54.2271 6.27047
54.2773 6.20092
54.3274 6.21619
54.3776 6.11887
54.4277 6.1215
54.478 6.07178
54.528 6.04813
54.5783 5.9859
54.6285 5.936
54.6788 5.86904
54.7289 5.86472
54.7792 5.81396
54.8296 5.74453
54.8798 5.71117
54.9301 5.6732
54.9803 5.67822
55.0307 5.6353
55.0809 5.57834
55.1314 5.57817
55.1816 5.46056
55.232 5.41769
55.2823 5.34604
55.3328 5.29121
55.383 5.26847
55.4335 5.22568
55.4838 5.13864
55.5344 5.13865
55.5847 5.03088
55.6352 5.08255
55.6856 4.9891
55.7361 5.0558