File: XRD/Ni3Fe_FD0490.xy
TT I
1.27165 8.03795
1.31627 7.49181
1.36089 6.70739
1.40551 5.72573
1.45013 6.16586
1.49476 5.86232
1.53938 5.85758
1.584 5.80946
1.62863 5.62992
1.67325 5.70254
1.71787 5.16792
1.7625 5.81063
1.80712 5.07715
1.85174 5.29265
1.89636 4.58527
1.94099 5.75123
1.98562 4.81494
2.03025 4.30511
2.07487 4.63648
2.11949 5.11309
2.16411 5.12801
2.20874 11.3207
2.25338 18.0594
2.298 5.96664
2.34263 5.4831
2.38725 5.96203
2.43188 5.83781
2.4765 6.3371
2.52115 6.88713
2.56577 7.55094
2.6104 7.69066
2.65503 7.38912
2.69965 7.4779
2.7443 8.5249
2.78893 7.62577
2.83356 8.24334
2.87818 9.03053
2.92281 8.58269
2.96744 9.84869
3.01209 10.601
3.05672 10.9611
3.10135 12.1476
3.14599 12.846
3.19062 14.0413
3.23527 15.0683
3.2799 15.7526
3.32454 16.6598
3.36917 17.8072
3.4138 18.6861
3.45844 20.2926
3.50309 20.9569
3.54773 21.8925
3.59237 24.1694
3.637 73.6301
3.68164 48.8695
3.7263 25.8362
3.77094 26.22
3.81558 27.1594
3.86022 27.9553
3.90486 29.0276
3.9495 30.1986
3.99416 31.3045
4.0388 32.2096
4.08344 34.1814
4.12809 34.6557
4.17273 37.4861
4.21738 42.6082
4.26204 189.358
4.30669 163.582
4.35133 47.4744
4.39598 44.6835
4.44063 52.4605
4.4853 60.5484
4.52995 51.7634
4.5746 52.3058
4.61925 54.0723
4.6639 56.2175
4.70855 58.9726
4.75322 62.491
4.79788 65.4607
4.84253 68.4334
4.88719 72.8804
4.93184 76.726
4.97652 82.4827
5.02118 89.1368
5.06583 97.3169
5.11049 110.015
5.15515 169.833
5.19981 443.226
5.24449 3256.82
5.28916 11780.0
5.33382 3177.6
5.37848 206.313
5.42315 134.548
5.46783 118.184
5.5125 108.871
5.55716 104.418
5.60183 100.64
5.6465 98.4526
5.69117 96.3689
5.73586 94.203
5.78053 94.2943
5.8252 94.0555
5.86988 94.8962
5.91455 97.7525
5.95924 107.681
6.00392 247.012
6.0486 1107.67
6.09328 4199.04
6.13795 3500.73
6.18263 284.698
6.22733 97.2762
6.27201 84.3347
6.3167 95.7571
6.36138 79.2903
6.40606 70.6191
6.45075 68.5609
6.49545 66.5583
6.54014 64.7989
6.58483 63.5906
6.62952 63.7182
6.67421 87.0806
6.71892 120.376
6.76361 66.6698
6.8083 59.0664
6.853 58.2828
6.89769 57.4814
6.94239 57.0093
6.98711 57.0965
7.03181 56.335
7.07651 55.8326
7.12121 55.4434
7.16591 55.9002
7.21063 55.9185
7.25533 67.3076
7.30004 144.608
7.34475 82.1392
7.38945 56.76
7.43416 55.2296
7.47889 54.7277
7.5236 55.4199
7.56831 55.9863
7.61303 57.4792
7.65774 57.5937
7.70247 56.8534
7.74719 56.8543
7.79191 57.4014
7.83663 57.844
7.88135 58.5845
7.92607 59.5124
7.97081 60.7549
8.01553 61.4196
8.06026 63.551
8.10498 65.043
8.14971 72.275
8.19446 71.7722
8.23919 70.6697
8.28392 72.6638
8.32865 75.2707
8.37339 79.7585
8.41812 86.494
8.46288 110.887
8.50761 185.216
8.55235 437.352
8.59709 1213.22
8.64183 2098.66
8.68658 1062.95
8.73134 186.665
8.77609 102.448
8.82083 94.6121
8.86558 91.8644
8.91033 90.9578
8.9551 91.2395
8.99985 86.62
9.04461 85.0394
9.08936 84.5242
9.13412 83.2511
9.17888 83.4052
9.22365 83.6635
9.26841 83.3847
9.31318 83.9866
9.35794 84.7073
9.4027 84.6194
9.44749 85.5928
9.49226 85.7605
9.53703 87.5988
9.5818 88.9663
9.62657 92.7362
9.67134 97.7007
9.71614 94.8148
9.76091 95.8182
9.80569 98.4505
9.85047 101.903
9.89525 120.409
9.94005 133.794
9.98484 197.627
10.0296 383.324
10.0744 864.101
10.1192 1657.39
10.164 1645.83
10.2088 460.247
10.2536 136.417
10.2984 114.572
10.3432 114.256
10.388 106.589
10.4328 124.949
10.4776 170.865
10.5224 295.75
10.5672 495.211
10.612 500.317
10.6568 220.564
10.7017 100.027
10.7465 88.0196
10.7913 84.5727
10.8361 82.3297
10.8809 79.7988
10.9257 79.2098
10.9706 79.3466
11.0154 75.6673
11.0602 73.8101
11.105 72.4638
11.1499 75.6174
11.1947 80.3005
11.2395 73.7442
11.2844 70.6347
11.3292 68.0566
11.374 67.0388
11.4189 66.4989
11.4637 65.9898
11.5086 65.8286
11.5534 67.9707
11.5983 65.8968
11.6431 64.5215
11.688 63.6125
11.7328 63.7381
11.7777 63.6966
11.8225 63.5394
11.8674 63.2611
11.9122 63.5995
11.9571 64.1157
12.002 64.7378
12.0468 70.0593
12.0917 82.2494
12.1366 107.404
12.1814 154.78
12.2263 198.796
12.2712 170.847
12.3161 99.0678
12.3609 70.5084
12.4058 65.4647
12.4507 65.1094
12.4956 65.4001
12.5405 65.4737
12.5853 66.5089
12.6302 72.161
12.6751 76.0709
12.72 69.6759
12.7649 68.7078
12.8098 69.5467
12.8547 70.7674
12.8996 72.0742
12.9445 73.4291
12.9894 75.3711
13.0343 77.0676
13.0792 80.7682
13.1242 92.5557
13.1691 117.815
13.214 157.422
13.2589 246.373
13.3038 359.209
13.3487 415.485
13.3937 278.345
13.4386 131.914
13.4835 110.956
13.5285 127.008
13.5734 167.693
13.6183 251.379
13.6633 329.107
13.7082 337.162
13.7531 202.853
13.7981 102.869
13.843 83.6208
13.888 80.8871
13.9329 78.2659
13.9779 77.14
14.0228 75.6317
14.0678 74.0312
14.1127 73.3462
14.1577 73.5043
14.2027 72.5431
14.2476 71.524
14.2926 71.2408
14.3376 72.0734
14.3825 70.9744
14.4275 69.8894
14.4725 69.8278
14.5175 69.8033
14.5624 69.9611
14.6074 71.969
14.6524 72.3477
14.6974 71.6127
14.7424 74.0172
14.7874 81.4543
14.8324 92.879
14.8774 115.499
14.9224 156.247
14.9674 198.449
15.0124 211.945
15.0574 156.761
15.1024 96.3121
15.1474 74.0859
15.1924 71.5033
15.2374 71.5248
15.2824 70.7269
15.3274 69.0396
15.3725 67.7876
15.4175 67.4602
15.4625 67.2024
15.5076 67.1399
15.5526 67.1395
15.5976 66.8116
15.6426 68.5237
15.6877 74.5478
15.7327 82.9242
15.7778 99.2394
15.8228 130.101
15.8679 167.498
15.9129 187.033
15.958 158.456
16.003 101.219
16.0481 70.0443
16.0931 65.3432
16.1382 63.2174
16.1833 61.6245
16.2283 59.9733
16.2734 59.291
16.3185 59.3751
16.3636 59.4659
16.4086 58.0522
16.4537 57.0885
16.4988 56.2661
16.5439 56.2493
16.589 56.051
16.6341 55.7058
16.6792 55.2977
16.7243 55.409
16.7694 55.778
16.8145 55.5452
16.8596 56.0362
16.9047 57.1209
16.9498 57.2127
16.9949 56.4159
17.04 56.8574
17.0851 58.0954
17.1302 59.9179
17.1754 63.1227
17.2205 68.3519
17.2656 74.7349
17.3108 81.4266
17.3559 82.2529
17.401 73.1689
17.4462 63.7719
17.4913 60.3844
17.5365 60.0829
17.5815 60.1548
17.6268 60.501
17.6718 61.3815
17.7171 61.8141
17.7622 62.2862
17.8074 63.086
17.8525 66.1096
17.8977 69.988
17.9428 76.1719
17.9881 85.4331
18.0331 102.278
18.0784 119.882
18.1237 136.336
18.1688 133.979
18.214 108.689
18.2591 90.3091
18.3044 92.1133
18.3495 99.6578
18.3948 104.729
18.4399 98.6021
18.4852 80.4393
18.5303 67.66
18.5756 63.4055
18.6207 62.1359
18.666 61.101
18.7112 60.6599
18.7565 59.7965
18.8016 59.6917
18.8469 58.8558
18.892 58.565
18.9374 58.0346
18.9825 57.8984
19.0278 57.7478
19.073 57.7623
19.1183 58.2907
19.1635 59.0112
19.2088 60.7462
19.254 63.4463
19.2993 67.7043
19.3447 72.6797
19.3898 75.8083
19.4352 73.0058
19.4804 64.9203
19.5257 57.8303
19.5709 55.052
19.6163 54.7977
19.6615 54.6272
19.7068 54.2711
19.752 54.1944
19.7974 54.5986
19.8426 55.4734
19.888 56.0958
19.9332 57.4832
19.9786 59.989
20.0238 63.4222
20.0692 67.1421
20.1144 69.8549
20.1598 69.5458
20.205 65.631
20.2504 63.6014
20.2957 64.1155
20.3411 65.3333
20.3863 64.7483
20.4318 59.7103
20.477 54.815
20.5224 52.2875
20.5677 51.6149
20.6131 50.9614
20.6586 50.3822
20.7038 50.2364
20.7493 49.9684
20.7945 49.8704
20.84 49.5157
20.8853 49.4393
20.9307 49.3604
20.976 49.4728
21.0215 49.3355
21.0668 49.9549
21.1122 50.3559
21.1575 51.0962
21.203 51.5676
21.2483 52.032
21.2938 52.2901
21.3391 50.8438
21.3846 49.8437
21.4299 49.2168
21.4754 49.1175
21.5207 49.2783
21.5662 49.6065
21.6116 50.0927
21.6571 50.9209
21.7024 51.9777
21.7479 53.9058
21.7933 56.6199
21.8388 59.636
21.8843 62.8051
21.9297 64.8774
21.9752 64.3027
22.0206 61.3607
22.0661 57.5564
22.1115 56.5038
22.157 56.5108
22.2024 55.1736
22.248 52.5859
22.2933 50.7916
22.3389 50.097
22.3843 49.8342
22.4299 49.4952
22.4753 49.662
22.5208 49.284
22.5662 49.0824
22.6118 49.3116
22.6572 49.8461
22.7028 50.1023
22.7483 50.5971
22.7939 51.254
22.8393 52.8976
22.8849 54.944
22.9303 56.2567
22.9759 57.713
23.0214 57.8981
23.067 55.5818
23.1126 52.2909
23.1581 50.141
23.2037 49.5291
23.2492 49.7849
23.2948 49.7995
23.3403 49.9096
23.3859 50.6616
23.4314 51.6673
23.477 53.4432
23.5225 55.4257
23.5682 56.9151
23.6137 57.9124
23.6593 56.3722
23.7048 52.8834
23.7505 49.4226
23.796 47.4917
23.8417 46.692
23.8872 46.2945
23.9329 45.9277
23.9784 45.5939
24.0241 45.2632
24.0697 45.115
24.1154 44.7312
24.1609 44.7429
24.2066 44.4724
24.2522 44.486
24.2979 43.9987
24.3434 43.994
24.3892 43.7815
24.4349 43.8152
24.4805 43.5541
24.5262 43.8061
24.5718 43.5388
24.6175 43.6281
24.6631 43.4723
24.7089 43.2658
24.7545 43.018
24.8002 42.82
24.8458 42.878
24.8916 42.7784
24.9372 42.902
24.983 43.0584
25.0286 43.5353
25.0744 43.9255
25.12 44.4031
25.1658 44.8994
25.2114 45.4502
25.2572 45.4778
25.3029 45.3256
25.3487 45.4356
25.3943 45.162
25.4402 44.3157
25.4858 43.2248
25.5316 42.1352
25.5773 41.6754
25.6231 41.5538
25.669 41.1685
25.7147 41.2096
25.7605 41.1092
25.8062 41.136
25.8521 41.3068
25.8977 41.234
25.9436 41.3841
25.9893 41.5486
26.0352 41.9839
26.0809 42.0919
26.1268 42.1229
26.1725 41.9744
26.2184 41.5093
26.2641 41.0692
26.31 40.8412
26.3557 40.7308
26.4017 40.7928
26.4474 41.0594
26.4933 41.4664
26.5391 41.8768
26.585 42.2442
26.6308 42.6144
26.6767 42.6331
26.7225 42.5787
26.7684 42.0986
26.8142 41.532
26.8601 41.0063
26.9059 40.6998
26.9519 40.2735
26.9979 39.7667
27.0437 39.4981
27.0896 39.3671
27.1354 39.2921
27.1814 39.0928
27.2272 39.1197
27.2732 39.1519
27.3191 38.9765
27.3651 39.0373
27.4109 39.0612
27.4569 39.1194
27.5027 39.1684
27.5488 39.1505
27.5946 39.0797
27.6407 38.9057
27.6865 38.7779
27.7326 38.4599
27.7784 38.5386
27.8245 38.5116
27.8703 38.6885
27.9164 38.8735
27.9623 39.0337
28.0084 39.1782
28.0543 39.669
28.1003 39.6217
28.1462 39.4951
28.1923 39.1562
28.2384 38.5221
28.2843 38.2318
28.3304 37.8558
28.3764 37.3687
28.4225 36.9557
28.4684 36.7298
28.5145 36.4377
28.5605 36.3367
28.6066 36.1348
28.6526 36.2131
28.6987 36.1592
28.7447 35.9762
28.7908 36.0015
28.8368 35.9905
28.8829 35.8272
28.9289 35.8087
28.9751 35.703
29.0211 35.4139
29.0673 35.2141
29.1133 35.1005
29.1595 34.9089
29.2055 34.8175
29.2517 34.9814
29.2977 34.7186
29.3439 34.7401
29.3899 34.6925
29.4361 34.6059
29.4824 34.4307
29.5284 34.3145
29.5746 33.9413
29.6207 33.6612
29.6669 33.6414
29.713 33.5926
29.7593 33.354
29.8053 33.415
29.8516 33.3217
29.8977 33.3279
29.9439 33.1006
29.99 33.0988
30.0363 32.9603
30.0824 32.9898
30.1287 32.7912
30.1748 32.9553
30.2211 32.8563
30.2673 32.721
30.3136 32.8076
30.3597 32.716
30.406 32.7066
30.4522 32.6406
30.4985 32.5715
30.5447 32.7231
30.591 32.5492
30.6372 32.6219
30.6835 32.615
30.7297 32.7618
30.7761 32.6304
30.8224 32.4626
30.8686 32.3543
30.915 32.0459
30.9612 32.0122
31.0076 31.8272
31.0538 31.7114
31.1002 31.6526
31.1464 31.3691
31.1928 31.4144
31.2391 31.4936
31.2855 31.4124
31.3317 31.4423
31.3781 31.478
31.4244 31.3636
31.4708 31.3391
31.5171 31.2751
31.5636 31.1834
31.6098 31.0149
31.6563 30.8825
31.7026 30.7498
31.7491 30.6438
31.7953 30.6522
31.8418 30.5445
31.8881 30.5522
31.9346 30.5712
31.9809 30.5632
32.0275 30.3492
32.074 30.3142
32.1203 30.0666
32.1668 30.0153
32.2132 29.8816
32.2597 29.7105
32.306 29.604
32.3526 29.4751
32.399 29.4045
32.4455 29.1946
32.4919 29.1571
32.5385 29.0816
32.5848 28.9949
32.6314 28.9251
32.6778 28.908
32.7244 28.7126
32.7708 28.5991
32.8174 28.6082
32.8638 28.4181
32.9104 28.5251
32.9569 28.5077
33.0035 28.3764
33.0499 28.2543
33.0966 28.1346
33.143 28.2629
33.1897 28.1009
33.2361 27.9993
33.2828 28.0008
33.3293 27.7966
33.3759 27.7661
33.4226 27.631
33.4691 27.6212
33.5158 27.4935
33.5623 27.3348
33.609 27.2192
33.6555 27.1006
33.7022 27.0183
33.7487 26.9465
33.7954 26.9399
33.842 26.713
33.8887 26.6655
33.9353 26.631
33.982 26.5631
34.0286 26.4573
34.0753 26.352
34.1219 26.3236
34.1687 26.2572
34.2152 26.1775
34.262 26.0538
34.3086 25.9318
34.3554 25.9844
34.402 25.8114
34.4488 25.7342
34.4954 25.6938
34.5422 25.4919
34.5889 25.4726
34.6357 25.2603
34.6825 25.2508
34.7292 25.2129
34.776 25.1142
34.8227 25.0626
34.8695 25.0926
34.9162 24.9629
34.9631 24.7529
35.0098 24.8257
35.0566 24.7126
35.1033 24.6133
35.1502 24.5912
35.1969 24.5338
35.2438 24.5901
35.2906 24.472
35.3375 24.4466
35.3842 24.3526
35.4311 24.3359
35.4779 24.3402
35.5248 24.2189
35.5716 24.1359
35.6185 24.0061
35.6653 23.9804
35.7123 23.9262
35.759 23.8003
35.806 23.7269
35.8528 23.6968
35.8998 23.5528
35.9468 23.4723
35.9936 23.4464
36.0406 23.3293
36.0874 23.3929
36.1345 23.2346
36.1813 23.1265
36.2283 23.0571
36.2752 22.9417
36.3222 23.0141
36.3691 22.9196
36.4161 22.7898
36.463 22.8384
36.5101 22.7156
36.557 22.6905
36.6041 22.5805
36.651 22.5378
36.6981 22.4612
36.745 22.4117
36.7921 22.2411
36.839 22.1879
36.8861 22.1185
36.9331 22.0167
36.9802 22.0236
37.0272 21.9336
37.0743 21.7859
37.1213 21.7831
37.1684 21.744
37.2154 21.6807
37.2626 21.5526
37.3098 21.5145
37.3568 21.4356
37.404 21.4727
37.451 21.2314
37.4982 21.235
37.5452 21.205
37.5924 21.1309
37.6395 21.1078
37.6867 20.9558
37.7337 20.9064
37.781 20.767
37.8281 20.7698
37.8753 20.73
37.9224 20.6141
37.9697 20.59
38.0168 20.5044
38.064 20.4872
38.1111 20.4141
38.1584 20.3022
38.2056 20.1858
38.2529 20.2075
38.3 20.16
38.3473 20.1174
38.3945 19.9399
38.4418 20.0061
38.489 19.8751
38.5363 19.7884
38.5837 19.7201
38.6309 19.7157
38.6782 19.6248
38.7254 19.4537
38.7728 19.4928
38.82 19.413
38.8674 19.3606
38.9146 19.2879
38.9621 19.2443
39.0093 19.2117
39.0567 19.1053
39.104 19.1581
39.1514 18.942
39.1987 18.9907
39.2461 18.9366
39.2934 18.8298
39.3409 18.7424
39.3882 18.6571
39.4356 18.6084
39.483 18.5248
39.5304 18.5157
39.5778 18.4776
39.6253 18.4158
39.6726 18.3572
39.7201 18.3763
39.7675 18.2798
39.815 18.2079
39.8624 18.0821
39.9099 18.1514
39.9575 18.0058
40.0049 17.9605
40.0525 17.93
40.0999 17.8945
40.1474 17.824
40.1949 17.7026
40.2425 17.6231
40.2899 17.642
40.3375 17.6043
40.385 17.5095
40.4326 17.4808
40.48 17.3592
40.5277 17.4025
40.5752 17.2959
40.6228 17.2066
40.6703 17.1893
40.718 17.1235
40.7655 17.0527
40.8132 16.9968
40.8607 17.0295
40.9084 16.9653
40.9559 16.819
41.0036 16.822
41.0512 16.8069
41.0989 16.742
41.1465 16.6582
41.1942 16.6004
41.242 16.4898
41.2896 16.4681
41.3373 16.3659
41.3849 16.3815
41.4327 16.3229
41.4803 16.204
41.5281 16.1775
41.5758 16.1074
41.6236 16.1052
41.6712 16.0506
41.7191 15.9907
41.7667 15.9446
41.8146 15.8494
41.8622 15.7931
41.9101 15.7813
41.9578 15.6957
42.0057 15.6175
42.0534 15.5961
42.1013 15.5365
42.149 15.4882
42.1969 15.4377
42.2446 15.3832
42.2925 15.3519
42.3403 15.2611
42.3882 15.25
42.436 15.1884
42.4839 15.0883
42.5319 15.1415
42.5797 15.0744
42.6277 15.0086
42.6755 14.9465
42.7235 14.8909
42.7713 14.8419
42.8193 14.7768
42.8671 14.7397
42.9152 14.7089
42.963 14.6637
43.0111 14.5849
43.0589 14.5155
43.107 14.4932
43.1549 14.4027
43.2029 14.3398
43.2508 14.2842
43.2989 14.2739
43.3468 14.1682
43.3949 14.1903
43.4429 14.1676
43.491 14.0756
43.5389 14.0274
43.5871 13.9943
43.635 13.934
43.6832 13.9065
43.7312 13.841
43.7793 13.8171
43.8273 13.7421
43.8755 13.6631
43.9237 13.627
43.9717 13.6196
44.0199 13.5649
44.068 13.5845
44.1162 13.4263
44.1642 13.4502
44.2125 13.4196
44.2606 13.3496
44.3088 13.2494
44.3569 13.1939
44.4052 13.1812
44.4533 13.1599
44.5016 13.0683
44.5497 13.039
44.598 13.0213
44.6461 12.9334
44.6945 12.9162
44.7426 12.8841
44.791 12.8356
44.8391 12.8199
44.8875 12.7784
44.9357 12.6766
44.984 12.642
45.0322 12.6307
45.0806 12.4875
45.1288 12.4855
45.1773 12.469
45.2257 12.4291
45.2739 12.3866
45.3224 12.3208
45.3706 12.2466
45.4191 12.2414
45.4673 12.2239
45.5158 12.1764
45.5641 12.1158
45.6126 12.0443
45.6609 12.0496
45.7094 11.9716
45.7577 11.9285
45.8063 11.8948
45.8546 11.8621
45.9031 11.8143
45.9515 11.7752
46.0001 11.6948
46.0484 11.7009
46.097 11.6731
46.1454 11.6361
46.194 11.5556
46.2424 11.5417
46.291 11.464
46.3395 11.4475
46.3881 11.3749
46.4365 11.3772
46.4852 11.3197
46.5337 11.3105
46.5823 11.2227
46.631 11.2267
46.6795 11.1368
46.7282 11.096
46.7767 11.0585
46.8254 11.0188
46.8739 10.9792
46.9226 10.9371
46.9712 10.8775
47.0199 10.8958
47.0685 10.8313
47.1173 10.7714
47.1658 10.7458
47.2146 10.7229
47.2632 10.6695
47.312 10.6447
47.3606 10.5344
47.4095 10.5295
47.4581 10.493
47.5069 10.4553
47.5556 10.3952
47.6044 10.377
47.6531 10.3716
47.702 10.2778
47.7507 10.2667
47.7996 10.2479
47.8483 10.1877
47.8972 10.1522
47.9461 10.1339
47.9948 10.0799
48.0438 10.054
48.0925 10.0042
48.1415 10.0041
48.1902 9.92064
48.2392 9.94823
48.288 9.89729
48.337 9.8439
48.3858 9.79414
48.4348 9.78457
48.4837 9.73381
48.5327 9.70626
48.5815 9.6582
48.6306 9.65352
48.6795 9.61213
48.7285 9.58288
48.7774 9.57192
48.8265 9.52294
48.8754 9.46488
48.9245 9.37941
48.9734 9.3986
49.0226 9.35549
49.0715 9.34133
49.1206 9.27219
49.1696 9.19388
49.2188 9.18405
49.2679 9.15597
49.3169 9.13538
49.3661 9.09969
49.4151 9.08211
49.4643 9.03143
49.5134 9.01108
49.5626 8.93474
49.6117 8.91851
49.6609 8.9045
49.71 8.82534
49.7592 8.80664
49.8083 8.78413
49.8576 8.75595
49.9067 8.70381
49.956 8.70445
50.0052 8.65907
50.0545 8.63041
50.1036 8.54377
50.153 8.54336
50.2022 8.48286
50.2515 8.50229
50.3007 8.44572
50.3501 8.42329
50.3993 8.40128
50.4487 8.3383
50.498 8.31524
50.5474 8.30411
50.5966 8.28542
50.6461 8.21282
50.6955 8.20886
50.7448 8.18452
50.7943 8.13261
50.8436 8.13502
50.8931 8.08167
50.9424 8.07616
50.9919 7.99762
51.0413 7.98554
51.0908 7.95098
51.1402 7.9275
51.1897 7.88151
51.2391 7.86534
51.2887 7.81397
51.3381 7.78201
51.3877 7.76034
51.4371 7.72316
51.4867 7.67229
51.5362 7.65816
51.5858 7.6066
51.6353 7.55307
51.6849 7.57364
51.7344 7.53875
51.7841 7.50187
51.8336 7.48749
51.8833 7.42043
51.9328 7.45395
51.9826 7.35991
52.0323 7.34868
52.0818 7.33139
52.1316 7.26752
52.1812 7.26657
52.231 7.23364
52.2806 7.1843
52.3304 7.16321
52.38 7.11193
52.4298 7.0701
52.4794 7.11239
52.5293 7.02969
52.5789 7.02837
52.6288 7.02172
52.6785 6.97292
52.7284 6.92037
52.7781 6.8875
52.828 6.87562
52.8777 6.87197
52.9276 6.83482
52.9774 6.73083
53.0273 6.74949
53.0771 6.71161
53.1271 6.72184
53.1769 6.66637
53.2269 6.67105
53.2767 6.62376
53.3267 6.54298
53.3765 6.5872
53.4266 6.54861
53.4766 6.50658
53.5265 6.42571
53.5765 6.42849
53.6264 6.45683
53.6765 6.33382
53.7264 6.38037
53.7765 6.35439
53.8265 6.34471
53.8766 6.277
53.9266 6.27452
53.9767 6.26085
54.0267 6.20898
54.0769 6.16414
54.1269 6.11823
54.1771 6.09228
54.2271 6.04983
54.2773 6.08868
54.3274 6.03279
54.3776 5.99416
54.4277 5.94621
54.478 5.93633
54.528 5.90365
54.5783 5.84909
54.6285 5.82136
54.6788 5.74593
54.7289 5.73873
54.7792 5.69385
54.8296 5.62379
54.8798 5.53889
54.9301 5.58513
54.9803 5.55967
55.0307 5.51955
55.0809 5.46361
55.1314 5.43588
55.1816 5.31218
55.232 5.30816
55.2823 5.26184
55.3328 5.21567
55.383 5.15937
55.4335 5.11989
55.4838 5.08805
55.5344 5.06501
55.5847 4.97895
55.6352 4.95109
55.6856 4.90475
55.7361 4.94095