File: XRD/Ni3Fe_FD1081.xy
TT I
1.27165 6.65262
1.31627 6.68942
1.36089 6.10612
1.40551 5.92101
1.45013 5.82825
1.49476 5.66052
1.53938 5.47178
1.584 4.66394
1.62863 4.95444
1.67325 4.35768
1.71787 4.59764
1.7625 4.36482
1.80712 4.71282
1.85174 4.6859
1.89636 4.0826
1.94099 4.9331
1.98562 4.82657
2.03025 3.73704
2.07487 4.04433
2.11949 4.16602
2.16411 4.38116
2.20874 5.3531
2.25338 6.60403
2.298 5.08404
2.34263 4.67823
2.38725 5.21797
2.43188 5.92574
2.4765 6.95518
2.52115 6.60578
2.56577 8.31906
2.6104 8.14605
2.65503 8.06846
2.69965 8.85665
2.7443 8.65188
2.78893 8.681
2.83356 8.4777
2.87818 8.70181
2.92281 9.15867
2.96744 9.70263
3.01209 10.0933
3.05672 10.9778
3.10135 11.9637
3.14599 12.8138
3.19062 14.042
3.23527 15.0518
3.2799 15.2124
3.32454 16.222
3.36917 16.7947
3.4138 17.7794
3.45844 18.8623
3.50309 19.6864
3.54773 20.7354
3.59237 21.5027
3.637 27.6069
3.68164 26.8268
3.7263 23.7783
3.77094 24.7078
3.81558 25.3157
3.86022 26.5416
3.90486 27.4774
3.9495 28.5021
3.99416 29.0946
4.0388 30.3814
4.08344 31.4386
4.12809 32.4641
4.17273 33.8827
4.21738 35.5257
4.26204 51.7224
4.30669 55.8905
4.35133 40.2279
4.39598 41.4559
4.44063 43.2525
4.4853 46.0514
4.52995 46.7698
4.5746 48.8142
4.61925 50.7133
4.6639 52.8335
4.70855 55.5506
4.75322 58.4434
4.79788 61.0081
4.84253 64.1548
4.88719 68.0676
4.93184 71.8201
4.97652 76.9873
5.02118 82.9591
5.06583 89.6606
5.11049 98.5893
5.15515 118.335
5.19981 232.623
5.24449 2541.63
5.28916 13688.7
5.33382 3315.32
5.37848 203.798
5.42315 123.353
5.46783 108.183
5.5125 101.452
5.55716 97.4539
5.60183 92.9759
5.6465 91.7141
5.69117 90.2061
5.73586 87.7541
5.78053 87.3056
5.8252 86.444
5.86988 87.1866
5.91455 88.8252
5.95924 95.7317
6.00392 165.988
6.0486 896.504
6.09328 4460.42
6.13795 3713.69
6.18263 239.191
6.22733 87.1645
6.27201 76.0507
6.3167 73.2913
6.36138 68.9422
6.40606 64.9917
6.45075 63.5892
6.49545 62.0728
6.54014 60.0615
6.58483 59.3365
6.62952 58.402
6.67421 58.7354
6.71892 64.4252
6.76361 56.8454
6.8083 54.6902
6.853 54.3195
6.89769 53.3267
6.94239 53.3682
6.98711 52.4587
7.03181 52.4742
7.07651 52.7069
7.12121 51.9577
7.16591 51.961
7.21063 50.8278
7.25533 51.7846
7.30004 61.8949
7.34475 55.8085
7.38945 51.8718
7.43416 51.1801
7.47889 51.6122
7.5236 57.6035
7.56831 70.8811
7.61303 56.0845
7.65774 52.8521
7.70247 53.4163
7.74719 53.1353
7.79191 54.1631
7.83663 53.9946
7.88135 54.6079
7.92607 55.5625
7.97081 56.8876
8.01553 57.6516
8.06026 59.3519
8.10498 60.1558
8.14971 62.3336
8.19446 64.245
8.23919 65.7779
8.28392 68.528
8.32865 70.6338
8.37339 74.4145
8.41812 78.0134
8.46288 86.3854
8.50761 129.595
8.55235 382.107
8.59709 1120.95
8.64183 2283.92
8.68658 1091.23
8.73134 173.976
8.77609 94.7439
8.82083 88.5039
8.86558 85.5261
8.91033 83.9878
8.9551 82.558
8.99985 80.9515
9.04461 80.0496
9.08936 79.9661
9.13412 78.946
9.17888 79.5448
9.22365 90.2757
9.26841 110.13
9.31318 87.8662
9.35794 80.4392
9.4027 80.2555
9.44749 80.539
9.49226 81.5075
9.53703 82.142
9.5818 83.362
9.62657 84.6094
9.67134 86.8802
9.71614 87.8879
9.76091 90.0619
9.80569 92.0
9.85047 94.5265
9.89525 99.1812
9.94005 106.662
9.98484 148.186
10.0296 354.082
10.0744 783.132
10.1192 1771.47
10.164 1703.16
10.2088 440.665
10.2536 124.939
10.2984 103.232
10.3432 101.184
10.388 97.7296
10.4328 108.481
10.4776 163.42
10.5224 275.21
10.5672 517.015
10.612 576.625
10.6568 229.012
10.7017 102.789
10.7465 85.8303
10.7913 80.2046
10.8361 77.7931
10.8809 75.6753
10.9257 73.6286
10.9706 72.8073
11.0154 70.9716
11.0602 69.3283
11.105 68.5606
11.1499 67.0542
11.1947 67.2448
11.2395 65.6671
11.2844 64.788
11.3292 63.8513
11.374 63.0686
11.4189 62.8431
11.4637 61.9921
11.5086 61.5411
11.5534 61.2397
11.5983 61.0812
11.6431 60.4993
11.688 60.2818
11.7328 60.1898
11.7777 59.9145
11.8225 59.825
11.8674 59.8738
11.9122 61.8695
11.9571 67.257
12.002 66.0048
12.0468 64.5796
12.0917 77.1873
12.1366 100.109
12.1814 147.958
12.2263 203.657
12.2712 174.477
12.3161 96.5197
12.3609 64.6568
12.4058 61.5046
12.4507 61.4069
12.4956 61.4856
12.5405 61.572
12.5853 62.2802
12.6302 63.0724
12.6751 64.1208
12.72 63.9528
12.7649 64.7416
12.8098 65.4821
12.8547 66.8879
12.8996 67.8443
12.9445 69.3002
12.9894 71.1606
13.0343 73.2207
13.0792 76.6919
13.1242 82.6397
13.1691 108.855
13.214 149.365
13.2589 232.073
13.3038 371.181
13.3487 451.801
13.3937 277.044
13.4386 125.346
13.4835 99.5181
13.5285 121.005
13.5734 158.71
13.6183 238.022
13.6633 357.581
13.7082 359.649
13.7531 204.701
13.7981 99.8463
13.843 79.765
13.888 77.0169
13.9329 74.4057
13.9779 73.885
14.0228 72.2424
14.0678 70.7514
14.1127 71.609
14.1577 74.6868
14.2027 72.9984
14.2476 68.7753
14.2926 67.7707
14.3376 67.2782
14.3825 67.1393
14.4275 66.3672
14.4725 66.3916
14.5175 66.5722
14.5624 66.5003
14.6074 66.8054
14.6524 67.3524
14.6974 67.4198
14.7424 68.5274
14.7874 74.7353
14.8324 89.3146
14.8774 111.289
14.9224 149.624
14.9674 209.184
15.0124 226.588
15.0574 158.038
15.1024 93.297
15.1474 71.1888
15.1924 68.0469
15.2374 66.4907
15.2824 66.1386
15.3274 65.073
15.3725 64.2915
15.4175 64.3098
15.4625 63.9527
15.5076 63.3499
15.5526 63.7829
15.5976 63.6872
15.6426 64.1735
15.6877 68.7866
15.7327 80.2258
15.7778 95.4606
15.8228 123.669
15.8679 169.907
15.9129 203.097
15.958 168.618
16.003 103.994
16.0481 69.2399
16.0931 62.7859
16.1382 60.0332
16.1833 58.542
16.2283 57.2341
16.2734 56.4081
16.3185 55.6549
16.3636 55.2256
16.4086 54.4845
16.4537 54.0004
16.4988 53.49
16.5439 53.5652
16.589 53.2592
16.6341 53.044
16.6792 52.7454
16.7243 52.7495
16.7694 52.793
16.8145 52.8071
16.8596 52.9625
16.9047 53.5782
16.9498 54.2645
16.9949 53.9123
17.04 53.6766
17.0851 55.0241
17.1302 57.2442
17.1754 60.4103
17.2205 65.1429
17.2656 72.3947
17.3108 82.1391
17.3559 82.5531
17.401 72.1109
17.4462 61.3969
17.4913 57.6632
17.5365 57.2553
17.5815 57.3078
17.6268 57.8131
17.6718 58.2928
17.7171 58.8152
17.7622 60.0313
17.8074 60.8201
17.8525 61.9949
17.8977 66.8527
17.9428 73.7372
17.9881 82.6569
18.0331 97.7924
18.0784 121.203
18.1237 142.815
18.1688 137.924
18.214 108.841
18.2591 88.3345
18.3044 89.1635
18.3495 99.6301
18.3948 107.32
18.4399 98.3478
18.4852 78.8693
18.5303 65.6196
18.5756 61.2213
18.6207 60.0496
18.666 59.0143
18.7112 58.0454
18.7565 57.3679
18.8016 57.1341
18.8469 56.5797
18.892 56.3603
18.9374 55.8449
18.9825 55.5615
19.0278 55.1388
19.073 55.1878
19.1183 55.3952
19.1635 56.3481
19.2088 58.1886
19.254 60.8417
19.2993 65.8404
19.3447 71.9892
19.3898 75.9388
19.4352 72.1958
19.4804 63.254
19.5257 56.3607
19.5709 52.9365
19.6163 52.5189
19.6615 52.3551
19.7068 51.9346
19.752 51.8638
19.7974 52.0491
19.8426 52.8522
19.888 53.9193
19.9332 55.4162
19.9786 57.7971
20.0238 61.128
20.0692 66.6332
20.1144 70.4582
20.1598 69.3385
20.205 64.1015
20.2504 61.8014
20.2957 63.764
20.3411 65.5771
20.3863 64.085
20.4318 58.424
20.477 52.6596
20.5224 50.051
20.5677 49.4003
20.6131 48.8959
20.6586 48.5351
20.7038 48.3845
20.7493 48.0147
20.7945 48.0568
20.84 47.8246
20.8853 47.6071
20.9307 47.3282
20.976 47.5169
21.0215 47.5085
21.0668 47.8886
21.1122 48.3826
21.1575 48.8038
21.203 49.6966
21.2483 50.5051
21.2938 50.5932
21.3391 49.1418
21.3846 47.9949
21.4299 47.2934
21.4754 47.4048
21.5207 47.4811
21.5662 47.6373
21.6116 48.0575
21.6571 48.9466
21.7024 50.2896
21.7479 52.0601
21.7933 54.3597
21.8388 58.1565
21.8843 62.8251
21.9297 65.4272
21.9752 63.8514
22.0206 60.1112
22.0661 56.4239
22.1115 55.9429
22.157 56.1386
22.2024 54.4137
22.248 51.3402
22.2933 48.992
22.3389 48.042
22.3843 47.6927
22.4299 47.5913
22.4753 47.6209
22.5208 47.445
22.5662 47.4962
22.6118 47.7988
22.6572 47.6381
22.7028 48.3857
22.7483 49.256
22.7939 50.0023
22.8393 51.2078
22.8849 53.3638
22.9303 55.8257
22.9759 57.8328
23.0214 57.203
23.067 54.755
23.1126 50.9663
23.1581 48.5734
23.2037 47.7864
23.2492 47.8075
23.2948 47.8657
23.3403 48.6124
23.3859 49.5437
23.4314 50.4647
23.477 52.212
23.5225 54.5594
23.5682 57.2179
23.6137 58.409
23.6593 56.4251
23.7048 52.18
23.7505 48.3764
23.796 46.1361
23.8417 45.2994
23.8872 44.6404
23.9329 44.4249
23.9784 43.9267
24.0241 43.7321
24.0697 43.5759
24.1154 43.2013
24.1609 42.9943
24.2066 42.7586
24.2522 42.794
24.2979 42.4145
24.3434 42.3734
24.3892 42.2834
24.4349 42.1126
24.4805 42.1786
24.5262 42.2714
24.5718 42.1329
24.6175 42.2044
24.6631 42.1511
24.7089 41.7116
24.7545 41.5466
24.8002 41.3934
24.8458 41.4003
24.8916 41.3076
24.9372 41.5123
24.983 41.7726
25.0286 42.0931
25.0744 42.716
25.12 43.2946
25.1658 43.9508
25.2114 44.2936
25.2572 44.3942
25.3029 44.6579
25.3487 44.809
25.3943 44.4348
25.4402 43.241
25.4858 42.0919
25.5316 40.9404
25.5773 40.2868
25.6231 40.355
25.669 39.8517
25.7147 39.7771
25.7605 39.7062
25.8062 39.8178
25.8521 40.0654
25.8977 39.8754
25.9436 40.2517
25.9893 40.3664
26.0352 40.8965
26.0809 41.0923
26.1268 41.4163
26.1725 41.0669
26.2184 40.4341
26.2641 39.8906
26.31 39.431
26.3557 39.5442
26.4017 39.5382
26.4474 39.8594
26.4933 40.0254
26.5391 40.7314
26.585 41.2874
26.6308 41.8967
26.6767 41.9996
26.7225 41.8711
26.7684 41.2927
26.8142 40.6124
26.8601 40.1423
26.9059 39.7487
26.9519 39.2092
26.9979 38.673
27.0437 38.3725
27.0896 38.1595
27.1354 38.2178
27.1814 38.1084
27.2272 37.9049
27.2732 37.9887
27.3191 37.9113
27.3651 37.9269
27.4109 37.8269
27.4569 38.042
27.5027 38.0423
27.5488 38.1589
27.5946 38.0308
27.6407 37.6572
27.6865 37.5899
27.7326 37.4342
27.7784 37.3019
27.8245 37.3052
27.8703 37.6022
27.9164 37.7929
27.9623 38.0716
28.0084 38.6109
28.0543 38.8722
28.1003 38.8303
28.1462 38.6583
28.1923 38.2833
28.2384 37.8829
28.2843 37.3856
28.3304 36.8451
28.3764 36.416
28.4225 36.01
28.4684 35.7858
28.5145 35.3795
28.5605 35.3248
28.6066 35.1457
28.6526 35.0848
28.6987 35.1335
28.7447 35.0192
28.7908 34.9242
28.8368 35.0151
28.8829 34.9771
28.9289 34.7823
28.9751 34.6504
29.0211 34.5499
29.0673 34.3107
29.1133 33.9925
29.1595 33.8931
29.2055 33.6902
29.2517 33.7739
29.2977 33.8697
29.3439 33.8528
29.3899 33.7779
29.4361 33.7862
29.4824 33.5176
29.5284 33.3507
29.5746 32.9911
29.6207 32.6761
29.6669 32.538
29.713 32.4335
29.7593 32.3509
29.8053 32.2102
29.8516 32.2071
29.8977 32.2604
29.9439 32.1806
29.99 32.163
30.0363 31.9804
30.0824 32.0805
30.1287 31.8871
30.1748 31.929
30.2211 31.9334
30.2673 31.7435
30.3136 31.9034
30.3597 31.8162
30.406 31.7921
30.4522 31.583
30.4985 31.5238
30.5447 31.7601
30.591 31.7139
30.6372 31.8145
30.6835 31.8758
30.7297 31.9548
30.7761 31.9375
30.8224 31.7815
30.8686 31.5283
30.915 31.2837
30.9612 31.2165
31.0076 30.8701
31.0538 30.7495
31.1002 30.7804
31.1464 30.4783
31.1928 30.5553
31.2391 30.6599
31.2855 30.4349
31.3317 30.4175
31.3781 30.621
31.4244 30.6607
31.4708 30.5125
31.5171 30.5265
31.5636 30.4762
31.6098 30.2366
31.6563 30.0996
31.7026 29.9313
31.7491 29.8144
31.7953 29.9124
31.8418 29.7814
31.8881 29.8338
31.9346 29.8843
31.9809 29.7179
32.0275 29.6253
32.074 29.4899
32.1203 29.3511
32.1668 29.2438
32.2132 29.0616
32.2597 28.8398
32.306 28.8287
32.3526 28.5605
32.399 28.52
32.4455 28.428
32.4919 28.2903
32.5385 28.2807
32.5848 28.1635
32.6314 28.0403
32.6778 28.0426
32.7244 27.9176
32.7708 27.8077
32.8174 27.7745
32.8638 27.6913
32.9104 27.7129
32.9569 27.5947
33.0035 27.5533
33.0499 27.5404
33.0966 27.3662
33.143 27.4507
33.1897 27.435
33.2361 27.266
33.2828 27.3234
33.3293 27.0421
33.3759 27.0711
33.4226 26.9287
33.4691 26.7385
33.5158 26.7098
33.5623 26.5638
33.609 26.4424
33.6555 26.2796
33.7022 26.202
33.7487 26.146
33.7954 26.0766
33.842 26.101
33.8887 26.0073
33.9353 25.9168
33.982 25.7689
34.0286 25.7436
34.0753 25.5989
34.1219 25.5572
34.1687 25.4724
34.2152 25.4228
34.262 25.3063
34.3086 25.2371
34.3554 25.1605
34.402 25.0351
34.4488 24.9985
34.4954 24.8898
34.5422 24.8147
34.5889 24.7043
34.6357 24.6303
34.6825 24.5876
34.7292 24.4552
34.776 24.2605
34.8227 24.4117
34.8695 24.302
34.9162 24.2031
34.9631 24.1395
35.0098 24.1891
35.0566 24.0221
35.1033 23.9581
35.1502 23.962
35.1969 23.917
35.2438 23.8378
35.2906 23.7915
35.3375 23.6923
35.3842 23.6881
35.4311 23.7798
35.4779 23.724
35.5248 23.6101
35.5716 23.473
35.6185 23.3778
35.6653 23.3402
35.7123 23.3185
35.759 23.139
35.806 23.0464
35.8528 23.0221
35.8998 22.9391
35.9468 22.7663
35.9936 22.8051
36.0406 22.6389
36.0874 22.6976
36.1345 22.6074
36.1813 22.5263
36.2283 22.4339
36.2752 22.3389
36.3222 22.4074
36.3691 22.3262
36.4161 22.1577
36.463 22.2195
36.5101 22.0992
36.557 22.0953
36.6041 21.9724
36.651 21.8625
36.6981 21.8084
36.745 21.7631
36.7921 21.6883
36.839 21.6402
36.8861 21.4741
36.9331 21.457
36.9802 21.4241
37.0272 21.2618
37.0743 21.2621
37.1213 21.1567
37.1684 21.0964
37.2154 20.99
37.2626 20.996
37.3098 20.9599
37.3568 20.8644
37.404 20.8613
37.451 20.777
37.4982 20.6846
37.5452 20.5574
37.5924 20.502
37.6395 20.5769
37.6867 20.44
37.7337 20.3387
37.781 20.3542
37.8281 20.253
37.8753 20.1095
37.9224 20.0718
37.9697 20.0319
38.0168 19.9161
38.064 19.8321
38.1111 19.8721
38.1584 19.7476
38.2056 19.7528
38.2529 19.6512
38.3 19.5794
38.3473 19.5221
38.3945 19.4173
38.4418 19.3853
38.489 19.4394
38.5363 19.2661
38.5837 19.1884
38.6309 19.1697
38.6782 19.1214
38.7254 19.02
38.7728 18.9648
38.82 18.9097
38.8674 18.9017
38.9146 18.7776
38.9621 18.6992
39.0093 18.7068
39.0567 18.6117
39.104 18.5568
39.1514 18.4299
39.1987 18.4523
39.2461 18.3589
39.2934 18.3003
39.3409 18.2257
39.3882 18.1988
39.4356 18.0706
39.483 18.1758
39.5304 17.9475
39.5778 18.0279
39.6253 17.8862
39.6726 17.8558
39.7201 17.8668
39.7675 17.7903
39.815 17.6762
39.8624 17.6088
39.9099 17.5647
39.9575 17.5481
40.0049 17.5105
40.0525 17.408
40.0999 17.3483
40.1474 17.2991
40.1949 17.2648
40.2425 17.1386
40.2899 17.1118
40.3375 17.06
40.385 16.9575
40.4326 16.9662
40.48 16.8849
40.5277 16.9075
40.5752 16.8737
40.6228 16.7182
40.6703 16.6719
40.718 16.6423
40.7655 16.5923
40.8132 16.5326
40.8607 16.5399
40.9084 16.4529
40.9559 16.4317
41.0036 16.3972
41.0512 16.2839
41.0989 16.2376
41.1465 16.1838
41.1942 16.1617
41.242 16.0285
41.2896 16.0159
41.3373 15.9511
41.3849 15.9037
41.4327 15.9029
41.4803 15.7512
41.5281 15.7076
41.5758 15.7041
41.6236 15.6123
41.6712 15.5816
41.7191 15.5254
41.7667 15.4802
41.8146 15.4354
41.8622 15.4087
41.9101 15.3299
41.9578 15.272
42.0057 15.186
42.0534 15.1754
42.1013 15.0859
42.149 15.1007
42.1969 15.014
42.2446 14.9772
42.2925 14.9135
42.3403 14.8514
42.3882 14.7681
42.436 14.7835
42.4839 14.6841
42.5319 14.707
42.5797 14.6047
42.6277 14.5642
42.6755 14.517
42.7235 14.4502
42.7713 14.3752
42.8193 14.3245
42.8671 14.3304
42.9152 14.3257
42.963 14.2523
43.0111 14.2243
43.0589 14.1397
43.107 14.1026
43.1549 14.0218
43.2029 13.9904
43.2508 13.9765
43.2989 13.9005
43.3468 13.7788
43.3949 13.7687
43.4429 13.7884
43.491 13.7209
43.5389 13.6537
43.5871 13.6148
43.635 13.5552
43.6832 13.501
43.7312 13.451
43.7793 13.4202
43.8273 13.3804
43.8755 13.346
43.9237 13.314
43.9717 13.2452
44.0199 13.1856
44.068 13.1475
44.1162 13.096
44.1642 13.0899
44.2125 13.0017
44.2606 12.9777
44.3088 12.8591
44.3569 12.8428
44.4052 12.8192
44.4533 12.7488
44.5016 12.6787
44.5497 12.6968
44.598 12.6954
44.6461 12.582
44.6945 12.5467
44.7426 12.5084
44.791 12.4716
44.8391 12.4048
44.8875 12.4306
44.9357 12.3667
44.984 12.281
45.0322 12.2508
45.0806 12.2133
45.1288 12.1646
45.1773 12.1175
45.2257 12.1264
45.2739 12.0376
45.3224 11.9877
45.3706 12.0022
45.4191 11.8794
45.4673 11.8958
45.5158 11.8206
45.5641 11.7645
45.6126 11.74
45.6609 11.7257
45.7094 11.6238
45.7577 11.5928
45.8063 11.5467
45.8546 11.5355
45.9031 11.4886
45.9515 11.4952
46.0001 11.3817
46.0484 11.3471
46.097 11.3441
46.1454 11.3115
46.194 11.2429
46.2424 11.1935
46.291 11.1705
46.3395 11.1352
46.3881 11.0819
46.4365 11.0639
46.4852 11.0237
46.5337 10.9315
46.5823 10.9693
46.631 10.8776
46.6795 10.8542
46.7282 10.8244
46.7767 10.7554
46.8254 10.704
46.8739 10.6818
46.9226 10.6702
46.9712 10.6097
47.0199 10.5725
47.0685 10.5608
47.1173 10.481
47.1658 10.4914
47.2146 10.4558
47.2632 10.3622
47.312 10.3529
47.3606 10.3257
47.4095 10.2177
47.4581 10.2163
47.5069 10.164
47.5556 10.1195
47.6044 10.1369
47.6531 10.0887
47.702 10.0191
47.7507 10.0169
47.7996 9.98272
47.8483 9.92601
47.8972 9.91661
47.9461 9.86205
47.9948 9.79634
48.0438 9.80917
48.0925 9.78976
48.1415 9.70188
48.1902 9.69687
48.2392 9.62678
48.288 9.60242
48.337 9.56823
48.3858 9.55476
48.4348 9.49593
48.4837 9.5033
48.5327 9.4867
48.5815 9.38851
48.6306 9.41806
48.6795 9.33935
48.7285 9.2972
48.7774 9.27968
48.8265 9.2608
48.8754 9.21268
48.9245 9.16995
48.9734 9.10711
49.0226 9.13397
49.0715 9.0583
49.1206 9.01016
49.1696 8.97907
49.2188 8.94239
49.2679 8.93175
49.3169 8.85014
49.3661 8.83394
49.4151 8.77756
49.4643 8.80351
49.5134 8.75142
49.5626 8.70851
49.6117 8.686
49.6609 8.67358
49.71 8.59444
49.7592 8.59901
49.8083 8.52046
49.8576 8.53041
49.9067 8.45521
49.956 8.44671
50.0052 8.39497
50.0545 8.34596
50.1036 8.33412
50.153 8.32977
50.2022 8.28616
50.2515 8.26227
50.3007 8.1986
50.3501 8.22101
50.3993 8.17155
50.4487 8.11891
50.498 8.09967
50.5474 8.07263
50.5966 8.01973
50.6461 7.9826
50.6955 7.98847
50.7448 7.96473
50.7943 7.90978
50.8436 7.86734
50.8931 7.85592
50.9424 7.83021
50.9919 7.78649
51.0413 7.76031
51.0908 7.72212
51.1402 7.71872
51.1897 7.6564
51.2391 7.62048
51.2887 7.56671
51.3381 7.54139
51.3877 7.536
51.4371 7.52327
51.4867 7.47942
51.5362 7.46752
51.5858 7.38755
51.6353 7.36102
51.6849 7.36426
51.7344 7.32923
51.7841 7.32781
51.8336 7.27582
51.8833 7.24268
51.9328 7.20528
51.9826 7.14516
52.0323 7.12737
52.0818 7.11865
52.1316 7.07466
52.1812 7.04356
52.231 7.02595
52.2806 6.97474
52.3304 6.97915
52.38 6.96075
52.4298 6.92462
52.4794 6.85411
52.5293 6.88048
52.5789 6.80523
52.6288 6.81538
52.6785 6.74438
52.7284 6.74098
52.7781 6.75671
52.828 6.68507
52.8777 6.66025
52.9276 6.61259
52.9774 6.61077
53.0273 6.58529
53.0771 6.5498
53.1271 6.55767
53.1769 6.4821
53.2269 6.47218
53.2767 6.44248
53.3267 6.42271
53.3765 6.38448
53.4266 6.35068
53.4766 6.30732
53.5265 6.25443
53.5765 6.27399
53.6264 6.25268
53.6765 6.25156
53.7264 6.2043
53.7765 6.15777
53.8265 6.16985
53.8766 6.07936
53.9266 6.08947
53.9767 6.07086
54.0267 6.00038
54.0769 6.01835
54.1269 6.01627
54.1771 5.94135
54.2271 5.9327
54.2773 5.89104
54.3274 5.9322
54.3776 5.79712
54.4277 5.75868
54.478 5.7715
54.528 5.75024
54.5783 5.62562
54.6285 5.64014
54.6788 5.66626
54.7289 5.57966
54.7792 5.51476
54.8296 5.52405
54.8798 5.43794
54.9301 5.46019
54.9803 5.3835
55.0307 5.37192
55.0809 5.32635
55.1314 5.27075
55.1816 5.14774
55.232 5.17217
55.2823 5.1634
55.3328 5.11521
55.383 5.06697
55.4335 5.00749
55.4838 4.97786
55.5344 4.94345
55.5847 4.84006
55.6352 4.86369
55.6856 4.84613
55.7361 4.73424