File: XRD/Ni3Fe_FD0468.xy
TT I
1.27165 7.23233
1.31627 6.66519
1.36089 7.21549
1.40551 6.97528
1.45013 5.80163
1.49476 5.34051
1.53938 6.41281
1.584 5.89772
1.62863 5.40583
1.67325 4.6756
1.71787 5.49961
1.7625 4.79796
1.80712 5.04696
1.85174 5.28092
1.89636 4.73732
1.94099 4.79286
1.98562 4.61194
2.03025 4.28263
2.07487 5.11485
2.11949 5.17837
2.16411 5.06911
2.20874 9.08691
2.25338 13.5226
2.298 5.61498
2.34263 4.79685
2.38725 5.62834
2.43188 6.38453
2.4765 6.45743
2.52115 6.62632
2.56577 6.93006
2.6104 7.69991
2.65503 7.6868
2.69965 8.05402
2.7443 7.97631
2.78893 7.41382
2.83356 7.92736
2.87818 8.0091
2.92281 9.04418
2.96744 9.5143
3.01209 10.5453
3.05672 11.4236
3.10135 12.163
3.14599 13.0664
3.19062 13.735
3.23527 14.8737
3.2799 15.8992
3.32454 16.8835
3.36917 17.7416
3.4138 18.9848
3.45844 19.4372
3.50309 20.7467
3.54773 21.7692
3.59237 23.1436
3.637 57.7614
3.68164 40.1703
3.7263 26.0679
3.77094 26.0213
3.81558 26.5281
3.86022 27.9796
3.90486 28.837
3.9495 29.9746
3.99416 31.3282
4.0388 32.3812
4.08344 33.8158
4.12809 34.6974
4.17273 36.8358
4.21738 40.3147
4.26204 143.045
4.30669 122.76
4.35133 45.4042
4.39598 44.553
4.44063 50.0138
4.4853 56.5511
4.52995 53.3706
4.5746 54.0004
4.61925 54.3602
4.6639 56.698
4.70855 58.8672
4.75322 62.7561
4.79788 66.8105
4.84253 69.3274
4.88719 74.5437
4.93184 77.5427
4.97652 83.29
5.02118 91.0381
5.06583 98.87
5.11049 113.046
5.15515 167.495
5.19981 534.215
5.24449 3508.01
5.28916 11739.5
5.33382 2824.89
5.37848 205.329
5.42315 134.942
5.46783 119.795
5.5125 111.4
5.55716 105.376
5.60183 101.523
5.6465 99.1683
5.69117 97.5013
5.73586 95.0045
5.78053 96.7667
5.8252 96.7097
5.86988 97.7319
5.91455 99.7904
5.95924 112.324
6.00392 296.55
6.0486 1204.82
6.09328 4263.82
6.13795 3244.92
6.18263 251.069
6.22733 96.0264
6.27201 83.6314
6.3167 89.799
6.36138 77.4029
6.40606 70.5035
6.45075 68.9439
6.49545 66.2632
6.54014 64.8051
6.58483 63.8305
6.62952 63.3597
6.67421 78.0534
6.71892 99.8419
6.76361 64.1546
6.8083 59.3948
6.853 58.9154
6.89769 57.5173
6.94239 56.9704
6.98711 56.4035
7.03181 55.9991
7.07651 55.7892
7.12121 55.4997
7.16591 56.3761
7.21063 55.8497
7.25533 63.3167
7.30004 112.642
7.34475 72.5016
7.38945 56.2136
7.43416 54.9941
7.47889 55.0002
7.5236 55.3644
7.56831 55.8527
7.61303 57.1306
7.65774 56.9159
7.70247 57.0581
7.74719 57.3258
7.79191 57.8454
7.83663 57.9379
7.88135 58.8657
7.92607 59.8816
7.97081 60.8713
8.01553 61.8538
8.06026 63.7998
8.10498 65.1299
8.14971 71.3332
8.19446 71.2269
8.23919 71.2751
8.28392 73.2425
8.32865 76.2528
8.37339 80.7022
8.41812 87.237
8.46288 110.358
8.50761 211.254
8.55235 468.708
8.59709 1235.5
8.64183 2144.7
8.68658 971.529
8.73134 166.786
8.77609 101.771
8.82083 94.7884
8.86558 92.2809
8.91033 91.6725
8.9551 90.7373
8.99985 86.7558
9.04461 85.8063
9.08936 85.1757
9.13412 84.3393
9.17888 83.671
9.22365 84.1884
9.26841 83.8438
9.31318 85.371
9.35794 85.7134
9.4027 85.9221
9.44749 86.1287
9.49226 86.2708
9.53703 88.0159
9.5818 89.8359
9.62657 93.7809
9.67134 96.5546
9.71614 94.9654
9.76091 96.9025
9.80569 100.157
9.85047 102.903
9.89525 117.276
9.94005 135.396
9.98484 222.703
10.0296 412.494
10.0744 893.174
10.1192 1721.14
10.164 1604.76
10.2088 395.2
10.2536 129.413
10.2984 113.261
10.3432 112.489
10.388 108.393
10.4328 131.918
10.4776 180.093
10.5224 304.375
10.5672 504.231
10.612 490.432
10.6568 200.467
10.7017 97.6719
10.7465 88.3476
10.7913 84.7242
10.8361 82.6329
10.8809 80.5186
10.9257 79.1382
10.9706 79.2267
11.0154 76.0162
11.0602 73.9427
11.105 72.9402
11.1499 74.2116
11.1947 77.0707
11.2395 72.133
11.2844 70.3351
11.3292 68.091
11.374 67.3883
11.4189 66.848
11.4637 66.0355
11.5086 66.0839
11.5534 67.2291
11.5983 65.5618
11.6431 64.4167
11.688 64.0882
11.7328 63.8868
11.7777 64.0485
11.8225 63.8415
11.8674 63.2544
11.9122 63.9166
11.9571 64.3896
12.002 66.0161
12.0468 72.5981
12.0917 84.6432
12.1366 110.053
12.1814 157.417
12.2263 200.86
12.2712 168.15
12.3161 91.3178
12.3609 68.7077
12.4058 65.2461
12.4507 65.6347
12.4956 65.8518
12.5405 65.618
12.5853 66.5974
12.6302 70.2603
12.6751 73.4093
12.72 69.6646
12.7649 68.9856
12.8098 69.9183
12.8547 71.0954
12.8996 72.5153
12.9445 74.0816
12.9894 75.9262
13.0343 77.7988
13.0792 82.4243
13.1242 98.3233
13.1691 122.679
13.214 164.023
13.2589 252.779
13.3038 369.273
13.3487 418.467
13.3937 257.033
13.4386 123.655
13.4835 114.139
13.5285 131.464
13.5734 172.366
13.6183 255.078
13.6633 339.741
13.7082 336.559
13.7531 185.171
13.7981 97.3801
13.843 83.187
13.888 81.2804
13.9329 78.6728
13.9779 77.4406
14.0228 75.7949
14.0678 74.3757
14.1127 73.9356
14.1577 73.3581
14.2027 72.7525
14.2476 71.8965
14.2926 71.3467
14.3376 71.8285
14.3825 71.1112
14.4275 70.0118
14.4725 70.021
14.5175 70.5263
14.5624 70.2922
14.6074 71.7994
14.6524 72.1617
14.6974 72.0347
14.7424 76.1601
14.7874 84.0476
14.8324 95.7482
14.8774 118.951
14.9224 158.724
14.9674 203.614
15.0124 213.758
15.0574 145.692
15.1024 89.9768
15.1474 73.5857
15.1924 71.4237
15.2374 70.9498
15.2824 70.186
15.3274 68.8406
15.3725 68.2042
15.4175 67.7466
15.4625 67.328
15.5076 67.284
15.5526 67.2813
15.5976 67.6905
15.6426 70.4383
15.6877 76.8976
15.7327 85.1474
15.7778 101.545
15.8228 131.386
15.8679 168.776
15.9129 190.362
15.958 153.519
16.003 94.1608
16.0481 68.0469
16.0931 64.6744
16.1382 62.9024
16.1833 61.3515
16.2283 59.9496
16.2734 59.458
16.3185 59.0812
16.3636 59.0247
16.4086 57.8855
16.4537 57.1536
16.4988 56.592
16.5439 56.4637
16.589 56.165
16.6341 55.9382
16.6792 55.3679
16.7243 55.7843
16.7694 55.858
16.8145 55.6374
16.8596 55.9587
16.9047 56.8547
16.9498 57.1646
16.9949 56.393
17.04 57.5256
17.0851 58.823
17.1302 60.4672
17.1754 63.5861
17.2205 68.8804
17.2656 75.5024
17.3108 82.586
17.3559 82.3395
17.401 71.557
17.4462 63.1332
17.4913 60.3759
17.5365 60.2228
17.5815 60.4933
17.6268 60.7669
17.6718 61.632
17.7171 61.8999
17.7622 62.8318
17.8074 63.7877
17.8525 67.3246
17.8977 71.431
17.9428 77.4144
17.9881 87.1347
18.0331 103.12
18.0784 122.385
18.1237 139.831
18.1688 132.063
18.214 105.043
18.2591 88.7602
18.3044 92.1256
18.3495 100.581
18.3948 106.3
18.4399 96.6614
18.4852 77.7457
18.5303 66.5332
18.5756 63.0016
18.6207 62.4207
18.666 61.5914
18.7112 60.6464
18.7565 60.1246
18.8016 59.6828
18.8469 59.1134
18.892 58.6265
18.9374 58.4897
18.9825 58.1376
19.0278 57.8875
19.073 58.213
19.1183 58.7927
19.1635 59.4527
19.2088 60.9601
19.254 63.9022
19.2993 67.8802
19.3447 73.033
19.3898 76.5442
19.4352 73.1259
19.4804 63.7294
19.5257 57.4152
19.5709 54.9836
19.6163 54.7933
19.6615 54.8108
19.7068 54.3734
19.752 54.2274
19.7974 54.8455
19.8426 55.8426
19.888 56.3974
19.9332 57.6685
19.9786 60.43
20.0238 63.9268
20.0692 68.1292
20.1144 70.6114
20.1598 68.9295
20.205 64.637
20.2504 63.1864
20.2957 64.6408
20.3411 66.2323
20.3863 64.5441
20.4318 58.8074
20.477 54.1299
20.5224 52.0437
20.5677 51.5361
20.6131 51.1386
20.6586 50.5032
20.7038 50.3741
20.7493 49.9615
20.7945 49.762
20.84 49.7564
20.8853 49.5357
20.9307 49.4857
20.976 49.6511
21.0215 49.3965
21.0668 49.9458
21.1122 50.386
21.1575 50.9865
21.203 51.6146
21.2483 52.1385
21.2938 52.3583
21.3391 50.771
21.3846 49.8831
21.4299 49.2956
21.4754 49.2634
21.5207 49.4263
21.5662 50.1195
21.6116 50.6166
21.6571 51.0675
21.7024 52.1895
21.7479 54.2112
21.7933 56.8721
21.8388 59.9643
21.8843 63.4002
21.9297 65.4278
21.9752 63.8518
22.0206 60.1721
22.0661 57.0232
22.1115 56.5806
22.157 56.6082
22.2024 54.8845
22.248 52.1423
22.2933 50.7177
22.3389 49.9432
22.3843 49.6926
22.4299 49.6234
22.4753 49.5605
22.5208 49.5268
22.5662 49.2893
22.6118 49.7044
22.6572 50.1234
22.7028 50.4205
22.7483 50.7678
22.7939 51.548
22.8393 53.1318
22.8849 54.8262
22.9303 56.5619
22.9759 58.3049
23.0214 57.7725
23.067 55.0768
23.1126 51.8446
23.1581 49.9405
23.2037 49.7804
23.2492 50.0439
23.2948 49.8684
23.3403 50.3125
23.3859 51.0205
23.4314 51.9784
23.477 53.6881
23.5225 55.6284
23.5682 57.4119
23.6137 58.2397
23.6593 56.0606
23.7048 52.1974
23.7505 48.9162
23.796 47.3469
23.8417 46.6486
23.8872 46.2636
23.9329 45.9708
23.9784 45.5674
24.0241 45.397
24.0697 45.2423
24.1154 44.8321
24.1609 44.7108
24.2066 44.4888
24.2522 44.478
24.2979 44.1676
24.3434 44.0448
24.3892 43.9167
24.4349 43.7675
24.4805 43.5167
24.5262 43.8288
24.5718 43.5913
24.6175 43.7223
24.6631 43.5713
24.7089 43.2386
24.7545 43.0326
24.8002 43.0459
24.8458 42.8448
24.8916 42.7536
24.9372 43.0396
24.983 43.3683
25.0286 43.7158
25.0744 44.0469
25.12 44.3965
25.1658 45.1093
25.2114 45.3739
25.2572 45.3828
25.3029 45.3377
25.3487 45.5685
25.3943 45.1745
25.4402 44.0667
25.4858 43.0429
25.5316 42.1031
25.5773 41.6656
25.6231 41.5473
25.669 41.2274
25.7147 41.2282
25.7605 41.227
25.8062 41.1712
25.8521 41.3649
25.8977 41.2672
25.9436 41.6049
25.9893 41.5323
26.0352 41.9769
26.0809 42.2119
26.1268 42.3804
26.1725 42.0657
26.2184 41.4242
26.2641 41.0596
26.31 40.7619
26.3557 40.7439
26.4017 40.799
26.4474 41.0976
26.4933 41.4589
26.5391 41.8459
26.585 42.3012
26.6308 42.6278
26.6767 42.8773
26.7225 42.6099
26.7684 42.0422
26.8142 41.3927
26.8601 41.0013
26.9059 40.7704
26.9519 40.1294
26.9979 39.8091
27.0437 39.6358
27.0896 39.4352
27.1354 39.4784
27.1814 39.3094
27.2272 39.1191
27.2732 39.1737
27.3191 39.0114
27.3651 39.1834
27.4109 38.9359
27.4569 39.1597
27.5027 39.2381
27.5488 39.1238
27.5946 39.0051
27.6407 38.7645
27.6865 38.6685
27.7326 38.5354
27.7784 38.5968
27.8245 38.4902
27.8703 38.5846
27.9164 38.9613
27.9623 39.1281
28.0084 39.38
28.0543 39.6279
28.1003 39.6065
28.1462 39.3508
28.1923 38.9686
28.2384 38.5182
28.2843 38.1279
28.3304 37.6141
28.3764 37.2122
28.4225 36.9403
28.4684 36.8086
28.5145 36.6013
28.5605 36.4724
28.6066 36.228
28.6526 36.2608
28.6987 36.2774
28.7447 36.0012
28.7908 35.9405
28.8368 35.9524
28.8829 35.9504
28.9289 35.8886
28.9751 35.7421
29.0211 35.4758
29.0673 35.2656
29.1133 35.1383
29.1595 34.9515
29.2055 34.9859
29.2517 34.9142
29.2977 34.7847
29.3439 34.7764
29.3899 34.7144
29.4361 34.6726
29.4824 34.5272
29.5284 34.2469
29.5746 33.8763
29.6207 33.6689
29.6669 33.649
29.713 33.6029
29.7593 33.4698
29.8053 33.3751
29.8516 33.2145
29.8977 33.2782
29.9439 33.0801
29.99 33.1987
30.0363 32.9557
30.0824 33.1915
30.1287 32.9259
30.1748 32.8458
30.2211 32.8742
30.2673 32.7648
30.3136 32.9488
30.3597 32.7694
30.406 32.7284
30.4522 32.5206
30.4985 32.6603
30.5447 32.6461
30.591 32.5591
30.6372 32.6525
30.6835 32.5591
30.7297 32.8039
30.7761 32.5929
30.8224 32.504
30.8686 32.3896
30.915 32.1173
30.9612 31.9645
31.0076 31.8719
31.0538 31.6241
31.1002 31.5914
31.1464 31.4791
31.1928 31.3525
31.2391 31.403
31.2855 31.3961
31.3317 31.3842
31.3781 31.4824
31.4244 31.2794
31.4708 31.317
31.5171 31.3266
31.5636 31.3011
31.6098 30.8684
31.6563 30.8571
31.7026 30.7662
31.7491 30.5999
31.7953 30.6448
31.8418 30.6463
31.8881 30.611
31.9346 30.5735
31.9809 30.4794
32.0275 30.4053
32.074 30.2433
32.1203 30.0589
32.1668 29.9871
32.2132 29.8702
32.2597 29.7413
32.306 29.671
32.3526 29.4063
32.399 29.3531
32.4455 29.2398
32.4919 29.0846
32.5385 29.0762
32.5848 29.0619
32.6314 28.9585
32.6778 28.8528
32.7244 28.7026
32.7708 28.6024
32.8174 28.6797
32.8638 28.5207
32.9104 28.4608
32.9569 28.4861
33.0035 28.2729
33.0499 28.3567
33.0966 28.2878
33.143 28.1391
33.1897 28.1425
33.2361 28.0506
33.2828 28.0065
33.3293 27.833
33.3759 27.791
33.4226 27.6775
33.4691 27.3902
33.5158 27.5095
33.5623 27.2946
33.609 27.2271
33.6555 27.0621
33.7022 26.9903
33.7487 26.9578
33.7954 26.9138
33.842 26.8028
33.8887 26.7274
33.9353 26.6462
33.982 26.5651
34.0286 26.5412
34.0753 26.4485
34.1219 26.2134
34.1687 26.2763
34.2152 26.2356
34.262 26.0993
34.3086 25.994
34.3554 25.8543
34.402 25.7987
34.4488 25.7187
34.4954 25.6311
34.5422 25.618
34.5889 25.4536
34.6357 25.3788
34.6825 25.2719
34.7292 25.2534
34.776 25.0998
34.8227 25.1045
34.8695 25.0848
34.9162 24.9509
34.9631 24.9098
35.0098 24.8769
35.0566 24.7579
35.1033 24.7247
35.1502 24.7224
35.1969 24.6194
35.2438 24.5372
35.2906 24.5068
35.3375 24.4162
35.3842 24.379
35.4311 24.2852
35.4779 24.352
35.5248 24.2724
35.5716 24.0969
35.6185 24.1132
35.6653 23.9505
35.7123 23.8635
35.759 23.8601
35.806 23.7621
35.8528 23.5369
35.8998 23.6019
35.9468 23.4608
35.9936 23.4704
36.0406 23.4055
36.0874 23.4095
36.1345 23.2544
36.1813 23.1622
36.2283 23.0726
36.2752 23.0305
36.3222 22.9659
36.3691 22.9319
36.4161 22.7793
36.463 22.7788
36.5101 22.7591
36.557 22.6196
36.6041 22.5519
36.651 22.5332
36.6981 22.4548
36.745 22.4032
36.7921 22.3106
36.839 22.2365
36.8861 22.1846
36.9331 22.1274
36.9802 21.9897
37.0272 21.934
37.0743 21.8382
37.1213 21.8393
37.1684 21.6896
37.2154 21.7211
37.2626 21.5632
37.3098 21.4917
37.3568 21.4628
37.404 21.4251
37.451 21.3419
37.4982 21.2602
37.5452 21.2039
37.5924 21.1588
37.6395 21.1361
37.6867 21.0194
37.7337 20.8862
37.781 20.833
37.8281 20.8232
37.8753 20.6831
37.9224 20.6311
37.9697 20.5559
38.0168 20.4926
38.064 20.4526
38.1111 20.3901
38.1584 20.2732
38.2056 20.2215
38.2529 20.146
38.3 20.1907
38.3473 20.1244
38.3945 19.9711
38.4418 19.9913
38.489 19.8933
38.5363 19.7956
38.5837 19.7589
38.6309 19.7301
38.6782 19.6061
38.7254 19.5293
38.7728 19.4389
38.82 19.4007
38.8674 19.3638
38.9146 19.3024
38.9621 19.2574
39.0093 19.2034
39.0567 19.0973
39.104 19.1448
39.1514 19.0227
39.1987 18.9983
39.2461 18.9188
39.2934 18.88
39.3409 18.7289
39.3882 18.7306
39.4356 18.6644
39.483 18.5493
39.5304 18.5117
39.5778 18.493
39.6253 18.4376
39.6726 18.4064
39.7201 18.3458
39.7675 18.2551
39.815 18.2247
39.8624 18.0734
39.9099 18.1322
39.9575 18.0446
40.0049 17.9678
40.0525 17.9019
40.0999 17.813
40.1474 17.8105
40.1949 17.7385
40.2425 17.7023
40.2899 17.5942
40.3375 17.5711
40.385 17.5138
40.4326 17.4352
40.48 17.4352
40.5277 17.3746
40.5752 17.3061
40.6228 17.2048
40.6703 17.1399
40.718 17.1379
40.7655 17.093
40.8132 16.9984
40.8607 17.0168
40.9084 17.0063
40.9559 16.8423
41.0036 16.7985
41.0512 16.7989
41.0989 16.7036
41.1465 16.6005
41.1942 16.6114
41.242 16.5036
41.2896 16.4816
41.3373 16.3765
41.3849 16.3292
41.4327 16.3407
41.4803 16.2638
41.5281 16.2109
41.5758 16.1429
41.6236 16.0315
41.6712 16.0778
41.7191 15.8726
41.7667 15.9107
41.8146 15.8771
41.8622 15.8556
41.9101 15.7208
41.9578 15.6591
42.0057 15.6419
42.0534 15.6358
42.1013 15.5625
42.149 15.533
42.1969 15.4686
42.2446 15.4127
42.2925 15.3068
42.3403 15.3124
42.3882 15.2924
42.436 15.1998
42.4839 15.1734
42.5319 15.0971
42.5797 15.0645
42.6277 15.0033
42.6755 14.9575
42.7235 14.8512
42.7713 14.8355
42.8193 14.8094
42.8671 14.7323
42.9152 14.7169
42.963 14.5871
43.0111 14.6115
43.0589 14.5298
43.107 14.4871
43.1549 14.464
43.2029 14.3429
43.2508 14.4063
43.2989 14.2951
43.3468 14.2297
43.3949 14.1553
43.4429 14.1456
43.491 14.0842
43.5389 14.0547
43.5871 14.0077
43.635 13.9578
43.6832 13.8836
43.7312 13.7941
43.7793 13.7869
43.8273 13.7788
43.8755 13.6907
43.9237 13.7191
43.9717 13.6244
44.0199 13.5759
44.068 13.5239
44.1162 13.4692
44.1642 13.4167
44.2125 13.3962
44.2606 13.3212
44.3088 13.3053
44.3569 13.2562
44.4052 13.2303
44.4533 13.1668
44.5016 13.104
44.5497 13.0997
44.598 13.0519
44.6461 12.9778
44.6945 12.9516
44.7426 12.8233
44.791 12.8296
44.8391 12.8036
44.8875 12.7948
44.9357 12.6629
44.984 12.6528
45.0322 12.5928
45.0806 12.5608
45.1288 12.5352
45.1773 12.4405
45.2257 12.4275
45.2739 12.35
45.3224 12.3429
45.3706 12.3445
45.4191 12.2332
45.4673 12.1918
45.5158 12.1634
45.5641 12.1503
45.6126 12.1125
45.6609 12.0208
45.7094 11.9713
45.7577 11.929
45.8063 11.9046
45.8546 11.8728
45.9031 11.8005
45.9515 11.794
46.0001 11.7399
46.0484 11.6783
46.097 11.6881
46.1454 11.6099
46.194 11.591
46.2424 11.528
46.291 11.4593
46.3395 11.4612
46.3881 11.4042
46.4365 11.3694
46.4852 11.3173
46.5337 11.2962
46.5823 11.2562
46.631 11.216
46.6795 11.1783
46.7282 11.1496
46.7767 11.0657
46.8254 11.0164
46.8739 11.0162
46.9226 10.9483
46.9712 10.9271
47.0199 10.8777
47.0685 10.8204
47.1173 10.7882
47.1658 10.751
47.2146 10.7033
47.2632 10.6684
47.312 10.6197
47.3606 10.5761
47.4095 10.5361
47.4581 10.5401
47.5069 10.4556
47.5556 10.4402
47.6044 10.3554
47.6531 10.3574
47.702 10.2744
47.7507 10.305
47.7996 10.2195
47.8483 10.1887
47.8972 10.1645
47.9461 10.1345
47.9948 10.0437
48.0438 10.0535
48.0925 10.044
48.1415 10.017
48.1902 9.97579
48.2392 9.92847
48.288 9.88243
48.337 9.848
48.3858 9.81066
48.4348 9.79786
48.4837 9.77236
48.5327 9.7298
48.5815 9.65893
48.6306 9.65628
48.6795 9.63486
48.7285 9.55714
48.7774 9.49667
48.8265 9.53274
48.8754 9.43186
48.9245 9.44781
48.9734 9.38609
49.0226 9.36645
49.0715 9.27864
49.1206 9.29135
49.1696 9.24644
49.2188 9.18623
49.2679 9.206
49.3169 9.0888
49.3661 9.09464
49.4151 9.09197
49.4643 9.00194
49.5134 9.00397
49.5626 8.92981
49.6117 8.9405
49.6609 8.90617
49.71 8.82699
49.7592 8.84633
49.8083 8.79096
49.8576 8.7594
49.9067 8.7368
49.956 8.74294
50.0052 8.68613
50.0545 8.63754
50.1036 8.59065
50.153 8.5294
50.2022 8.54462
50.2515 8.49052
50.3007 8.44892
50.3501 8.43937
50.3993 8.39825
50.4487 8.38095
50.498 8.33403
50.5474 8.30965
50.5966 8.28494
50.6461 8.20017
50.6955 8.20409
50.7448 8.19751
50.7943 8.16312
50.8436 8.12051
50.8931 8.06537
50.9424 8.05009
50.9919 7.98371
51.0413 7.98902
51.0908 7.94492
51.1402 7.90565
51.1897 7.88029
51.2391 7.84687
51.2887 7.78825
51.3381 7.76626
51.3877 7.80598
51.4371 7.72427
51.4867 7.70109
51.5362 7.64881
51.5858 7.66967
51.6353 7.62206
51.6849 7.52841
51.7344 7.55599
51.7841 7.5063
51.8336 7.48297
51.8833 7.44352
51.9328 7.43432
51.9826 7.34718
52.0323 7.34948
52.0818 7.32104
52.1316 7.25014
52.1812 7.26018
52.231 7.24328
52.2806 7.1968
52.3304 7.17455
52.38 7.12907
52.4298 7.11916
52.4794 7.05121
52.5293 7.04033
52.5789 7.03258
52.6288 6.99688
52.6785 6.92229
52.7284 6.91938
52.7781 6.9639
52.828 6.85751
52.8777 6.85985
52.9276 6.81774
52.9774 6.78348
53.0273 6.7463
53.0771 6.70677
53.1271 6.72489
53.1769 6.67436
53.2269 6.60862
53.2767 6.59566
53.3267 6.59776
53.3765 6.58518
53.4266 6.54175
53.4766 6.48107
53.5265 6.4612
53.5765 6.41398
53.6264 6.41899
53.6765 6.36346
53.7264 6.37352
53.7765 6.35946
53.8265 6.31528
53.8766 6.27931
53.9266 6.24477
53.9767 6.25626
54.0267 6.19933
54.0769 6.18015
54.1269 6.1479
54.1771 6.11526
54.2271 6.06944
54.2773 6.02648
54.3274 6.02468
54.3776 6.00378
54.4277 5.98752
54.478 5.91184
54.528 5.9023
54.5783 5.81016
54.6285 5.83318
54.6788 5.74245
54.7289 5.6987
54.7792 5.65123
54.8296 5.66272
54.8798 5.60788
54.9301 5.51381
54.9803 5.57059
55.0307 5.54698
55.0809 5.45473
55.1314 5.4438
55.1816 5.40418
55.232 5.32403
55.2823 5.26362
55.3328 5.17938
55.383 5.13486
55.4335 5.10871
55.4838 5.06319
55.5344 5.09505
55.5847 4.96766
55.6352 4.97416
55.6856 4.98159
55.7361 4.87911