File: XRD/Ni3Fe_FD0002.xy
TT I
1.27165 35.1738
1.31627 36.2377
1.36089 36.2235
1.40551 32.9205
1.45013 31.888
1.49476 31.3412
1.53938 30.4636
1.584 28.8098
1.62863 27.7744
1.67325 27.3552
1.71787 26.7877
1.7625 26.4548
1.80712 25.9541
1.85174 25.5117
1.89636 25.6027
1.94099 26.0416
1.98562 25.3414
2.03025 25.6019
2.07487 25.1873
2.11949 25.1147
2.16411 25.6393
2.20874 26.8562
2.25338 26.1129
2.298 25.994
2.34263 26.0416
2.38725 26.003
2.43188 25.8697
2.4765 26.8396
2.52115 26.4317
2.56577 26.7719
2.6104 27.9016
2.65503 28.0175
2.69965 30.4032
2.7443 31.5731
2.78893 34.0057
2.83356 36.2179
2.87818 39.8394
2.92281 44.1908
2.96744 49.3219
3.01209 57.9338
3.05672 65.1229
3.10135 76.7057
3.14599 83.8558
3.19062 86.7492
3.23527 82.206
3.2799 72.7533
3.32454 60.7667
3.36917 52.0706
3.4138 46.6392
3.45844 41.9926
3.50309 40.3729
3.54773 39.3392
3.59237 39.8216
3.637 40.8009
3.68164 41.6996
3.7263 42.1046
3.77094 42.0261
3.81558 41.5828
3.86022 41.4794
3.90486 42.6503
3.9495 43.706
3.99416 45.1687
4.0388 47.5029
4.08344 50.7007
4.12809 54.1292
4.17273 59.3073
4.21738 65.5384
4.26204 71.8647
4.30669 77.5191
4.35133 79.0955
4.39598 76.9793
4.44063 72.6682
4.4853 68.8873
4.52995 65.7944
4.5746 61.1843
4.61925 57.7222
4.6639 55.0653
4.70855 54.7794
4.75322 55.2916
4.79788 56.4238
4.84253 59.7577
4.88719 63.691
4.93184 68.9561
4.97652 76.3123
5.02118 89.7665
5.06583 112.528
5.11049 134.507
5.15515 168.653
5.19981 243.583
5.24449 461.084
5.28916 949.249
5.33382 2418.2
5.37848 4201.73
5.42315 1709.51
5.46783 461.663
5.5125 240.417
5.55716 165.838
5.60183 129.613
5.6465 112.551
5.69117 104.523
5.73586 99.0097
5.78053 94.5045
5.8252 92.9374
5.86988 96.4871
5.91455 104.525
5.95924 119.282
6.00392 153.451
6.0486 229.761
6.09328 385.719
6.13795 650.917
6.18263 1223.25
6.22733 976.39
6.27201 400.886
6.3167 195.293
6.36138 119.134
6.40606 87.8511
6.45075 73.9396
6.49545 64.9729
6.54014 58.9496
6.58483 55.5447
6.62952 54.0379
6.67421 52.4444
6.71892 51.9933
6.76361 51.7177
6.8083 50.8515
6.853 50.1292
6.89769 49.519
6.94239 48.5773
6.98711 47.7173
7.03181 47.5481
7.07651 48.3203
7.12121 49.2316
7.16591 51.3481
7.21063 53.5252
7.25533 56.7405
7.30004 62.2363
7.34475 68.7727
7.38945 71.7427
7.43416 68.4761
7.47889 63.9709
7.5236 63.1667
7.56831 84.3096
7.61303 166.168
7.65774 113.246
7.70247 54.1938
7.74719 44.0845
7.79191 40.9256
7.83663 39.4361
7.88135 38.4784
7.92607 38.2016
7.97081 38.5626
8.01553 38.4391
8.06026 38.9656
8.10498 39.3604
8.14971 40.3381
8.19446 40.9384
8.23919 42.7668
8.28392 44.1999
8.32865 45.8674
8.37339 49.4539
8.41812 52.8373
8.46288 59.5877
8.50761 69.334
8.55235 88.3933
8.59709 134.115
8.64183 190.311
8.68658 283.704
8.73134 576.092
8.77609 803.868
8.82083 427.412
8.86558 180.277
8.91033 109.291
8.9551 82.3671
8.99985 70.9243
9.04461 64.1662
9.08936 59.8811
9.13412 57.5881
9.17888 57.2362
9.22365 61.6598
9.26841 89.826
9.31318 223.056
9.35794 229.828
9.4027 88.7676
9.44749 55.9166
9.49226 50.3212
9.53703 47.9775
9.5818 47.3808
9.62657 47.2427
9.67134 47.7006
9.71614 48.9167
9.76091 49.5637
9.80569 51.1265
9.85047 53.1626
9.89525 56.3553
9.94005 60.822
9.98484 68.7638
10.0296 82.8841
10.0744 113.135
10.1192 161.129
10.164 201.993
10.2088 337.411
10.2536 691.259
10.2984 790.839
10.3432 400.579
10.388 173.001
10.4328 107.224
10.4776 85.0182
10.5224 80.2499
10.5672 86.3131
10.612 91.1342
10.6568 115.664
10.7017 210.475
10.7465 307.389
10.7913 220.499
10.8361 102.117
10.8809 59.5397
10.9257 48.6731
10.9706 44.4138
11.0154 42.2807
11.0602 41.0692
11.105 40.2453
11.1499 39.3917
11.1947 39.1198
11.2395 38.7804
11.2844 38.6882
11.3292 38.4317
11.374 38.0118
11.4189 38.018
11.4637 37.5862
11.5086 36.9238
11.5534 36.6354
11.5983 36.3635
11.6431 36.3558
11.688 36.0546
11.7328 36.0646
11.7777 35.7514
11.8225 35.9555
11.8674 36.1207
11.9122 37.568
11.9571 40.9112
12.002 57.8301
12.0468 93.6854
12.0917 84.2901
12.1366 51.466
12.1814 44.9302
12.2263 46.5053
12.2712 49.9201
12.3161 59.2264
12.3609 81.4484
12.4058 99.8656
12.4507 82.8279
12.4956 58.9287
12.5405 46.9492
12.5853 42.281
12.6302 39.3071
12.6751 38.5521
12.72 38.036
12.7649 38.5001
12.8098 38.4928
12.8547 38.1461
12.8996 38.121
12.9445 38.0137
12.9894 37.9603
13.0343 38.3003
13.0792 39.3919
13.1242 41.5362
13.1691 49.6092
13.214 60.1575
13.2589 60.8872
13.3038 63.5457
13.3487 68.3482
13.3937 78.5846
13.4386 109.09
13.4835 182.489
13.5285 240.934
13.5734 183.372
13.6183 112.532
13.6633 87.5802
13.7082 79.6832
13.7531 84.4801
13.7981 117.188
13.843 192.05
13.888 222.789
13.9329 141.644
13.9779 78.3335
14.0228 55.3563
14.0678 46.1937
14.1127 42.752
14.1577 42.6316
14.2027 51.3332
14.2476 79.0809
14.2926 90.6156
14.3376 58.9046
14.3825 40.5394
14.4275 36.7123
14.4725 35.549
14.5175 34.8714
14.5624 34.5409
14.6074 34.1951
14.6524 34.3473
14.6974 34.4665
14.7424 34.9821
14.7874 35.5207
14.8324 36.7191
14.8774 38.457
14.9224 42.2559
14.9674 46.0645
15.0124 48.4606
15.0574 52.3223
15.1024 64.4033
15.1474 94.3311
15.1924 133.54
15.2374 128.836
15.2824 87.3346
15.3274 58.0329
15.3725 45.8062
15.4175 40.8413
15.4625 38.3355
15.5076 37.2086
15.5526 36.3975
15.5976 35.9904
15.6426 35.6996
15.6877 35.7385
15.7327 36.3557
15.7778 37.7392
15.8228 40.6883
15.8679 44.1614
15.9129 46.2887
15.958 49.0253
16.003 56.3888
16.0481 75.424
16.0931 111.878
16.1382 141.952
16.1833 124.194
16.2283 83.8407
16.2734 54.4643
16.3185 41.9936
16.3636 37.0394
16.4086 34.4243
16.4537 32.8803
16.4988 31.9728
16.5439 31.3873
16.589 30.9431
16.6341 30.329
16.6792 29.9436
16.7243 29.9075
16.7694 29.7132
16.8145 29.616
16.8596 29.6644
16.9047 29.9289
16.9498 30.3241
16.9949 31.8814
17.04 36.5464
17.0851 40.0474
17.1302 36.5198
17.1754 32.1612
17.2205 31.4479
17.2656 31.8375
17.3108 32.5517
17.3559 32.5688
17.401 33.256
17.4462 35.3537
17.4913 40.3231
17.5365 48.7271
17.5815 53.6357
17.6268 47.1623
17.6718 38.9843
17.7171 34.5816
17.7622 33.2045
17.8074 33.5236
17.8525 35.6649
17.8977 40.1978
17.9428 41.5264
17.9881 38.0025
18.0331 37.456
18.0784 39.5486
18.1237 41.0865
18.1688 41.9633
18.214 45.2719
18.2591 53.0691
18.3044 71.5712
18.3495 100.852
18.3948 115.199
18.4399 93.3972
18.4852 66.5366
18.5303 57.9323
18.5756 62.6857
18.6207 77.0402
18.666 81.6545
18.7112 68.4048
18.7565 51.531
18.8016 40.9675
18.8469 36.06
18.892 33.9139
18.9374 32.5547
18.9825 31.9457
19.0278 31.4968
19.073 31.2528
19.1183 30.9188
19.1635 30.7354
19.2088 31.0127
19.254 31.487
19.2993 32.4335
19.3447 33.3545
19.3898 35.5596
19.4352 41.3334
19.4804 48.6251
19.5257 49.7312
19.5709 46.0624
19.6163 48.5631
19.6615 52.2785
19.7068 48.1635
19.752 40.3454
19.7974 35.0517
19.8426 32.3667
19.888 30.8326
19.9332 30.3477
19.9786 30.2085
20.0238 30.205
20.0692 30.9301
20.1144 30.9029
20.1598 31.1754
20.205 31.7915
20.2504 33.8625
20.2957 37.6643
20.3411 43.7847
20.3863 49.7616
20.4318 48.5306
20.477 42.6515
20.5224 39.531
20.5677 41.8111
20.6131 46.8248
20.6586 46.3893
20.7038 39.5938
20.7493 33.5804
20.7945 30.8672
20.84 30.1982
20.8853 30.9987
20.9307 33.3829
20.976 33.5341
21.0215 30.3224
21.0668 28.1221
21.1122 27.2458
21.1575 27.019
21.203 26.9885
21.2483 26.8661
21.2938 26.8682
21.3391 26.7827
21.3846 27.0451
21.4299 27.3952
21.4754 28.8188
21.5207 30.878
21.5662 32.2715
21.6116 31.817
21.6571 30.3479
21.7024 28.9415
21.7479 28.2024
21.7933 28.1956
21.8388 28.7516
21.8843 29.5652
21.9297 29.7938
21.9752 30.1684
22.0206 31.483
22.0661 33.2023
22.1115 36.5717
22.157 42.4878
22.2024 50.6768
22.248 54.6485
22.2933 51.8952
22.3389 46.366
22.3843 42.7459
22.4299 41.5464
22.4753 40.2956
22.5208 36.5427
22.5662 32.6577
22.6118 30.4877
22.6572 29.2443
22.7028 28.7755
22.7483 28.2412
22.7939 28.2342
22.8393 28.6235
22.8849 29.4136
22.9303 30.7149
22.9759 31.777
23.0214 31.2128
23.067 30.2788
23.1126 30.4957
23.1581 31.7597
23.2037 34.9266
23.2492 40.4922
23.2948 45.8117
23.3403 45.8537
23.3859 39.9703
23.4314 34.6423
23.477 32.2496
23.5225 32.373
23.5682 34.036
23.6137 35.3423
23.6593 34.5005
23.7048 32.5806
23.7505 32.5231
23.796 34.148
23.8417 38.4239
23.8872 45.0723
23.9329 49.7343
23.9784 46.9278
24.0241 39.0476
24.0697 33.1205
24.1154 30.0565
24.1609 28.7161
24.2066 28.2459
24.2522 27.8413
24.2979 26.9344
24.3434 26.0811
24.3892 25.5558
24.4349 25.2719
24.4805 24.9852
24.5262 24.9741
24.5718 24.9413
24.6175 24.7676
24.6631 25.0223
24.7089 25.0308
24.7545 25.5501
24.8002 26.6954
24.8458 27.5403
24.8916 27.1656
24.9372 26.2309
24.983 25.8156
25.0286 25.3035
25.0744 24.9884
25.12 24.8122
25.1658 24.9548
25.2114 24.996
25.2572 25.2026
25.3029 25.694
25.3487 26.3786
25.3943 27.3478
25.4402 28.7004
25.4858 30.1853
25.5316 31.1173
25.5773 31.3067
25.6231 31.4955
25.669 32.9467
25.7147 34.4262
25.7605 33.4428
25.8062 30.3354
25.8521 27.7077
25.8977 26.2946
25.9436 26.1212
25.9893 26.3234
26.0352 26.4672
26.0809 25.7613
26.1268 25.075
26.1725 24.6482
26.2184 24.6942
26.2641 24.6779
26.31 25.1757
26.3557 26.2381
26.4017 27.4606
26.4474 29.1603
26.4933 29.8581
26.5391 29.0197
26.585 27.3889
26.6308 26.3237
26.6767 25.5298
26.7225 25.2974
26.7684 25.3948
26.8142 25.6759
26.8601 26.2993
26.9059 27.1549
26.9519 28.9913
26.9979 31.6918
27.0437 33.2873
27.0896 33.229
27.1354 32.3245
27.1814 31.0291
27.2272 29.3342
27.2732 27.6496
27.3191 25.8685
27.3651 24.8331
27.4109 24.1622
27.4569 23.9124
27.5027 23.624
27.5488 23.6157
27.5946 23.612
27.6407 23.7301
27.6865 24.0319
27.7326 23.9181
27.7784 23.9927
27.8245 24.2668
27.8703 24.9156
27.9164 25.7337
27.9623 25.8662
28.0084 25.4602
28.0543 24.9289
28.1003 24.6156
28.1462 25.0913
28.1923 25.7408
28.2384 26.3597
28.2843 26.3965
28.3304 26.5475
28.3764 27.6329
28.4225 29.6941
28.4684 31.2508
28.5145 30.649
28.5605 29.5372
28.6066 28.6206
28.6526 28.1682
28.6987 27.2726
28.7447 25.8613
28.7908 24.5852
28.8368 23.5388
28.8829 22.789
28.9289 22.444
28.9751 22.1303
29.0211 21.8531
29.0673 21.8573
29.1133 21.8785
29.1595 21.9445
29.2055 22.2162
29.2517 22.8864
29.2977 23.3076
29.3439 23.453
29.3899 22.8662
29.4361 22.2419
29.4824 21.7396
29.5284 21.3629
29.5746 21.3016
29.6207 21.3014
29.6669 21.5028
29.713 21.8574
29.7593 22.4652
29.8053 23.0827
29.8516 23.1592
29.8977 22.7411
29.9439 21.8896
29.99 21.223
30.0363 20.7745
30.0824 20.6956
30.1287 20.7129
30.1748 20.6906
30.2211 21.0118
30.2673 21.1358
30.3136 21.4147
30.3597 21.0645
30.406 20.5226
30.4522 20.4031
30.4985 20.5006
30.5447 20.7113
30.591 20.9796
30.6372 21.5051
30.6835 21.3955
30.7297 21.3089
30.7761 21.0537
30.8224 20.798
30.8686 20.7203
30.915 20.7124
30.9612 21.0102
31.0076 21.3986
31.0538 22.1784
31.1002 23.2915
31.1464 24.0012
31.1928 24.3328
31.2391 24.141
31.2855 23.4941
31.3317 22.7407
31.3781 21.9101
31.4244 21.1622
31.4708 20.5606
31.5171 20.4119
31.5636 20.2141
31.6098 20.1518
31.6563 20.0683
31.7026 20.3667
31.7491 20.6471
31.7953 21.0321
31.8418 21.2828
31.8881 22.0055
31.9346 22.4433
31.9809 22.2933
32.0275 21.5928
32.074 20.908
32.1203 20.4258
32.1668 20.384
32.2132 20.4913
32.2597 20.5767
32.306 20.9316
32.3526 21.231
32.399 21.8381
32.4455 21.819
32.4919 21.4797
32.5385 21.0021
32.5848 20.4496
32.6314 20.0654
32.6778 19.6756
32.7244 19.1771
32.7708 18.8622
32.8174 18.6878
32.8638 18.4557
32.9104 18.473
32.9569 18.3176
33.0035 18.2884
33.0499 18.372
33.0966 18.581
33.143 18.7006
33.1897 18.7786
33.2361 18.5201
33.2828 18.4019
33.3293 18.1972
33.3759 18.165
33.4226 18.2278
33.4691 18.2614
33.5158 18.5353
33.5623 18.9419
33.609 19.2632
33.6555 19.6104
33.7022 19.7297
33.7487 19.7686
33.7954 19.6486
33.842 19.2813
33.8887 18.7158
33.9353 18.1761
33.982 17.8529
34.0286 17.7359
34.0753 17.6483
34.1219 17.5261
34.1687 17.4551
34.2152 17.3735
34.262 17.4221
34.3086 17.607
34.3554 17.6873
34.402 17.6971
34.4488 17.5458
34.4954 17.2544
34.5422 17.0739
34.5889 16.9983
34.6357 16.8597
34.6825 16.8413
34.7292 16.867
34.776 17.0122
34.8227 17.159
34.8695 17.1216
34.9162 16.8515
34.9631 16.666
35.0098 16.5314
35.0566 16.2571
35.1033 16.1409
35.1502 16.116
35.1969 16.1241
35.2438 15.9952
35.2906 16.0647
35.3375 16.103
35.3842 16.1672
35.4311 16.1925
35.4779 16.2231
35.5248 16.2148
35.5716 16.1503
35.6185 16.1941
35.6653 16.2409
35.7123 16.1945
35.759 16.4562
35.806 16.6189
35.8528 16.9257
35.8998 17.2554
35.9468 17.5015
35.9936 17.533
36.0406 17.467
36.0874 17.1866
36.1345 16.7864
36.1813 16.4307
36.2283 16.0906
36.2752 15.8636
36.3222 15.7869
36.3691 15.6383
36.4161 15.4413
36.463 15.5208
36.5101 15.524
36.557 15.6424
36.6041 15.6765
36.651 15.858
36.6981 15.9871
36.745 15.8128
36.7921 15.552
36.839 15.2744
36.8861 15.222
36.9331 15.2322
36.9802 15.3434
37.0272 15.4234
37.0743 15.5313
37.1213 15.5608
37.1684 15.5918
37.2154 15.3592
37.2626 15.2372
37.3098 15.0264
37.3568 14.8331
37.404 14.6707
37.451 14.5726
37.4982 14.5702
37.5452 14.4257
37.5924 14.415
37.6395 14.421
37.6867 14.339
37.7337 14.2704
37.781 14.3126
37.8281 14.2415
37.8753 14.1835
37.9224 14.087
37.9697 14.0354
38.0168 14.0675
38.064 14.0311
38.1111 14.1151
38.1584 14.1324
38.2056 14.2027
38.2529 14.14
38.3 14.0064
38.3473 13.9542
38.3945 13.7855
38.4418 13.7255
38.489 13.54
38.5363 13.4502
38.5837 13.4389
38.6309 13.4587
38.6782 13.4283
38.7254 13.4816
38.7728 13.5277
38.82 13.5901
38.8674 13.5698
38.9146 13.5202
38.9621 13.3418
39.0093 13.3177
39.0567 13.2171
39.104 13.1952
39.1514 13.278
39.1987 13.3261
39.2461 13.3671
39.2934 13.3159
39.3409 13.1479
39.3882 12.9405
39.4356 12.8435
39.483 12.7626
39.5304 12.7423
39.5778 12.6568
39.6253 12.629
39.6726 12.6096
39.7201 12.5405
39.7675 12.5076
39.815 12.4555
39.8624 12.4627
39.9099 12.4946
39.9575 12.4097
40.0049 12.3707
40.0525 12.353
40.0999 12.2901
40.1474 12.3047
40.1949 12.2493
40.2425 12.3352
40.2899 12.3927
40.3375 12.391
40.385 12.4398
40.4326 12.4007
40.48 12.3271
40.5277 12.247
40.5752 12.1317
40.6228 12.0505
40.6703 12.0748
40.718 11.9983
40.7655 11.9449
40.8132 11.8864
40.8607 11.9051
40.9084 11.9322
40.9559 11.8416
41.0036 11.8713
41.0512 11.7586
41.0989 11.7643
41.1465 11.6875
41.1942 11.7513
41.242 11.7211
41.2896 11.8271
41.3373 11.8167
41.3849 11.7206
41.4327 11.6916
41.4803 11.485
41.5281 11.4561
41.5758 11.3543
41.6236 11.2875
41.6712 11.2576
41.7191 11.1839
41.7667 11.1364
41.8146 11.1595
41.8622 11.0901
41.9101 11.0492
41.9578 11.0574
42.0057 11.0258
42.0534 10.9817
42.1013 10.983
42.149 10.9864
42.1969 10.9752
42.2446 11.0194
42.2925 11.0777
42.3403 11.0452
42.3882 11.0137
42.436 10.947
42.4839 10.8176
42.5319 10.7491
42.5797 10.6326
42.6277 10.5918
42.6755 10.487
42.7235 10.4419
42.7713 10.4023
42.8193 10.3792
42.8671 10.3755
42.9152 10.2828
42.963 10.2965
43.0111 10.2505
43.0589 10.2394
43.107 10.1668
43.1549 10.1
43.2029 10.0348
43.2508 10.0576
43.2989 10.0199
43.3468 9.97341
43.3949 9.9605
43.4429 9.90154
43.491 9.78755
43.5389 9.7819
43.5871 9.767
43.635 9.76643
43.6832 9.72872
43.7312 9.67586
43.7793 9.67702
43.8273 9.62169
43.8755 9.58883
43.9237 9.59642
43.9717 9.51349
44.0199 9.51203
44.068 9.5345
44.1162 9.51066
44.1642 9.50981
44.2125 9.49245
44.2606 9.49432
44.3088 9.45101
44.3569 9.45305
44.4052 9.41688
44.4533 9.31006
44.5016 9.25965
44.5497 9.19961
44.598 9.19557
44.6461 9.17166
44.6945 9.14194
44.7426 9.1342
44.791 9.13022
44.8391 9.17831
44.8875 9.11375
44.9357 9.08675
44.984 9.00359
45.0322 8.97177
45.0806 9.01166
45.1288 8.97797
45.1773 8.98121
45.2257 8.92829
45.2739 8.87126
45.3224 8.85682
45.3706 8.7937
45.4191 8.72103
45.4673 8.69194
45.5158 8.66474
45.5641 8.58971
45.6126 8.60646
45.6609 8.55004
45.7094 8.54431
45.7577 8.46983
45.8063 8.45408
45.8546 8.47017
45.9031 8.4704
45.9515 8.41021
46.0001 8.37693
46.0484 8.39338
46.097 8.4033
46.1454 8.38291
46.194 8.36087
46.2424 8.30843
46.291 8.26557
46.3395 8.22169
46.3881 8.13475
46.4365 8.1339
46.4852 8.10483
46.5337 8.05719
46.5823 8.07461
46.631 8.0206
46.6795 7.99961
46.7282 8.01421
46.7767 7.97113
46.8254 7.90403
46.8739 7.86507
46.9226 7.849
46.9712 7.84048
47.0199 7.8396
47.0685 7.76649
47.1173 7.74892
47.1658 7.69809
47.2146 7.67244
47.2632 7.6324
47.312 7.58674
47.3606 7.57007
47.4095 7.56126
47.4581 7.52698
47.5069 7.50668
47.5556 7.43548
47.6044 7.43998
47.6531 7.45134
47.702 7.37717
47.7507 7.36736
47.7996 7.3048
47.8483 7.33656
47.8972 7.3265
47.9461 7.32016
47.9948 7.29541
48.0438 7.25819
48.0925 7.22022
48.1415 7.17052
48.1902 7.13968
48.2392 7.15703
48.288 7.09401
48.337 7.06532
48.3858 7.04658
48.4348 6.9634
48.4837 7.02822
48.5327 6.96854
48.5815 6.93478
48.6306 6.91586
48.6795 6.88442
48.7285 6.8456
48.7774 6.81794
48.8265 6.82836
48.8754 6.77185
48.9245 6.74954
48.9734 6.75967
49.0226 6.7266
49.0715 6.68056
49.1206 6.682
49.1696 6.63005
49.2188 6.62791
49.2679 6.58717
49.3169 6.58454
49.3661 6.5487
49.4151 6.49271
49.4643 6.49092
49.5134 6.49528
49.5626 6.47168
49.6117 6.41916
49.6609 6.4438
49.71 6.42191
49.7592 6.38602
49.8083 6.38524
49.8576 6.38127
49.9067 6.33554
49.956 6.31117
50.0052 6.29477
50.0545 6.2843
50.1036 6.23258
50.153 6.21957
50.2022 6.19156
50.2515 6.17923
50.3007 6.13723
50.3501 6.1387
50.3993 6.11642
50.4487 6.09048
50.498 6.06912
50.5474 6.06028
50.5966 6.03941
50.6461 6.00868
50.6955 6.00139
50.7448 5.95551
50.7943 5.91328
50.8436 5.91543
50.8931 5.87887
50.9424 5.85544
50.9919 5.81759
51.0413 5.81057
51.0908 5.78248
51.1402 5.78269
51.1897 5.72911
51.2391 5.73909
51.2887 5.68458
51.3381 5.68013
51.3877 5.69082
51.4371 5.60829
51.4867 5.62223
51.5362 5.62619
51.5858 5.57641
51.6353 5.54923
51.6849 5.52984
51.7344 5.50284
51.7841 5.47344
51.8336 5.48952
51.8833 5.45175
51.9328 5.41207
51.9826 5.39361
52.0323 5.3526
52.0818 5.36909
52.1316 5.294
52.1812 5.30132
52.231 5.28152
52.2806 5.26989
52.3304 5.26161
52.38 5.22315
52.4298 5.2003
52.4794 5.17816
52.5293 5.15224
52.5789 5.15465
52.6288 5.15025
52.6785 5.0875
52.7284 5.10865
52.7781 5.04199
52.828 5.08143
52.8777 5.02511
52.9276 4.98063
52.9774 4.98711
53.0273 4.96255
53.0771 4.92814
53.1271 4.94956
53.1769 4.89731
53.2269 4.90381
53.2767 4.87494
53.3267 4.88247
53.3765 4.78522
53.4266 4.80432
53.4766 4.78597
53.5265 4.76069
53.5765 4.74799
53.6264 4.71604
53.6765 4.66939
53.7264 4.68237
53.7765 4.67462
53.8265 4.61536
53.8766 4.62571
53.9266 4.59026
53.9767 4.57619
54.0267 4.56248
54.0769 4.50888
54.1269 4.4829
54.1771 4.45106
54.2271 4.47787
54.2773 4.40827
54.3274 4.40857
54.3776 4.37014
54.4277 4.3425
54.478 4.3041
54.528 4.26429
54.5783 4.21859
54.6285 4.19988
54.6788 4.13701
54.7289 4.11004
54.7792 4.13542
54.8296 4.07849
54.8798 4.06009
54.9301 4.01004
54.9803 4.01854
55.0307 3.93913
55.0809 3.92881
55.1314 3.92028
55.1816 3.86123
55.232 3.8284
55.2823 3.82449
55.3328 3.74268
55.383 3.71796
55.4335 3.65232
55.4838 3.64512
55.5344 3.60957
55.5847 3.56935
55.6352 3.57905
55.6856 3.59625
55.7361 3.58963