File: XRD/Ni3Fe_FD0321.xy
TT I
1.27165 7.74222
1.31627 7.1513
1.36089 6.54486
1.40551 6.13902
1.45013 6.55697
1.49476 6.52371
1.53938 5.70045
1.584 5.84704
1.62863 5.08279
1.67325 5.39016
1.71787 5.6368
1.7625 5.60306
1.80712 4.93974
1.85174 4.71586
1.89636 5.4052
1.94099 5.31086
1.98562 4.27903
2.03025 4.48057
2.07487 4.29784
2.11949 4.7876
2.16411 5.04501
2.20874 14.0559
2.25338 20.9428
2.298 5.8703
2.34263 4.66349
2.38725 4.72152
2.43188 5.81368
2.4765 6.25807
2.52115 5.68299
2.56577 6.55385
2.6104 7.12171
2.65503 6.64431
2.69965 6.92313
2.7443 7.57021
2.78893 7.82779
2.83356 8.04531
2.87818 8.35536
2.92281 9.11613
2.96744 9.77037
3.01209 10.9665
3.05672 11.3957
3.10135 12.0898
3.14599 13.3228
3.19062 14.0497
3.23527 14.9954
3.2799 16.0135
3.32454 17.1323
3.36917 17.976
3.4138 18.9219
3.45844 19.5331
3.50309 21.5015
3.54773 21.9356
3.59237 24.4331
3.637 89.7197
3.68164 57.3489
3.7263 26.5379
3.77094 26.7888
3.81558 27.4785
3.86022 27.8333
3.90486 29.2653
3.9495 30.4851
3.99416 31.3201
4.0388 32.4486
4.08344 34.5386
4.12809 35.3887
4.17273 37.6253
4.21738 43.6903
4.26204 238.492
4.30669 209.748
4.35133 49.353
4.39598 45.3655
4.44063 54.022
4.4853 65.6574
4.52995 52.5123
4.5746 53.1721
4.61925 54.9125
4.6639 56.9554
4.70855 59.9172
4.75322 62.1913
4.79788 65.5005
4.84253 69.2782
4.88719 73.7146
4.93184 77.73
4.97652 84.0132
5.02118 91.0304
5.06583 100.519
5.11049 114.686
5.15515 191.806
5.19981 522.795
5.24449 3385.1
5.28916 11358.7
5.33382 3684.57
5.37848 233.22
5.42315 140.846
5.46783 120.874
5.5125 111.145
5.55716 106.158
5.60183 101.941
5.6465 100.385
5.69117 97.8255
5.73586 95.9378
5.78053 96.7102
5.8252 96.015
5.86988 97.5111
5.91455 100.533
5.95924 113.447
6.00392 276.718
6.0486 1166.65
6.09328 3970.39
6.13795 3583.78
6.18263 304.006
6.22733 102.134
6.27201 86.3678
6.3167 104.097
6.36138 82.9142
6.40606 71.3388
6.45075 69.5904
6.49545 67.2006
6.54014 65.691
6.58483 64.806
6.62952 64.2814
6.67421 93.0495
6.71892 142.074
6.76361 70.0498
6.8083 60.2532
6.853 59.0706
6.89769 58.3987
6.94239 58.2087
6.98711 57.451
7.03181 57.1627
7.07651 57.0563
7.12121 56.7113
7.16591 56.8743
7.21063 57.0646
7.25533 70.7377
7.30004 174.574
7.34475 91.9516
7.38945 57.9633
7.43416 55.8939
7.47889 55.6644
7.5236 56.2255
7.56831 56.9991
7.61303 58.3512
7.65774 58.7171
7.70247 57.584
7.74719 57.4262
7.79191 58.2303
7.83663 58.6701
7.88135 59.5538
7.92607 60.3941
7.97081 61.9782
8.01553 62.8581
8.06026 63.9188
8.10498 65.669
8.14971 75.0609
8.19446 74.5454
8.23919 71.675
8.28392 74.563
8.32865 76.7516
8.37339 81.251
8.41812 88.8253
8.46288 120.127
8.50761 200.615
8.55235 459.878
8.59709 1126.28
8.64183 2099.82
8.68658 1132.15
8.73134 193.957
8.77609 105.563
8.82083 96.496
8.86558 93.0443
8.91033 92.7913
8.9551 94.3735
8.99985 87.9333
9.04461 86.081
9.08936 85.2073
9.13412 84.2245
9.17888 84.2325
9.22365 84.965
9.26841 84.3629
9.31318 85.3893
9.35794 85.5421
9.4027 85.5457
9.44749 86.641
9.49226 87.1
9.53703 87.9349
9.5818 90.1012
9.62657 94.8569
9.67134 101.189
9.71614 96.7423
9.76091 97.1081
9.80569 100.121
9.85047 103.384
9.89525 126.851
9.94005 143.106
9.98484 209.387
10.0296 404.036
10.0744 814.933
10.1192 1609.56
10.164 1730.21
10.2088 499.812
10.2536 140.082
10.2984 118.294
10.3432 118.556
10.388 109.048
10.4328 129.311
10.4776 177.755
10.5224 281.6
10.5672 475.471
10.612 525.812
10.6568 225.469
10.7017 101.294
10.7465 89.5258
10.7913 85.9491
10.8361 83.6477
10.8809 81.259
10.9257 80.6878
10.9706 81.1747
11.0154 77.1398
11.0602 74.9657
11.105 73.8568
11.1499 77.6576
11.1947 85.0833
11.2395 76.1821
11.2844 72.6019
11.3292 69.2291
11.374 67.9729
11.4189 67.3008
11.4637 66.5582
11.5086 67.2833
11.5534 70.0048
11.5983 67.3477
11.6431 65.3688
11.688 64.5837
11.7328 64.7909
11.7777 64.658
11.8225 64.1801
11.8674 64.3087
11.9122 64.7518
11.9571 64.8918
12.002 66.1253
12.0468 71.9111
12.0917 84.8077
12.1366 106.515
12.1814 148.474
12.2263 201.468
12.2712 181.958
12.3161 103.89
12.3609 72.8854
12.4058 66.7721
12.4507 66.4227
12.4956 66.121
12.5405 66.2777
12.5853 67.1727
12.6302 74.7099
12.6751 80.2689
12.72 72.1828
12.7649 69.9284
12.8098 70.5449
12.8547 71.8448
12.8996 73.0804
12.9445 74.6861
12.9894 76.4427
13.0343 78.3735
13.0792 81.8968
13.1242 94.537
13.1691 123.351
13.214 160.431
13.2589 235.383
13.3038 348.325
13.3487 432.822
13.3937 292.293
13.4386 135.172
13.4835 114.385
13.5285 131.918
13.5734 166.451
13.6183 235.917
13.6633 327.534
13.7082 350.819
13.7531 210.661
13.7981 104.706
13.843 84.5179
13.888 82.0478
13.9329 79.3756
13.9779 78.2308
14.0228 76.6715
14.0678 75.1237
14.1127 74.8654
14.1577 74.6283
14.2027 73.7351
14.2476 72.4675
14.2926 72.9017
14.3376 73.607
14.3825 72.2382
14.4275 70.6493
14.4725 70.6687
14.5175 70.9084
14.5624 71.0302
14.6074 73.2864
14.6524 73.7829
14.6974 72.724
14.7424 74.7836
14.7874 83.9852
14.8324 95.3651
14.8774 115.111
14.9224 149.876
14.9674 197.715
15.0124 221.94
15.0574 160.605
15.1024 96.6603
15.1474 74.9302
15.1924 72.4852
15.2374 73.1865
15.2824 72.2487
15.3274 70.4219
15.3725 68.7275
15.4175 68.4757
15.4625 68.1539
15.5076 68.3388
15.5526 68.4452
15.5976 67.946
15.6426 69.4938
15.6877 76.8561
15.7327 85.4561
15.7778 99.6864
15.8228 125.239
15.8679 161.985
15.9129 195.224
15.958 170.273
16.003 106.086
16.0481 70.8821
16.0931 66.6994
16.1382 64.6184
16.1833 62.5857
16.2283 60.7481
16.2734 60.0861
16.3185 60.4053
16.3636 61.0966
16.4086 59.8948
16.4537 57.9889
16.4988 57.3526
16.5439 57.3242
16.589 56.8039
16.6341 56.4616
16.6792 56.1907
16.7243 56.4098
16.7694 56.3795
16.8145 56.4903
16.8596 56.9133
16.9047 58.3771
16.9498 58.7079
16.9949 57.4953
17.04 57.6057
17.0851 59.2895
17.1302 61.1481
17.1754 64.0439
17.2205 68.5988
17.2656 74.4736
17.3108 82.6083
17.3559 84.057
17.401 74.925
17.4462 64.9165
17.4913 60.9891
17.5365 61.0274
17.5815 60.984
17.6268 61.2248
17.6718 62.1646
17.7171 62.7354
17.7622 63.2074
17.8074 64.0488
17.8525 66.9983
17.8977 71.8919
17.9428 77.6785
17.9881 85.761
18.0331 100.299
18.0784 118.477
18.1237 139.056
18.1688 139.221
18.214 112.142
18.2591 90.7888
18.3044 90.8746
18.3495 98.9157
18.3948 107.397
18.4399 100.325
18.4852 81.5898
18.5303 68.5316
18.5756 64.3519
18.6207 63.3322
18.666 62.4218
18.7112 61.6499
18.7565 60.6435
18.8016 60.4266
18.8469 59.8399
18.892 59.4814
18.9374 59.0176
18.9825 58.6799
19.0278 58.6302
19.073 58.6835
19.1183 59.6873
19.1635 60.4069
19.2088 61.987
19.254 64.0616
19.2993 67.2683
19.3447 72.8973
19.3898 77.9073
19.4352 75.8345
19.4804 66.3893
19.5257 58.9231
19.5709 55.8689
19.6163 55.652
19.6615 55.3906
19.7068 54.9712
19.752 55.0607
19.7974 55.4205
19.8426 56.4708
19.888 57.2148
19.9332 58.2284
19.9786 60.5257
20.0238 63.3737
20.0692 67.6469
20.1144 71.5032
20.1598 71.2473
20.205 66.2635
20.2504 63.5838
20.2957 64.5461
20.3411 66.9196
20.3863 66.439
20.4318 60.9566
20.477 55.9308
20.5224 53.3501
20.5677 52.6204
20.6131 51.7873
20.6586 51.3118
20.7038 51.2657
20.7493 50.7427
20.7945 50.34
20.84 50.4152
20.8853 50.3164
20.9307 50.1093
20.976 50.2982
21.0215 50.3106
21.0668 50.6767
21.1122 51.0186
21.1575 51.5379
21.203 52.3111
21.2483 52.8166
21.2938 53.1815
21.3391 52.0482
21.3846 50.5947
21.4299 50.0148
21.4754 50.0417
21.5207 50.1636
21.5662 50.6703
21.6116 51.0751
21.6571 51.9997
21.7024 52.791
21.7479 54.3317
21.7933 56.6087
21.8388 59.8193
21.8843 63.433
21.9297 66.3655
21.9752 66.1138
22.0206 62.122
22.0661 58.2146
22.1115 57.2733
22.157 57.6909
22.2024 56.3046
22.248 53.3194
22.2933 51.6774
22.3389 50.6986
22.3843 50.5541
22.4299 50.4412
22.4753 50.4434
22.5208 50.1273
22.5662 50.1173
22.6118 50.179
22.6572 50.6138
22.7028 51.023
22.7483 51.4545
22.7939 52.175
22.8393 53.4018
22.8849 55.3305
22.9303 56.9763
22.9759 59.054
23.0214 59.4187
23.067 57.0348
23.1126 53.2202
23.1581 50.8448
23.2037 50.4069
23.2492 50.546
23.2948 50.5452
23.3403 50.8364
23.3859 51.4913
23.4314 52.3707
23.477 53.8713
23.5225 55.6223
23.5682 57.6524
23.6137 59.5498
23.6593 57.9797
23.7048 53.8864
23.7505 50.0611
23.796 48.2691
23.8417 47.5899
23.8872 46.8291
23.9329 46.6568
23.9784 46.3192
24.0241 46.0243
24.0697 45.9692
24.1154 45.5641
24.1609 45.3441
24.2066 45.3923
24.2522 45.1974
24.2979 44.8036
24.3434 44.7841
24.3892 44.5561
24.4349 44.3998
24.4805 44.3583
24.5262 44.6579
24.5718 44.3094
24.6175 44.3339
24.6631 44.3532
24.7089 43.9963
24.7545 43.8305
24.8002 43.6294
24.8458 43.771
24.8916 43.3963
24.9372 43.6172
24.983 43.9284
25.0286 44.2494
25.0744 44.6853
25.12 45.1349
25.1658 45.6344
25.2114 46.1068
25.2572 46.0763
25.3029 46.0424
25.3487 46.2612
25.3943 46.1521
25.4402 45.2569
25.4858 44.0433
25.5316 42.8466
25.5773 42.3064
25.6231 42.2494
25.669 41.8262
25.7147 41.8616
25.7605 41.879
25.8062 41.856
25.8521 42.0738
25.8977 41.8687
25.9436 42.1468
25.9893 42.153
26.0352 42.5911
26.0809 42.7309
26.1268 43.1098
26.1725 42.8434
26.2184 42.2508
26.2641 41.6172
26.31 41.3911
26.3557 41.4289
26.4017 41.5386
26.4474 41.7345
26.4933 41.878
26.5391 42.3851
26.585 42.7453
26.6308 43.2801
26.6767 43.4441
26.7225 43.4419
26.7684 42.9167
26.8142 42.1403
26.8601 41.7559
26.9059 41.3822
26.9519 40.8171
26.9979 40.5455
27.0437 40.0575
27.0896 39.983
27.1354 40.0754
27.1814 39.8849
27.2272 39.7329
27.2732 39.7102
27.3191 39.5197
27.3651 39.7926
27.4109 39.6875
27.4569 39.6653
27.5027 39.657
27.5488 39.743
27.5946 39.4919
27.6407 39.4477
27.6865 39.2023
27.7326 39.0329
27.7784 39.1136
27.8245 39.0048
27.8703 39.1756
27.9164 39.4846
27.9623 39.4829
28.0084 39.8504
28.0543 40.2434
28.1003 40.2486
28.1462 39.9571
28.1923 39.648
28.2384 39.2966
28.2843 38.8868
28.3304 38.3815
28.3764 37.9605
28.4225 37.6172
28.4684 37.3993
28.5145 37.1008
28.5605 37.1235
28.6066 36.734
28.6526 36.798
28.6987 36.7572
28.7447 36.6009
28.7908 36.5234
28.8368 36.4859
28.8829 36.5603
28.9289 36.4329
28.9751 36.2589
29.0211 36.1302
29.0673 35.7256
29.1133 35.6797
29.1595 35.5191
29.2055 35.3878
29.2517 35.3849
29.2977 35.2848
29.3439 35.3385
29.3899 35.2393
29.4361 35.2046
29.4824 35.019
29.5284 34.8612
29.5746 34.5303
29.6207 34.2304
29.6669 34.1329
29.713 34.0601
29.7593 33.9422
29.8053 33.9567
29.8516 33.9282
29.8977 33.8008
29.9439 33.6998
29.99 33.5869
30.0363 33.572
30.0824 33.4356
30.1287 33.4298
30.1748 33.4326
30.2211 33.3779
30.2673 33.3491
30.3136 33.3627
30.3597 33.3249
30.406 33.2197
30.4522 33.1255
30.4985 33.0838
30.5447 33.2138
30.591 33.1011
30.6372 33.1916
30.6835 33.0592
30.7297 33.2401
30.7761 33.138
30.8224 32.9606
30.8686 32.8112
30.915 32.6089
30.9612 32.5262
31.0076 32.3293
31.0538 32.1663
31.1002 32.0956
31.1464 31.9343
31.1928 31.917
31.2391 31.9178
31.2855 31.7079
31.3317 31.7547
31.3781 31.8326
31.4244 31.8381
31.4708 31.7201
31.5171 31.7046
31.5636 31.7117
31.6098 31.4998
31.6563 31.3245
31.7026 31.2386
31.7491 31.0627
31.7953 31.0601
31.8418 31.0622
31.8881 31.0227
31.9346 31.0101
31.9809 31.0219
32.0275 30.8535
32.074 30.8408
32.1203 30.6126
32.1668 30.4293
32.2132 30.4249
32.2597 30.2121
32.306 30.0582
32.3526 29.8256
32.399 29.8301
32.4455 29.683
32.4919 29.6016
32.5385 29.4875
32.5848 29.4492
32.6314 29.4509
32.6778 29.3084
32.7244 29.2002
32.7708 29.0427
32.8174 29.057
32.8638 28.789
32.9104 29.0258
32.9569 28.8645
33.0035 28.7458
33.0499 28.7078
33.0966 28.6785
33.143 28.6161
33.1897 28.5874
33.2361 28.5272
33.2828 28.4958
33.3293 28.3079
33.3759 28.2971
33.4226 28.0951
33.4691 27.95
33.5158 27.8937
33.5623 27.7653
33.609 27.643
33.6555 27.4873
33.7022 27.3716
33.7487 27.304
33.7954 27.302
33.842 27.2281
33.8887 27.0888
33.9353 27.2453
33.982 27.0297
34.0286 26.8885
34.0753 26.8019
34.1219 26.6992
34.1687 26.6902
34.2152 26.5803
34.262 26.4777
34.3086 26.3932
34.3554 26.3979
34.402 26.2349
34.4488 26.0657
34.4954 26.0043
34.5422 25.957
34.5889 25.8651
34.6357 25.7632
34.6825 25.6464
34.7292 25.5763
34.776 25.4925
34.8227 25.4295
34.8695 25.4489
34.9162 25.3951
34.9631 25.2316
35.0098 25.2793
35.0566 25.1065
35.1033 25.1152
35.1502 25.0227
35.1969 24.9897
35.2438 24.9519
35.2906 24.8301
35.3375 24.8221
35.3842 24.7912
35.4311 24.7716
35.4779 24.7201
35.5248 24.7157
35.5716 24.4958
35.6185 24.4629
35.6653 24.3195
35.7123 24.2247
35.759 24.2025
35.806 24.0656
35.8528 23.9501
35.8998 23.9165
35.9468 23.8253
35.9936 23.8088
36.0406 23.7514
36.0874 23.7226
36.1345 23.6928
36.1813 23.5178
36.2283 23.4181
36.2752 23.3477
36.3222 23.3827
36.3691 23.2659
36.4161 23.1868
36.463 23.081
36.5101 23.1014
36.557 23.0524
36.6041 22.8745
36.651 22.8632
36.6981 22.8118
36.745 22.7743
36.7921 22.6801
36.839 22.5807
36.8861 22.4592
36.9331 22.4635
36.9802 22.3601
37.0272 22.2714
37.0743 22.1823
37.1213 22.1035
37.1684 22.0474
37.2154 21.9794
37.2626 21.9517
37.3098 21.9037
37.3568 21.8046
37.404 21.7224
37.451 21.6768
37.4982 21.603
37.5452 21.4984
37.5924 21.49
37.6395 21.4834
37.6867 21.3934
37.7337 21.2229
37.781 21.1848
37.8281 21.0898
37.8753 21.0111
37.9224 21.0161
37.9697 20.8911
38.0168 20.8313
38.064 20.7808
38.1111 20.7959
38.1584 20.6198
38.2056 20.6012
38.2529 20.4789
38.3 20.4561
38.3473 20.4781
38.3945 20.3057
38.4418 20.2902
38.489 20.191
38.5363 20.1253
38.5837 20.1045
38.6309 20.0202
38.6782 19.9536
38.7254 19.893
38.7728 19.838
38.82 19.8049
38.8674 19.6927
38.9146 19.6172
38.9621 19.5984
39.0093 19.5224
39.0567 19.4696
39.104 19.406
39.1514 19.2677
39.1987 19.2313
39.2461 19.2461
39.2934 19.2053
39.3409 19.0631
39.3882 18.9617
39.4356 18.9812
39.483 18.937
39.5304 18.8328
39.5778 18.8301
39.6253 18.701
39.6726 18.6167
39.7201 18.6267
39.7675 18.5205
39.815 18.4958
39.8624 18.4608
39.9099 18.3542
39.9575 18.2442
40.0049 18.2874
40.0525 18.2033
40.0999 18.2208
40.1474 18.1177
40.1949 18.025
40.2425 17.939
40.2899 17.8977
40.3375 17.9061
40.385 17.8227
40.4326 17.7048
40.48 17.6322
40.5277 17.6445
40.5752 17.5643
40.6228 17.4756
40.6703 17.5348
40.718 17.4037
40.7655 17.3217
40.8132 17.2359
40.8607 17.287
40.9084 17.1908
40.9559 17.1624
41.0036 17.1203
41.0512 17.0652
41.0989 16.9761
41.1465 16.9325
41.1942 16.9233
41.242 16.7733
41.2896 16.7125
41.3373 16.6495
41.3849 16.6664
41.4327 16.5462
41.4803 16.4291
41.5281 16.4362
41.5758 16.3667
41.6236 16.3097
41.6712 16.2798
41.7191 16.2523
41.7667 16.1594
41.8146 16.1576
41.8622 16.0919
41.9101 16.0395
41.9578 15.9471
42.0057 15.8958
42.0534 15.87
42.1013 15.826
42.149 15.772
42.1969 15.6942
42.2446 15.6102
42.2925 15.6254
42.3403 15.5293
42.3882 15.5264
42.436 15.461
42.4839 15.3792
42.5319 15.3413
42.5797 15.3122
42.6277 15.2308
42.6755 15.1896
42.7235 15.1316
42.7713 15.0587
42.8193 15.0221
42.8671 14.9615
42.9152 14.9289
42.963 14.9001
43.0111 14.7674
43.0589 14.7762
43.107 14.6981
43.1549 14.7007
43.2029 14.6551
43.2508 14.5806
43.2989 14.5
43.3468 14.4314
43.3949 14.4162
43.4429 14.3095
43.491 14.3125
43.5389 14.2753
43.5871 14.1992
43.635 14.1755
43.6832 14.147
43.7312 14.0696
43.7793 14.0573
43.8273 13.93
43.8755 13.9069
43.9237 13.8838
43.9717 13.8542
44.0199 13.7986
44.068 13.7485
44.1162 13.7016
44.1642 13.6769
44.2125 13.5911
44.2606 13.5748
44.3088 13.4985
44.3569 13.4604
44.4052 13.4063
44.4533 13.3266
44.5016 13.2741
44.5497 13.2752
44.598 13.1802
44.6461 13.1434
44.6945 13.1163
44.7426 13.0516
44.791 12.9746
44.8391 12.9811
44.8875 12.9047
44.9357 12.9025
44.984 12.8553
45.0322 12.8105
45.0806 12.735
45.1288 12.7222
45.1773 12.6513
45.2257 12.6513
45.2739 12.5694
45.3224 12.5184
45.3706 12.5136
45.4191 12.417
45.4673 12.4249
45.5158 12.3682
45.5641 12.2824
45.6126 12.2358
45.6609 12.2265
45.7094 12.1706
45.7577 12.0617
45.8063 12.0512
45.8546 12.0458
45.9031 12.0042
45.9515 11.9654
46.0001 11.9274
46.0484 11.919
46.097 11.8516
46.1454 11.8099
46.194 11.7717
46.2424 11.6905
46.291 11.6442
46.3395 11.6203
46.3881 11.5786
46.4365 11.5541
46.4852 11.4652
46.5337 11.4537
46.5823 11.4433
46.631 11.3705
46.6795 11.3097
46.7282 11.3222
46.7767 11.2616
46.8254 11.1749
46.8739 11.1438
46.9226 11.1336
46.9712 11.0885
47.0199 11.0227
47.0685 10.9675
47.1173 10.9778
47.1658 10.8963
47.2146 10.8867
47.2632 10.8118
47.312 10.7894
47.3606 10.7588
47.4095 10.7194
47.4581 10.6929
47.5069 10.6364
47.5556 10.5943
47.6044 10.559
47.6531 10.4941
47.702 10.4937
47.7507 10.4307
47.7996 10.3656
47.8483 10.3576
47.8972 10.3528
47.9461 10.2462
47.9948 10.2608
48.0438 10.2008
48.0925 10.1959
48.1415 10.1427
48.1902 10.1054
48.2392 10.0923
48.288 10.0673
48.337 10.0118
48.3858 9.95998
48.4348 9.91693
48.4837 9.928
48.5327 9.86249
48.5815 9.81446
48.6306 9.82072
48.6795 9.74
48.7285 9.68815
48.7774 9.68823
48.8265 9.67252
48.8754 9.62119
48.9245 9.57159
48.9734 9.52438
49.0226 9.52702
49.0715 9.49552
49.1206 9.46581
49.1696 9.37408
49.2188 9.31757
49.2679 9.30029
49.3169 9.29373
49.3661 9.20811
49.4151 9.18238
49.4643 9.18795
49.5134 9.15171
49.5626 9.07831
49.6117 9.07316
49.6609 9.03423
49.71 8.96746
49.7592 8.95397
49.8083 8.90489
49.8576 8.90952
49.9067 8.86079
49.956 8.87974
50.0052 8.79124
50.0545 8.78206
50.1036 8.71118
50.153 8.6676
50.2022 8.6657
50.2515 8.62262
50.3007 8.54891
50.3501 8.56555
50.3993 8.51143
50.4487 8.47826
50.498 8.43414
50.5474 8.43031
50.5966 8.38948
50.6461 8.35813
50.6955 8.31509
50.7448 8.33077
50.7943 8.26591
50.8436 8.24925
50.8931 8.22296
50.9424 8.19932
50.9919 8.18398
51.0413 8.12329
51.0908 8.06962
51.1402 8.03857
51.1897 8.00198
51.2391 7.98184
51.2887 7.97808
51.3381 7.89344
51.3877 7.90402
51.4371 7.85031
51.4867 7.80963
51.5362 7.78767
51.5858 7.7646
51.6353 7.70822
51.6849 7.70222
51.7344 7.65732
51.7841 7.62087
51.8336 7.60333
51.8833 7.55093
51.9328 7.50454
51.9826 7.46349
52.0323 7.47632
52.0818 7.44501
52.1316 7.38121
52.1812 7.39237
52.231 7.33869
52.2806 7.29779
52.3304 7.26998
52.38 7.26085
52.4298 7.2184
52.4794 7.18537
52.5293 7.19575
52.5789 7.13053
52.6288 7.09392
52.6785 7.05079
52.7284 7.04082
52.7781 7.02613
52.828 7.00352
52.8777 6.94539
52.9276 6.89126
52.9774 6.94296
53.0273 6.86705
53.0771 6.87529
53.1271 6.83324
53.1769 6.77891
53.2269 6.75622
53.2767 6.73666
53.3267 6.71722
53.3765 6.66735
53.4266 6.64868
53.4766 6.61155
53.5265 6.56602
53.5765 6.55299
53.6264 6.52517
53.6765 6.50264
53.7264 6.48777
53.7765 6.47185
53.8265 6.41218
53.8766 6.37251
53.9266 6.35603
53.9767 6.31758
54.0267 6.3222
54.0769 6.27367
54.1269 6.24585
54.1771 6.21867
54.2271 6.16383
54.2773 6.1348
54.3274 6.13323
54.3776 6.07629
54.4277 6.06148
54.478 5.99258
54.528 5.93391
54.5783 5.92838
54.6285 5.89489
54.6788 5.86976
54.7289 5.82555
54.7792 5.7285
54.8296 5.75356
54.8798 5.68346
54.9301 5.65665
54.9803 5.61894
55.0307 5.55755
55.0809 5.5316
55.1314 5.53886
55.1816 5.45816
55.232 5.37606
55.2823 5.38687
55.3328 5.3117
55.383 5.2166
55.4335 5.23096
55.4838 5.14773
55.5344 5.13517
55.5847 5.09404
55.6352 5.05989
55.6856 4.98474
55.7361 4.89018