File: XRD/Ni3Fe_FD0353.xy
TT I
1.27165 7.47911
1.31627 7.19948
1.36089 6.85636
1.40551 6.6267
1.45013 5.61491
1.49476 6.09281
1.53938 6.14275
1.584 5.69256
1.62863 6.0895
1.67325 5.12011
1.71787 5.52845
1.7625 5.44887
1.80712 5.14216
1.85174 4.76246
1.89636 4.51246
1.94099 4.95823
1.98562 5.06866
2.03025 5.11535
2.07487 4.00724
2.11949 4.91799
2.16411 4.30018
2.20874 9.05589
2.25338 13.2025
2.298 5.37763
2.34263 5.74874
2.38725 5.03555
2.43188 5.39691
2.4765 6.0376
2.52115 5.97189
2.56577 6.51574
2.6104 7.39949
2.65503 7.83715
2.69965 6.64687
2.7443 7.53449
2.78893 7.33306
2.83356 8.53448
2.87818 8.67989
2.92281 8.76572
2.96744 9.99697
3.01209 9.77257
3.05672 10.3939
3.10135 12.0985
3.14599 12.8934
3.19062 14.1872
3.23527 14.8212
3.2799 15.6492
3.32454 16.9727
3.36917 17.7424
3.4138 18.4887
3.45844 19.7985
3.50309 21.1087
3.54773 21.5885
3.59237 23.0806
3.637 56.9225
3.68164 40.8299
3.7263 26.0022
3.77094 26.2389
3.81558 26.7343
3.86022 27.9705
3.90486 29.3995
3.9495 30.0829
3.99416 31.2058
4.0388 32.1764
4.08344 33.7597
4.12809 34.9108
4.17273 36.7005
4.21738 40.7645
4.26204 142.859
4.30669 127.097
4.35133 46.0826
4.39598 44.7486
4.44063 50.064
4.4853 56.9806
4.52995 52.705
4.5746 53.0184
4.61925 54.7864
4.6639 56.7825
4.70855 59.6727
4.75322 62.9025
4.79788 66.5576
4.84253 69.6664
4.88719 74.8813
4.93184 77.7657
4.97652 84.6379
5.02118 91.851
5.06583 101.268
5.11049 115.78
5.15515 172.278
5.19981 606.531
5.24449 3687.9
5.28916 11369.4
5.33382 3409.08
5.37848 221.495
5.42315 139.471
5.46783 121.055
5.5125 111.972
5.55716 106.703
5.60183 102.812
5.6465 100.257
5.69117 98.199
5.73586 96.7369
5.78053 97.1023
5.8252 96.971
5.86988 98.5336
5.91455 101.511
5.95924 116.678
6.00392 324.704
6.0486 1274.05
6.09328 3989.53
6.13795 3379.9
6.18263 288.135
6.22733 99.7684
6.27201 85.3762
6.3167 91.3564
6.36138 77.9534
6.40606 71.0896
6.45075 69.48
6.49545 67.1747
6.54014 64.9883
6.58483 63.9794
6.62952 63.8036
6.67421 78.2269
6.71892 101.93
6.76361 64.9024
6.8083 59.3444
6.853 58.9178
6.89769 57.6117
6.94239 57.8844
6.98711 56.662
7.03181 56.8149
7.07651 56.3134
7.12121 56.0039
7.16591 56.4616
7.21063 56.1685
7.25533 63.5347
7.30004 115.745
7.34475 74.1958
7.38945 56.4053
7.43416 55.0595
7.47889 55.165
7.5236 55.6899
7.56831 56.1753
7.61303 56.9996
7.65774 57.6465
7.70247 57.0522
7.74719 57.5775
7.79191 58.0854
7.83663 58.4725
7.88135 59.3075
7.92607 60.0576
7.97081 61.3496
8.01553 62.2124
8.06026 63.8946
8.10498 65.5285
8.14971 71.9024
8.19446 71.9561
8.23919 71.5276
8.28392 74.1887
8.32865 76.5484
8.37339 81.3806
8.41812 87.798
8.46288 112.253
8.50761 225.185
8.55235 502.503
8.59709 1184.41
8.64183 2087.1
8.68658 1052.07
8.73134 180.731
8.77609 104.133
8.82083 95.9485
8.86558 92.6046
8.91033 91.7279
8.9551 91.497
8.99985 87.3743
9.04461 86.1688
9.08936 85.514
9.13412 84.3184
9.17888 84.6683
9.22365 84.4563
9.26841 84.5625
9.31318 86.0257
9.35794 85.787
9.4027 85.9158
9.44749 86.6946
9.49226 87.2532
9.53703 88.0301
9.5818 90.2284
9.62657 93.7993
9.67134 97.115
9.71614 95.9028
9.76091 97.2995
9.80569 99.9301
9.85047 103.568
9.89525 118.112
9.94005 137.733
9.98484 236.693
10.0296 442.288
10.0744 870.671
10.1192 1591.91
10.164 1637.47
10.2088 467.823
10.2536 135.406
10.2984 114.918
10.3432 113.71
10.388 110.26
10.4328 136.924
10.4776 187.95
10.5224 299.455
10.5672 487.732
10.612 511.606
10.6568 215.178
10.7017 99.9611
10.7465 89.3791
10.7913 85.5762
10.8361 82.9437
10.8809 81.0892
10.9257 79.4392
10.9706 79.6029
11.0154 76.512
11.0602 74.3629
11.105 73.4978
11.1499 74.6145
11.1947 77.9183
11.2395 73.0097
11.2844 70.8704
11.3292 68.8752
11.374 67.4414
11.4189 67.1842
11.4637 66.5043
11.5086 66.3246
11.5534 67.424
11.5983 66.189
11.6431 65.2879
11.688 64.3655
11.7328 64.4794
11.7777 64.3753
11.8225 64.0905
11.8674 64.1789
11.9122 64.5933
11.9571 64.7352
12.002 66.3218
12.0468 73.8571
12.0917 86.7545
12.1366 110.151
12.1814 150.622
12.2263 198.866
12.2712 171.894
12.3161 96.6624
12.3609 70.1212
12.4058 66.2656
12.4507 66.0817
12.4956 66.2753
12.5405 66.0894
12.5853 66.864
12.6302 70.6441
12.6751 74.1359
12.72 70.3952
12.7649 69.4872
12.8098 70.2814
12.8547 71.506
12.8996 72.8255
12.9445 74.6465
12.9894 76.5218
13.0343 78.4156
13.0792 82.9248
13.1242 99.6962
13.1691 127.968
13.214 168.359
13.2589 246.617
13.3038 351.584
13.3487 421.557
13.3937 278.7
13.4386 132.889
13.4835 118.006
13.5285 137.176
13.5734 174.877
13.6183 244.594
13.6633 334.066
13.7082 349.141
13.7531 202.937
13.7981 102.352
13.843 84.6102
13.888 81.7732
13.9329 79.2782
13.9779 78.0283
14.0228 76.4651
14.0678 75.2027
14.1127 74.5491
14.1577 74.0433
14.2027 73.4446
14.2476 72.5106
14.2926 72.0017
14.3376 72.4827
14.3825 71.7013
14.4275 70.9134
14.4725 70.7642
14.5175 71.0296
14.5624 70.8333
14.6074 72.3555
14.6524 73.1116
14.6974 72.8252
14.7424 76.9371
14.7874 86.5131
14.8324 98.4658
14.8774 119.989
14.9224 154.728
14.9674 199.306
15.0124 217.393
15.0574 153.805
15.1024 94.1892
15.1474 74.2422
15.1924 72.4025
15.2374 72.0503
15.2824 71.0602
15.3274 69.5873
15.3725 68.6886
15.4175 68.2188
15.4625 67.8695
15.5076 67.9079
15.5526 67.9414
15.5976 68.0737
15.6426 71.3382
15.6877 78.9938
15.7327 87.5117
15.7778 102.804
15.8228 129.53
15.8679 164.594
15.9129 191.959
15.958 161.819
16.003 102.458
16.0481 69.7946
16.0931 65.1233
16.1382 63.5475
16.1833 62.0177
16.2283 60.3573
16.2734 59.7979
16.3185 59.5985
16.3636 59.6262
16.4086 58.3905
16.4537 57.6938
16.4988 57.1703
16.5439 57.0315
16.589 56.6329
16.6341 56.3261
16.6792 55.8438
16.7243 56.4359
16.7694 56.2985
16.8145 56.1261
16.8596 56.4162
16.9047 57.2652
16.9498 57.6167
16.9949 57.145
17.04 57.9392
17.0851 59.5421
17.1302 61.3247
17.1754 64.5602
17.2205 69.2002
17.2656 75.21
17.3108 82.4126
17.3559 84.0838
17.401 73.4881
17.4462 64.1312
17.4913 60.9971
17.5365 60.8636
17.5815 60.9425
17.6268 61.2728
17.6718 61.934
17.7171 62.5301
17.7622 63.1134
17.8074 64.5739
17.8525 68.5524
17.8977 72.9268
17.9428 78.9329
17.9881 88.0347
18.0331 102.318
18.0784 119.763
18.1237 139.829
18.1688 137.386
18.214 111.259
18.2591 91.0373
18.3044 91.7255
18.3495 99.5681
18.3948 105.843
18.4399 98.3359
18.4852 79.5433
18.5303 67.6938
18.5756 63.9223
18.6207 62.844
18.666 62.2544
18.7112 61.4564
18.7565 60.5585
18.8016 60.3071
18.8469 59.743
18.892 59.2499
18.9374 59.0194
18.9825 58.8416
19.0278 58.4282
19.073 58.8505
19.1183 59.5893
19.1635 60.2837
19.2088 61.7833
19.254 64.4247
19.2993 67.861
19.3447 72.5554
19.3898 76.9345
19.4352 74.3064
19.4804 65.6084
19.5257 58.4789
19.5709 55.7778
19.6163 55.5246
19.6615 55.4909
19.7068 54.8907
19.752 54.7666
19.7974 55.3832
19.8426 56.4608
19.888 56.9853
19.9332 58.6044
19.9786 60.8175
20.0238 63.792
20.0692 67.8729
20.1144 71.5559
20.1598 71.1035
20.205 66.1687
20.2504 63.638
20.2957 64.5193
20.3411 66.7102
20.3863 65.9408
20.4318 60.3873
20.477 54.8161
20.5224 52.7724
20.5677 52.1048
20.6131 51.505
20.6586 51.0268
20.7038 50.9561
20.7493 50.4783
20.7945 50.3609
20.84 50.1859
20.8853 49.9833
20.9307 50.0152
20.976 50.1561
21.0215 50.0948
21.0668 50.6677
21.1122 51.0738
21.1575 51.5543
21.203 51.9859
21.2483 52.7378
21.2938 52.9905
21.3391 51.5804
21.3846 50.3657
21.4299 49.8959
21.4754 49.8718
21.5207 50.1787
21.5662 50.5403
21.6116 51.2894
21.6571 51.8782
21.7024 52.9468
21.7479 54.6977
21.7933 57.3167
21.8388 59.9949
21.8843 63.2871
21.9297 66.1988
21.9752 65.4433
22.0206 61.3076
22.0661 57.8973
22.1115 57.0927
22.157 57.3143
22.2024 55.7848
22.248 53.0513
22.2933 51.4694
22.3389 50.3252
22.3843 50.4461
22.4299 50.1205
22.4753 50.1725
22.5208 50.0284
22.5662 49.8147
22.6118 50.3387
22.6572 50.6592
22.7028 50.9898
22.7483 51.6552
22.7939 52.3482
22.8393 53.5955
22.8849 55.4338
22.9303 56.9744
22.9759 58.7919
23.0214 58.9505
23.067 56.3651
23.1126 52.7458
23.1581 50.682
23.2037 50.2174
23.2492 50.3428
23.2948 50.6158
23.3403 50.9492
23.3859 51.6328
23.4314 52.6517
23.477 54.1097
23.5225 55.686
23.5682 57.6001
23.6137 58.9376
23.6593 57.157
23.7048 53.3192
23.7505 49.7486
23.796 48.1667
23.8417 47.3077
23.8872 46.942
23.9329 46.533
23.9784 46.1044
24.0241 45.8227
24.0697 45.7525
24.1154 45.3092
24.1609 45.1372
24.2066 44.9837
24.2522 44.9047
24.2979 44.7411
24.3434 44.6485
24.3892 44.4215
24.4349 44.2333
24.4805 44.1296
24.5262 44.2186
24.5718 44.1674
24.6175 44.0746
24.6631 43.9588
24.7089 43.8061
24.7545 43.6286
24.8002 43.4013
24.8458 43.4435
24.8916 43.378
24.9372 43.6178
24.983 43.8796
25.0286 44.0224
25.0744 44.6216
25.12 44.9372
25.1658 45.6853
25.2114 45.8823
25.2572 45.9944
25.3029 45.8978
25.3487 46.0238
25.3943 45.8114
25.4402 44.9548
25.4858 43.7594
25.5316 42.643
25.5773 42.3078
25.6231 42.0247
25.669 41.626
25.7147 41.6856
25.7605 41.703
25.8062 41.693
25.8521 41.8712
25.8977 41.6741
25.9436 41.8645
25.9893 41.9813
26.0352 42.5137
26.0809 42.7206
26.1268 42.758
26.1725 42.5762
26.2184 41.9899
26.2641 41.6197
26.31 41.3032
26.3557 41.4416
26.4017 41.3756
26.4474 41.6288
26.4933 41.897
26.5391 42.2502
26.585 42.7198
26.6308 43.1886
26.6767 43.2685
26.7225 43.0826
26.7684 42.6628
26.8142 42.0085
26.8601 41.5546
26.9059 41.2514
26.9519 40.6605
26.9979 40.2417
27.0437 40.0017
27.0896 39.9058
27.1354 39.9432
27.1814 39.7244
27.2272 39.7295
27.2732 39.6571
27.3191 39.3964
27.3651 39.6001
27.4109 39.498
27.4569 39.6059
27.5027 39.5395
27.5488 39.7189
27.5946 39.3914
27.6407 39.3414
27.6865 39.1596
27.7326 38.9435
27.7784 39.0374
27.8245 38.8366
27.8703 39.1432
27.9164 39.3603
27.9623 39.558
28.0084 39.769
28.0543 40.076
28.1003 39.9053
28.1462 39.7473
28.1923 39.5937
28.2384 39.0354
28.2843 38.7239
28.3304 38.1445
28.3764 37.6972
28.4225 37.3979
28.4684 37.2732
28.5145 36.9358
28.5605 36.8102
28.6066 36.6292
28.6526 36.647
28.6987 36.5765
28.7447 36.3492
28.7908 36.3734
28.8368 36.4014
28.8829 36.3326
28.9289 36.4008
28.9751 36.0145
29.0211 35.8516
29.0673 35.6621
29.1133 35.6557
29.1595 35.2959
29.2055 35.2546
29.2517 35.2638
29.2977 35.2376
29.3439 35.1773
29.3899 35.132
29.4361 35.0559
29.4824 34.8591
29.5284 34.6552
29.5746 34.2683
29.6207 34.0939
29.6669 33.9039
29.713 33.9514
29.7593 33.8385
29.8053 33.8666
29.8516 33.7413
29.8977 33.581
29.9439 33.5553
29.99 33.4411
30.0363 33.251
30.0824 33.3957
30.1287 33.2916
30.1748 33.2504
30.2211 33.2652
30.2673 33.1579
30.3136 33.226
30.3597 33.1628
30.406 33.0905
30.4522 32.9732
30.4985 32.9127
30.5447 33.0649
30.591 32.9213
30.6372 33.0598
30.6835 33.1353
30.7297 33.1245
30.7761 33.0983
30.8224 32.8544
30.8686 32.7326
30.915 32.4219
30.9612 32.4125
31.0076 32.183
31.0538 32.0535
31.1002 32.0252
31.1464 31.846
31.1928 31.8043
31.2391 31.8594
31.2855 31.7044
31.3317 31.7085
31.3781 31.7636
31.4244 31.7975
31.4708 31.6359
31.5171 31.6719
31.5636 31.6759
31.6098 31.36
31.6563 31.2618
31.7026 31.0921
31.7491 30.9459
31.7953 31.0162
31.8418 30.8914
31.8881 30.9511
31.9346 30.9145
31.9809 30.7881
32.0275 30.7337
32.074 30.7011
32.1203 30.4975
32.1668 30.3841
32.2132 30.2726
32.2597 30.0951
32.306 29.9499
32.3526 29.7225
32.399 29.7762
32.4455 29.5525
32.4919 29.5123
32.5385 29.436
32.5848 29.1981
32.6314 29.2194
32.6778 29.2307
32.7244 29.0727
32.7708 28.9594
32.8174 28.9401
32.8638 28.8438
32.9104 28.8529
32.9569 28.7461
33.0035 28.6054
33.0499 28.6188
33.0966 28.5578
33.143 28.5369
33.1897 28.4024
33.2361 28.4304
33.2828 28.3125
33.3293 28.1554
33.3759 28.1325
33.4226 27.9632
33.4691 27.7997
33.5158 27.7454
33.5623 27.6079
33.609 27.5294
33.6555 27.3984
33.7022 27.2394
33.7487 27.2509
33.7954 27.2875
33.842 27.1448
33.8887 27.0671
33.9353 26.9998
33.982 26.9241
34.0286 26.8246
34.0753 26.7207
34.1219 26.5968
34.1687 26.5122
34.2152 26.4674
34.262 26.3356
34.3086 26.2612
34.3554 26.251
34.402 26.1432
34.4488 25.9842
34.4954 25.956
34.5422 25.8764
34.5889 25.733
34.6357 25.6041
34.6825 25.6568
34.7292 25.5511
34.776 25.4532
34.8227 25.3593
34.8695 25.3518
34.9162 25.1925
34.9631 25.1452
35.0098 25.1447
35.0566 24.9985
35.1033 24.9977
35.1502 24.8793
35.1969 24.9177
35.2438 24.8311
35.2906 24.7288
35.3375 24.6966
35.3842 24.5849
35.4311 24.609
35.4779 24.6053
35.5248 24.5417
35.5716 24.4739
35.6185 24.3353
35.6653 24.2643
35.7123 24.1777
35.759 24.0325
35.806 24.0079
35.8528 23.8548
35.8998 23.8568
35.9468 23.7665
35.9936 23.6348
36.0406 23.6384
36.0874 23.5886
36.1345 23.5072
36.1813 23.3702
36.2283 23.3532
36.2752 23.2026
36.3222 23.2403
36.3691 23.2265
36.4161 22.989
36.463 23.0535
36.5101 22.9938
36.557 22.8934
36.6041 22.7266
36.651 22.7683
36.6981 22.7092
36.745 22.613
36.7921 22.5806
36.839 22.4697
36.8861 22.395
36.9331 22.279
36.9802 22.2719
37.0272 22.1765
37.0743 22.1241
37.1213 22.0467
37.1684 21.9333
37.2154 21.8957
37.2626 21.8099
37.3098 21.7857
37.3568 21.7304
37.404 21.6587
37.451 21.5358
37.4982 21.5385
37.5452 21.4053
37.5924 21.3839
37.6395 21.4326
37.6867 21.2837
37.7337 21.1047
37.781 21.1594
37.8281 21.061
37.8753 20.9798
37.9224 20.804
37.9697 20.8067
38.0168 20.7662
38.064 20.7353
38.1111 20.6556
38.1584 20.5242
38.2056 20.4825
38.2529 20.4454
38.3 20.3041
38.3473 20.358
38.3945 20.1817
38.4418 20.2431
38.489 20.0931
38.5363 20.0588
38.5837 19.9771
38.6309 19.9303
38.6782 19.8913
38.7254 19.838
38.7728 19.6948
38.82 19.6425
38.8674 19.6231
38.9146 19.5607
38.9621 19.4919
39.0093 19.3817
39.0567 19.4032
39.104 19.3629
39.1514 19.2621
39.1987 19.2034
39.2461 19.1484
39.2934 19.0461
39.3409 18.9295
39.3882 18.9819
39.4356 18.8923
39.483 18.7838
39.5304 18.7439
39.5778 18.7714
39.6253 18.6103
39.6726 18.5891
39.7201 18.5837
39.7675 18.5155
39.815 18.46
39.8624 18.3754
39.9099 18.3159
39.9575 18.2346
40.0049 18.1569
40.0525 18.1432
40.0999 18.0445
40.1474 18.0104
40.1949 17.929
40.2425 17.8429
40.2899 17.7847
40.3375 17.7861
40.385 17.7312
40.4326 17.6565
40.48 17.5537
40.5277 17.581
40.5752 17.4811
40.6228 17.3502
40.6703 17.3568
40.718 17.318
40.7655 17.3282
40.8132 17.2091
40.8607 17.2212
40.9084 17.1451
40.9559 17.088
41.0036 17.0961
41.0512 16.9861
41.0989 16.911
41.1465 16.8236
41.1942 16.7856
41.242 16.6822
41.2896 16.6388
41.3373 16.57
41.3849 16.5321
41.4327 16.514
41.4803 16.4175
41.5281 16.4027
41.5758 16.2942
41.6236 16.2369
41.6712 16.2031
41.7191 16.1504
41.7667 16.1043
41.8146 16.049
41.8622 16.0023
41.9101 15.9647
41.9578 15.8724
42.0057 15.7865
42.0534 15.7956
42.1013 15.7458
42.149 15.6577
42.1969 15.6452
42.2446 15.6175
42.2925 15.4838
42.3403 15.4503
42.3882 15.4222
42.436 15.4134
42.4839 15.3163
42.5319 15.297
42.5797 15.171
42.6277 15.1948
42.6755 15.137
42.7235 15.0162
42.7713 15.0517
42.8193 14.9854
42.8671 14.9575
42.9152 14.9014
42.963 14.7802
43.0111 14.7887
43.0589 14.7317
43.107 14.6297
43.1549 14.5841
43.2029 14.516
43.2508 14.4729
43.2989 14.4804
43.3468 14.3484
43.3949 14.3739
43.4429 14.3531
43.491 14.2211
43.5389 14.2152
43.5871 14.1732
43.635 14.1178
43.6832 14.098
43.7312 13.993
43.7793 13.9513
43.8273 13.9002
43.8755 13.8604
43.9237 13.7916
43.9717 13.7632
44.0199 13.701
44.068 13.7609
44.1162 13.6054
44.1642 13.596
44.2125 13.6139
44.2606 13.4382
44.3088 13.4037
44.3569 13.4037
44.4052 13.3531
44.4533 13.2621
44.5016 13.1678
44.5497 13.1829
44.598 13.1309
44.6461 13.109
44.6945 13.0702
44.7426 13.0128
44.791 12.9265
44.8391 12.9506
44.8875 12.9066
44.9357 12.8315
44.984 12.7757
45.0322 12.7022
45.0806 12.7105
45.1288 12.6495
45.1773 12.6156
45.2257 12.5659
45.2739 12.5065
45.3224 12.4759
45.3706 12.4275
45.4191 12.3298
45.4673 12.3406
45.5158 12.3163
45.5641 12.2911
45.6126 12.24
45.6609 12.1816
45.7094 12.1343
45.7577 12.0573
45.8063 12.0828
45.8546 11.9936
45.9031 11.9457
45.9515 11.9273
46.0001 11.8222
46.0484 11.8127
46.097 11.8033
46.1454 11.7189
46.194 11.6881
46.2424 11.6559
46.291 11.648
46.3395 11.5258
46.3881 11.5079
46.4365 11.5021
46.4852 11.4543
46.5337 11.3758
46.5823 11.3596
46.631 11.314
46.6795 11.2977
46.7282 11.2286
46.7767 11.1948
46.8254 11.1159
46.8739 11.0892
46.9226 11.0349
46.9712 11.0179
47.0199 10.997
47.0685 10.9465
47.1173 10.8899
47.1658 10.8445
47.2146 10.8132
47.2632 10.801
47.312 10.7684
47.3606 10.687
47.4095 10.6516
47.4581 10.6285
47.5069 10.537
47.5556 10.5231
47.6044 10.4651
47.6531 10.4432
47.702 10.4136
47.7507 10.3933
47.7996 10.3292
47.8483 10.2966
47.8972 10.3021
47.9461 10.2615
47.9948 10.1918
48.0438 10.1551
48.0925 10.1404
48.1415 10.0972
48.1902 10.0364
48.2392 10.0202
48.288 9.98837
48.337 9.96677
48.3858 9.88221
48.4348 9.89003
48.4837 9.88488
48.5327 9.79771
48.5815 9.76428
48.6306 9.73635
48.6795 9.74261
48.7285 9.67193
48.7774 9.62046
48.8265 9.65852
48.8754 9.55441
48.9245 9.50594
48.9734 9.49537
49.0226 9.46015
49.0715 9.43359
49.1206 9.37916
49.1696 9.34481
49.2188 9.37397
49.2679 9.24905
49.3169 9.26843
49.3661 9.22128
49.4151 9.18208
49.4643 9.13411
49.5134 9.10129
49.5626 9.01468
49.6117 9.02496
49.6609 9.02539
49.71 8.92893
49.7592 8.88046
49.8083 8.87683
49.8576 8.86607
49.9067 8.77728
49.956 8.78014
50.0052 8.75603
50.0545 8.71827
50.1036 8.67335
50.153 8.6477
50.2022 8.62603
50.2515 8.58854
50.3007 8.51766
50.3501 8.473
50.3993 8.47481
50.4487 8.46228
50.498 8.40888
50.5474 8.40303
50.5966 8.32447
50.6461 8.33304
50.6955 8.28531
50.7448 8.23595
50.7943 8.23784
50.8436 8.17446
50.8931 8.17074
50.9424 8.11976
50.9919 8.09116
51.0413 8.04689
51.0908 8.04303
51.1402 7.99777
51.1897 7.95855
51.2391 7.93456
51.2887 7.89703
51.3381 7.83093
51.3877 7.84609
51.4371 7.7832
51.4867 7.81021
51.5362 7.71936
51.5858 7.7169
51.6353 7.63317
51.6849 7.64377
51.7344 7.61559
51.7841 7.59935
51.8336 7.54739
51.8833 7.50956
51.9328 7.49581
51.9826 7.40859
52.0323 7.42999
52.0818 7.41892
52.1316 7.38515
52.1812 7.30516
52.231 7.28949
52.2806 7.24416
52.3304 7.23113
52.38 7.21111
52.4298 7.17543
52.4794 7.12813
52.5293 7.12263
52.5789 7.07828
52.6288 7.06624
52.6785 7.01406
52.7284 6.99911
52.7781 6.97445
52.828 6.94851
52.8777 6.89004
52.9276 6.88599
52.9774 6.83257
53.0273 6.83386
53.0771 6.76951
53.1271 6.77497
53.1769 6.76783
53.2269 6.71046
53.2767 6.67983
53.3267 6.68613
53.3765 6.63096
53.4266 6.60741
53.4766 6.56583
53.5265 6.53565
53.5765 6.47985
53.6264 6.46611
53.6765 6.4374
53.7264 6.423
53.7765 6.4302
53.8265 6.39451
53.8766 6.35237
53.9266 6.35087
53.9767 6.31713
54.0267 6.29012
54.0769 6.20798
54.1269 6.16194
54.1771 6.1415
54.2271 6.14302
54.2773 6.07456
54.3274 6.08574
54.3776 6.04912
54.4277 6.00082
54.478 5.99466
54.528 5.91776
54.5783 5.89703
54.6285 5.88633
54.6788 5.80098
54.7289 5.78958
54.7792 5.72018
54.8296 5.70796
54.8798 5.64537
54.9301 5.58379
54.9803 5.59262
55.0307 5.60533
55.0809 5.4863
55.1314 5.49292
55.1816 5.42996
55.232 5.34101
55.2823 5.32193
55.3328 5.27353
55.383 5.17326
55.4335 5.20299
55.4838 5.12008
55.5344 5.11468
55.5847 5.05633
55.6352 5.02979
55.6856 4.96396
55.7361 4.92496