File: XRD/Ni3Fe_FD0743.xy
TT I
1.27165 7.51048
1.31627 6.99405
1.36089 7.19692
1.40551 5.88829
1.45013 5.9751
1.49476 5.4679
1.53938 5.24748
1.584 5.39124
1.62863 5.62302
1.67325 5.35083
1.71787 5.24175
1.7625 5.05866
1.80712 4.42131
1.85174 4.50017
1.89636 4.73112
1.94099 4.8814
1.98562 4.60329
2.03025 5.07214
2.07487 4.38579
2.11949 5.124
2.16411 5.25919
2.20874 14.6208
2.25338 23.6839
2.298 5.55556
2.34263 5.56119
2.38725 5.64936
2.43188 6.48064
2.4765 6.57696
2.52115 6.7895
2.56577 8.38708
2.6104 8.27855
2.65503 8.20459
2.69965 8.48459
2.7443 8.66263
2.78893 8.62426
2.83356 8.49433
2.87818 9.38943
2.92281 9.41091
2.96744 9.17782
3.01209 10.376
3.05672 11.4387
3.10135 12.4575
3.14599 13.2329
3.19062 14.4264
3.23527 15.178
3.2799 16.0202
3.32454 17.0603
3.36917 17.3212
3.4138 19.039
3.45844 19.6065
3.50309 20.8651
3.54773 22.0378
3.59237 23.8955
3.637 94.4973
3.68164 60.2899
3.7263 26.4804
3.77094 26.622
3.81558 27.2959
3.86022 27.4984
3.90486 29.3618
3.9495 29.6881
3.99416 30.4866
4.0388 32.2856
4.08344 33.552
4.12809 34.9999
4.17273 37.6458
4.21738 43.4986
4.26204 257.644
4.30669 227.158
4.35133 49.072
4.39598 44.5359
4.44063 54.6286
4.4853 66.1085
4.52995 50.1202
4.5746 50.9478
4.61925 53.0175
4.6639 55.3145
4.70855 57.5524
4.75322 60.6782
4.79788 63.1327
4.84253 66.9569
4.88719 70.7789
4.93184 74.5757
4.97652 79.6258
5.02118 85.6445
5.06583 92.9261
5.11049 103.417
5.15515 170.776
5.19981 316.557
5.24449 2639.58
5.28916 12734.7
5.33382 2902.52
5.37848 184.951
5.42315 127.811
5.46783 112.771
5.5125 105.405
5.55716 101.785
5.60183 98.3633
5.6465 96.2783
5.69117 93.6012
5.73586 91.299
5.78053 90.3113
5.8252 90.0901
5.86988 90.4953
5.91455 92.9014
5.95924 99.6167
6.00392 186.488
6.0486 880.317
6.09328 4550.34
6.13795 3251.78
6.18263 241.675
6.22733 92.4559
6.27201 82.58
6.3167 102.587
6.36138 80.4872
6.40606 68.3711
6.45075 66.6518
6.49545 65.2214
6.54014 63.537
6.58483 62.831
6.62952 62.6727
6.67421 94.6691
6.71892 146.745
6.76361 68.9827
6.8083 58.4442
6.853 57.5478
6.89769 57.0288
6.94239 56.4968
6.98711 55.9699
7.03181 55.4149
7.07651 55.1614
7.12121 55.1086
7.16591 54.9114
7.21063 55.5521
7.25533 70.7685
7.30004 183.024
7.34475 92.5603
7.38945 56.651
7.43416 54.6864
7.47889 54.3548
7.5236 54.5411
7.56831 55.3066
7.61303 57.0982
7.65774 57.0593
7.70247 55.94
7.74719 56.0175
7.79191 56.4423
7.83663 56.5187
7.88135 57.932
7.92607 58.3972
7.97081 59.4512
8.01553 60.6872
8.06026 61.9034
8.10498 63.4984
8.14971 73.1642
8.19446 72.1473
8.23919 69.2352
8.28392 71.6116
8.32865 73.5133
8.37339 77.3453
8.41812 84.5569
8.46288 113.091
8.50761 153.14
8.55235 361.751
8.59709 1150.83
8.64183 2160.65
8.68658 989.561
8.73134 164.04
8.77609 98.4407
8.82083 91.742
8.86558 88.7863
8.91033 89.2271
8.9551 91.8893
8.99985 85.017
9.04461 83.1061
9.08936 82.3456
9.13412 81.428
9.17888 81.7768
9.22365 82.3736
9.26841 81.5131
9.31318 82.2811
9.35794 81.9446
9.4027 82.7482
9.44749 83.5531
9.49226 84.129
9.53703 85.1796
9.5818 86.8067
9.62657 91.8006
9.67134 97.9216
9.71614 92.9367
9.76091 93.393
9.80569 95.8222
9.85047 99.1265
9.89525 123.863
9.94005 135.052
9.98484 163.411
10.0296 319.624
10.0744 784.792
10.1192 1758.51
10.164 1645.2
10.2088 411.953
10.2536 126.516
10.2984 113.335
10.3432 114.637
10.388 103.668
10.4328 114.586
10.4776 153.938
10.5224 274.263
10.5672 513.792
10.612 510.176
10.6568 209.936
10.7017 96.7391
10.7465 86.1234
10.7913 82.4519
10.8361 80.3723
10.8809 78.3051
10.9257 78.2144
10.9706 78.734
11.0154 74.1644
11.0602 72.5065
11.105 71.49
11.1499 76.2361
11.1947 83.6977
11.2395 74.2817
11.2844 70.5197
11.3292 66.9305
11.374 65.8159
11.4189 65.4986
11.4637 64.613
11.5086 65.0283
11.5534 68.1685
11.5983 65.3759
11.6431 63.4608
11.688 62.6764
11.7328 62.7708
11.7777 62.4932
11.8225 62.1094
11.8674 61.9881
11.9122 62.7063
11.9571 62.4135
12.002 63.3846
12.0468 66.6177
12.0917 76.6639
12.1366 100.622
12.1814 151.09
12.2263 202.093
12.2712 167.806
12.3161 99.337
12.3609 70.5315
12.4058 64.3735
12.4507 63.945
12.4956 64.0486
12.5405 64.2202
12.5853 65.2076
12.6302 73.2605
12.6751 78.9089
12.72 69.6871
12.7649 67.3055
12.8098 68.0844
12.8547 69.0292
12.8996 70.3253
12.9445 71.856
12.9894 73.4976
13.0343 75.0056
13.0792 77.8967
13.1242 85.7068
13.1691 107.469
13.214 143.348
13.2589 233.632
13.3038 370.303
13.3487 417.606
13.3937 264.592
13.4386 126.595
13.4835 103.042
13.5285 116.254
13.5734 153.142
13.6183 243.364
13.6633 347.599
13.7082 337.829
13.7531 186.136
13.7981 97.9317
13.843 81.3499
13.888 79.0472
13.9329 76.7873
13.9779 75.6148
14.0228 73.8624
14.0678 72.499
14.1127 72.2249
14.1577 72.1744
14.2027 71.1226
14.2476 69.885
14.2926 70.0924
14.3376 71.3033
14.3825 70.0069
14.4275 68.5456
14.4725 68.0438
14.5175 68.644
14.5624 68.5073
14.6074 70.9011
14.6524 71.7687
14.6974 69.8671
14.7424 70.8122
14.7874 76.6495
14.8324 86.3634
14.8774 108.094
14.9224 151.477
14.9674 205.604
15.0124 216.841
15.0574 151.618
15.1024 91.7095
15.1474 72.0526
15.1924 69.7647
15.2374 70.8642
15.2824 70.1081
15.3274 67.9775
15.3725 66.3781
15.4175 66.0469
15.4625 65.5396
15.5076 65.9298
15.5526 65.8016
15.5976 65.2687
15.6426 65.965
15.6877 70.5837
15.7327 77.7968
15.7778 92.944
15.8228 124.634
15.8679 170.517
15.9129 194.296
15.958 156.74
16.003 98.2903
16.0481 68.3057
16.0931 64.5886
16.1382 62.5266
16.1833 60.4671
16.2283 58.7468
16.2734 58.0897
16.3185 58.3707
16.3636 59.2171
16.4086 57.6367
16.4537 55.9742
16.4988 55.2356
16.5439 55.1961
16.589 54.9202
16.6341 54.6213
16.6792 54.312
16.7243 54.4974
16.7694 54.7537
16.8145 54.6125
16.8596 54.984
16.9047 56.6591
16.9498 56.6982
16.9949 55.6236
17.04 55.4271
17.0851 56.3864
17.1302 58.0935
17.1754 61.0685
17.2205 66.0682
17.2656 74.1522
17.3108 83.0483
17.3559 82.7953
17.401 70.8771
17.4462 61.9456
17.4913 58.8577
17.5365 58.4584
17.5815 58.8475
17.6268 59.1094
17.6718 60.0302
17.7171 60.5173
17.7622 60.905
17.8074 61.3794
17.8525 63.1878
17.8977 67.0151
17.9428 72.3809
17.9881 81.2432
18.0331 98.5466
18.0784 121.561
18.1237 139.138
18.1688 130.035
18.214 102.776
18.2591 86.1
18.3044 90.2655
18.3495 100.533
18.3948 106.091
18.4399 95.8541
18.4852 77.2532
18.5303 65.793
18.5756 61.8172
18.6207 60.9918
18.666 60.2074
18.7112 59.4531
18.7565 58.7318
18.8016 58.2987
18.8469 57.7427
18.892 57.3642
18.9374 56.958
18.9825 56.6652
19.0278 56.6547
19.073 56.708
19.1183 56.9772
19.1635 57.7427
19.2088 59.0329
19.254 61.6023
19.2993 66.1181
19.3447 72.694
19.3898 76.1471
19.4352 71.8951
19.4804 63.0848
19.5257 56.6447
19.5709 53.9876
19.6163 53.4629
19.6615 53.5091
19.7068 52.9258
19.752 52.9714
19.7974 53.2422
19.8426 54.0482
19.888 54.5987
19.9332 55.8001
19.9786 58.2101
20.0238 62.0802
20.0692 66.8058
20.1144 69.3635
20.1598 67.8396
20.205 63.1305
20.2504 61.997
20.2957 63.731
20.3411 65.4946
20.3863 63.5138
20.4318 58.1509
20.477 53.5773
20.5224 51.5787
20.5677 50.7389
20.6131 50.0577
20.6586 49.4072
20.7038 49.2738
20.7493 48.9513
20.7945 48.6957
20.84 48.6881
20.8853 48.3294
20.9307 48.2023
20.976 48.3731
21.0215 48.1606
21.0668 48.6024
21.1122 49.1451
21.1575 49.7936
21.203 50.5532
21.2483 51.1074
21.2938 51.0951
21.3391 49.8331
21.3846 48.6352
21.4299 48.0057
21.4754 48.2069
21.5207 48.2909
21.5662 48.3787
21.6116 48.8217
21.6571 49.4999
21.7024 50.3024
21.7479 52.0464
21.7933 54.8159
21.8388 58.4822
21.8843 62.1778
21.9297 64.2968
21.9752 63.0114
22.0206 59.3853
22.0661 56.4174
22.1115 55.7818
22.157 55.4247
22.2024 54.0082
22.248 51.2285
22.2933 49.6755
22.3389 48.8471
22.3843 48.7852
22.4299 48.6048
22.4753 48.7077
22.5208 48.3695
22.5662 48.0648
22.6118 48.3416
22.6572 48.5745
22.7028 48.844
22.7483 49.3689
22.7939 49.9162
22.8393 51.4345
22.8849 53.7852
22.9303 55.9898
22.9759 57.6287
23.0214 57.1105
23.067 54.2992
23.1126 51.06
23.1581 49.0212
23.2037 48.7282
23.2492 48.4088
23.2948 48.4189
23.3403 48.7474
23.3859 49.2422
23.4314 50.3621
23.477 52.2633
23.5225 54.7365
23.5682 56.7987
23.6137 57.5362
23.6593 55.4316
23.7048 51.4818
23.7505 48.2291
23.796 46.4792
23.8417 45.909
23.8872 45.424
23.9329 44.9422
23.9784 44.748
24.0241 44.476
24.0697 44.2136
24.1154 43.9119
24.1609 43.6025
24.2066 43.5692
24.2522 43.4548
24.2979 43.1622
24.3434 43.0967
24.3892 42.8401
24.4349 42.9151
24.4805 42.6642
24.5262 42.8581
24.5718 42.8515
24.6175 42.6543
24.6631 42.5585
24.7089 42.3755
24.7545 42.2494
24.8002 42.099
24.8458 41.9898
24.8916 41.9094
24.9372 42.0527
24.983 42.3489
25.0286 42.5451
25.0744 42.9893
25.12 43.4629
25.1658 44.1832
25.2114 44.524
25.2572 44.6474
25.3029 44.7969
25.3487 44.702
25.3943 44.3685
25.4402 43.4545
25.4858 42.3208
25.5316 41.1924
25.5773 40.7874
25.6231 40.6527
25.669 40.3376
25.7147 40.3534
25.7605 40.4074
25.8062 40.2373
25.8521 40.5433
25.8977 40.3139
25.9436 40.6283
25.9893 40.6837
26.0352 41.1865
26.0809 41.3542
26.1268 41.4657
26.1725 41.1796
26.2184 40.685
26.2641 40.2134
26.31 39.9047
26.3557 39.8736
26.4017 39.893
26.4474 40.218
26.4933 40.6052
26.5391 41.1096
26.585 41.4405
26.6308 41.9375
26.6767 41.9078
26.7225 41.8306
26.7684 41.2471
26.8142 40.701
26.8601 40.2317
26.9059 39.847
26.9519 39.407
26.9979 38.9928
27.0437 38.7708
27.0896 38.5844
27.1354 38.5178
27.1814 38.4958
27.2272 38.2919
27.2732 38.27
27.3191 38.1283
27.3651 38.2481
27.4109 38.0758
27.4569 38.3929
27.5027 38.3558
27.5488 38.3931
27.5946 38.0515
27.6407 38.0265
27.6865 37.9216
27.7326 37.5571
27.7784 37.7428
27.8245 37.5599
27.8703 37.7594
27.9164 38.1706
27.9623 38.192
28.0084 38.4829
28.0543 38.9123
28.1003 38.8836
28.1462 38.6486
28.1923 38.3237
28.2384 37.6877
28.2843 37.4155
28.3304 37.0629
28.3764 36.4256
28.4225 36.36
28.4684 36.1243
28.5145 35.9168
28.5605 35.6535
28.6066 35.5253
28.6526 35.4925
28.6987 35.4379
28.7447 35.3448
28.7908 35.2631
28.8368 35.4235
28.8829 35.2739
28.9289 35.1541
28.9751 35.0947
29.0211 34.8021
29.0673 34.5331
29.1133 34.4939
29.1595 34.264
29.2055 34.1194
29.2517 34.2293
29.2977 34.1282
29.3439 34.0963
29.3899 34.0572
29.4361 34.05
29.4824 33.7052
29.5284 33.5988
29.5746 33.2742
29.6207 32.9647
29.6669 33.0351
29.713 32.7638
29.7593 32.6738
29.8053 32.6385
29.8516 32.5764
29.8977 32.6438
29.9439 32.4721
29.99 32.4484
30.0363 32.3282
30.0824 32.2371
30.1287 32.1857
30.1748 32.3659
30.2211 32.3106
30.2673 32.1991
30.3136 32.2228
30.3597 32.118
30.406 32.0195
30.4522 31.8475
30.4985 31.9307
30.5447 32.0527
30.591 31.9486
30.6372 32.0069
30.6835 32.0335
30.7297 32.1204
30.7761 31.9826
30.8224 31.8952
30.8686 31.6968
30.915 31.4442
30.9612 31.3018
31.0076 31.2105
31.0538 31.1061
31.1002 31.0139
31.1464 30.7772
31.1928 30.8194
31.2391 30.8217
31.2855 30.7742
31.3317 30.656
31.3781 30.7137
31.4244 30.7369
31.4708 30.6231
31.5171 30.6485
31.5636 30.5696
31.6098 30.3773
31.6563 30.2521
31.7026 30.1273
31.7491 29.9723
31.7953 30.1076
31.8418 29.9777
31.8881 30.0872
31.9346 29.9508
31.9809 29.8561
32.0275 29.7094
32.074 29.6973
32.1203 29.462
32.1668 29.3286
32.2132 29.2176
32.2597 29.0952
32.306 29.0135
32.3526 28.8225
32.399 28.8535
32.4455 28.6451
32.4919 28.6112
32.5385 28.5225
32.5848 28.361
32.6314 28.3554
32.6778 28.2803
32.7244 28.0827
32.7708 27.9725
32.8174 27.9335
32.8638 27.8201
32.9104 27.9171
32.9569 27.9297
33.0035 27.7346
33.0499 27.7738
33.0966 27.7202
33.143 27.596
33.1897 27.5851
33.2361 27.5148
33.2828 27.4942
33.3293 27.2252
33.3759 27.2521
33.4226 27.1995
33.4691 26.9283
33.5158 26.8743
33.5623 26.7976
33.609 26.6485
33.6555 26.6583
33.7022 26.3689
33.7487 26.4395
33.7954 26.3512
33.842 26.2757
33.8887 26.1862
33.9353 26.1821
33.982 26.0968
34.0286 25.9759
34.0753 25.8869
34.1219 25.7845
34.1687 25.6636
34.2152 25.6493
34.262 25.4961
34.3086 25.4402
34.3554 25.3825
34.402 25.3167
34.4488 25.1399
34.4954 25.2382
34.5422 24.9211
34.5889 24.9258
34.6357 24.8954
34.6825 24.7875
34.7292 24.7509
34.776 24.6902
34.8227 24.5484
34.8695 24.5379
34.9162 24.554
34.9631 24.4034
35.0098 24.4116
35.0566 24.2221
35.1033 24.2032
35.1502 24.1608
35.1969 24.0181
35.2438 24.1079
35.2906 23.9844
35.3375 23.9333
35.3842 23.9426
35.4311 23.891
35.4779 23.8617
35.5248 23.8227
35.5716 23.6716
35.6185 23.6395
35.6653 23.5949
35.7123 23.4061
35.759 23.4294
35.806 23.2676
35.8528 23.1327
35.8998 23.0875
35.9468 23.0509
35.9936 22.9238
36.0406 22.854
36.0874 22.8864
36.1345 22.7352
36.1813 22.6375
36.2283 22.6921
36.2752 22.4776
36.3222 22.5838
36.3691 22.5144
36.4161 22.334
36.463 22.2995
36.5101 22.3421
36.557 22.2378
36.6041 22.1023
36.651 22.0886
36.6981 22.0202
36.745 22.0265
36.7921 21.8419
36.839 21.7731
36.8861 21.693
36.9331 21.6483
36.9802 21.5798
37.0272 21.509
37.0743 21.4884
37.1213 21.4119
37.1684 21.2785
37.2154 21.2244
37.2626 21.1875
37.3098 21.1177
37.3568 21.0161
37.404 21.025
37.451 20.9525
37.4982 20.8627
37.5452 20.7397
37.5924 20.6789
37.6395 20.7319
37.6867 20.6422
37.7337 20.5292
37.781 20.388
37.8281 20.362
37.8753 20.25
37.9224 20.2452
37.9697 20.156
38.0168 20.0952
38.064 20.0
38.1111 20.0172
38.1584 19.9922
38.2056 19.8985
38.2529 19.788
38.3 19.7231
38.3473 19.7101
38.3945 19.6041
38.4418 19.5896
38.489 19.5159
38.5363 19.4159
38.5837 19.3654
38.6309 19.304
38.6782 19.2692
38.7254 19.144
38.7728 19.1486
38.82 19.0552
38.8674 19.0096
38.9146 18.9749
38.9621 18.8501
39.0093 18.8965
39.0567 18.805
39.104 18.771
39.1514 18.5859
39.1987 18.626
39.2461 18.4876
39.2934 18.4639
39.3409 18.3923
39.3882 18.3604
39.4356 18.2734
39.483 18.2253
39.5304 18.1725
39.5778 18.116
39.6253 18.0362
39.6726 17.9671
39.7201 17.9796
39.7675 17.9292
39.815 17.8325
39.8624 17.7148
39.9099 17.7663
39.9575 17.6219
40.0049 17.6349
40.0525 17.5219
40.0999 17.4746
40.1474 17.4505
40.1949 17.3419
40.2425 17.2686
40.2899 17.2868
40.3375 17.1732
40.385 17.174
40.4326 17.1085
40.48 17.0439
40.5277 17.0231
40.5752 16.9332
40.6228 16.8342
40.6703 16.9371
40.718 16.7806
40.7655 16.7223
40.8132 16.6503
40.8607 16.6845
40.9084 16.6022
40.9559 16.5192
41.0036 16.5141
41.0512 16.4591
41.0989 16.4245
41.1465 16.3687
41.1942 16.2894
41.242 16.1981
41.2896 16.102
41.3373 16.1268
41.3849 16.0538
41.4327 16.008
41.4803 15.8714
41.5281 15.8991
41.5758 15.7771
41.6236 15.7656
41.6712 15.6577
41.7191 15.6487
41.7667 15.6606
41.8146 15.5496
41.8622 15.531
41.9101 15.4456
41.9578 15.3938
42.0057 15.3598
42.0534 15.2981
42.1013 15.3197
42.149 15.2457
42.1969 15.1377
42.2446 15.1507
42.2925 15.0512
42.3403 15.0371
42.3882 14.9558
42.436 14.8994
42.4839 14.8314
42.5319 14.8185
42.5797 14.8012
42.6277 14.7243
42.6755 14.6769
42.7235 14.5738
42.7713 14.5745
42.8193 14.5165
42.8671 14.4318
42.9152 14.4393
42.963 14.3528
43.0111 14.2644
43.0589 14.3024
43.107 14.2175
43.1549 14.135
43.2029 14.1243
43.2508 14.0872
43.2989 14.0286
43.3468 13.9292
43.3949 13.8862
43.4429 13.9053
43.491 13.7943
43.5389 13.754
43.5871 13.7745
43.635 13.697
43.6832 13.6431
43.7312 13.5625
43.7793 13.514
43.8273 13.5462
43.8755 13.415
43.9237 13.4485
43.9717 13.4028
44.0199 13.2934
44.068 13.2779
44.1162 13.2051
44.1642 13.2338
44.2125 13.1234
44.2606 13.0717
44.3088 13.056
44.3569 13.0053
44.4052 13.0072
44.4533 12.9258
44.5016 12.8668
44.5497 12.7633
44.598 12.7658
44.6461 12.7159
44.6945 12.6671
44.7426 12.6058
44.791 12.5647
44.8391 12.5532
44.8875 12.5342
44.9357 12.4399
44.984 12.4312
45.0322 12.3581
45.0806 12.3431
45.1288 12.2929
45.1773 12.2589
45.2257 12.246
45.2739 12.111
45.3224 12.1268
45.3706 12.0839
45.4191 12.0225
45.4673 12.0364
45.5158 11.9681
45.5641 11.9057
45.6126 11.8386
45.6609 11.7982
45.7094 11.7505
45.7577 11.7646
45.8063 11.6831
45.8546 11.6655
45.9031 11.6134
45.9515 11.568
46.0001 11.5469
46.0484 11.5063
46.097 11.4689
46.1454 11.4344
46.194 11.3886
46.2424 11.3269
46.291 11.2907
46.3395 11.2387
46.3881 11.1792
46.4365 11.1404
46.4852 11.1276
46.5337 11.0763
46.5823 11.042
46.631 11.0037
46.6795 10.9632
46.7282 10.9436
46.7767 10.8589
46.8254 10.8329
46.8739 10.8118
46.9226 10.729
46.9712 10.7261
47.0199 10.7064
47.0685 10.6363
47.1173 10.561
47.1658 10.5622
47.2146 10.4995
47.2632 10.4571
47.312 10.4759
47.3606 10.3626
47.4095 10.361
47.4581 10.3257
47.5069 10.2838
47.5556 10.204
47.6044 10.2078
47.6531 10.1922
47.702 10.1053
47.7507 10.0768
47.7996 10.0481
47.8483 10.0388
47.8972 9.9948
47.9461 9.9194
47.9948 9.90571
48.0438 9.85881
48.0925 9.84663
48.1415 9.84586
48.1902 9.74682
48.2392 9.76213
48.288 9.70507
48.337 9.69914
48.3858 9.65804
48.4348 9.60056
48.4837 9.5954
48.5327 9.57008
48.5815 9.50398
48.6306 9.46582
48.6795 9.40603
48.7285 9.38188
48.7774 9.31537
48.8265 9.33002
48.8754 9.29279
48.9245 9.25099
48.9734 9.22399
49.0226 9.18219
49.0715 9.14986
49.1206 9.10373
49.1696 9.04737
49.2188 9.03811
49.2679 8.96981
49.3169 8.9675
49.3661 8.90144
49.4151 8.90619
49.4643 8.87331
49.5134 8.83311
49.5626 8.81118
49.6117 8.75676
49.6609 8.73643
49.71 8.72848
49.7592 8.67445
49.8083 8.64426
49.8576 8.63908
49.9067 8.58128
49.956 8.53553
50.0052 8.49044
50.0545 8.50382
50.1036 8.44877
50.153 8.39691
50.2022 8.35916
50.2515 8.34925
50.3007 8.3009
50.3501 8.26159
50.3993 8.26434
50.4487 8.20458
50.498 8.19643
50.5474 8.13005
50.5966 8.10101
50.6461 8.05428
50.6955 8.04371
50.7448 8.04462
50.7943 8.01116
50.8436 7.96373
50.8931 7.93083
50.9424 7.91702
50.9919 7.84447
51.0413 7.84977
51.0908 7.82263
51.1402 7.7691
51.1897 7.71169
51.2391 7.70851
51.2887 7.62269
51.3381 7.65105
51.3877 7.60702
51.4371 7.56914
51.4867 7.53949
51.5362 7.53062
51.5858 7.52073
51.6353 7.43363
51.6849 7.40105
51.7344 7.38763
51.7841 7.40653
51.8336 7.34875
51.8833 7.31559
51.9328 7.28236
51.9826 7.25503
52.0323 7.20379
52.0818 7.2012
52.1316 7.13955
52.1812 7.08972
52.231 7.07374
52.2806 7.07666
52.3304 7.04224
52.38 7.02688
52.4298 6.98982
52.4794 6.94697
52.5293 6.92706
52.5789 6.88829
52.6288 6.88337
52.6785 6.85061
52.7284 6.81656
52.7781 6.80021
52.828 6.74272
52.8777 6.7545
52.9276 6.67329
52.9774 6.67384
53.0273 6.66262
53.0771 6.61977
53.1271 6.59503
53.1769 6.54485
53.2269 6.56665
53.2767 6.50929
53.3267 6.4978
53.3765 6.47064
53.4266 6.40094
53.4766 6.42084
53.5265 6.35797
53.5765 6.34053
53.6264 6.31241
53.6765 6.28489
53.7264 6.25185
53.7765 6.22725
53.8265 6.25962
53.8766 6.15062
53.9266 6.13757
53.9767 6.13609
54.0267 6.13911
54.0769 6.06341
54.1269 6.01773
54.1771 6.00947
54.2271 5.96926
54.2773 5.91171
54.3274 5.88113
54.3776 5.88951
54.4277 5.85191
54.478 5.78296
54.528 5.76958
54.5783 5.76552
54.6285 5.69184
54.6788 5.69096
54.7289 5.59901
54.7792 5.611
54.8296 5.50812
54.8798 5.48426
54.9301 5.44694
54.9803 5.43836
55.0307 5.4256
55.0809 5.31002
55.1314 5.34926
55.1816 5.28946
55.232 5.21569
55.2823 5.20905
55.3328 5.10247
55.383 5.07163
55.4335 5.05209
55.4838 4.96316
55.5344 4.94692
55.5847 4.93967
55.6352 4.91544
55.6856 4.84653
55.7361 4.78489