File: XRD/Ni3Fe_FD0562.xy
TT I
1.27165 7.65946
1.31627 6.65227
1.36089 6.25123
1.40551 5.85821
1.45013 6.45001
1.49476 5.14902
1.53938 5.63858
1.584 5.22096
1.62863 5.12668
1.67325 5.09286
1.71787 5.14176
1.7625 4.94377
1.80712 4.89043
1.85174 4.76593
1.89636 4.6318
1.94099 4.98968
1.98562 5.2058
2.03025 4.75847
2.07487 4.558
2.11949 4.70107
2.16411 4.52482
2.20874 10.6775
2.25338 15.7845
2.298 6.15966
2.34263 5.17351
2.38725 5.81172
2.43188 6.39954
2.4765 7.48538
2.52115 6.39073
2.56577 7.49223
2.6104 7.49374
2.65503 7.79293
2.69965 7.8171
2.7443 8.05491
2.78893 8.34876
2.83356 8.26197
2.87818 8.32241
2.92281 8.49898
2.96744 8.91364
3.01209 10.6209
3.05672 11.1818
3.10135 12.2301
3.14599 12.8736
3.19062 14.1103
3.23527 15.2464
3.2799 15.5856
3.32454 17.1613
3.36917 17.638
3.4138 18.802
3.45844 19.6125
3.50309 20.8451
3.54773 22.0669
3.59237 23.7902
3.637 68.3402
3.68164 45.9774
3.7263 26.1507
3.77094 25.8059
3.81558 26.6814
3.86022 27.6098
3.90486 28.8405
3.9495 29.5154
3.99416 30.9064
4.0388 32.1126
4.08344 33.5177
4.12809 34.8843
4.17273 36.3807
4.21738 41.1733
4.26204 178.089
4.30669 150.958
4.35133 46.3086
4.39598 44.1699
4.44063 51.5043
4.4853 59.1038
4.52995 50.6645
4.5746 51.9927
4.61925 53.7187
4.6639 55.6238
4.70855 58.6281
4.75322 61.7237
4.79788 64.9749
4.84253 68.158
4.88719 71.9608
4.93184 76.0597
4.97652 81.9532
5.02118 88.6362
5.06583 96.6931
5.11049 108.157
5.15515 165.874
5.19981 433.141
5.24449 3162.03
5.28916 12270.6
5.33382 2941.91
5.37848 197.634
5.42315 129.968
5.46783 115.0
5.5125 107.173
5.55716 102.971
5.60183 99.444
5.6465 97.4455
5.69117 95.4166
5.73586 93.2687
5.78053 93.3621
5.8252 93.1307
5.86988 94.2347
5.91455 96.7324
5.95924 107.524
6.00392 252.427
6.0486 1096.88
6.09328 4441.62
6.13795 3391.38
6.18263 251.794
6.22733 93.7357
6.27201 83.1863
6.3167 93.1657
6.36138 77.667
6.40606 69.358
6.45075 67.6759
6.49545 65.8416
6.54014 64.0657
6.58483 63.0009
6.62952 62.676
6.67421 82.8407
6.71892 114.472
6.76361 65.2977
6.8083 58.6536
6.853 57.7198
6.89769 56.9286
6.94239 56.497
6.98711 55.857
7.03181 55.488
7.07651 55.5277
7.12121 55.3695
7.16591 55.5847
7.21063 55.6278
7.25533 65.8928
7.30004 136.232
7.34475 78.9085
7.38945 55.8958
7.43416 54.4403
7.47889 54.3659
7.5236 54.8034
7.56831 55.5382
7.61303 56.54
7.65774 56.6506
7.70247 56.1153
7.74719 56.5762
7.79191 56.8537
7.83663 57.1729
7.88135 58.2386
7.92607 59.3036
7.97081 59.8974
8.01553 61.4606
8.06026 62.8367
8.10498 64.143
8.14971 71.1863
8.19446 70.7432
8.23919 70.1009
8.28392 72.5183
8.32865 75.102
8.37339 79.1773
8.41812 85.7423
8.46288 109.219
8.50761 186.878
8.55235 432.658
8.59709 1230.23
8.64183 2215.66
8.68658 973.959
8.73134 164.029
8.77609 100.237
8.82083 93.2117
8.86558 90.7723
8.91033 90.2364
8.9551 90.2011
8.99985 85.7274
9.04461 84.2727
9.08936 83.5792
9.13412 82.6466
9.17888 82.9869
9.22365 83.1663
9.26841 82.4262
9.31318 83.53
9.35794 83.8499
9.4027 84.1576
9.44749 84.8455
9.49226 85.372
9.53703 86.2568
9.5818 88.0618
9.62657 91.6947
9.67134 96.4876
9.71614 93.8464
9.76091 94.7769
9.80569 97.9195
9.85047 100.905
9.89525 118.536
9.94005 133.412
9.98484 200.359
10.0296 378.348
10.0744 854.538
10.1192 1712.17
10.164 1540.45
10.2088 398.048
10.2536 126.647
10.2984 112.115
10.3432 112.15
10.388 105.804
10.4328 125.255
10.4776 170.348
10.5224 294.956
10.5672 518.585
10.612 499.77
10.6568 193.56
10.7017 95.7282
10.7465 87.1455
10.7913 83.8931
10.8361 81.4456
10.8809 79.3815
10.9257 78.6051
10.9706 78.4017
11.0154 74.9858
11.0602 73.325
11.105 71.9298
11.1499 74.3537
11.1947 78.7521
11.2395 72.7295
11.2844 69.895
11.3292 67.4429
11.374 66.3748
11.4189 66.0878
11.4637 65.3881
11.5086 65.4947
11.5534 66.9608
11.5983 64.9893
11.6431 64.0655
11.688 63.2338
11.7328 63.3365
11.7777 63.392
11.8225 63.0289
11.8674 62.8367
11.9122 63.1374
11.9571 63.3349
12.002 64.4907
12.0468 69.8862
12.0917 81.4541
12.1366 105.704
12.1814 155.319
12.2263 200.571
12.2712 159.751
12.3161 91.3606
12.3609 68.7942
12.4058 64.6754
12.4507 64.512
12.4956 64.7283
12.5405 64.9303
12.5853 65.6175
12.6302 70.7414
12.6751 74.3636
12.72 69.1482
12.7649 68.2574
12.8098 68.7321
12.8547 69.9805
12.8996 71.5474
12.9445 72.8425
12.9894 74.6612
13.0343 76.6285
13.0792 80.5379
13.1242 92.6679
13.1691 117.148
13.214 156.988
13.2589 248.735
13.3038 373.018
13.3487 425.756
13.3937 257.324
13.4386 123.294
13.4835 109.452
13.5285 125.93
13.5734 166.035
13.6183 254.351
13.6633 348.69
13.7082 337.329
13.7531 181.288
13.7981 96.9951
13.843 82.1153
13.888 79.8564
13.9329 77.5632
13.9779 76.2058
14.0228 75.0899
14.0678 73.7045
14.1127 72.85
14.1577 72.3133
14.2027 71.5741
14.2476 70.852
14.2926 71.0015
14.3376 71.2959
14.3825 70.2941
14.4275 69.3387
14.4725 69.0601
14.5175 69.2705
14.5624 69.6178
14.6074 71.0666
14.6524 71.5358
14.6974 71.0258
14.7424 73.6613
14.7874 81.4059
14.8324 92.3505
14.8774 115.282
14.9224 157.906
14.9674 209.59
15.0124 218.091
15.0574 144.356
15.1024 88.9581
15.1474 72.189
15.1924 70.7152
15.2374 70.7249
15.2824 69.8387
15.3274 68.2435
15.3725 67.2003
15.4175 66.8399
15.4625 66.5405
15.5076 66.4467
15.5526 66.6768
15.5976 66.494
15.6426 68.5317
15.6877 74.5421
15.7327 82.4938
15.7778 98.6541
15.8228 130.973
15.8679 172.972
15.9129 195.239
15.958 153.192
16.003 94.7838
16.0481 67.2174
16.0931 63.8707
16.1382 62.4699
16.1833 60.7623
16.2283 59.3601
16.2734 58.6065
16.3185 58.5236
16.3636 58.9263
16.4086 57.6342
16.4537 56.4202
16.4988 55.8242
16.5439 55.5809
16.589 55.4968
16.6341 55.3583
16.6792 54.8653
16.7243 55.1997
16.7694 55.0731
16.8145 55.122
16.8596 55.6116
16.9047 56.583
16.9498 56.786
16.9949 55.9913
17.04 56.3935
17.0851 57.956
17.1302 59.5714
17.1754 62.7658
17.2205 67.8805
17.2656 75.2311
17.3108 82.7117
17.3559 81.5539
17.401 71.2759
17.4462 62.3691
17.4913 59.5131
17.5365 59.4675
17.5815 59.5661
17.6268 60.0501
17.6718 60.7822
17.7171 61.4363
17.7622 61.8543
17.8074 62.7143
17.8525 65.7665
17.8977 69.6991
17.9428 75.508
17.9881 84.8918
18.0331 102.663
18.0784 123.38
18.1237 141.419
18.1688 132.905
18.214 102.912
18.2591 87.0923
18.3044 91.9833
18.3495 101.158
18.3948 106.281
18.4399 95.4189
18.4852 77.2106
18.5303 65.9009
18.5756 62.5524
18.6207 61.5237
18.666 60.7042
18.7112 59.9565
18.7565 59.3285
18.8016 59.0638
18.8469 58.5689
18.892 58.1071
18.9374 57.5565
18.9825 57.5665
19.0278 57.297
19.073 57.6261
19.1183 57.7789
19.1635 58.5012
19.2088 60.2058
19.254 62.9521
19.2993 67.5104
19.3447 73.0258
19.3898 76.4318
19.4352 72.0905
19.4804 63.0514
19.5257 56.7973
19.5709 54.4664
19.6163 54.113
19.6615 54.0021
19.7068 53.6378
19.752 53.5753
19.7974 54.2633
19.8426 54.9661
19.888 55.6584
19.9332 57.1167
19.9786 59.4229
20.0238 63.3173
20.0692 67.8179
20.1144 70.3554
20.1598 68.4434
20.205 63.9543
20.2504 62.5635
20.2957 64.3252
20.3411 65.8122
20.3863 64.0324
20.4318 58.278
20.477 53.5446
20.5224 51.961
20.5677 51.1106
20.6131 50.6616
20.6586 49.9911
20.7038 49.7975
20.7493 49.2754
20.7945 49.2939
20.84 49.0802
20.8853 49.0956
20.9307 48.8124
20.976 49.2085
21.0215 48.7875
21.0668 49.4619
21.1122 49.7394
21.1575 50.4708
21.203 51.1858
21.2483 51.7281
21.2938 51.6483
21.3391 50.3686
21.3846 49.2183
21.4299 48.7739
21.4754 48.8672
21.5207 48.8774
21.5662 49.0955
21.6116 49.6006
21.6571 50.4263
21.7024 51.3168
21.7479 53.3945
21.7933 56.2758
21.8388 59.6984
21.8843 63.3963
21.9297 65.008
21.9752 63.4436
22.0206 59.7053
22.0661 56.7342
22.1115 56.4567
22.157 56.2166
22.2024 54.4086
22.248 51.5697
22.2933 49.9369
22.3389 49.5328
22.3843 49.1648
22.4299 49.1092
22.4753 49.1207
22.5208 48.9708
22.5662 48.6888
22.6118 49.0687
22.6572 49.2461
22.7028 49.7364
22.7483 50.2729
22.7939 51.0732
22.8393 52.473
22.8849 54.562
22.9303 56.6835
22.9759 58.1862
23.0214 57.6042
23.067 54.6201
23.1126 51.294
23.1581 49.5456
23.2037 49.0281
23.2492 49.1715
23.2948 49.5125
23.3403 49.6049
23.3859 50.3391
23.4314 51.3385
23.477 53.1578
23.5225 55.2676
23.5682 57.4891
23.6137 58.3026
23.6593 55.6355
23.7048 51.545
23.7505 48.3666
23.796 46.8649
23.8417 46.103
23.8872 45.8659
23.9329 45.4584
23.9784 45.1503
24.0241 44.9668
24.0697 44.749
24.1154 44.3427
24.1609 44.1856
24.2066 44.045
24.2522 44.0249
24.2979 43.7014
24.3434 43.5544
24.3892 43.3508
24.4349 43.432
24.4805 43.1254
24.5262 43.4037
24.5718 43.2374
24.6175 43.2219
24.6631 42.9957
24.7089 42.7198
24.7545 42.579
24.8002 42.3824
24.8458 42.4272
24.8916 42.3425
24.9372 42.3697
24.983 42.8347
25.0286 43.145
25.0744 43.7314
25.12 44.1372
25.1658 44.8318
25.2114 44.9247
25.2572 45.1289
25.3029 45.0077
25.3487 45.1552
25.3943 44.8435
25.4402 43.608
25.4858 42.5751
25.5316 41.6925
25.5773 41.2866
25.6231 41.1717
25.669 40.8798
25.7147 40.739
25.7605 40.7133
25.8062 40.75
25.8521 40.971
25.8977 40.9197
25.9436 41.1879
25.9893 41.278
26.0352 41.8684
26.0809 41.8493
26.1268 41.9171
26.1725 41.6493
26.2184 41.034
26.2641 40.5837
26.31 40.5433
26.3557 40.4225
26.4017 40.4075
26.4474 40.6158
26.4933 41.0928
26.5391 41.6063
26.585 41.8936
26.6308 42.4517
26.6767 42.4319
26.7225 42.231
26.7684 41.7027
26.8142 41.0956
26.8601 40.5719
26.9059 40.3072
26.9519 39.6995
26.9979 39.4409
27.0437 39.0172
27.0896 39.0121
27.1354 39.0312
27.1814 38.8708
27.2272 38.7135
27.2732 38.7941
27.3191 38.5765
27.3651 38.7511
27.4109 38.5995
27.4569 38.9209
27.5027 38.772
27.5488 38.8325
27.5946 38.5861
27.6407 38.4673
27.6865 38.3061
27.7326 38.1692
27.7784 38.192
27.8245 38.1087
27.8703 38.2492
27.9164 38.5612
27.9623 38.6974
28.0084 38.964
28.0543 39.3735
28.1003 39.206
28.1462 39.0843
28.1923 38.6644
28.2384 38.1145
28.2843 37.7005
28.3304 37.3421
28.3764 36.9842
28.4225 36.5455
28.4684 36.5514
28.5145 36.2277
28.5605 36.0513
28.6066 35.7195
28.6526 35.8415
28.6987 35.8635
28.7447 35.7134
28.7908 35.6657
28.8368 35.8211
28.8829 35.6391
28.9289 35.5309
28.9751 35.3048
29.0211 35.0793
29.0673 34.7988
29.1133 34.7063
29.1595 34.527
29.2055 34.5687
29.2517 34.5609
29.2977 34.5133
29.3439 34.5776
29.3899 34.5135
29.4361 34.419
29.4824 34.1906
29.5284 33.9451
29.5746 33.4771
29.6207 33.3728
29.6669 33.2813
29.713 33.1289
29.7593 33.0669
29.8053 33.1522
29.8516 33.0371
29.8977 33.0126
29.9439 32.8451
29.99 32.784
30.0363 32.788
30.0824 32.8112
30.1287 32.6069
30.1748 32.6579
30.2211 32.5793
30.2673 32.5289
30.3136 32.6471
30.3597 32.4354
30.406 32.3437
30.4522 32.2915
30.4985 32.2763
30.5447 32.4637
30.591 32.4
30.6372 32.4084
30.6835 32.4539
30.7297 32.346
30.7761 32.2331
30.8224 32.1211
30.8686 32.0348
30.915 31.8331
30.9612 31.7594
31.0076 31.5608
31.0538 31.3984
31.1002 31.3999
31.1464 31.247
31.1928 31.1348
31.2391 31.1035
31.2855 31.0916
31.3317 31.0341
31.3781 31.0832
31.4244 31.1677
31.4708 31.0928
31.5171 30.9612
31.5636 30.8602
31.6098 30.827
31.6563 30.556
31.7026 30.3257
31.7491 30.3602
31.7953 30.4588
31.8418 30.414
31.8881 30.2747
31.9346 30.2764
31.9809 30.1856
32.0275 30.076
32.074 30.0188
32.1203 29.8009
32.1668 29.7089
32.2132 29.5637
32.2597 29.4953
32.306 29.4058
32.3526 29.2179
32.399 29.0892
32.4455 28.945
32.4919 28.8989
32.5385 28.763
32.5848 28.7171
32.6314 28.6524
32.6778 28.6092
32.7244 28.4462
32.7708 28.2525
32.8174 28.2623
32.8638 28.1522
32.9104 28.2956
32.9569 28.1917
33.0035 28.0109
33.0499 28.0188
33.0966 27.919
33.143 27.9461
33.1897 27.889
33.2361 27.7642
33.2828 27.7223
33.3293 27.5877
33.3759 27.5378
33.4226 27.4027
33.4691 27.3053
33.5158 27.1766
33.5623 27.1087
33.609 26.9363
33.6555 26.8949
33.7022 26.6309
33.7487 26.6227
33.7954 26.6689
33.842 26.6271
33.8887 26.5633
33.9353 26.4712
33.982 26.3261
34.0286 26.2373
34.0753 26.1607
34.1219 26.065
34.1687 25.9946
34.2152 25.9831
34.262 25.8239
34.3086 25.7781
34.3554 25.7223
34.402 25.5382
34.4488 25.4238
34.4954 25.4215
34.5422 25.4053
34.5889 25.1919
34.6357 25.0857
34.6825 25.0592
34.7292 24.9589
34.776 24.8327
34.8227 24.7852
34.8695 24.7185
34.9162 24.7566
34.9631 24.5926
35.0098 24.6324
35.0566 24.5322
35.1033 24.4995
35.1502 24.4237
35.1969 24.3854
35.2438 24.3407
35.2906 24.3112
35.3375 24.1739
35.3842 24.1444
35.4311 24.1362
35.4779 24.0511
35.5248 24.0777
35.5716 23.9134
35.6185 23.8162
35.6653 23.6908
35.7123 23.6242
35.759 23.5468
35.806 23.408
35.8528 23.3332
35.8998 23.3449
35.9468 23.3062
35.9936 23.2532
36.0406 23.1805
36.0874 23.1544
36.1345 23.0245
36.1813 22.975
36.2283 22.8614
36.2752 22.744
36.3222 22.7831
36.3691 22.7128
36.4161 22.7152
36.463 22.6228
36.5101 22.5224
36.557 22.469
36.6041 22.3468
36.651 22.2713
36.6981 22.2031
36.745 22.2269
36.7921 22.0938
36.839 21.9583
36.8861 21.9163
36.9331 21.8056
36.9802 21.7217
37.0272 21.6647
37.0743 21.6169
37.1213 21.6725
37.1684 21.5394
37.2154 21.4946
37.2626 21.3699
37.3098 21.3777
37.3568 21.2739
37.404 21.2475
37.451 21.0207
37.4982 21.1433
37.5452 21.0457
37.5924 20.9034
37.6395 20.9298
37.6867 20.8902
37.7337 20.8004
37.781 20.651
37.8281 20.5804
37.8753 20.5823
37.9224 20.4336
37.9697 20.3637
38.0168 20.2976
38.064 20.2703
38.1111 20.2392
38.1584 20.1488
38.2056 20.0654
38.2529 19.9682
38.3 20.0218
38.3473 19.965
38.3945 19.7638
38.4418 19.7174
38.489 19.733
38.5363 19.5705
38.5837 19.5614
38.6309 19.4632
38.6782 19.4133
38.7254 19.357
38.7728 19.3006
38.82 19.2543
38.8674 19.2178
38.9146 19.1075
38.9621 19.036
39.0093 19.0202
39.0567 18.9527
39.104 18.8638
39.1514 18.818
39.1987 18.7874
39.2461 18.767
39.2934 18.7274
39.3409 18.553
39.3882 18.5504
39.4356 18.4227
39.483 18.4134
39.5304 18.344
39.5778 18.3473
39.6253 18.2464
39.6726 18.2033
39.7201 18.1808
39.7675 18.1034
39.815 18.0087
39.8624 17.8951
39.9099 17.9488
39.9575 17.8129
40.0049 17.851
40.0525 17.7542
40.0999 17.7353
40.1474 17.689
40.1949 17.5699
40.2425 17.5147
40.2899 17.4599
40.3375 17.4093
40.385 17.3909
40.4326 17.3311
40.48 17.2173
40.5277 17.2194
40.5752 17.1418
40.6228 17.0378
40.6703 16.9774
40.718 16.9761
40.7655 16.9604
40.8132 16.8321
40.8607 16.7988
40.9084 16.7638
40.9559 16.6878
41.0036 16.6387
41.0512 16.5781
41.0989 16.5472
41.1465 16.4884
41.1942 16.4091
41.242 16.3386
41.2896 16.31
41.3373 16.338
41.3849 16.2645
41.4327 16.1666
41.4803 16.0844
41.5281 16.0838
41.5758 15.9852
41.6236 15.9276
41.6712 15.8687
41.7191 15.8225
41.7667 15.7285
41.8146 15.7044
41.8622 15.6843
41.9101 15.6582
41.9578 15.5386
42.0057 15.5257
42.0534 15.4
42.1013 15.4689
42.149 15.3403
42.1969 15.2721
42.2446 15.2347
42.2925 15.2057
42.3403 15.1557
42.3882 15.1239
42.436 15.0385
42.4839 15.0141
42.5319 15.0053
42.5797 14.9293
42.6277 14.8565
42.6755 14.7939
42.7235 14.7416
42.7713 14.7243
42.8193 14.677
42.8671 14.6162
42.9152 14.5141
42.963 14.4604
43.0111 14.4136
43.0589 14.43
43.107 14.3695
43.1549 14.3417
43.2029 14.2196
43.2508 14.2332
43.2989 14.1909
43.3468 14.0814
43.3949 14.0433
43.4429 13.9748
43.491 13.9488
43.5389 13.927
43.5871 13.8466
43.635 13.8144
43.6832 13.7798
43.7312 13.7372
43.7793 13.6548
43.8273 13.6463
43.8755 13.5731
43.9237 13.5507
43.9717 13.4657
44.0199 13.4371
44.068 13.4253
44.1162 13.315
44.1642 13.3479
44.2125 13.2366
44.2606 13.2248
44.3088 13.1242
44.3569 13.0929
44.4052 13.1109
44.4533 13.0082
44.5016 12.9547
44.5497 12.9735
44.598 12.891
44.6461 12.8563
44.6945 12.8091
44.7426 12.7908
44.791 12.6596
44.8391 12.6733
44.8875 12.6287
44.9357 12.5577
44.984 12.5787
45.0322 12.4961
45.0806 12.4182
45.1288 12.4161
45.1773 12.3142
45.2257 12.3392
45.2739 12.2461
45.3224 12.1894
45.3706 12.1967
45.4191 12.1098
45.4673 12.1066
45.5158 12.0612
45.5641 12.0024
45.6126 11.9559
45.6609 11.8606
45.7094 11.8636
45.7577 11.8376
45.8063 11.7424
45.8546 11.7828
45.9031 11.6733
45.9515 11.6591
46.0001 11.6317
46.0484 11.5988
46.097 11.5644
46.1454 11.5207
46.194 11.5025
46.2424 11.447
46.291 11.4022
46.3395 11.3518
46.3881 11.3093
46.4365 11.328
46.4852 11.2461
46.5337 11.1367
46.5823 11.1475
46.631 11.0808
46.6795 11.0814
46.7282 11.049
46.7767 10.9679
46.8254 10.8773
46.8739 10.9129
46.9226 10.8534
46.9712 10.7998
47.0199 10.7926
47.0685 10.7317
47.1173 10.7145
47.1658 10.6105
47.2146 10.5885
47.2632 10.5645
47.312 10.5257
47.3606 10.4625
47.4095 10.4524
47.4581 10.3841
47.5069 10.3366
47.5556 10.3162
47.6044 10.3071
47.6531 10.2931
47.702 10.1778
47.7507 10.181
47.7996 10.1578
47.8483 10.1241
47.8972 10.0394
47.9461 10.0444
47.9948 9.99414
48.0438 9.96036
48.0925 9.97247
48.1415 9.87721
48.1902 9.85052
48.2392 9.8382
48.288 9.79767
48.337 9.79486
48.3858 9.71822
48.4348 9.67898
48.4837 9.68745
48.5327 9.60939
48.5815 9.60606
48.6306 9.58089
48.6795 9.51121
48.7285 9.46898
48.7774 9.42085
48.8265 9.43848
48.8754 9.36703
48.9245 9.32872
48.9734 9.3315
49.0226 9.24752
49.0715 9.24847
49.1206 9.17007
49.1696 9.14911
49.2188 9.13573
49.2679 9.08312
49.3169 9.06419
49.3661 8.98543
49.4151 9.00926
49.4643 8.97377
49.5134 8.93629
49.5626 8.85956
49.6117 8.83239
49.6609 8.81679
49.71 8.77331
49.7592 8.75931
49.8083 8.68583
49.8576 8.7048
49.9067 8.65784
49.956 8.59703
50.0052 8.57025
50.0545 8.52158
50.1036 8.49597
50.153 8.48283
50.2022 8.46172
50.2515 8.43911
50.3007 8.36989
50.3501 8.34502
50.3993 8.29625
50.4487 8.2827
50.498 8.27203
50.5474 8.21915
50.5966 8.17927
50.6461 8.19798
50.6955 8.13329
50.7448 8.12067
50.7943 8.07435
50.8436 7.98679
50.8931 7.97177
50.9424 7.98511
50.9919 7.93398
51.0413 7.9341
51.0908 7.87762
51.1402 7.85538
51.1897 7.81547
51.2391 7.78174
51.2887 7.7506
51.3381 7.72272
51.3877 7.68674
51.4371 7.67035
51.4867 7.61098
51.5362 7.59329
51.5858 7.56045
51.6353 7.53137
51.6849 7.50795
51.7344 7.45523
51.7841 7.43919
51.8336 7.44292
51.8833 7.37961
51.9328 7.32891
51.9826 7.27905
52.0323 7.27993
52.0818 7.21942
52.1316 7.22501
52.1812 7.20918
52.231 7.15668
52.2806 7.12803
52.3304 7.13866
52.38 7.09609
52.4298 7.03628
52.4794 7.05102
52.5293 6.96788
52.5789 6.95426
52.6288 6.92517
52.6785 6.88185
52.7284 6.92308
52.7781 6.84755
52.828 6.81261
52.8777 6.75516
52.9276 6.74771
52.9774 6.74755
53.0273 6.70415
53.0771 6.67618
53.1271 6.6869
53.1769 6.62596
53.2269 6.56835
53.2767 6.55218
53.3267 6.53523
53.3765 6.52361
53.4266 6.48081
53.4766 6.44367
53.5265 6.42467
53.5765 6.36632
53.6264 6.32525
53.6765 6.33942
53.7264 6.26895
53.7765 6.27507
53.8265 6.26703
53.8766 6.22057
53.9266 6.20222
53.9767 6.14269
54.0267 6.18202
54.0769 6.09185
54.1269 6.09831
54.1771 6.06488
54.2271 6.03778
54.2773 5.99654
54.3274 5.9233
54.3776 5.88349
54.4277 5.93174
54.478 5.85139
54.528 5.83192
54.5783 5.79298
54.6285 5.7173
54.6788 5.68916
54.7289 5.6462
54.7792 5.64324
54.8296 5.6069
54.8798 5.54838
54.9301 5.51275
54.9803 5.4576
55.0307 5.47406
55.0809 5.3386
55.1314 5.39897
55.1816 5.34147
55.232 5.26081
55.2823 5.22465
55.3328 5.11068
55.383 5.14664
55.4335 5.09048
55.4838 5.04164
55.5344 4.95569
55.5847 4.90348
55.6352 4.92077
55.6856 4.92141
55.7361 4.87627