File: XRD/Ni3Fe_FD0876.xy
TT I
1.27165 7.07823
1.31627 7.13678
1.36089 5.92844
1.40551 6.14363
1.45013 5.95662
1.49476 5.86644
1.53938 5.91646
1.584 5.0255
1.62863 5.13678
1.67325 5.017
1.71787 4.86579
1.7625 4.61168
1.80712 4.86532
1.85174 4.71049
1.89636 4.53259
1.94099 4.26093
1.98562 5.0395
2.03025 4.59343
2.07487 4.76777
2.11949 4.73035
2.16411 5.52197
2.20874 15.8259
2.25338 27.2792
2.298 6.29662
2.34263 5.83086
2.38725 6.07897
2.43188 6.04433
2.4765 6.75457
2.52115 7.31369
2.56577 7.80018
2.6104 8.75011
2.65503 8.36716
2.69965 8.34145
2.7443 8.36412
2.78893 7.92787
2.83356 8.51761
2.87818 8.09298
2.92281 9.1204
2.96744 9.86514
3.01209 10.3713
3.05672 10.7002
3.10135 12.7606
3.14599 13.1201
3.19062 14.1924
3.23527 15.2105
3.2799 15.6225
3.32454 16.6852
3.36917 17.8195
3.4138 19.2252
3.45844 19.3285
3.50309 20.9539
3.54773 21.6541
3.59237 24.225
3.637 105.076
3.68164 66.1639
3.7263 26.774
3.77094 26.5659
3.81558 26.9362
3.86022 27.1579
3.90486 29.0651
3.9495 29.5902
3.99416 30.8548
4.0388 32.5473
4.08344 33.8512
4.12809 34.6187
4.17273 36.9627
4.21738 43.7094
4.26204 285.257
4.30669 255.323
4.35133 49.4459
4.39598 44.8401
4.44063 54.0114
4.4853 68.7444
4.52995 50.4225
4.5746 50.4559
4.61925 52.8229
4.6639 54.8573
4.70855 57.1729
4.75322 60.0988
4.79788 62.9992
4.84253 66.4993
4.88719 70.0083
4.93184 73.6019
4.97652 78.865
5.02118 84.2775
5.06583 90.973
5.11049 101.985
5.15515 173.787
5.19981 290.982
5.24449 2393.02
5.28916 12813.5
5.33382 2895.86
5.37848 177.837
5.42315 125.484
5.46783 111.12
5.5125 104.232
5.55716 100.255
5.60183 96.5112
5.6465 95.2408
5.69117 92.2095
5.73586 90.0602
5.78053 89.9064
5.8252 88.834
5.86988 89.3837
5.91455 90.9296
5.95924 96.417
6.00392 170.297
6.0486 805.848
6.09328 4361.3
6.13795 3227.35
6.18263 226.207
6.22733 90.9294
6.27201 82.0073
6.3167 106.097
6.36138 81.0699
6.40606 68.0536
6.45075 66.7061
6.49545 64.7625
6.54014 63.1898
6.58483 62.3968
6.62952 62.1706
6.67421 98.6862
6.71892 159.754
6.76361 70.4591
6.8083 58.4045
6.853 56.9619
6.89769 56.6596
6.94239 56.1825
6.98711 55.362
7.03181 55.132
7.07651 54.7825
7.12121 54.7376
7.16591 54.9698
7.21063 55.0527
7.25533 72.8369
7.30004 201.553
7.34475 97.9235
7.38945 56.4337
7.43416 54.0703
7.47889 53.9409
7.5236 54.3428
7.56831 54.9722
7.61303 56.9288
7.65774 57.6073
7.70247 55.5249
7.74719 55.4475
7.79191 56.0921
7.83663 56.3811
7.88135 57.1385
7.92607 57.9602
7.97081 58.9209
8.01553 60.1413
8.06026 61.4048
8.10498 62.9384
8.14971 73.8904
8.19446 72.7712
8.23919 68.8346
8.28392 70.6817
8.32865 72.6206
8.37339 76.406
8.41812 83.6676
8.46288 115.012
8.50761 144.448
8.55235 326.336
8.59709 1108.63
8.64183 2278.45
8.68658 964.982
8.73134 164.479
8.77609 97.3409
8.82083 91.3051
8.86558 88.0176
8.91033 88.9207
8.9551 91.9193
8.99985 84.5193
9.04461 82.2898
9.08936 81.6965
9.13412 80.8286
9.17888 81.2634
9.22365 81.9654
9.26841 80.8772
9.31318 81.4172
9.35794 81.8432
9.4027 82.1247
9.44749 82.8125
9.49226 83.2946
9.53703 84.0933
9.5818 85.8323
9.62657 91.2645
9.67134 98.9049
9.71614 92.8874
9.76091 92.3295
9.80569 94.6918
9.85047 97.9715
9.89525 125.238
9.94005 137.485
9.98484 156.402
10.0296 296.196
10.0744 740.212
10.1192 1755.37
10.164 1611.22
10.2088 404.976
10.2536 124.778
10.2984 112.593
10.3432 115.097
10.388 102.705
10.4328 111.584
10.4776 146.637
10.5224 264.357
10.5672 524.859
10.612 504.427
10.6568 199.635
10.7017 95.4068
10.7465 85.4369
10.7913 81.7636
10.8361 80.0254
10.8809 77.8743
10.9257 77.8774
10.9706 78.9701
11.0154 74.1191
11.0602 71.9633
11.105 71.0593
11.1499 76.5884
11.1947 85.6052
11.2395 75.1968
11.2844 70.1289
11.3292 66.5103
11.374 65.3179
11.4189 64.6801
11.4637 64.3656
11.5086 64.9671
11.5534 68.4946
11.5983 65.3007
11.6431 62.8994
11.688 62.1615
11.7328 62.3296
11.7777 62.3129
11.8225 61.6674
11.8674 61.6967
11.9122 61.9463
11.9571 62.0836
12.002 62.693
12.0468 65.3442
12.0917 75.136
12.1366 97.7099
12.1814 149.463
12.2263 208.102
12.2712 168.882
12.3161 98.5168
12.3609 71.1364
12.4058 63.9399
12.4507 63.4177
12.4956 63.4933
12.5405 63.8158
12.5853 64.6601
12.6302 73.9055
12.6751 80.4594
12.72 69.8647
12.7649 67.1584
12.8098 67.6983
12.8547 68.5781
12.8996 69.7335
12.9445 70.9846
12.9894 72.8759
13.0343 74.3739
13.0792 77.2367
13.1242 84.2899
13.1691 104.377
13.214 137.638
13.2589 224.25
13.3038 367.125
13.3487 429.296
13.3937 263.497
13.4386 123.398
13.4835 100.685
13.5285 112.787
13.5734 148.027
13.6183 240.164
13.6633 353.213
13.7082 345.555
13.7531 184.613
13.7981 95.6675
13.843 80.8015
13.888 78.0865
13.9329 75.7722
13.9779 74.624
14.0228 73.2868
14.0678 71.9355
14.1127 71.5848
14.1577 71.6173
14.2027 70.5975
14.2476 69.489
14.2926 69.7116
14.3376 71.0534
14.3825 69.6908
14.4275 67.8788
14.4725 67.5591
14.5175 67.8879
14.5624 67.8646
14.6074 70.7153
14.6524 71.1026
14.6974 69.166
14.7424 70.1494
14.7874 75.7223
14.8324 83.9779
14.8774 104.782
14.9224 148.559
14.9674 208.355
15.0124 216.741
15.0574 146.435
15.1024 89.6911
15.1474 71.328
15.1924 69.5591
15.2374 70.4875
15.2824 69.8693
15.3274 67.3995
15.3725 66.0855
15.4175 65.3593
15.4625 64.987
15.5076 65.4355
15.5526 65.2392
15.5976 64.7381
15.6426 65.1977
15.6877 69.2476
15.7327 75.7999
15.7778 89.7709
15.8228 121.834
15.8679 167.761
15.9129 195.267
15.958 155.07
16.003 94.66
16.0481 67.3664
16.0931 64.2917
16.1382 62.2509
16.1833 60.0021
16.2283 58.3951
16.2734 57.8194
16.3185 58.073
16.3636 59.0086
16.4086 57.3108
16.4537 55.7298
16.4988 54.7557
16.5439 54.7381
16.589 54.4408
16.6341 54.1858
16.6792 53.8148
16.7243 54.1205
16.7694 54.2956
16.8145 54.1141
16.8596 54.5091
16.9047 56.4819
16.9498 56.4566
16.9949 54.9144
17.04 54.9213
17.0851 55.896
17.1302 57.4502
17.1754 60.3002
17.2205 65.0314
17.2656 72.9364
17.3108 82.73
17.3559 81.5432
17.401 69.8439
17.4462 60.9481
17.4913 58.1944
17.5365 58.3365
17.5815 58.4726
17.6268 58.6171
17.6718 59.4576
17.7171 59.8575
17.7622 60.3356
17.8074 60.7378
17.8525 62.4377
17.8977 65.8926
17.9428 70.8917
17.9881 78.9709
18.0331 96.4893
18.0784 120.413
18.1237 138.423
18.1688 129.346
18.214 101.183
18.2591 84.3768
18.3044 88.5512
18.3495 99.5904
18.3948 105.372
18.4399 95.4583
18.4852 76.7898
18.5303 65.3049
18.5756 61.3253
18.6207 60.4447
18.666 59.6048
18.7112 58.8276
18.7565 58.1007
18.8016 57.7956
18.8469 57.1221
18.892 57.0563
18.9374 56.5124
18.9825 56.2714
19.0278 56.1257
19.073 56.1863
19.1183 56.4143
19.1635 57.1564
19.2088 58.2931
19.254 60.7944
19.2993 65.4412
19.3447 72.4502
19.3898 76.5073
19.4352 71.6882
19.4804 62.4269
19.5257 55.8845
19.5709 53.536
19.6163 53.1842
19.6615 52.7118
19.7068 52.4568
19.752 52.5235
19.7974 52.817
19.8426 53.6768
19.888 53.9483
19.9332 55.1199
19.9786 57.5305
20.0238 61.0537
20.0692 66.3057
20.1144 69.4642
20.1598 67.6111
20.205 62.5184
20.2504 61.3171
20.2957 63.3478
20.3411 65.2567
20.3863 63.8794
20.4318 57.8685
20.477 53.2435
20.5224 51.1555
20.5677 50.4721
20.6131 49.7312
20.6586 49.0084
20.7038 48.9522
20.7493 48.5352
20.7945 48.383
20.84 48.1174
20.8853 48.0491
20.9307 47.972
20.976 48.0975
21.0215 47.7765
21.0668 48.3624
21.1122 48.6338
21.1575 49.4349
21.203 50.3063
21.2483 50.7582
21.2938 50.7839
21.3391 49.4347
21.3846 48.3493
21.4299 47.8589
21.4754 47.6193
21.5207 47.7859
21.5662 48.0998
21.6116 48.3777
21.6571 49.0814
21.7024 49.7738
21.7479 51.4631
21.7933 54.1624
21.8388 57.9758
21.8843 62.103
21.9297 63.9912
21.9752 62.495
22.0206 58.6712
22.0661 56.041
22.1115 55.49
22.157 55.4139
22.2024 53.539
22.248 50.8055
22.2933 49.1341
22.3389 48.6251
22.3843 48.5286
22.4299 48.2055
22.4753 48.1882
22.5208 47.9466
22.5662 47.8031
22.6118 47.8043
22.6572 48.1442
22.7028 48.362
22.7483 48.7513
22.7939 49.4274
22.8393 51.1196
22.8849 53.2423
22.9303 55.358
22.9759 57.3388
23.0214 56.946
23.067 53.7955
23.1126 50.585
23.1581 48.5936
23.2037 48.1869
23.2492 48.123
23.2948 47.9217
23.3403 48.3509
23.3859 48.9033
23.4314 49.8981
23.477 51.587
23.5225 54.1306
23.5682 56.4052
23.6137 57.3264
23.6593 55.0541
23.7048 51.1107
23.7505 47.7415
23.796 46.0113
23.8417 45.6824
23.8872 44.9117
23.9329 44.752
23.9784 44.3907
24.0241 43.9765
24.0697 43.9303
24.1154 43.535
24.1609 43.6113
24.2066 43.4334
24.2522 43.0905
24.2979 42.879
24.3434 42.7088
24.3892 42.671
24.4349 42.5298
24.4805 42.4317
24.5262 42.5586
24.5718 42.3398
24.6175 42.3701
24.6631 42.3291
24.7089 41.9983
24.7545 41.9446
24.8002 41.6737
24.8458 41.744
24.8916 41.4998
24.9372 41.5545
24.983 41.9544
25.0286 42.2933
25.0744 42.6018
25.12 43.112
25.1658 43.7488
25.2114 44.1058
25.2572 44.1863
25.3029 44.4139
25.3487 44.4757
25.3943 44.1576
25.4402 43.043
25.4858 41.9484
25.5316 41.012
25.5773 40.4546
25.6231 40.3281
25.669 40.1204
25.7147 40.1622
25.7605 39.9319
25.8062 39.9516
25.8521 40.1857
25.8977 40.1202
25.9436 40.1681
25.9893 40.3572
26.0352 41.0905
26.0809 41.101
26.1268 41.0594
26.1725 40.8563
26.2184 40.2253
26.2641 39.6748
26.31 39.5753
26.3557 39.4808
26.4017 39.5474
26.4474 39.8312
26.4933 40.2684
26.5391 40.7181
26.585 41.1597
26.6308 41.5461
26.6767 41.6325
26.7225 41.4129
26.7684 40.9842
26.8142 40.4677
26.8601 39.8306
26.9059 39.5742
26.9519 38.9761
26.9979 38.6293
27.0437 38.4002
27.0896 38.2174
27.1354 38.1716
27.1814 38.0817
27.2272 38.0734
27.2732 38.0484
27.3191 37.9115
27.3651 37.9744
27.4109 37.973
27.4569 38.0958
27.5027 38.1012
27.5488 38.1434
27.5946 37.9379
27.6407 37.6545
27.6865 37.6058
27.7326 37.308
27.7784 37.3758
27.8245 37.1669
27.8703 37.5628
27.9164 37.6715
27.9623 37.9521
28.0084 38.3512
28.0543 38.6163
28.1003 38.485
28.1462 38.3627
28.1923 38.0014
28.2384 37.4054
28.2843 37.045
28.3304 36.7289
28.3764 36.404
28.4225 36.0458
28.4684 35.8241
28.5145 35.6623
28.5605 35.4833
28.6066 35.2805
28.6526 35.2284
28.6987 35.1327
28.7447 35.0982
28.7908 35.0383
28.8368 35.0565
28.8829 35.1229
28.9289 34.959
28.9751 34.6857
29.0211 34.4736
29.0673 34.247
29.1133 34.1473
29.1595 33.9677
29.2055 33.8763
29.2517 33.9091
29.2977 33.9722
29.3439 33.8162
29.3899 33.9686
29.4361 33.617
29.4824 33.6055
29.5284 33.3899
29.5746 32.9707
29.6207 32.7582
29.6669 32.6427
29.713 32.6074
29.7593 32.5251
29.8053 32.4875
29.8516 32.5193
29.8977 32.3567
29.9439 32.2606
29.99 32.236
30.0363 32.1511
30.0824 32.1593
30.1287 32.038
30.1748 32.0043
30.2211 32.0289
30.2673 31.8658
30.3136 31.9981
30.3597 31.9477
30.406 31.8422
30.4522 31.6175
30.4985 31.6984
30.5447 31.7839
30.591 31.7138
30.6372 31.8354
30.6835 31.7609
30.7297 31.8784
30.7761 31.7305
30.8224 31.6007
30.8686 31.519
30.915 31.2929
30.9612 31.1537
31.0076 31.073
31.0538 30.7683
31.1002 30.7297
31.1464 30.5783
31.1928 30.5611
31.2391 30.6321
31.2855 30.5289
31.3317 30.4955
31.3781 30.5279
31.4244 30.4894
31.4708 30.519
31.5171 30.4542
31.5636 30.3963
31.6098 30.1856
31.6563 29.9821
31.7026 29.8658
31.7491 29.6924
31.7953 29.7762
31.8418 29.7348
31.8881 29.8303
31.9346 29.7388
31.9809 29.5744
32.0275 29.5815
32.074 29.5081
32.1203 29.2774
32.1668 29.145
32.2132 29.0171
32.2597 28.8141
32.306 28.8771
32.3526 28.6468
32.399 28.64
32.4455 28.4305
32.4919 28.3669
32.5385 28.3397
32.5848 28.1422
32.6314 28.1915
32.6778 28.0486
32.7244 27.9394
32.7708 27.8199
32.8174 27.7988
32.8638 27.6806
32.9104 27.7515
32.9569 27.7122
33.0035 27.5032
33.0499 27.5075
33.0966 27.4251
33.143 27.4696
33.1897 27.3272
33.2361 27.2838
33.2828 27.2349
33.3293 27.106
33.3759 27.0264
33.4226 26.9271
33.4691 26.8748
33.5158 26.7394
33.5623 26.5647
33.609 26.4375
33.6555 26.3806
33.7022 26.2902
33.7487 26.2129
33.7954 26.189
33.842 25.9875
33.8887 26.0514
33.9353 25.9685
33.982 25.8746
34.0286 25.7811
34.0753 25.6461
34.1219 25.6195
34.1687 25.5882
34.2152 25.4443
34.262 25.3363
34.3086 25.2668
34.3554 25.2953
34.402 25.0582
34.4488 25.0965
34.4954 24.9764
34.5422 24.9037
34.5889 24.813
34.6357 24.6428
34.6825 24.6169
34.7292 24.6115
34.776 24.4398
34.8227 24.4316
34.8695 24.4059
34.9162 24.2556
34.9631 24.2022
35.0098 24.2184
35.0566 24.0687
35.1033 23.9943
35.1502 23.9728
35.1969 23.885
35.2438 23.857
35.2906 23.8015
35.3375 23.7134
35.3842 23.7295
35.4311 23.7178
35.4779 23.6116
35.5248 23.6261
35.5716 23.4681
35.6185 23.4132
35.6653 23.3339
35.7123 23.1723
35.759 23.1689
35.806 23.1856
35.8528 22.9999
35.8998 23.006
35.9468 22.8684
35.9936 22.8084
36.0406 22.7792
36.0874 22.7047
36.1345 22.6764
36.1813 22.5037
36.2283 22.4319
36.2752 22.4342
36.3222 22.3471
36.3691 22.3154
36.4161 22.1765
36.463 22.1742
36.5101 22.1689
36.557 22.0592
36.6041 21.9398
36.651 21.9251
36.6981 21.8812
36.745 21.8422
36.7921 21.7098
36.839 21.6258
36.8861 21.5525
36.9331 21.4906
36.9802 21.4163
37.0272 21.398
37.0743 21.2751
37.1213 21.2217
37.1684 21.1816
37.2154 21.0175
37.2626 20.9802
37.3098 20.9866
37.3568 20.9364
37.404 20.8436
37.451 20.6767
37.4982 20.6839
37.5452 20.5764
37.5924 20.5121
37.6395 20.631
37.6867 20.4663
37.7337 20.3854
37.781 20.3459
37.8281 20.2709
37.8753 20.1148
37.9224 20.1085
37.9697 20.0356
38.0168 19.9685
38.064 19.9373
38.1111 19.8933
38.1584 19.7569
38.2056 19.7317
38.2529 19.6301
38.3 19.6119
38.3473 19.5657
38.3945 19.4737
38.4418 19.46
38.489 19.3913
38.5363 19.2933
38.5837 19.2368
38.6309 19.167
38.6782 19.117
38.7254 19.0002
38.7728 19.0265
38.82 18.9747
38.8674 18.9047
38.9146 18.8407
38.9621 18.7795
39.0093 18.6607
39.0567 18.6793
39.104 18.5487
39.1514 18.4937
39.1987 18.4916
39.2461 18.4367
39.2934 18.3264
39.3409 18.2275
39.3882 18.1519
39.4356 18.1431
39.483 18.1119
39.5304 18.0532
39.5778 18.0277
39.6253 17.9462
39.6726 17.912
39.7201 17.9148
39.7675 17.7771
39.815 17.7398
39.8624 17.6161
39.9099 17.6405
39.9575 17.5506
40.0049 17.4428
40.0525 17.3628
40.0999 17.4086
40.1474 17.3442
40.1949 17.2284
40.2425 17.1603
40.2899 17.1282
40.3375 17.0484
40.385 17.0298
40.4326 17.0071
40.48 16.8923
40.5277 16.913
40.5752 16.8272
40.6228 16.7633
40.6703 16.7263
40.718 16.707
40.7655 16.649
40.8132 16.5623
40.8607 16.5649
40.9084 16.4772
40.9559 16.4102
41.0036 16.3768
41.0512 16.3533
41.0989 16.2996
41.1465 16.1755
41.1942 16.1487
41.242 16.081
41.2896 16.0091
41.3373 15.9722
41.3849 15.9405
41.4327 15.8691
41.4803 15.7991
41.5281 15.7687
41.5758 15.7123
41.6236 15.7049
41.6712 15.6253
41.7191 15.5751
41.7667 15.5043
41.8146 15.4657
41.8622 15.4065
41.9101 15.3912
41.9578 15.2875
42.0057 15.3055
42.0534 15.2384
42.1013 15.121
42.149 15.0665
42.1969 15.0537
42.2446 15.0007
42.2925 14.9581
42.3403 14.8663
42.3882 14.8575
42.436 14.8029
42.4839 14.7417
42.5319 14.7249
42.5797 14.6219
42.6277 14.5703
42.6755 14.5467
42.7235 14.5362
42.7713 14.4703
42.8193 14.3888
42.8671 14.3276
42.9152 14.2996
42.963 14.2659
43.0111 14.2042
43.0589 14.1676
43.107 14.1324
43.1549 14.0722
43.2029 13.9983
43.2508 13.9542
43.2989 13.8476
43.3468 13.8822
43.3949 13.8065
43.4429 13.7598
43.491 13.7409
43.5389 13.6504
43.5871 13.625
43.635 13.5962
43.6832 13.5447
43.7312 13.4736
43.7793 13.4691
43.8273 13.4106
43.8755 13.3463
43.9237 13.3097
43.9717 13.2519
44.0199 13.1953
44.068 13.1722
44.1162 13.1749
44.1642 13.1306
44.2125 13.0443
44.2606 13.0087
44.3088 12.9225
44.3569 12.8892
44.4052 12.9343
44.4533 12.8071
44.5016 12.7379
44.5497 12.739
44.598 12.7276
44.6461 12.611
44.6945 12.5827
44.7426 12.5285
44.791 12.4541
44.8391 12.4767
44.8875 12.4008
44.9357 12.3672
44.984 12.301
45.0322 12.2967
45.0806 12.1986
45.1288 12.1878
45.1773 12.156
45.2257 12.1309
45.2739 12.0802
45.3224 12.0296
45.3706 11.9707
45.4191 11.885
45.4673 11.8811
45.5158 11.8601
45.5641 11.8417
45.6126 11.7581
45.6609 11.7334
45.7094 11.6307
45.7577 11.6543
45.8063 11.6012
45.8546 11.5463
45.9031 11.4861
45.9515 11.5126
46.0001 11.4076
46.0484 11.3894
46.097 11.3531
46.1454 11.2994
46.194 11.2352
46.2424 11.2347
46.291 11.1759
46.3395 11.1494
46.3881 11.1267
46.4365 11.0769
46.4852 11.0597
46.5337 10.9569
46.5823 10.976
46.631 10.9116
46.6795 10.8605
46.7282 10.8981
46.7767 10.8234
46.8254 10.6936
46.8739 10.6754
46.9226 10.6905
46.9712 10.6144
47.0199 10.5963
47.0685 10.5405
47.1173 10.4854
47.1658 10.4737
47.2146 10.421
47.2632 10.3666
47.312 10.3877
47.3606 10.2985
47.4095 10.2902
47.4581 10.2897
47.5069 10.2211
47.5556 10.131
47.6044 10.1289
47.6531 10.1067
47.702 10.0289
47.7507 10.0372
47.7996 9.97107
47.8483 9.95889
47.8972 9.89071
47.9461 9.86302
47.9948 9.82677
48.0438 9.81612
48.0925 9.77407
48.1415 9.70996
48.1902 9.68908
48.2392 9.66328
48.288 9.62866
48.337 9.57194
48.3858 9.53712
48.4348 9.52252
48.4837 9.47492
48.5327 9.45713
48.5815 9.44009
48.6306 9.43304
48.6795 9.33099
48.7285 9.337
48.7774 9.27135
48.8265 9.25931
48.8754 9.18545
48.9245 9.18503
48.9734 9.13065
49.0226 9.15412
49.0715 9.10031
49.1206 9.04453
49.1696 9.01735
49.2188 8.99772
49.2679 8.96237
49.3169 8.87219
49.3661 8.87455
49.4151 8.84563
49.4643 8.81198
49.5134 8.75064
49.5626 8.705
49.6117 8.71248
49.6609 8.67777
49.71 8.63007
49.7592 8.63777
49.8083 8.56127
49.8576 8.55201
49.9067 8.48529
49.956 8.48714
50.0052 8.44287
50.0545 8.41795
50.1036 8.41469
50.153 8.37006
50.2022 8.29527
50.2515 8.29821
50.3007 8.24195
50.3501 8.21721
50.3993 8.1842
50.4487 8.16742
50.498 8.11873
50.5474 8.08277
50.5966 8.0196
50.6461 8.04691
50.6955 7.95806
50.7448 7.94602
50.7943 7.95293
50.8436 7.90851
50.8931 7.85272
50.9424 7.83956
50.9919 7.83637
51.0413 7.79022
51.0908 7.75166
51.1402 7.72968
51.1897 7.67386
51.2391 7.659
51.2887 7.61924
51.3381 7.58418
51.3877 7.59241
51.4371 7.5431
51.4867 7.49915
51.5362 7.46133
51.5858 7.42632
51.6353 7.40842
51.6849 7.3835
51.7344 7.35771
51.7841 7.31604
51.8336 7.28248
51.8833 7.24101
51.9328 7.20877
51.9826 7.1583
52.0323 7.16847
52.0818 7.13674
52.1316 7.11361
52.1812 7.08921
52.231 7.0143
52.2806 7.008
52.3304 7.01888
52.38 6.96982
52.4298 6.9307
52.4794 6.87679
52.5293 6.89423
52.5789 6.81963
52.6288 6.83213
52.6785 6.7973
52.7284 6.75146
52.7781 6.74169
52.828 6.71387
52.8777 6.64437
52.9276 6.65448
52.9774 6.63903
53.0273 6.62756
53.0771 6.57671
53.1271 6.56854
53.1769 6.46701
53.2269 6.51352
53.2767 6.42982
53.3267 6.41212
53.3765 6.37508
53.4266 6.39942
53.4766 6.36966
53.5265 6.33631
53.5765 6.31584
53.6264 6.27749
53.6765 6.22854
53.7264 6.21347
53.7765 6.20918
53.8265 6.15695
53.8766 6.1905
53.9266 6.11931
53.9767 6.05908
54.0267 6.06315
54.0769 6.05566
54.1269 5.99308
54.1771 5.96303
54.2271 5.94461
54.2773 5.88922
54.3274 5.90413
54.3776 5.80162
54.4277 5.82306
54.478 5.81145
54.528 5.74982
54.5783 5.70637
54.6285 5.67595
54.6788 5.61543
54.7289 5.58535
54.7792 5.51288
54.8296 5.47538
54.8798 5.43831
54.9301 5.4162
54.9803 5.37004
55.0307 5.36056
55.0809 5.31807
55.1314 5.27956
55.1816 5.22686
55.232 5.21191
55.2823 5.13991
55.3328 5.09547
55.383 5.02634
55.4335 5.03103
55.4838 4.96111
55.5344 4.95695
55.5847 4.90467
55.6352 4.83465
55.6856 4.74655
55.7361 4.78254