File: XRD/Ni3Fe_FD0075.xy
TT I
1.27165 12.8237
1.31627 11.5444
1.36089 11.0772
1.40551 10.6634
1.45013 10.5776
1.49476 9.54459
1.53938 9.50929
1.584 9.30598
1.62863 8.84914
1.67325 8.36385
1.71787 8.75666
1.7625 8.06697
1.80712 8.71887
1.85174 7.83158
1.89636 7.5424
1.94099 8.38136
1.98562 8.34484
2.03025 8.26897
2.07487 7.77694
2.11949 7.94559
2.16411 7.69913
2.20874 8.21753
2.25338 7.26654
2.298 7.51519
2.34263 6.80723
2.38725 7.55036
2.43188 7.1489
2.4765 7.26893
2.52115 7.01271
2.56577 7.28798
2.6104 7.52864
2.65503 6.92403
2.69965 8.33596
2.7443 7.93542
2.78893 9.28923
2.83356 9.86929
2.87818 10.932
2.92281 11.7189
2.96744 12.5061
3.01209 13.6934
3.05672 15.3824
3.10135 16.086
3.14599 16.9803
3.19062 17.3878
3.23527 17.9269
3.2799 17.6619
3.32454 17.9134
3.36917 17.8165
3.4138 18.6815
3.45844 19.3238
3.50309 19.7248
3.54773 19.7974
3.59237 20.4043
3.637 21.5311
3.68164 21.6498
3.7263 22.2531
3.77094 22.6662
3.81558 23.3461
3.86022 24.0325
3.90486 25.0564
3.9495 26.0688
3.99416 26.7624
4.0388 27.5016
4.08344 28.7433
4.12809 29.6857
4.17273 30.5184
4.21738 32.0871
4.26204 33.3305
4.30669 35.0641
4.35133 37.1726
4.39598 37.6269
4.44063 38.9453
4.4853 40.3195
4.52995 41.8506
4.5746 43.9461
4.61925 46.402
4.6639 48.5811
4.70855 51.1601
4.75322 53.9531
4.79788 57.3873
4.84253 61.0261
4.88719 66.4998
4.93184 73.1863
4.97652 83.2395
5.02118 96.8879
5.06583 112.456
5.11049 137.547
5.15515 200.53
5.19981 631.083
5.24449 2302.86
5.28916 3262.56
5.33382 7316.91
5.37848 1902.82
5.42315 350.348
5.46783 181.204
5.5125 139.037
5.55716 121.681
5.60183 108.652
5.6465 103.787
5.69117 100.133
5.73586 97.2166
5.78053 97.5853
5.8252 99.2451
5.86988 106.167
5.91455 119.457
5.95924 154.788
6.00392 331.655
6.0486 900.477
6.09328 1015.41
6.13795 2535.11
6.18263 1312.16
6.22733 244.773
6.27201 119.186
6.3167 87.8263
6.36138 73.7664
6.40606 65.7835
6.45075 61.7296
6.49545 58.6663
6.54014 56.095
6.58483 53.6865
6.62952 52.5011
6.67421 50.769
6.71892 49.9465
6.76361 48.8556
6.8083 47.9722
6.853 47.6173
6.89769 47.1124
6.94239 46.7089
6.98711 45.9926
7.03181 46.5458
7.07651 46.1334
7.12121 46.2026
7.16591 45.8115
7.21063 45.1496
7.25533 44.7388
7.30004 45.0769
7.34475 45.3625
7.38945 45.7419
7.43416 46.323
7.47889 49.1119
7.5236 80.7518
7.56831 192.487
7.61303 110.762
7.65774 54.3587
7.70247 48.3659
7.74719 46.9865
7.79191 46.8651
7.83663 46.7919
7.88135 47.487
7.92607 48.2532
7.97081 48.7959
8.01553 49.7229
8.06026 51.1339
8.10498 51.9882
8.14971 53.4873
8.19446 55.2428
8.23919 57.7094
8.28392 60.5926
8.32865 63.4501
8.37339 69.0876
8.41812 75.2844
8.46288 91.9816
8.50761 166.132
8.55235 433.374
8.59709 389.412
8.64183 474.932
8.68658 1382.27
8.73134 807.905
8.77609 175.115
8.82083 104.748
8.86558 87.3069
8.91033 80.8207
8.9551 76.8031
8.99985 74.5265
9.04461 73.8941
9.08936 73.6525
9.13412 74.4104
9.17888 79.1877
9.22365 128.152
9.26841 310.827
9.31318 205.378
9.35794 89.5448
9.4027 75.2216
9.44749 73.2448
9.49226 72.149
9.53703 72.8285
9.5818 73.2332
9.62657 73.2762
9.67134 74.4634
9.71614 76.4307
9.76091 77.767
9.80569 81.0117
9.85047 84.4902
9.89525 91.1851
9.94005 105.244
9.98484 173.532
10.0296 400.949
10.0744 376.185
10.1192 301.154
10.164 792.833
10.2088 1271.18
10.2536 433.684
10.2984 136.97
10.3432 104.741
10.388 95.5056
10.4328 108.312
10.4776 169.98
10.5224 158.703
10.5672 129.464
10.612 237.992
10.6568 424.49
10.7017 251.53
10.7465 128.003
10.7913 81.1184
10.8361 70.4824
10.8809 66.7821
10.9257 63.8907
10.9706 62.4504
11.0154 60.5173
11.0602 59.3008
11.105 58.3766
11.1499 56.9748
11.1947 56.0771
11.2395 55.3025
11.2844 54.603
11.3292 53.9858
11.374 53.2261
11.4189 52.807
11.4637 52.608
11.5086 51.7138
11.5534 51.7096
11.5983 51.2564
11.6431 51.5618
11.688 51.065
11.7328 51.3195
11.7777 51.1576
11.8225 51.7601
11.8674 52.9884
11.9122 60.6282
11.9571 97.757
12.002 106.663
12.0468 75.5665
12.0917 75.3283
12.1366 77.7524
12.1814 68.677
12.2263 72.6168
12.2712 115.349
12.3161 148.726
12.3609 88.7689
12.4058 59.1279
12.4507 54.0923
12.4956 52.7794
12.5405 52.1374
12.5853 52.1982
12.6302 52.1889
12.6751 52.4383
12.72 53.0222
12.7649 53.9964
12.8098 54.3412
12.8547 55.3843
12.8996 56.4382
12.9445 57.6324
12.9894 59.6639
13.0343 61.7317
13.0792 69.3303
13.1242 84.6001
13.1691 112.633
13.214 137.383
13.2589 114.939
13.3038 101.83
13.3487 140.985
13.3937 286.092
13.4386 288.158
13.4835 145.869
13.5285 130.997
13.5734 131.954
13.6183 103.968
13.6633 98.9299
13.7082 153.377
13.7531 279.686
13.7981 222.173
13.843 98.1756
13.888 71.9761
13.9329 66.4458
13.9779 64.2604
14.0228 63.3059
14.0678 62.7
14.1127 67.5175
14.1577 94.0949
14.2027 101.203
14.2476 75.6312
14.2926 61.0259
14.3376 58.2053
14.3825 57.3176
14.4275 56.5647
14.4725 56.4628
14.5175 56.256
14.5624 55.8602
14.6074 56.185
14.6524 56.2972
14.6974 56.8056
14.7424 58.9571
14.7874 66.2299
14.8324 83.7604
14.8774 86.0461
14.9224 74.8178
14.9674 72.2601
15.0124 89.5119
15.0574 151.224
15.1024 166.843
15.1474 98.0937
15.1924 67.5763
15.2374 59.3442
15.2824 56.3769
15.3274 54.9985
15.3725 54.3817
15.4175 54.1767
15.4625 53.5469
15.5076 53.3466
15.5526 53.3112
15.5976 53.6538
15.6426 55.0205
15.6877 60.6943
15.7327 74.7019
15.7778 78.711
15.8228 68.6482
15.8679 64.5168
15.9129 71.4293
15.958 111.925
16.003 156.515
16.0481 120.779
16.0931 80.357
16.1382 63.3238
16.1833 54.1788
16.2283 49.9327
16.2734 48.5738
16.3185 47.5582
16.3636 46.7567
16.4086 46.0887
16.4537 45.7346
16.4988 45.2149
16.5439 45.121
16.589 44.7826
16.6341 44.5539
16.6792 44.1035
16.7243 44.4057
16.7694 44.2738
16.8145 44.3129
16.8596 44.4998
16.9047 46.3614
16.9498 50.0694
16.9949 50.3985
17.04 47.6688
17.0851 46.8628
17.1302 49.2053
17.1754 50.7883
17.2205 49.2935
17.2656 47.8643
17.3108 48.734
17.3559 52.2393
17.401 63.1017
17.4462 67.2366
17.4913 56.2114
17.5365 49.2423
17.5815 47.8092
17.6268 48.1861
17.6718 48.227
17.7171 49.2584
17.7622 52.1827
17.8074 54.6149
17.8525 55.1506
17.8977 58.3924
17.9428 65.7702
17.9881 65.4146
18.0331 60.0521
18.0784 58.17
18.1237 62.5787
18.1688 80.575
18.214 116.426
18.2591 115.353
18.3044 78.7628
18.3495 61.1742
18.3948 59.7928
18.4399 69.5956
18.4852 85.4154
18.5303 79.7449
18.5756 62.7236
18.6207 55.425
18.666 51.9846
18.7112 49.6615
18.7565 48.551
18.8016 48.1219
18.8469 47.6446
18.892 47.181
18.9374 46.7504
18.9825 46.5267
19.0278 46.3108
19.073 46.3183
19.1183 46.8992
19.1635 48.4891
19.2088 49.7115
19.254 49.1789
19.2993 49.8556
19.3447 53.3132
19.3898 54.5277
19.4352 54.936
19.4804 60.0834
19.5257 60.4861
19.5709 51.8749
19.6163 45.9977
19.6615 44.5701
19.7068 43.7044
19.752 43.6022
19.7974 43.5674
19.8426 44.3553
19.888 45.7489
19.9332 46.294
19.9786 45.4829
20.0238 44.4613
20.0692 45.0567
20.1144 47.0037
20.1598 51.0609
20.205 56.2062
20.2504 56.5814
20.2957 49.65
20.3411 45.4585
20.3863 46.2172
20.4318 51.3387
20.477 53.4278
20.5224 48.3088
20.5677 43.0887
20.6131 41.5035
20.6586 40.8864
20.7038 40.7853
20.7493 41.1153
20.7945 42.3753
20.84 42.4562
20.8853 41.186
20.9307 39.8897
20.976 39.8292
21.0215 39.9362
21.0668 39.9752
21.1122 39.7608
21.1575 39.5405
21.203 39.1043
21.2483 39.3544
21.2938 39.9451
21.3391 41.0038
21.3846 41.971
21.4299 41.248
21.4754 40.3145
21.5207 40.1276
21.5662 39.9477
21.6116 40.1313
21.6571 41.1221
21.7024 42.3378
21.7479 42.4869
21.7933 41.6217
21.8388 41.4873
21.8843 42.157
21.9297 43.2783
21.9752 46.0038
22.0206 51.4621
22.0661 53.2788
22.1115 48.7734
22.157 45.1065
22.2024 45.2781
22.248 46.3215
22.2933 45.8437
22.3389 42.8599
22.3843 40.7505
22.4299 39.7971
22.4753 39.6714
22.5208 39.5032
22.5662 39.5334
22.6118 39.6443
22.6572 39.8702
22.7028 40.585
22.7483 41.534
22.7939 41.8764
22.8393 41.5668
22.8849 40.8412
22.9303 40.3494
22.9759 40.5248
23.0214 41.418
23.067 44.5099
23.1126 47.8256
23.1581 46.6974
23.2037 42.6027
23.2492 40.6627
23.2948 40.5693
23.3403 41.1598
23.3859 41.9263
23.4314 42.0428
23.477 41.4062
23.5225 40.5401
23.5682 39.9127
23.6137 40.5149
23.6593 42.0367
23.7048 45.9982
23.7505 47.8352
23.796 44.2472
23.8417 39.8955
23.8872 38.1242
23.9329 37.5284
23.9784 37.1408
24.0241 36.8234
24.0697 36.7608
24.1154 36.4807
24.1609 36.1503
24.2066 35.9498
24.2522 35.7964
24.2979 35.6623
24.3434 35.4129
24.3892 35.2138
24.4349 35.1778
24.4805 34.9325
24.5262 35.0744
24.5718 34.748
24.6175 35.0048
24.6631 35.4267
24.7089 35.3898
24.7545 35.4363
24.8002 34.8945
24.8458 34.8197
24.8916 34.6509
24.9372 34.692
24.983 34.6252
25.0286 34.5127
25.0744 34.7702
25.12 34.7697
25.1658 34.8291
25.2114 34.7741
25.2572 35.1612
25.3029 35.8687
25.3487 35.9655
25.3943 35.2489
25.4402 35.3429
25.4858 36.539
25.5316 36.6039
25.5773 35.0979
25.6231 34.1329
25.669 33.3397
25.7147 33.1787
25.7605 33.2098
25.8062 33.354
25.8521 33.5913
25.8977 33.4092
25.9436 33.0243
25.9893 32.741
26.0352 32.8405
26.0809 32.6641
26.1268 32.8246
26.1725 33.0437
26.2184 33.8447
26.2641 34.3256
26.31 33.964
26.3557 33.4109
26.4017 33.0837
26.4474 33.0566
26.4933 32.9495
26.5391 32.7353
26.585 32.7236
26.6308 32.8113
26.6767 32.7094
26.7225 33.1043
26.7684 33.9218
26.8142 34.5433
26.8601 34.1252
26.9059 33.4238
26.9519 33.3762
26.9979 33.3358
27.0437 32.8196
27.0896 32.1046
27.1354 31.9092
27.1814 31.7561
27.2272 31.6686
27.2732 31.5863
27.3191 31.3681
27.3651 31.2637
27.4109 31.2351
27.4569 31.1473
27.5027 31.2369
27.5488 31.1987
27.5946 31.11
27.6407 31.3394
27.6865 31.5937
27.7326 31.5759
27.7784 31.3442
27.8245 31.0664
27.8703 30.9681
27.9164 30.8642
27.9623 30.7581
28.0084 30.9305
28.0543 31.0148
28.1003 30.9358
28.1462 30.9951
28.1923 31.5741
28.2384 31.6919
28.2843 31.4699
28.3304 30.9989
28.3764 30.7169
28.4225 30.7791
28.4684 30.2585
28.5145 29.8382
28.5605 29.6
28.6066 29.3768
28.6526 29.3054
28.6987 29.1906
28.7447 28.875
28.7908 28.6766
28.8368 28.715
28.8829 28.6433
28.9289 28.6166
28.9751 28.5432
29.0211 28.5206
29.0673 28.6125
29.1133 28.6014
29.1595 28.4268
29.2055 28.0833
29.2517 27.8607
29.2977 27.7105
29.3439 27.667
29.3899 27.5623
29.4361 27.4592
29.4824 27.4881
29.5284 27.5916
29.5746 27.5874
29.6207 27.5294
29.6669 27.1654
29.713 26.9599
29.7593 26.8858
29.8053 26.834
29.8516 26.7172
29.8977 26.7029
29.9439 26.5319
29.99 26.5964
30.0363 26.4103
30.0824 26.5583
30.1287 26.4073
30.1748 26.3702
30.2211 26.2528
30.2673 26.1582
30.3136 26.2612
30.3597 26.32
30.406 26.3152
30.4522 26.269
30.4985 26.1119
30.5447 26.0439
30.591 25.9403
30.6372 25.8677
30.6835 25.7262
30.7297 25.7205
30.7761 25.8548
30.8224 26.0026
30.8686 26.2104
30.915 26.0808
30.9612 26.0084
31.0076 25.6865
31.0538 25.7159
31.1002 25.6506
31.1464 25.3694
31.1928 25.2631
31.2391 25.2617
31.2855 25.0693
31.3317 25.0384
31.3781 25.0348
31.4244 24.947
31.4708 24.8651
31.5171 24.9115
31.5636 25.0353
31.6098 24.9186
31.6563 24.8667
31.7026 24.909
31.7491 24.7119
31.7953 24.5706
31.8418 24.4236
31.8881 24.3949
31.9346 24.326
31.9809 24.3165
32.0275 24.2907
32.074 24.3072
32.1203 24.2842
32.1668 24.1954
32.2132 24.1427
32.2597 23.9599
32.306 23.9558
32.3526 23.7362
32.399 23.5858
32.4455 23.5219
32.4919 23.458
32.5385 23.3513
32.5848 23.2189
32.6314 23.2194
32.6778 23.1338
32.7244 22.9825
32.7708 22.8802
32.8174 22.9667
32.8638 22.8234
32.9104 22.9152
32.9569 22.81
33.0035 22.6764
33.0499 22.6538
33.0966 22.5069
33.143 22.5088
33.1897 22.3961
33.2361 22.285
33.2828 22.3382
33.3293 22.1906
33.3759 22.3471
33.4226 22.1683
33.4691 22.221
33.5158 22.1688
33.5623 22.0137
33.609 21.7173
33.6555 21.7166
33.7022 21.6841
33.7487 21.6109
33.7954 21.5762
33.842 21.4474
33.8887 21.3904
33.9353 21.3396
33.982 21.3049
34.0286 21.2349
34.0753 21.1783
34.1219 21.1236
34.1687 21.1189
34.2152 20.9302
34.262 20.8483
34.3086 20.7985
34.3554 20.7925
34.402 20.5849
34.4488 20.5945
34.4954 20.4929
34.5422 20.4591
34.5889 20.438
34.6357 20.3025
34.6825 20.3132
34.7292 20.1936
34.776 20.0628
34.8227 20.1149
34.8695 20.0303
34.9162 19.9623
34.9631 19.8415
35.0098 19.8885
35.0566 19.7897
35.1033 19.7692
35.1502 19.7477
35.1969 19.6358
35.2438 19.6298
35.2906 19.5121
35.3375 19.4683
35.3842 19.4622
35.4311 19.4046
35.4779 19.3592
35.5248 19.3018
35.5716 19.3039
35.6185 19.2397
35.6653 19.2865
35.7123 19.2323
35.759 19.0724
35.806 18.9665
35.8528 18.8538
35.8998 18.8857
35.9468 18.8173
35.9936 18.7213
36.0406 18.5848
36.0874 18.6729
36.1345 18.6058
36.1813 18.4839
36.2283 18.4028
36.2752 18.3716
36.3222 18.3827
36.3691 18.2848
36.4161 18.2194
36.463 18.254
36.5101 18.2101
36.557 18.1492
36.6041 17.9494
36.651 18.0147
36.6981 17.9687
36.745 17.8797
36.7921 17.8794
36.839 17.7678
36.8861 17.7157
36.9331 17.7459
36.9802 17.6702
37.0272 17.4888
37.0743 17.3983
37.1213 17.4315
37.1684 17.3664
37.2154 17.3808
37.2626 17.2848
37.3098 17.2034
37.3568 17.159
37.404 17.181
37.451 17.0236
37.4982 17.0619
37.5452 16.9269
37.5924 16.8907
37.6395 16.8981
37.6867 16.7904
37.7337 16.7356
37.781 16.6781
37.8281 16.6653
37.8753 16.5628
37.9224 16.4789
37.9697 16.4562
38.0168 16.3851
38.064 16.3514
38.1111 16.2663
38.1584 16.2402
38.2056 16.1884
38.2529 16.1735
38.3 16.1283
38.3473 16.0527
38.3945 15.9594
38.4418 15.9248
38.489 15.8974
38.5363 15.8339
38.5837 15.7722
38.6309 15.7985
38.6782 15.6651
38.7254 15.6099
38.7728 15.5721
38.82 15.5294
38.8674 15.5552
38.9146 15.4579
38.9621 15.4438
39.0093 15.369
39.0567 15.3046
39.104 15.2141
39.1514 15.183
39.1987 15.1157
39.2461 15.0869
39.2934 15.0687
39.3409 14.9314
39.3882 14.9691
39.4356 14.9068
39.483 14.8724
39.5304 14.8173
39.5778 14.7903
39.6253 14.7403
39.6726 14.6336
39.7201 14.6782
39.7675 14.5864
39.815 14.5402
39.8624 14.5042
39.9099 14.4637
39.9575 14.3971
40.0049 14.415
40.0525 14.3499
40.0999 14.27
40.1474 14.2669
40.1949 14.2022
40.2425 14.1185
40.2899 14.1168
40.3375 14.1169
40.385 13.9916
40.4326 13.9757
40.48 13.8971
40.5277 13.9283
40.5752 13.8026
40.6228 13.7561
40.6703 13.793
40.718 13.7072
40.7655 13.7167
40.8132 13.5965
40.8607 13.6671
40.9084 13.5664
40.9559 13.4839
41.0036 13.4868
41.0512 13.4454
41.0989 13.37
41.1465 13.3312
41.1942 13.334
41.242 13.2286
41.2896 13.1677
41.3373 13.1368
41.3849 13.1394
41.4327 13.0627
41.4803 12.9656
41.5281 12.9841
41.5758 12.8619
41.6236 12.8939
41.6712 12.8387
41.7191 12.7953
41.7667 12.7749
41.8146 12.7106
41.8622 12.6838
41.9101 12.6448
41.9578 12.5768
42.0057 12.5414
42.0534 12.5522
42.1013 12.4377
42.149 12.3972
42.1969 12.3489
42.2446 12.3123
42.2925 12.3112
42.3403 12.237
42.3882 12.2462
42.436 12.1907
42.4839 12.1018
42.5319 12.1297
42.5797 12.0576
42.6277 12.01
42.6755 11.9866
42.7235 11.9637
42.7713 11.8912
42.8193 11.8527
42.8671 11.7877
42.9152 11.8037
42.963 11.7161
43.0111 11.6668
43.0589 11.6984
43.107 11.6016
43.1549 11.5782
43.2029 11.495
43.2508 11.4926
43.2989 11.4286
43.3468 11.449
43.3949 11.3894
43.4429 11.3491
43.491 11.2605
43.5389 11.3078
43.5871 11.2262
43.635 11.153
43.6832 11.1748
43.7312 11.1009
43.7793 11.0536
43.8273 11.056
43.8755 10.9881
43.9237 10.9768
43.9717 10.9455
44.0199 10.9046
44.068 10.8525
44.1162 10.762
44.1642 10.7806
44.2125 10.7436
44.2606 10.6955
44.3088 10.6247
44.3569 10.6237
44.4052 10.6035
44.4533 10.5447
44.5016 10.5384
44.5497 10.5058
44.598 10.441
44.6461 10.3731
44.6945 10.3453
44.7426 10.3739
44.791 10.2759
44.8391 10.3001
44.8875 10.2002
44.9357 10.2223
44.984 10.1713
45.0322 10.1162
45.0806 10.0721
45.1288 10.0315
45.1773 10.0239
45.2257 9.95341
45.2739 9.96282
45.3224 9.90468
45.3706 9.88792
45.4191 9.84612
45.4673 9.82071
45.5158 9.73775
45.5641 9.74074
45.6126 9.68515
45.6609 9.66393
45.7094 9.57779
45.7577 9.5815
45.8063 9.56014
45.8546 9.5327
45.9031 9.48137
45.9515 9.42694
46.0001 9.42937
46.0484 9.4009
46.097 9.38756
46.1454 9.33599
46.194 9.33525
46.2424 9.24644
46.291 9.18414
46.3395 9.22418
46.3881 9.1323
46.4365 9.13351
46.4852 9.10119
46.5337 9.06856
46.5823 9.06845
46.631 8.98649
46.6795 8.98469
46.7282 8.93677
46.7767 8.88689
46.8254 8.84142
46.8739 8.80381
46.9226 8.80846
46.9712 8.74859
47.0199 8.71957
47.0685 8.69415
47.1173 8.65424
47.1658 8.61891
47.2146 8.6175
47.2632 8.55402
47.312 8.52398
47.3606 8.50448
47.4095 8.45953
47.4581 8.4665
47.5069 8.3982
47.5556 8.39221
47.6044 8.35926
47.6531 8.34688
47.702 8.26087
47.7507 8.24858
47.7996 8.23662
47.8483 8.22699
47.8972 8.1862
47.9461 8.13655
47.9948 8.07962
48.0438 8.04328
48.0925 8.08733
48.1415 8.04611
48.1902 7.99445
48.2392 7.97549
48.288 7.968
48.337 7.94358
48.3858 7.91618
48.4348 7.88722
48.4837 7.8205
48.5327 7.81714
48.5815 7.76961
48.6306 7.77225
48.6795 7.75309
48.7285 7.69157
48.7774 7.67925
48.8265 7.68453
48.8754 7.60873
48.9245 7.57338
48.9734 7.57219
49.0226 7.53517
49.0715 7.50678
49.1206 7.4597
49.1696 7.40898
49.2188 7.43573
49.2679 7.39538
49.3169 7.3635
49.3661 7.3146
49.4151 7.30619
49.4643 7.27727
49.5134 7.25043
49.5626 7.19574
49.6117 7.19351
49.6609 7.18963
49.71 7.13696
49.7592 7.11729
49.8083 7.08791
49.8576 7.08217
49.9067 7.03324
49.956 7.02098
50.0052 6.97334
50.0545 6.93127
50.1036 6.93382
50.153 6.88901
50.2022 6.87341
50.2515 6.84891
50.3007 6.79093
50.3501 6.79654
50.3993 6.78649
50.4487 6.75024
50.498 6.72628
50.5474 6.69597
50.5966 6.66122
50.6461 6.65833
50.6955 6.62845
50.7448 6.58915
50.7943 6.58781
50.8436 6.55692
50.8931 6.54507
50.9424 6.51265
50.9919 6.49544
51.0413 6.44881
51.0908 6.41594
51.1402 6.39988
51.1897 6.37213
51.2391 6.38032
51.2887 6.31987
51.3381 6.31926
51.3877 6.29652
51.4371 6.22956
51.4867 6.22815
51.5362 6.21258
51.5858 6.15469
51.6353 6.18456
51.6849 6.12477
51.7344 6.09469
51.7841 6.07862
51.8336 6.06094
51.8833 6.02585
51.9328 6.01102
51.9826 5.95189
52.0323 5.9393
52.0818 5.8768
52.1316 5.86511
52.1812 5.86955
52.231 5.84646
52.2806 5.81565
52.3304 5.77321
52.38 5.77067
52.4298 5.73894
52.4794 5.74004
52.5293 5.67426
52.5789 5.68735
52.6288 5.66243
52.6785 5.63432
52.7284 5.57036
52.7781 5.58146
52.828 5.59847
52.8777 5.4962
52.9276 5.50602
52.9774 5.49432
53.0273 5.47953
53.0771 5.43401
53.1271 5.43617
53.1769 5.38601
53.2269 5.39318
53.2767 5.36166
53.3267 5.33769
53.3765 5.31154
53.4266 5.28522
53.4766 5.26655
53.5265 5.22934
53.5765 5.22847
53.6264 5.19029
53.6765 5.16031
53.7264 5.13005
53.7765 5.12675
53.8265 5.09921
53.8766 5.12031
53.9266 5.06189
53.9767 5.00514
54.0267 4.99665
54.0769 4.95716
54.1269 4.92034
54.1771 4.87174
54.2271 4.85223
54.2773 4.86354
54.3274 4.8076
54.3776 4.76233
54.4277 4.7325
54.478 4.69582
54.528 4.65848
54.5783 4.62071
54.6285 4.56306
54.6788 4.51865
54.7289 4.47425
54.7792 4.4494
54.8296 4.43468
54.8798 4.35824
54.9301 4.31233
54.9803 4.32537
55.0307 4.28751
55.0809 4.23288
55.1314 4.27522
55.1816 4.16768
55.232 4.08663
55.2823 4.09413
55.3328 4.04171
55.383 4.03564
55.4335 4.01123
55.4838 3.9197
55.5344 3.88778
55.5847 3.87036
55.6352 3.85311
55.6856 3.78168
55.7361 3.78912