File: XRD/Ni3Fe_FD0088.xy
TT I
1.27165 9.01442
1.31627 8.84763
1.36089 8.93976
1.40551 7.99348
1.45013 7.44492
1.49476 7.08723
1.53938 6.85319
1.584 6.73807
1.62863 6.38935
1.67325 5.99096
1.71787 6.36589
1.7625 6.20765
1.80712 6.22658
1.85174 6.00699
1.89636 5.45925
1.94099 6.83516
1.98562 5.78993
2.03025 6.04895
2.07487 5.13933
2.11949 5.35659
2.16411 5.06566
2.20874 4.6443
2.25338 4.44008
2.298 4.77808
2.34263 4.45902
2.38725 4.20781
2.43188 4.04712
2.4765 4.48195
2.52115 3.49202
2.56577 4.22589
2.6104 5.14362
2.65503 4.22379
2.69965 4.93748
2.7443 4.95101
2.78893 6.74687
2.83356 6.91214
2.87818 8.2357
2.92281 8.30438
2.96744 8.99389
3.01209 10.2633
3.05672 10.7669
3.10135 12.2303
3.14599 12.7704
3.19062 13.8782
3.23527 15.283
3.2799 15.5437
3.32454 16.2236
3.36917 17.4395
3.4138 18.3981
3.45844 19.1732
3.50309 20.156
3.54773 20.8712
3.59237 21.3195
3.637 22.4109
3.68164 22.7532
3.7263 24.1379
3.77094 24.9107
3.81558 25.5098
3.86022 26.0
3.90486 27.076
3.9495 28.3256
3.99416 29.2647
4.0388 30.2827
4.08344 31.291
4.12809 31.7228
4.17273 33.6206
4.21738 35.1909
4.26204 35.8454
4.30669 37.1025
4.35133 39.3786
4.39598 40.7844
4.44063 42.751
4.4853 44.1746
4.52995 46.8214
4.5746 48.7035
4.61925 51.3041
4.6639 53.4584
4.70855 56.0701
4.75322 58.993
4.79788 62.3528
4.84253 66.0468
4.88719 71.3467
4.93184 77.1858
4.97652 85.5236
5.02118 96.7578
5.06583 110.395
5.11049 131.985
5.15515 188.016
5.19981 746.202
5.24449 3711.68
5.28916 5575.62
5.33382 7702.74
5.37848 938.448
5.42315 220.226
5.46783 150.001
5.5125 127.63
5.55716 117.405
5.60183 108.603
5.6465 104.426
5.69117 102.922
5.73586 100.963
5.78053 100.701
5.8252 102.053
5.86988 107.281
5.91455 117.913
5.95924 148.488
6.00392 373.941
6.0486 1435.32
6.09328 1792.18
6.13795 3664.7
6.18263 1127.04
6.22733 174.551
6.27201 103.793
6.3167 85.0988
6.36138 76.046
6.40606 70.4616
6.45075 67.5423
6.49545 65.1495
6.54014 62.4488
6.58483 60.8968
6.62952 59.288
6.67421 57.9092
6.71892 56.779
6.76361 55.9007
6.8083 55.0809
6.853 54.016
6.89769 53.8791
6.94239 53.7017
6.98711 52.1984
7.03181 52.3634
7.07651 51.9136
7.12121 51.8474
7.16591 51.6729
7.21063 51.1746
7.25533 50.7727
7.30004 51.3533
7.34475 51.4119
7.38945 51.4074
7.43416 50.9497
7.47889 51.9262
7.5236 64.0301
7.56831 96.4232
7.61303 65.848
7.65774 53.881
7.70247 53.4627
7.74719 53.5209
7.79191 53.7754
7.83663 54.3368
7.88135 55.4046
7.92607 56.0261
7.97081 57.3251
8.01553 58.4435
8.06026 59.7867
8.10498 60.8283
8.14971 62.6782
8.19446 64.2983
8.23919 67.1795
8.28392 70.129
8.32865 72.9523
8.37339 78.4791
8.41812 85.2435
8.46288 101.448
8.50761 201.731
8.55235 666.728
8.59709 668.14
8.64183 931.883
8.68658 1798.06
8.73134 678.831
8.77609 143.434
8.82083 103.936
8.86558 93.8885
8.91033 88.9336
8.9551 85.9025
8.99985 84.1282
9.04461 82.9196
9.08936 82.0647
9.13412 81.4299
9.17888 82.5364
9.22365 101.303
9.26841 152.207
9.31318 110.582
9.35794 84.6155
9.4027 81.8668
9.44749 82.3819
9.49226 82.3244
9.53703 83.1784
9.5818 85.3286
9.62657 85.9981
9.67134 87.6665
9.71614 89.3868
9.76091 92.1915
9.80569 94.5606
9.85047 98.4721
9.89525 105.383
9.94005 118.83
9.98484 212.181
10.0296 608.611
10.0744 620.526
10.1192 606.33
10.164 1322.61
10.2088 1346.46
10.2536 334.659
10.2984 128.801
10.3432 111.886
10.388 107.04
10.4328 127.931
10.4776 233.92
10.5224 232.144
10.5672 218.939
10.612 386.183
10.6568 463.031
10.7017 191.013
10.7465 102.102
10.7913 85.0131
10.8361 80.3435
10.8809 77.2842
10.9257 74.9435
10.9706 73.5945
11.0154 71.609
11.0602 70.1324
11.105 68.736
11.1499 67.1372
11.1947 66.3312
11.2395 65.4186
11.2844 64.9058
11.3292 64.0085
11.374 63.211
11.4189 63.0104
11.4637 62.3476
11.5086 61.4139
11.5534 60.8329
11.5983 60.7875
11.6431 60.954
11.688 60.0641
11.7328 60.4618
11.7777 60.1195
11.8225 60.234
11.8674 60.592
11.9122 63.7826
11.9571 76.5409
12.002 76.2297
12.0468 71.7178
12.0917 94.4343
12.1366 105.192
12.1814 95.4308
12.2263 109.052
12.2712 168.609
12.3161 167.464
12.3609 87.2316
12.4058 65.205
12.4507 62.6953
12.4956 62.0164
12.5405 61.879
12.5853 62.3795
12.6302 62.3904
12.6751 63.1077
12.72 63.7038
12.7649 64.644
12.8098 65.5958
12.8547 66.5958
12.8996 68.2533
12.9445 69.6675
12.9894 71.6613
13.0343 74.0863
13.0792 79.6485
13.1242 89.9091
13.1691 143.117
13.214 195.111
13.2589 171.046
13.3038 167.422
13.3487 246.015
13.3937 392.451
13.4386 288.411
13.4835 142.134
13.5285 167.65
13.5734 183.141
13.6183 152.601
13.6633 161.518
13.7082 253.474
13.7531 346.251
13.7981 210.727
13.843 97.2712
13.888 81.0645
13.9329 77.3414
13.9779 75.2756
14.0228 73.6331
14.0678 72.3692
14.1127 73.5803
14.1577 81.785
14.2027 80.5142
14.2476 72.5753
14.2926 68.7195
14.3376 67.9406
14.3825 67.4565
14.4275 66.9934
14.4725 66.9187
14.5175 67.0226
14.5624 66.9717
14.6074 67.0271
14.6524 67.6677
14.6974 68.5877
14.7424 70.7062
14.7874 81.8316
14.8324 111.717
14.8774 118.621
14.9224 105.274
14.9674 108.494
15.0124 143.838
15.0574 207.486
15.1024 175.693
15.1474 95.3415
15.1924 72.7814
15.2374 68.4976
15.2824 66.7834
15.3274 65.9599
15.3725 65.3726
15.4175 64.6106
15.4625 64.1945
15.5076 64.0703
15.5526 64.1597
15.5976 64.3472
15.6426 65.8356
15.6877 74.6776
15.7327 99.2055
15.7778 107.349
15.8228 95.5268
15.8679 94.1894
15.9129 111.854
15.958 166.211
16.003 180.981
16.0481 113.143
16.0931 73.134
16.1382 63.595
16.1833 60.2475
16.2283 57.9729
16.2734 57.218
16.3185 56.343
16.3636 55.2563
16.4086 54.8837
16.4537 54.3259
16.4988 53.8127
16.5439 53.7348
16.589 53.4975
16.6341 53.2647
16.6792 52.8821
16.7243 53.0806
16.7694 52.9647
16.8145 52.7422
16.8596 53.0947
16.9047 53.9625
16.9498 54.977
16.9949 55.1376
17.04 54.5491
17.0851 55.9595
17.1302 60.737
17.1754 63.9932
17.2205 62.0167
17.2656 60.6748
17.3108 63.3547
17.3559 69.9236
17.401 80.6623
17.4462 77.0628
17.4913 63.7349
17.5365 58.3808
17.5815 57.7211
17.6268 57.9083
17.6718 58.4372
17.7171 59.0353
17.7622 60.7926
17.8074 62.0246
17.8525 63.2802
17.8977 72.4777
17.9428 85.7437
17.9881 86.7309
18.0331 80.5736
18.0784 80.4346
18.1237 90.5144
18.1688 120.917
18.214 151.749
18.2591 128.233
18.3044 88.5697
18.3495 76.7247
18.3948 80.2697
18.4399 94.4795
18.4852 102.661
18.5303 85.2858
18.5756 67.6757
18.6207 62.0786
18.666 60.2276
18.7112 58.8867
18.7565 58.0947
18.8016 57.7848
18.8469 57.1645
18.892 56.73
18.9374 56.1193
18.9825 55.6791
19.0278 55.6675
19.073 55.787
19.1183 56.4646
19.1635 59.1706
19.2088 61.246
19.254 60.3146
19.2993 59.6309
19.3447 60.9102
19.3898 62.8528
19.4352 68.246
19.4804 73.6961
19.5257 69.098
19.5709 58.2831
19.6163 53.6998
19.6615 52.8433
19.7068 52.2714
19.752 52.3341
19.7974 52.3455
19.8426 53.7732
19.888 56.2956
19.9332 57.5098
19.9786 56.2585
20.0238 55.3812
20.0692 57.0764
20.1144 60.9308
20.1598 67.586
20.205 71.1932
20.2504 66.6124
20.2957 58.92
20.3411 56.4389
20.3863 59.3779
20.4318 64.3015
20.477 62.2123
20.5224 54.9054
20.5677 50.5684
20.6131 49.6083
20.6586 48.7158
20.7038 48.7146
20.7493 48.2976
20.7945 48.7148
20.84 48.4581
20.8853 47.9037
20.9307 47.5699
20.976 47.9983
21.0215 48.1074
21.0668 48.5039
21.1122 48.3614
21.1575 47.7125
21.203 47.9525
21.2483 48.0025
21.2938 49.2686
21.3391 50.023
21.3846 50.2133
21.4299 49.0333
21.4754 47.9717
21.5207 47.8039
21.5662 47.8746
21.6116 48.5316
21.6571 50.8081
21.7024 52.5569
21.7479 52.8853
21.7933 51.7595
21.8388 51.891
21.8843 53.8842
21.9297 55.9546
21.9752 60.5768
22.0206 65.1482
22.0661 62.9193
22.1115 56.3885
22.157 53.2698
22.2024 54.4133
22.248 55.5434
22.2933 53.4985
22.3389 50.1319
22.3843 48.4056
22.4299 47.928
22.4753 47.8144
22.5208 47.5935
22.5662 47.7616
22.6118 47.8966
22.6572 48.0136
22.7028 49.5122
22.7483 50.7989
22.7939 51.0664
22.8393 50.3185
22.8849 49.888
22.9303 50.0104
22.9759 50.8299
23.0214 52.8279
23.067 56.5159
23.1126 57.368
23.1581 53.8391
23.2037 50.0409
23.2492 48.5339
23.2948 48.9786
23.3403 50.4869
23.3859 51.2481
23.4314 50.5795
23.477 49.6209
23.5225 49.2514
23.5682 49.5296
23.6137 50.8339
23.6593 53.7533
23.7048 57.1485
23.7505 55.88
23.796 50.5719
23.8417 46.8509
23.8872 45.384
23.9329 44.8473
23.9784 44.4353
24.0241 43.922
24.0697 43.9343
24.1154 43.5045
24.1609 43.2698
24.2066 43.0219
24.2522 42.963
24.2979 42.7275
24.3434 42.7244
24.3892 42.3553
24.4349 42.1934
24.4805 41.9118
24.5262 42.1001
24.5718 41.9239
24.6175 42.049
24.6631 42.2539
24.7089 42.0593
24.7545 42.0748
24.8002 41.6774
24.8458 41.7118
24.8916 41.7003
24.9372 41.8072
24.983 41.9919
25.0286 41.9631
25.0744 42.3622
25.12 42.5072
25.1658 42.7296
25.2114 42.6922
25.2572 43.3192
25.3029 43.6134
25.3487 43.3199
25.3943 43.0388
25.4402 43.7071
25.4858 44.1838
25.5316 43.2994
25.5773 41.6699
25.6231 40.8129
25.669 40.0204
25.7147 39.9441
25.7605 39.9148
25.8062 40.1119
25.8521 40.3967
25.8977 40.158
25.9436 40.0041
25.9893 39.6624
26.0352 39.8941
26.0809 39.7667
26.1268 40.002
26.1725 40.5262
26.2184 41.2064
26.2641 41.1703
26.31 40.562
26.3557 40.2349
26.4017 39.9898
26.4474 39.9203
26.4933 39.9122
26.5391 39.9379
26.585 39.9313
26.6308 39.9902
26.6767 40.198
26.7225 40.9997
26.7684 41.5794
26.8142 41.7605
26.8601 40.7618
26.9059 40.1046
26.9519 39.7552
26.9979 39.6311
27.0437 38.9716
27.0896 38.5005
27.1354 38.4241
27.1814 38.2013
27.2272 38.248
27.2732 38.1195
27.3191 37.8911
27.3651 37.9038
27.4109 37.7673
27.4569 37.6276
27.5027 37.5987
27.5488 37.6961
27.5946 37.5971
27.6407 37.9046
27.6865 38.0176
27.7326 37.9627
27.7784 37.9316
27.8245 37.5519
27.8703 37.4011
27.9164 37.4739
27.9623 37.4727
28.0084 37.4494
28.0543 37.5945
28.1003 37.5391
28.1462 38.0087
28.1923 38.5145
28.2384 38.1446
28.2843 37.6411
28.3304 37.2424
28.3764 36.9813
28.4225 36.779
28.4684 36.222
28.5145 35.6832
28.5605 35.4935
28.6066 35.3335
28.6526 35.1687
28.6987 35.0237
28.7447 34.8541
28.7908 34.7224
28.8368 34.6872
28.8829 34.6552
28.9289 34.5912
28.9751 34.5027
29.0211 34.5751
29.0673 34.4666
29.1133 34.4198
29.1595 34.1237
29.2055 33.7345
29.2517 33.6516
29.2977 33.5366
29.3439 33.5292
29.3899 33.3253
29.4361 33.3135
29.4824 33.4899
29.5284 33.5259
29.5746 33.3565
29.6207 33.0149
29.6669 32.6994
29.713 32.5882
29.7593 32.4173
29.8053 32.3081
29.8516 32.1004
29.8977 32.3095
29.9439 32.0776
29.99 32.0615
30.0363 31.9089
30.0824 31.9053
30.1287 31.7735
30.1748 31.7047
30.2211 31.7603
30.2673 31.6679
30.3136 31.8978
30.3597 31.9536
30.406 31.8732
30.4522 31.7959
30.4985 31.5894
30.5447 31.6081
30.591 31.3077
30.6372 31.458
30.6835 31.3174
30.7297 31.3813
30.7761 31.5057
30.8224 31.5189
30.8686 31.6537
30.915 31.456
30.9612 31.2866
31.0076 31.0902
31.0538 30.9099
31.1002 30.8485
31.1464 30.6663
31.1928 30.5184
31.2391 30.4816
31.2855 30.3485
31.3317 30.2828
31.3781 30.2228
31.4244 30.2502
31.4708 30.0917
31.5171 30.1933
31.5636 30.3512
31.6098 30.1519
31.6563 30.2137
31.7026 30.0991
31.7491 29.8068
31.7953 29.7285
31.8418 29.6001
31.8881 29.5342
31.9346 29.4409
31.9809 29.3489
32.0275 29.2832
32.074 29.4053
32.1203 29.2579
32.1668 29.3078
32.2132 29.099
32.2597 28.9783
32.306 28.8291
32.3526 28.602
32.399 28.5822
32.4455 28.3614
32.4919 28.2934
32.5385 28.1237
32.5848 27.9613
32.6314 28.0732
32.6778 27.8833
32.7244 27.781
32.7708 27.7227
32.8174 27.7596
32.8638 27.5856
32.9104 27.5849
32.9569 27.5723
33.0035 27.3656
33.0499 27.343
33.0966 27.2781
33.143 27.3056
33.1897 27.0649
33.2361 27.1345
33.2828 27.0247
33.3293 26.8509
33.3759 27.0153
33.4226 26.8168
33.4691 26.9057
33.5158 26.7721
33.5623 26.5927
33.609 26.3141
33.6555 26.2896
33.7022 26.1357
33.7487 26.0424
33.7954 25.9359
33.842 25.8156
33.8887 25.8084
33.9353 25.8227
33.982 25.6916
34.0286 25.6495
34.0753 25.614
34.1219 25.533
34.1687 25.3733
34.2152 25.3228
34.262 25.1397
34.3086 25.1053
34.3554 25.0064
34.402 24.9221
34.4488 24.8011
34.4954 24.8472
34.5422 24.7374
34.5889 24.6087
34.6357 24.5556
34.6825 24.4466
34.7292 24.3337
34.776 24.3569
34.8227 24.2323
34.8695 24.2197
34.9162 24.0697
34.9631 24.0798
35.0098 24.0346
35.0566 23.9022
35.1033 23.7524
35.1502 23.9041
35.1969 23.7238
35.2438 23.7526
35.2906 23.5901
35.3375 23.5907
35.3842 23.4487
35.4311 23.4597
35.4779 23.439
35.5248 23.3976
35.5716 23.339
35.6185 23.3783
35.6653 23.1704
35.7123 23.2196
35.759 23.1321
35.806 23.0108
35.8528 22.8926
35.8998 22.859
35.9468 22.7327
35.9936 22.6427
36.0406 22.5536
36.0874 22.5836
36.1345 22.4856
36.1813 22.4266
36.2283 22.2748
36.2752 22.28
36.3222 22.3106
36.3691 22.1862
36.4161 22.121
36.463 22.0533
36.5101 22.0327
36.557 21.8875
36.6041 21.8161
36.651 21.8159
36.6981 21.7972
36.745 21.7296
36.7921 21.7224
36.839 21.489
36.8861 21.4604
36.9331 21.3568
36.9802 21.3125
37.0272 21.1721
37.0743 21.081
37.1213 21.1014
37.1684 21.0084
37.2154 20.9259
37.2626 20.8761
37.3098 20.8062
37.3568 20.7973
37.404 20.798
37.451 20.6032
37.4982 20.519
37.5452 20.4102
37.5924 20.3714
37.6395 20.4171
37.6867 20.289
37.7337 20.2351
37.781 20.1789
37.8281 20.1079
37.8753 20.0387
37.9224 19.9718
37.9697 19.952
38.0168 19.8429
38.064 19.7926
38.1111 19.6877
38.1584 19.697
38.2056 19.5643
38.2529 19.5779
38.3 19.4168
38.3473 19.4766
38.3945 19.3838
38.4418 19.311
38.489 19.3182
38.5363 19.1422
38.5837 19.1163
38.6309 19.074
38.6782 18.9763
38.7254 18.9057
38.7728 18.8632
38.82 18.7728
38.8674 18.7651
38.9146 18.6918
38.9621 18.5985
39.0093 18.612
39.0567 18.5674
39.104 18.5286
39.1514 18.3436
39.1987 18.3827
39.2461 18.2965
39.2934 18.2362
39.3409 18.1035
39.3882 18.0911
39.4356 18.0704
39.483 18.0049
39.5304 17.9309
39.5778 17.9438
39.6253 17.8794
39.6726 17.7903
39.7201 17.8041
39.7675 17.6801
39.815 17.6656
39.8624 17.5347
39.9099 17.5564
39.9575 17.4588
40.0049 17.3787
40.0525 17.2852
40.0999 17.2818
40.1474 17.2044
40.1949 17.1568
40.2425 17.1166
40.2899 17.0858
40.3375 17.048
40.385 17.0164
40.4326 16.9073
40.48 16.7882
40.5277 16.7993
40.5752 16.709
40.6228 16.6808
40.6703 16.6236
40.718 16.581
40.7655 16.5595
40.8132 16.4879
40.8607 16.4264
40.9084 16.469
40.9559 16.3127
41.0036 16.2726
41.0512 16.2305
41.0989 16.2171
41.1465 16.1516
41.1942 16.1416
41.242 15.978
41.2896 15.9748
41.3373 15.8927
41.3849 15.8243
41.4327 15.8018
41.4803 15.7427
41.5281 15.6603
41.5758 15.6073
41.6236 15.5205
41.6712 15.512
41.7191 15.4543
41.7667 15.361
41.8146 15.4205
41.8622 15.3007
41.9101 15.3087
41.9578 15.2123
42.0057 15.1963
42.0534 15.1299
42.1013 15.0969
42.149 15.0101
42.1969 14.9846
42.2446 14.9454
42.2925 14.8835
42.3403 14.7905
42.3882 14.7975
42.436 14.7327
42.4839 14.6259
42.5319 14.638
42.5797 14.5557
42.6277 14.6008
42.6755 14.4777
42.7235 14.4272
42.7713 14.3874
42.8193 14.2794
42.8671 14.2914
42.9152 14.205
42.963 14.1697
43.0111 14.1168
43.0589 14.0654
43.107 14.0246
43.1549 13.9577
43.2029 13.9123
43.2508 13.859
43.2989 13.818
43.3468 13.7565
43.3949 13.743
43.4429 13.6914
43.491 13.6667
43.5389 13.5809
43.5871 13.5397
43.635 13.4697
43.6832 13.4886
43.7312 13.3973
43.7793 13.3532
43.8273 13.2831
43.8755 13.2503
43.9237 13.1928
43.9717 13.2028
44.0199 13.1282
44.068 13.1021
44.1162 13.0269
44.1642 13.0523
44.2125 13.0021
44.2606 12.8841
44.3088 12.8797
44.3569 12.8589
44.4052 12.804
44.4533 12.7121
44.5016 12.6244
44.5497 12.6537
44.598 12.6088
44.6461 12.5456
44.6945 12.5102
44.7426 12.4642
44.791 12.4386
44.8391 12.3647
44.8875 12.3681
44.9357 12.3353
44.984 12.2422
45.0322 12.1967
45.0806 12.1561
45.1288 12.115
45.1773 12.051
45.2257 12.0293
45.2739 11.9866
45.3224 11.9835
45.3706 11.9189
45.4191 11.8843
45.4673 11.8417
45.5158 11.794
45.5641 11.7454
45.6126 11.7258
45.6609 11.6346
45.7094 11.6123
45.7577 11.5827
45.8063 11.5039
45.8546 11.5314
45.9031 11.503
45.9515 11.4216
46.0001 11.3512
46.0484 11.3164
46.097 11.2875
46.1454 11.246
46.194 11.2338
46.2424 11.1558
46.291 11.1404
46.3395 11.0754
46.3881 11.0231
46.4365 11.025
46.4852 10.9656
46.5337 10.9449
46.5823 10.9187
46.631 10.8524
46.6795 10.7833
46.7282 10.8011
46.7767 10.7693
46.8254 10.6532
46.8739 10.6327
46.9226 10.6052
46.9712 10.5763
47.0199 10.5027
47.0685 10.5069
47.1173 10.4759
47.1658 10.427
47.2146 10.4185
47.2632 10.3255
47.312 10.2937
47.3606 10.2907
47.4095 10.2018
47.4581 10.1832
47.5069 10.174
47.5556 10.1048
47.6044 10.0421
47.6531 10.0017
47.702 10.0015
47.7507 9.98766
47.7996 9.93561
47.8483 9.89383
47.8972 9.8434
47.9461 9.80182
47.9948 9.77825
48.0438 9.78461
48.0925 9.75323
48.1415 9.6733
48.1902 9.61478
48.2392 9.61384
48.288 9.61753
48.337 9.5728
48.3858 9.48457
48.4348 9.47084
48.4837 9.48854
48.5327 9.43174
48.5815 9.35467
48.6306 9.3756
48.6795 9.33412
48.7285 9.29726
48.7774 9.26155
48.8265 9.19431
48.8754 9.19694
48.9245 9.12522
48.9734 9.11019
49.0226 9.08233
49.0715 9.04687
49.1206 8.98454
49.1696 8.9665
49.2188 8.91331
49.2679 8.89054
49.3169 8.86066
49.3661 8.83679
49.4151 8.78215
49.4643 8.78429
49.5134 8.70942
49.5626 8.68859
49.6117 8.66325
49.6609 8.64007
49.71 8.5814
49.7592 8.56843
49.8083 8.54193
49.8576 8.53166
49.9067 8.45387
49.956 8.41707
50.0052 8.3913
50.0545 8.36472
50.1036 8.36373
50.153 8.2953
50.2022 8.29407
50.2515 8.22465
50.3007 8.183
50.3501 8.17206
50.3993 8.16641
50.4487 8.13981
50.498 8.10475
50.5474 8.06184
50.5966 8.06249
50.6461 8.00727
50.6955 7.95969
50.7448 7.96624
50.7943 7.90919
50.8436 7.87456
50.8931 7.87732
50.9424 7.81561
50.9919 7.78604
51.0413 7.78131
51.0908 7.74335
51.1402 7.69827
51.1897 7.69264
51.2391 7.6545
51.2887 7.60913
51.3381 7.54617
51.3877 7.56838
51.4371 7.53015
51.4867 7.49137
51.5362 7.45247
51.5858 7.43201
51.6353 7.39082
51.6849 7.33389
51.7344 7.30724
51.7841 7.33462
51.8336 7.2821
51.8833 7.24828
51.9328 7.19388
51.9826 7.18071
52.0323 7.16419
52.0818 7.08949
52.1316 7.09248
52.1812 7.05327
52.231 7.0271
52.2806 6.97355
52.3304 6.97459
52.38 6.94838
52.4298 6.93583
52.4794 6.86924
52.5293 6.86347
52.5789 6.82477
52.6288 6.82252
52.6785 6.74783
52.7284 6.78258
52.7781 6.72742
52.828 6.67443
52.8777 6.64638
52.9276 6.62645
52.9774 6.57595
53.0273 6.61458
53.0771 6.54874
53.1271 6.51709
53.1769 6.45862
53.2269 6.46435
53.2767 6.46707
53.3267 6.39021
53.3765 6.40253
53.4266 6.37813
53.4766 6.30327
53.5265 6.30303
53.5765 6.30063
53.6264 6.22843
53.6765 6.2139
53.7264 6.2154
53.7765 6.16334
53.8265 6.12727
53.8766 6.1108
53.9266 6.08034
53.9767 6.05231
54.0267 5.99959
54.0769 5.98272
54.1269 5.92711
54.1771 5.89275
54.2271 5.93039
54.2773 5.84212
54.3274 5.7879
54.3776 5.76468
54.4277 5.71598
54.478 5.71899
54.528 5.66761
54.5783 5.62031
54.6285 5.5418
54.6788 5.52175
54.7289 5.51832
54.7792 5.43815
54.8296 5.38566
54.8798 5.32432
54.9301 5.30159
54.9803 5.25212
55.0307 5.21458
55.0809 5.19359
55.1314 5.15665
55.1816 5.06356
55.232 5.01877
55.2823 4.97936
55.3328 4.92558
55.383 4.89376
55.4335 4.87
55.4838 4.80596
55.5344 4.80429
55.5847 4.70698
55.6352 4.69932
55.6856 4.67583
55.7361 4.68904