File: XRD/Ni3Fe_FD0670.xy
TT I
1.27165 7.30477
1.31627 6.26497
1.36089 6.66605
1.40551 6.25177
1.45013 6.25205
1.49476 6.05354
1.53938 5.94414
1.584 5.31917
1.62863 5.3062
1.67325 5.17311
1.71787 5.38755
1.7625 4.82829
1.80712 4.96604
1.85174 4.73805
1.89636 4.96689
1.94099 4.9451
1.98562 4.89281
2.03025 4.5618
2.07487 4.40798
2.11949 4.37571
2.16411 4.93003
2.20874 12.1111
2.25338 18.4292
2.298 5.98283
2.34263 4.88175
2.38725 5.96599
2.43188 5.91169
2.4765 6.71754
2.52115 7.3109
2.56577 7.35006
2.6104 7.9192
2.65503 7.92827
2.69965 8.18539
2.7443 8.08549
2.78893 8.52133
2.83356 7.71971
2.87818 9.52838
2.92281 8.3966
2.96744 9.90156
3.01209 10.4345
3.05672 10.9522
3.10135 12.0527
3.14599 12.5206
3.19062 14.3646
3.23527 15.1349
3.2799 15.7375
3.32454 16.7795
3.36917 17.4732
3.4138 18.925
3.45844 19.8344
3.50309 20.7383
3.54773 21.8344
3.59237 23.547
3.637 76.0676
3.68164 49.5575
3.7263 25.5832
3.77094 26.0597
3.81558 26.4369
3.86022 27.5337
3.90486 28.9403
3.9495 29.8665
3.99416 30.898
4.0388 31.9064
4.08344 33.7824
4.12809 35.085
4.17273 36.8457
4.21738 41.568
4.26204 197.531
4.30669 167.741
4.35133 46.482
4.39598 44.1587
4.44063 52.1515
4.4853 60.7044
4.52995 50.454
4.5746 50.939
4.61925 53.6665
4.6639 55.7462
4.70855 57.8146
4.75322 61.221
4.79788 64.0784
4.84253 67.5739
4.88719 71.3395
4.93184 75.1577
4.97652 81.2731
5.02118 87.2712
5.06583 94.9362
5.11049 106.003
5.15515 164.125
5.19981 375.616
5.24449 2953.18
5.28916 12524.8
5.33382 2744.79
5.37848 181.337
5.42315 127.563
5.46783 112.849
5.5125 105.183
5.55716 101.877
5.60183 98.5613
5.6465 95.9982
5.69117 94.2908
5.73586 92.4996
5.78053 92.1023
5.8252 91.3456
5.86988 92.2634
5.91455 94.8627
5.95924 104.52
6.00392 221.925
6.0486 993.825
6.09328 4508.61
6.13795 3242.42
6.18263 219.318
6.22733 91.5972
6.27201 81.892
6.3167 95.0079
6.36138 77.6962
6.40606 69.068
6.45075 67.1729
6.49545 65.3375
6.54014 63.7106
6.58483 62.3524
6.62952 62.6545
6.67421 85.5038
6.71892 121.724
6.76361 65.8114
6.8083 58.1607
6.853 57.3863
6.89769 56.6504
6.94239 56.2991
6.98711 55.6259
7.03181 55.2029
7.07651 55.3533
7.12121 55.0051
7.16591 55.0688
7.21063 55.0677
7.25533 66.6069
7.30004 144.661
7.34475 81.2217
7.38945 55.7806
7.43416 54.1221
7.47889 54.1352
7.5236 54.634
7.56831 55.176
7.61303 56.5146
7.65774 56.8954
7.70247 55.9919
7.74719 55.895
7.79191 56.4422
7.83663 56.9174
7.88135 57.4845
7.92607 58.6428
7.97081 59.7653
8.01553 60.8679
8.06026 62.183
8.10498 63.7005
8.14971 71.2494
8.19446 71.0917
8.23919 69.5377
8.28392 71.9487
8.32865 74.1442
8.37339 78.3441
8.41812 85.154
8.46288 109.718
8.50761 173.777
8.55235 403.939
8.59709 1224.48
8.64183 2192.88
8.68658 930.453
8.73134 157.29
8.77609 98.2805
8.82083 92.1896
8.86558 89.4678
8.91033 89.0701
8.9551 90.1204
8.99985 85.1567
9.04461 83.5286
9.08936 82.9582
9.13412 81.823
9.17888 81.7126
9.22365 82.634
9.26841 82.1156
9.31318 82.3459
9.35794 82.9525
9.4027 83.3559
9.44749 84.08
9.49226 84.7452
9.53703 85.5431
9.5818 87.4055
9.62657 91.0873
9.67134 96.6221
9.71614 93.4219
9.76091 94.3812
9.80569 96.2651
9.85047 99.5879
9.89525 119.46
9.94005 132.801
9.98484 185.433
10.0296 358.926
10.0744 835.839
10.1192 1790.59
10.164 1567.94
10.2088 372.093
10.2536 123.809
10.2984 111.471
10.3432 112.069
10.388 104.248
10.4328 121.08
10.4776 164.027
10.5224 288.466
10.5672 511.505
10.612 496.079
10.6568 189.187
10.7017 94.2951
10.7465 86.2045
10.7913 82.5866
10.8361 80.7498
10.8809 78.5805
10.9257 77.5942
10.9706 77.8147
11.0154 74.3221
11.0602 72.8965
11.105 71.5571
11.1499 74.4944
11.1947 79.6409
11.2395 72.549
11.2844 69.1601
11.3292 67.0638
11.374 66.1348
11.4189 65.256
11.4637 64.8215
11.5086 65.0306
11.5534 66.928
11.5983 64.7271
11.6431 63.6017
11.688 62.7416
11.7328 62.8529
11.7777 62.5227
11.8225 62.3062
11.8674 62.3575
11.9122 62.8042
11.9571 62.8569
12.002 63.7229
12.0468 68.4426
12.0917 79.5487
12.1366 103.96
12.1814 153.163
12.2263 204.666
12.2712 158.783
12.3161 90.0867
12.3609 68.9822
12.4058 64.1944
12.4507 64.185
12.4956 64.3968
12.5405 64.3404
12.5853 65.1354
12.6302 70.8354
12.6751 75.3342
12.72 68.9598
12.7649 67.7925
12.8098 67.96
12.8547 69.5739
12.8996 70.8625
12.9445 72.2544
12.9894 74.19
13.0343 75.5744
13.0792 79.4474
13.1242 89.656
13.1691 113.589
13.214 151.468
13.2589 245.696
13.3038 379.096
13.3487 422.934
13.3937 250.641
13.4386 120.674
13.4835 106.672
13.5285 122.266
13.5734 161.499
13.6183 253.092
13.6633 357.913
13.7082 331.214
13.7531 172.719
13.7981 94.0375
13.843 81.2229
13.888 79.0956
13.9329 76.8365
13.9779 75.4135
14.0228 74.2689
14.0678 72.9564
14.1127 72.3323
14.1577 72.2156
14.2027 71.1762
14.2476 70.1655
14.2926 70.449
14.3376 70.9261
14.3825 69.8854
14.4275 68.6444
14.4725 68.5258
14.5175 68.9044
14.5624 68.9839
14.6074 70.4893
14.6524 71.0275
14.6974 70.1484
14.7424 72.3585
14.7874 79.5151
14.8324 89.9265
14.8774 112.373
14.9224 157.336
14.9674 211.86
15.0124 216.682
15.0574 142.175
15.1024 86.7927
15.1474 71.8435
15.1924 69.8151
15.2374 70.1742
15.2824 69.4249
15.3274 67.687
15.3725 67.0115
15.4175 66.1398
15.4625 65.9145
15.5076 65.9264
15.5526 66.0365
15.5976 65.6112
15.6426 67.2209
15.6877 72.9348
15.7327 80.4391
15.7778 95.8837
15.8228 129.053
15.8679 175.424
15.9129 195.757
15.958 153.472
16.003 93.3646
16.0481 66.8679
16.0931 63.8567
16.1382 61.9358
16.1833 60.4144
16.2283 58.9157
16.2734 58.1349
16.3185 58.2239
16.3636 58.6486
16.4086 57.1406
16.4537 56.037
16.4988 55.5005
16.5439 55.0689
16.589 55.0522
16.6341 54.8273
16.6792 54.3937
16.7243 54.8169
16.7694 54.6129
16.8145 54.7043
16.8596 54.998
16.9047 56.2005
16.9498 56.4455
16.9949 55.5888
17.04 55.7322
17.0851 57.0019
17.1302 58.5821
17.1754 61.9413
17.2205 67.0672
17.2656 75.0498
17.3108 83.3982
17.3559 81.7839
17.401 69.7682
17.4462 61.4615
17.4913 59.1351
17.5365 58.7528
17.5815 59.1317
17.6268 59.4511
17.6718 60.2859
17.7171 60.6262
17.7622 61.0337
17.8074 62.0852
17.8525 64.6444
17.8977 68.5999
17.9428 74.1469
17.9881 83.2524
18.0331 101.562
18.0784 124.229
18.1237 142.653
18.1688 130.166
18.214 100.967
18.2591 85.7081
18.3044 91.1524
18.3495 101.114
18.3948 105.661
18.4399 94.3927
18.4852 75.5769
18.5303 65.1845
18.5756 61.9428
18.6207 60.9435
18.666 60.1508
18.7112 59.6025
18.7565 58.8722
18.8016 58.504
18.8469 57.7527
18.892 57.5065
18.9374 57.1832
18.9825 56.8017
19.0278 56.7056
19.073 56.8524
19.1183 57.3012
19.1635 57.9907
19.2088 59.4577
19.254 62.2057
19.2993 67.1571
19.3447 73.4624
19.3898 76.7281
19.4352 71.5138
19.4804 62.5089
19.5257 56.2506
19.5709 54.0972
19.6163 53.7524
19.6615 53.6484
19.7068 53.2315
19.752 53.2551
19.7974 53.5781
19.8426 54.459
19.888 54.9691
19.9332 56.2218
19.9786 58.9232
20.0238 62.7748
20.0692 67.558
20.1144 69.9462
20.1598 67.5861
20.205 63.0202
20.2504 61.9108
20.2957 64.057
20.3411 65.3351
20.3863 63.3525
20.4318 57.3029
20.477 53.0284
20.5224 51.4047
20.5677 50.7902
20.6131 50.1951
20.6586 49.5132
20.7038 49.4267
20.7493 48.9734
20.7945 48.8767
20.84 48.6148
20.8853 48.4319
20.9307 48.3031
20.976 48.5262
21.0215 48.4188
21.0668 48.9777
21.1122 49.4263
21.1575 50.091
21.203 50.846
21.2483 51.2371
21.2938 51.3534
21.3391 49.7521
21.3846 48.8237
21.4299 48.2853
21.4754 48.3221
21.5207 48.3656
21.5662 48.7166
21.6116 49.3661
21.6571 49.9681
21.7024 50.9073
21.7479 52.5977
21.7933 55.4063
21.8388 59.3339
21.8843 63.1771
21.9297 64.9004
21.9752 62.9061
22.0206 59.0428
22.0661 56.4426
22.1115 56.2388
22.157 55.6631
22.2024 54.0436
22.248 51.0858
22.2933 49.5896
22.3389 48.7869
22.3843 48.7864
22.4299 48.8665
22.4753 48.5593
22.5208 48.4983
22.5662 48.4028
22.6118 48.6527
22.6572 48.9812
22.7028 49.2699
22.7483 49.571
22.7939 50.3947
22.8393 52.0456
22.8849 54.2893
22.9303 56.4867
22.9759 57.9297
23.0214 57.1079
23.067 54.307
23.1126 50.7646
23.1581 49.0967
23.2037 48.7355
23.2492 48.744
23.2948 48.8989
23.3403 48.9127
23.3859 49.5957
23.4314 50.7397
23.477 52.8104
23.5225 55.1744
23.5682 57.2522
23.6137 57.7315
23.6593 55.0383
23.7048 51.0524
23.7505 47.8679
23.796 46.3406
23.8417 45.7779
23.8872 45.4417
23.9329 45.0323
23.9784 44.7412
24.0241 44.4906
24.0697 44.3155
24.1154 43.9586
24.1609 43.8436
24.2066 43.5925
24.2522 43.7817
24.2979 43.3551
24.3434 43.1684
24.3892 43.0102
24.4349 42.8921
24.4805 42.8102
24.5262 43.0432
24.5718 42.9002
24.6175 42.796
24.6631 42.6847
24.7089 42.5152
24.7545 42.2816
24.8002 42.1527
24.8458 42.3827
24.8916 41.996
24.9372 42.1403
24.983 42.3838
25.0286 42.9479
25.0744 43.3235
25.12 43.865
25.1658 44.3819
25.2114 44.5599
25.2572 44.6649
25.3029 44.7867
25.3487 44.9553
25.3943 44.4609
25.4402 43.2979
25.4858 42.2444
25.5316 41.3481
25.5773 40.8288
25.6231 40.6686
25.669 40.4155
25.7147 40.3792
25.7605 40.3044
25.8062 40.4531
25.8521 40.4533
25.8977 40.5651
25.9436 40.8824
25.9893 40.9835
26.0352 41.4825
26.0809 41.4857
26.1268 41.6597
26.1725 41.1691
26.2184 40.6175
26.2641 40.2629
26.31 39.9644
26.3557 40.0707
26.4017 40.1132
26.4474 40.5014
26.4933 40.6468
26.5391 41.2779
26.585 41.8074
26.6308 42.1306
26.6767 42.2342
26.7225 41.8203
26.7684 41.2773
26.8142 40.8042
26.8601 40.4031
26.9059 39.9809
26.9519 39.3855
26.9979 39.0924
27.0437 38.9747
27.0896 38.6565
27.1354 38.7411
27.1814 38.469
27.2272 38.3449
27.2732 38.5255
27.3191 38.3311
27.3651 38.4325
27.4109 38.4664
27.4569 38.4482
27.5027 38.5043
27.5488 38.49
27.5946 38.2703
27.6407 38.0934
27.6865 37.9388
27.7326 37.8219
27.7784 37.8255
27.8245 37.8156
27.8703 37.9888
27.9164 38.2949
27.9623 38.4661
28.0084 38.7766
28.0543 39.1932
28.1003 38.9915
28.1462 38.726
28.1923 38.3954
28.2384 37.8532
28.2843 37.5306
28.3304 37.0326
28.3764 36.757
28.4225 36.2891
28.4684 36.2047
28.5145 35.9408
28.5605 35.778
28.6066 35.6177
28.6526 35.6751
28.6987 35.6429
28.7447 35.361
28.7908 35.3983
28.8368 35.5586
28.8829 35.4135
28.9289 35.3794
28.9751 35.0526
29.0211 34.9175
29.0673 34.6324
29.1133 34.5717
29.1595 34.2996
29.2055 34.2982
29.2517 34.2697
29.2977 34.3141
29.3439 34.211
29.3899 34.2782
29.4361 34.0915
29.4824 33.9265
29.5284 33.6253
29.5746 33.3696
29.6207 33.1182
29.6669 33.0528
29.713 33.0038
29.7593 32.8556
29.8053 32.887
29.8516 32.7565
29.8977 32.7461
29.9439 32.6286
29.99 32.4956
30.0363 32.4051
30.0824 32.5575
30.1287 32.4375
30.1748 32.4042
30.2211 32.4891
30.2673 32.2854
30.3136 32.3704
30.3597 32.2632
30.406 32.0231
30.4522 32.1238
30.4985 32.0255
30.5447 32.1206
30.591 32.0966
30.6372 32.1963
30.6835 32.1545
30.7297 32.1586
30.7761 32.1896
30.8224 31.8915
30.8686 31.8223
30.915 31.5304
30.9612 31.4273
31.0076 31.2611
31.0538 31.1612
31.1002 31.1365
31.1464 30.8684
31.1928 30.8912
31.2391 30.9588
31.2855 30.8254
31.3317 30.8617
31.3781 30.8906
31.4244 30.8117
31.4708 30.7585
31.5171 30.7873
31.5636 30.8195
31.6098 30.4263
31.6563 30.2754
31.7026 30.1868
31.7491 30.146
31.7953 30.2095
31.8418 30.1072
31.8881 30.1563
31.9346 30.0511
31.9809 30.0436
32.0275 29.838
32.074 29.7897
32.1203 29.6887
32.1668 29.5827
32.2132 29.2815
32.2597 29.2062
32.306 29.1506
32.3526 28.8753
32.399 28.8424
32.4455 28.8335
32.4919 28.6974
32.5385 28.6184
32.5848 28.3245
32.6314 28.4301
32.6778 28.3999
32.7244 28.274
32.7708 28.0791
32.8174 28.072
32.8638 28.0375
32.9104 27.9529
32.9569 28.0074
33.0035 27.8525
33.0499 27.8038
33.0966 27.7731
33.143 27.7126
33.1897 27.6613
33.2361 27.4754
33.2828 27.5655
33.3293 27.3494
33.3759 27.3114
33.4226 27.2263
33.4691 27.0884
33.5158 26.9999
33.5623 26.9079
33.609 26.7626
33.6555 26.7074
33.7022 26.6256
33.7487 26.3716
33.7954 26.4202
33.842 26.319
33.8887 26.3058
33.9353 26.2773
33.982 26.1052
34.0286 26.0419
34.0753 25.9181
34.1219 25.915
34.1687 25.7923
34.2152 25.7385
34.262 25.6774
34.3086 25.5852
34.3554 25.5006
34.402 25.4017
34.4488 25.2722
34.4954 25.2071
34.5422 25.1355
34.5889 24.9956
34.6357 24.9628
34.6825 24.904
34.7292 24.726
34.776 24.6912
34.8227 24.698
34.8695 24.5372
34.9162 24.5529
34.9631 24.4269
35.0098 24.4272
35.0566 24.2839
35.1033 24.3241
35.1502 24.1246
35.1969 24.2241
35.2438 24.0301
35.2906 24.0905
35.3375 24.0103
35.3842 24.0112
35.4311 23.9763
35.4779 23.8773
35.5248 23.8411
35.5716 23.7303
35.6185 23.7314
35.6653 23.6165
35.7123 23.5297
35.759 23.4201
35.806 23.2982
35.8528 23.2342
35.8998 23.2038
35.9468 23.0536
35.9936 23.007
36.0406 22.9609
36.0874 22.9735
36.1345 22.9639
36.1813 22.7992
36.2283 22.7643
36.2752 22.5649
36.3222 22.6409
36.3691 22.5524
36.4161 22.4657
36.463 22.3902
36.5101 22.348
36.557 22.252
36.6041 22.1645
36.651 22.1447
36.6981 22.0526
36.745 21.9814
36.7921 21.8902
36.839 21.8441
36.8861 21.7647
36.9331 21.6517
36.9802 21.6579
37.0272 21.5499
37.0743 21.4437
37.1213 21.4145
37.1684 21.3729
37.2154 21.2675
37.2626 21.2787
37.3098 21.2072
37.3568 21.1414
37.404 21.0634
37.451 20.9998
37.4982 20.9879
37.5452 20.7739
37.5924 20.7783
37.6395 20.7811
37.6867 20.6989
37.7337 20.562
37.781 20.4724
37.8281 20.4913
37.8753 20.3435
37.9224 20.3476
37.9697 20.288
38.0168 20.1938
38.064 20.103
38.1111 20.0309
38.1584 20.0019
38.2056 19.8991
38.2529 19.7915
38.3 19.7982
38.3473 19.7823
38.3945 19.6339
38.4418 19.6115
38.489 19.5851
38.5363 19.5511
38.5837 19.4897
38.6309 19.4212
38.6782 19.284
38.7254 19.2377
38.7728 19.1555
38.82 19.0816
38.8674 19.1353
38.9146 19.0211
38.9621 18.9385
39.0093 18.9355
39.0567 18.8945
39.104 18.7473
39.1514 18.7176
39.1987 18.6445
39.2461 18.5839
39.2934 18.539
39.3409 18.514
39.3882 18.3428
39.4356 18.3038
39.483 18.3765
39.5304 18.1848
39.5778 18.168
39.6253 18.1265
39.6726 18.049
39.7201 18.0348
39.7675 17.9287
39.815 17.9781
39.8624 17.856
39.9099 17.7991
39.9575 17.7477
40.0049 17.6368
40.0525 17.5994
40.0999 17.555
40.1474 17.5349
40.1949 17.4122
40.2425 17.3496
40.2899 17.2939
40.3375 17.2425
40.385 17.2809
40.4326 17.1679
40.48 17.0643
40.5277 17.0357
40.5752 16.9606
40.6228 16.8887
40.6703 16.8849
40.718 16.8467
40.7655 16.8216
40.8132 16.7125
40.8607 16.7024
40.9084 16.6315
40.9559 16.5681
41.0036 16.6002
41.0512 16.4954
41.0989 16.4351
41.1465 16.3563
41.1942 16.3239
41.242 16.2459
41.2896 16.1815
41.3373 16.0827
41.3849 16.0571
41.4327 16.0346
41.4803 15.9213
41.5281 15.9385
41.5758 15.8782
41.6236 15.8821
41.6712 15.7726
41.7191 15.7148
41.7667 15.6803
41.8146 15.6082
41.8622 15.532
41.9101 15.459
41.9578 15.4023
42.0057 15.4184
42.0534 15.313
42.1013 15.2472
42.149 15.2216
42.1969 15.2291
42.2446 15.1008
42.2925 15.1093
42.3403 15.0905
42.3882 15.0283
42.436 14.9852
42.4839 14.9215
42.5319 14.8426
42.5797 14.7992
42.6277 14.7817
42.6755 14.6782
42.7235 14.6751
42.7713 14.6104
42.8193 14.5305
42.8671 14.5022
42.9152 14.4336
42.963 14.3777
43.0111 14.3736
43.0589 14.3236
43.107 14.2501
43.1549 14.2199
43.2029 14.1722
43.2508 14.126
43.2989 14.0336
43.3468 13.9959
43.3949 13.9541
43.4429 13.8881
43.491 13.8345
43.5389 13.8379
43.5871 13.771
43.635 13.7178
43.6832 13.7243
43.7312 13.5662
43.7793 13.5308
43.8273 13.545
43.8755 13.4662
43.9237 13.4417
43.9717 13.4026
44.0199 13.3277
44.068 13.3227
44.1162 13.2447
44.1642 13.212
44.2125 13.1791
44.2606 13.1407
44.3088 13.0847
44.3569 12.9972
44.4052 13.0072
44.4533 12.9487
44.5016 12.8687
44.5497 12.8871
44.598 12.8439
44.6461 12.7371
44.6945 12.7241
44.7426 12.6793
44.791 12.6022
44.8391 12.5901
44.8875 12.5536
44.9357 12.5123
44.984 12.4347
45.0322 12.3388
45.0806 12.3437
45.1288 12.3227
45.1773 12.1921
45.2257 12.2248
45.2739 12.1792
45.3224 12.1669
45.3706 12.1194
45.4191 12.0473
45.4673 12.0249
45.5158 11.9703
45.5641 11.9281
45.6126 11.8903
45.6609 11.852
45.7094 11.7765
45.7577 11.7382
45.8063 11.6809
45.8546 11.6865
45.9031 11.6627
45.9515 11.5963
46.0001 11.5801
46.0484 11.5661
46.097 11.4386
46.1454 11.4181
46.194 11.4193
46.2424 11.3278
46.291 11.2902
46.3395 11.2081
46.3881 11.1999
46.4365 11.216
46.4852 11.108
46.5337 11.1009
46.5823 11.0593
46.631 10.9927
46.6795 10.989
46.7282 10.9441
46.7767 10.882
46.8254 10.8614
46.8739 10.7881
46.9226 10.8007
46.9712 10.7534
47.0199 10.6816
47.0685 10.6337
47.1173 10.6265
47.1658 10.568
47.2146 10.5565
47.2632 10.4374
47.312 10.4692
47.3606 10.4026
47.4095 10.3429
47.4581 10.3293
47.5069 10.2829
47.5556 10.2622
47.6044 10.2486
47.6531 10.1989
47.702 10.1196
47.7507 10.1289
47.7996 10.0878
47.8483 10.0502
47.8972 10.0189
47.9461 9.95475
47.9948 9.93434
48.0438 9.90962
48.0925 9.85228
48.1415 9.84733
48.1902 9.769
48.2392 9.79086
48.288 9.73394
48.337 9.70166
48.3858 9.63699
48.4348 9.63208
48.4837 9.62145
48.5327 9.57328
48.5815 9.55918
48.6306 9.47226
48.6795 9.4265
48.7285 9.40761
48.7774 9.3504
48.8265 9.35447
48.8754 9.31938
48.9245 9.28459
48.9734 9.18881
49.0226 9.24885
49.0715 9.16509
49.1206 9.12543
49.1696 9.06633
49.2188 9.10187
49.2679 9.04482
49.3169 8.99351
49.3661 8.94778
49.4151 8.92624
49.4643 8.91302
49.5134 8.85274
49.5626 8.80665
49.6117 8.81119
49.6609 8.75012
49.71 8.67287
49.7592 8.73946
49.8083 8.63521
49.8576 8.61875
49.9067 8.59585
49.956 8.56867
50.0052 8.50939
50.0545 8.4834
50.1036 8.44368
50.153 8.40235
50.2022 8.39138
50.2515 8.38577
50.3007 8.3247
50.3501 8.28718
50.3993 8.27465
50.4487 8.21444
50.498 8.21048
50.5474 8.16557
50.5966 8.10306
50.6461 8.08742
50.6955 8.06694
50.7448 8.03189
50.7943 8.01402
50.8436 7.99007
50.8931 7.94889
50.9424 7.92469
50.9919 7.91115
51.0413 7.87224
51.0908 7.84533
51.1402 7.79031
51.1897 7.77212
51.2391 7.73352
51.2887 7.70487
51.3381 7.6534
51.3877 7.6593
51.4371 7.61109
51.4867 7.537
51.5362 7.5284
51.5858 7.526
51.6353 7.44626
51.6849 7.42352
51.7344 7.43385
51.7841 7.38721
51.8336 7.34076
51.8833 7.32213
51.9328 7.27409
51.9826 7.23929
52.0323 7.22577
52.0818 7.20574
52.1316 7.16298
52.1812 7.13229
52.231 7.12076
52.2806 7.08009
52.3304 7.03834
52.38 7.04285
52.4298 7.0049
52.4794 6.97678
52.5293 6.9324
52.5789 6.92209
52.6288 6.89427
52.6785 6.81241
52.7284 6.85145
52.7781 6.82242
52.828 6.78615
52.8777 6.70446
52.9276 6.67176
52.9774 6.70454
53.0273 6.68357
53.0771 6.63167
53.1271 6.61442
53.1769 6.60523
53.2269 6.55712
53.2767 6.50232
53.3267 6.46149
53.3765 6.44288
53.4266 6.44873
53.4766 6.39835
53.5265 6.40182
53.5765 6.3302
53.6264 6.33504
53.6765 6.28817
53.7264 6.26035
53.7765 6.23909
53.8265 6.21428
53.8766 6.15374
53.9266 6.19563
53.9767 6.14093
54.0267 6.10025
54.0769 6.04272
54.1269 6.06697
54.1771 5.99051
54.2271 5.96571
54.2773 5.93716
54.3274 5.90586
54.3776 5.86788
54.4277 5.83868
54.478 5.79065
54.528 5.80494
54.5783 5.73923
54.6285 5.70175
54.6788 5.65735
54.7289 5.65792
54.7792 5.5866
54.8296 5.53295
54.8798 5.48895
54.9301 5.47789
54.9803 5.44011
55.0307 5.42006
55.0809 5.39493
55.1314 5.35285
55.1816 5.22813
55.232 5.20209
55.2823 5.24696
55.3328 5.10268
55.383 5.05584
55.4335 5.07373
55.4838 5.018
55.5344 4.96565
55.5847 4.90958
55.6352 4.93259
55.6856 4.8844
55.7361 4.796