File: XRD/Ni3Fe_FD0222.xy
TT I
1.27165 7.71309
1.31627 7.12202
1.36089 7.76307
1.40551 7.13852
1.45013 6.37961
1.49476 5.83422
1.53938 5.99512
1.584 5.94189
1.62863 5.47442
1.67325 5.8403
1.71787 5.25832
1.7625 5.86395
1.80712 4.99872
1.85174 5.18117
1.89636 5.02735
1.94099 5.75422
1.98562 5.01116
2.03025 4.59113
2.07487 4.40752
2.11949 5.71431
2.16411 4.81635
2.20874 4.65892
2.25338 3.68696
2.298 4.40916
2.34263 4.55182
2.38725 4.58149
2.43188 4.11956
2.4765 5.02343
2.52115 5.10234
2.56577 5.47545
2.6104 5.63533
2.65503 5.59062
2.69965 6.10866
2.7443 6.40399
2.78893 6.92778
2.83356 7.6198
2.87818 8.17616
2.92281 8.34565
2.96744 9.29915
3.01209 10.2905
3.05672 10.8994
3.10135 11.9317
3.14599 13.4213
3.19062 13.9267
3.23527 14.9078
3.2799 15.7436
3.32454 17.3704
3.36917 17.7826
3.4138 18.9005
3.45844 20.1538
3.50309 20.8559
3.54773 21.6923
3.59237 22.5269
3.637 23.2469
3.68164 24.0922
3.7263 24.9343
3.77094 26.0364
3.81558 26.6131
3.86022 27.4645
3.90486 28.9013
3.9495 29.9623
3.99416 31.2167
4.0388 32.7271
4.08344 33.7573
4.12809 34.8384
4.17273 36.4683
4.21738 38.7218
4.26204 38.7528
4.30669 40.8772
4.35133 42.6481
4.39598 44.4611
4.44063 46.5266
4.4853 48.4104
4.52995 52.2227
4.5746 54.521
4.61925 55.7291
4.6639 58.0829
4.70855 60.9136
4.75322 64.0613
4.79788 67.94
4.84253 71.8099
4.88719 76.8625
4.93184 81.4859
4.97652 88.1758
5.02118 96.7137
5.06583 107.362
5.11049 124.335
5.15515 169.391
5.19981 887.507
5.24449 3963.06
5.28916 10585.6
5.33382 4236.84
5.37848 274.679
5.42315 153.861
5.46783 129.61
5.5125 117.992
5.55716 112.634
5.60183 106.984
5.6465 104.621
5.69117 103.045
5.73586 100.914
5.78053 102.436
5.8252 102.369
5.86988 104.683
5.91455 110.679
5.95924 133.875
6.00392 446.435
6.0486 1419.24
6.09328 3597.34
6.13795 3643.28
6.18263 374.969
6.22733 109.998
6.27201 89.3533
6.3167 81.1401
6.36138 76.2403
6.40606 72.8225
6.45075 71.0466
6.49545 68.9315
6.54014 66.6188
6.58483 65.3202
6.62952 64.3145
6.67421 62.7408
6.71892 61.6321
6.76361 61.2041
6.8083 59.7838
6.853 59.4881
6.89769 58.7427
6.94239 58.2065
6.98711 57.1042
7.03181 57.2333
7.07651 56.837
7.12121 56.2481
7.16591 56.2328
7.21063 55.6619
7.25533 55.9502
7.30004 55.7599
7.34475 55.4865
7.38945 56.1959
7.43416 55.1332
7.47889 55.5277
7.5236 56.786
7.56831 57.6133
7.61303 57.2045
7.65774 56.9694
7.70247 58.2383
7.74719 58.4642
7.79191 59.1026
7.83663 59.2762
7.88135 60.217
7.92607 61.2326
7.97081 62.9116
8.01553 63.6915
8.06026 65.4632
8.10498 66.5757
8.14971 68.9694
8.19446 70.5621
8.23919 73.341
8.28392 76.3831
8.32865 78.7694
8.37339 84.555
8.41812 90.9942
8.46288 110.282
8.50761 290.724
8.55235 587.834
8.59709 1058.29
8.64183 1967.91
8.68658 1213.04
8.73134 219.653
8.77609 111.015
8.82083 100.492
8.86558 96.2066
8.91033 93.3153
8.9551 90.6488
8.99985 89.2317
9.04461 88.462
9.08936 88.253
9.13412 86.9534
9.17888 86.8068
9.22365 86.7726
9.26841 87.0676
9.31318 88.4298
9.35794 88.4182
9.4027 88.1195
9.44749 89.1473
9.49226 89.7478
9.53703 90.9133
9.5818 92.7192
9.62657 94.1821
9.67134 95.3467
9.71614 97.5905
9.76091 99.8732
9.80569 103.373
9.85047 106.652
9.89525 112.385
9.94005 136.18
9.98484 303.409
10.0296 519.615
10.0744 797.039
10.1192 1450.85
10.164 1718.9
10.2088 565.964
10.2536 150.963
10.2984 117.919
10.3432 112.693
10.388 115.142
10.4328 159.209
10.4776 212.127
10.5224 280.307
10.5672 438.039
10.612 538.132
10.6568 258.848
10.7017 109.388
10.7465 92.4732
10.7913 88.1891
10.8361 85.534
10.8809 83.3099
10.9257 80.8164
10.9706 79.4036
11.0154 78.0006
11.0602 76.2741
11.105 74.9952
11.1499 73.4364
11.1947 72.4964
11.2395 71.0714
11.2844 70.5004
11.3292 69.982
11.374 69.149
11.4189 68.516
11.4637 67.7915
11.5086 67.3586
11.5534 66.6696
11.5983 66.5613
11.6431 66.4751
11.688 65.9657
11.7328 65.6999
11.7777 65.3617
11.8225 65.3619
11.8674 65.273
11.9122 65.8303
11.9571 66.2448
12.002 68.5251
12.0468 79.9882
12.0917 94.6452
12.1366 108.615
12.1814 140.509
12.2263 190.971
12.2712 186.488
12.3161 103.647
12.3609 70.1293
12.4058 67.2039
12.4507 67.2984
12.4956 67.2629
12.5405 67.6247
12.5853 67.7828
12.6302 68.2028
12.6751 68.7921
12.72 69.7483
12.7649 70.957
12.8098 71.9431
12.8547 73.0216
12.8996 75.0874
12.9445 76.4185
12.9894 78.6275
13.0343 80.7978
13.0792 86.4141
13.1242 110.547
13.1691 148.152
13.214 174.687
13.2589 227.688
13.3038 319.081
13.3487 417.188
13.3937 309.767
13.4386 150.051
13.4835 133.971
13.5285 153.722
13.5734 174.1
13.6183 225.07
13.6633 307.879
13.7082 356.183
13.7531 230.29
13.7981 112.445
13.843 87.5571
13.888 84.1651
13.9329 81.7011
13.9779 80.246
14.0228 78.4506
14.0678 76.6405
14.1127 76.0799
14.1577 75.3537
14.2027 74.8634
14.2476 74.2697
14.2926 73.578
14.3376 73.2879
14.3825 72.7796
14.4275 72.3477
14.4725 72.3199
14.5175 72.7641
14.5624 72.593
14.6074 73.0001
14.6524 73.7274
14.6974 74.5955
14.7424 81.2034
14.7874 95.5348
14.8324 106.926
14.8774 119.393
14.9224 144.479
14.9674 185.291
15.0124 221.232
15.0574 173.221
15.1024 103.124
15.1474 77.3776
15.1924 74.0102
15.2374 72.4653
15.2824 71.4824
15.3274 70.4619
15.3725 70.0911
15.4175 69.7765
15.4625 69.3936
15.5076 69.2399
15.5526 69.418
15.5976 69.8445
15.6426 74.7939
15.6877 86.5286
15.7327 95.0512
15.7778 103.536
15.8228 121.816
15.8679 151.716
15.9129 189.324
15.958 178.378
16.003 113.881
16.0481 73.4916
16.0931 66.002
16.1382 64.053
16.1833 63.1183
16.2283 61.6238
16.2734 60.9816
16.3185 60.3084
16.3636 59.6746
16.4086 58.9585
16.4537 58.5865
16.4988 58.0353
16.5439 58.1611
16.589 57.7723
16.6341 57.5632
16.6792 57.0482
16.7243 57.3528
16.7694 57.1737
16.8145 57.0498
16.8596 57.2507
16.9047 57.5913
16.9498 57.8863
16.9949 57.8306
17.04 59.3029
17.0851 62.0874
17.1302 63.7986
17.1754 65.7542
17.2205 68.7544
17.2656 73.7343
17.3108 81.7728
17.3559 85.429
17.401 77.6578
17.4462 67.3579
17.4913 62.6423
17.5365 62.0504
17.5815 62.3515
17.6268 62.5076
17.6718 63.1782
17.7171 63.8037
17.7622 64.8577
17.8074 66.4815
17.8525 72.3984
17.8977 78.4411
17.9428 82.9037
17.9881 88.1956
18.0331 98.8079
18.0784 114.857
18.1237 139.378
18.1688 145.242
18.214 119.609
18.2591 93.969
18.3044 90.1942
18.3495 96.718
18.3948 106.7
18.4399 103.213
18.4852 84.3402
18.5303 70.3996
18.5756 65.6591
18.6207 64.442
18.666 63.4428
18.7112 62.7597
18.7565 61.9526
18.8016 61.8269
18.8469 60.9635
18.892 60.5623
18.9374 60.065
18.9825 60.0177
19.0278 59.7694
19.073 60.3531
19.1183 61.4498
19.1635 62.1316
19.2088 62.8556
19.254 64.6554
19.2993 67.3289
19.3447 71.3465
19.3898 76.1915
19.4352 76.3296
19.4804 68.8539
19.5257 60.661
19.5709 57.2352
19.6163 56.6576
19.6615 56.3105
19.7068 56.0888
19.752 56.0607
19.7974 57.0617
19.8426 58.0852
19.888 58.9526
19.9332 59.4222
19.9786 61.6014
20.0238 64.1028
20.0692 68.4547
20.1144 72.6589
20.1598 73.0706
20.205 67.8561
20.2504 64.1563
20.2957 64.408
20.3411 66.9655
20.3863 67.4775
20.4318 62.5737
20.477 56.986
20.5224 53.844
20.5677 53.0118
20.6131 52.7482
20.6586 52.2728
20.7038 51.9631
20.7493 51.4483
20.7945 51.4365
20.84 51.2327
20.8853 51.1696
20.9307 51.1998
20.976 51.5269
21.0215 51.4556
21.0668 51.5474
21.1122 51.7276
21.1575 52.0163
21.203 52.5959
21.2483 53.3903
21.2938 54.11
21.3391 52.8791
21.3846 51.7278
21.4299 50.9769
21.4754 50.7902
21.5207 51.2065
21.5662 51.9089
21.6116 52.8143
21.6571 53.7616
21.7024 54.3304
21.7479 55.502
21.7933 57.5808
21.8388 60.0014
21.8843 63.4506
21.9297 66.6506
21.9752 67.2842
22.0206 63.5776
22.0661 58.9209
22.1115 57.8232
22.157 58.3291
22.2024 57.6962
22.248 54.7721
22.2933 52.6121
22.3389 51.4236
22.3843 51.2031
22.4299 51.0879
22.4753 50.9528
22.5208 50.8488
22.5662 50.9695
22.6118 51.2744
22.6572 52.1394
22.7028 52.4503
22.7483 52.7666
22.7939 53.2579
22.8393 54.3294
22.8849 55.6584
22.9303 57.0059
22.9759 59.1979
23.0214 59.9966
23.067 58.1643
23.1126 54.6795
23.1581 52.043
23.2037 51.4933
23.2492 52.0511
23.2948 52.064
23.3403 52.3851
23.3859 52.7058
23.4314 53.2224
23.477 54.2638
23.5225 55.6262
23.5682 57.6012
23.6137 59.7327
23.6593 58.8944
23.7048 55.4315
23.7505 51.4135
23.796 49.2295
23.8417 48.5422
23.8872 47.8448
23.9329 47.5429
23.9784 47.1153
24.0241 46.7252
24.0697 46.5276
24.1154 46.3615
24.1609 46.043
24.2066 46.0166
24.2522 45.7036
24.2979 45.5201
24.3434 45.3576
24.3892 45.1859
24.4349 45.0726
24.4805 44.9448
24.5262 45.096
24.5718 44.9521
24.6175 44.9886
24.6631 44.8054
24.7089 44.5066
24.7545 44.4117
24.8002 44.2544
24.8458 44.4779
24.8916 44.3232
24.9372 44.4282
24.983 44.8706
25.0286 45.1407
25.0744 45.3115
25.12 45.7218
25.1658 46.2004
25.2114 46.6174
25.2572 46.7407
25.3029 46.2781
25.3487 46.6378
25.3943 46.808
25.4402 46.1377
25.4858 44.8742
25.5316 43.5913
25.5773 42.9466
25.6231 42.9006
25.669 42.6232
25.7147 42.6671
25.7605 42.5164
25.8062 42.6103
25.8521 42.7269
25.8977 42.5742
25.9436 42.7823
25.9893 42.7221
26.0352 43.1204
26.0809 43.3153
26.1268 43.6296
26.1725 43.5211
26.2184 42.9721
26.2641 42.4948
26.31 42.1971
26.3557 42.3955
26.4017 42.1715
26.4474 42.5295
26.4933 42.6269
26.5391 42.7634
26.585 43.2137
26.6308 43.7594
26.6767 44.0134
26.7225 44.0029
26.7684 43.5972
26.8142 42.8458
26.8601 42.3672
26.9059 42.0989
26.9519 41.5953
26.9979 41.1507
27.0437 40.8289
27.0896 40.5858
27.1354 40.6131
27.1814 40.4118
27.2272 40.4576
27.2732 40.3608
27.3191 40.311
27.3651 40.3194
27.4109 40.2498
27.4569 40.2143
27.5027 40.2625
27.5488 40.3656
27.5946 40.2303
27.6407 40.2206
27.6865 40.1321
27.7326 39.8898
27.7784 39.8733
27.8245 39.6869
27.8703 39.7499
27.9164 40.0693
27.9623 40.0266
28.0084 40.1724
28.0543 40.7286
28.1003 40.6458
28.1462 40.7342
28.1923 40.2595
28.2384 39.8924
28.2843 39.4321
28.3304 39.0083
28.3764 38.4395
28.4225 38.3322
28.4684 38.0433
28.5145 37.7774
28.5605 37.5478
28.6066 37.407
28.6526 37.2797
28.6987 37.4174
28.7447 37.1764
28.7908 36.9825
28.8368 36.9491
28.8829 36.9891
28.9289 36.8991
28.9751 36.8063
29.0211 36.6153
29.0673 36.3858
29.1133 36.3102
29.1595 36.0625
29.2055 35.8903
29.2517 35.8595
29.2977 35.8206
29.3439 35.8217
29.3899 35.7773
29.4361 35.6779
29.4824 35.5747
29.5284 35.4009
29.5746 35.0597
29.6207 34.6734
29.6669 34.6668
29.713 34.6213
29.7593 34.4547
29.8053 34.3459
29.8516 34.3896
29.8977 34.2954
29.9439 34.139
29.99 34.1616
30.0363 34.0388
30.0824 34.0016
30.1287 33.8944
30.1748 33.9118
30.2211 33.9313
30.2673 33.7735
30.3136 34.0402
30.3597 33.8084
30.406 33.7815
30.4522 33.6709
30.4985 33.5308
30.5447 33.676
30.591 33.6297
30.6372 33.6382
30.6835 33.6156
30.7297 33.671
30.7761 33.5922
30.8224 33.5532
30.8686 33.4289
30.915 33.1619
30.9612 32.984
31.0076 32.8458
31.0538 32.7528
31.1002 32.6218
31.1464 32.3565
31.1928 32.4043
31.2391 32.4268
31.2855 32.3325
31.3317 32.3104
31.3781 32.3522
31.4244 32.3675
31.4708 32.2418
31.5171 32.2828
31.5636 32.35
31.6098 32.0851
31.6563 31.9181
31.7026 31.6402
31.7491 31.5325
31.7953 31.6284
31.8418 31.5965
31.8881 31.5168
31.9346 31.3822
31.9809 31.4348
32.0275 31.3139
32.074 31.28
32.1203 31.0382
32.1668 30.8678
32.2132 30.7603
32.2597 30.6552
32.306 30.5296
32.3526 30.3313
32.399 30.4048
32.4455 30.219
32.4919 30.0363
32.5385 29.9877
32.5848 29.8648
32.6314 29.8606
32.6778 29.7395
32.7244 29.6154
32.7708 29.5771
32.8174 29.5308
32.8638 29.2762
32.9104 29.4208
32.9569 29.3185
33.0035 29.1266
33.0499 29.1413
33.0966 29.1545
33.143 29.0614
33.1897 29.0106
33.2361 28.936
33.2828 28.8842
33.3293 28.7678
33.3759 28.6452
33.4226 28.5116
33.4691 28.4461
33.5158 28.371
33.5623 28.1437
33.609 28.0249
33.6555 27.9288
33.7022 27.8146
33.7487 27.7257
33.7954 27.7447
33.842 27.6309
33.8887 27.5632
33.9353 27.5071
33.982 27.4228
34.0286 27.3789
34.0753 27.2184
34.1219 27.1059
34.1687 27.0271
34.2152 27.003
34.262 26.8189
34.3086 26.8434
34.3554 26.7525
34.402 26.556
34.4488 26.4705
34.4954 26.3861
34.5422 26.3596
34.5889 26.2428
34.6357 26.1726
34.6825 26.1344
34.7292 25.9999
34.776 25.9876
34.8227 25.8023
34.8695 25.7037
34.9162 25.7749
34.9631 25.6701
35.0098 25.6574
35.0566 25.4808
35.1033 25.5023
35.1502 25.4386
35.1969 25.3597
35.2438 25.2986
35.2906 25.244
35.3375 25.206
35.3842 25.1426
35.4311 25.0597
35.4779 24.9913
35.5248 24.996
35.5716 24.8813
35.6185 24.8466
35.6653 24.7468
35.7123 24.6401
35.759 24.5756
35.806 24.4491
35.8528 24.3134
35.8998 24.3645
35.9468 24.2355
35.9936 24.2325
36.0406 24.073
36.0874 24.0444
36.1345 24.0005
36.1813 23.8977
36.2283 23.8066
36.2752 23.6557
36.3222 23.7414
36.3691 23.6399
36.4161 23.4309
36.463 23.4043
36.5101 23.5236
36.557 23.3857
36.6041 23.2255
36.651 23.3181
36.6981 23.1516
36.745 23.1499
36.7921 23.0492
36.839 22.8486
36.8861 22.8797
36.9331 22.6692
36.9802 22.7218
37.0272 22.6021
37.0743 22.4871
37.1213 22.4676
37.1684 22.505
37.2154 22.3434
37.2626 22.2321
37.3098 22.1676
37.3568 22.1939
37.404 22.1233
37.451 21.9196
37.4982 21.9339
37.5452 21.8273
37.5924 21.7448
37.6395 21.8364
37.6867 21.7192
37.7337 21.4808
37.781 21.5867
37.8281 21.4924
37.8753 21.386
37.9224 21.287
37.9697 21.1796
38.0168 21.0478
38.064 21.0815
38.1111 21.0807
38.1584 20.9669
38.2056 20.8471
38.2529 20.819
38.3 20.713
38.3473 20.7087
38.3945 20.5936
38.4418 20.5461
38.489 20.6018
38.5363 20.3855
38.5837 20.3381
38.6309 20.2892
38.6782 20.279
38.7254 20.1344
38.7728 20.0737
38.82 20.0635
38.8674 19.9965
38.9146 19.8922
38.9621 19.7959
39.0093 19.7717
39.0567 19.7281
39.104 19.6044
39.1514 19.55
39.1987 19.5274
39.2461 19.4482
39.2934 19.4566
39.3409 19.3115
39.3882 19.2879
39.4356 19.2063
39.483 19.1733
39.5304 19.1146
39.5778 19.0658
39.6253 18.9935
39.6726 18.9045
39.7201 18.8813
39.7675 18.8197
39.815 18.7709
39.8624 18.6636
39.9099 18.6514
39.9575 18.5499
40.0049 18.4946
40.0525 18.5208
40.0999 18.4162
40.1474 18.331
40.1949 18.2724
40.2425 18.1494
40.2899 18.1726
40.3375 18.0378
40.385 18.0719
40.4326 18.0248
40.48 17.9281
40.5277 17.8837
40.5752 17.8444
40.6228 17.7437
40.6703 17.6573
40.718 17.7006
40.7655 17.5676
40.8132 17.494
40.8607 17.5313
40.9084 17.4312
40.9559 17.4233
41.0036 17.3399
41.0512 17.2272
41.0989 17.2552
41.1465 17.1582
41.1942 17.1151
41.242 16.9928
41.2896 16.9697
41.3373 16.837
41.3849 16.8854
41.4327 16.8336
41.4803 16.6868
41.5281 16.6836
41.5758 16.6059
41.6236 16.4894
41.6712 16.5158
41.7191 16.4574
41.7667 16.3553
41.8146 16.3036
41.8622 16.2903
41.9101 16.1966
41.9578 16.1107
42.0057 16.1299
42.0534 16.0289
42.1013 16.0633
42.149 15.915
42.1969 15.9348
42.2446 15.8689
42.2925 15.8308
42.3403 15.7508
42.3882 15.7366
42.436 15.6937
42.4839 15.6033
42.5319 15.5714
42.5797 15.5027
42.6277 15.4459
42.6755 15.3738
42.7235 15.3023
42.7713 15.3169
42.8193 15.2242
42.8671 15.2303
42.9152 15.1684
42.963 15.0543
43.0111 15.0105
43.0589 14.9734
43.107 14.8901
43.1549 14.8595
43.2029 14.7383
43.2508 14.7702
43.2989 14.7098
43.3468 14.6407
43.3949 14.6206
43.4429 14.5765
43.491 14.4946
43.5389 14.4169
43.5871 14.4153
43.635 14.3033
43.6832 14.3352
43.7312 14.2919
43.7793 14.2226
43.8273 14.1883
43.8755 14.1422
43.9237 14.0469
43.9717 14.0312
44.0199 13.9824
44.068 13.9636
44.1162 13.8801
44.1642 13.88
44.2125 13.822
44.2606 13.7404
44.3088 13.6828
44.3569 13.6312
44.4052 13.6193
44.4533 13.5393
44.5016 13.5058
44.5497 13.4688
44.598 13.4077
44.6461 13.327
44.6945 13.3265
44.7426 13.2201
44.791 13.1767
44.8391 13.1461
44.8875 13.1166
44.9357 13.1244
44.984 13.0087
45.0322 12.9633
45.0806 12.8888
45.1288 12.8764
45.1773 12.8005
45.2257 12.7545
45.2739 12.7452
45.3224 12.7037
45.3706 12.684
45.4191 12.5971
45.4673 12.5376
45.5158 12.5392
45.5641 12.4406
45.6126 12.4323
45.6609 12.4064
45.7094 12.3054
45.7577 12.3191
45.8063 12.2537
45.8546 12.2191
45.9031 12.2014
45.9515 12.1027
46.0001 12.0716
46.0484 12.0375
46.097 11.9925
46.1454 11.9489
46.194 11.9105
46.2424 11.9062
46.291 11.8204
46.3395 11.774
46.3881 11.7536
46.4365 11.7109
46.4852 11.6475
46.5337 11.5796
46.5823 11.579
46.631 11.4532
46.6795 11.4875
46.7282 11.4464
46.7767 11.4093
46.8254 11.3271
46.8739 11.339
46.9226 11.2772
46.9712 11.2361
47.0199 11.1646
47.0685 11.1771
47.1173 11.0794
47.1658 11.0108
47.2146 11.0081
47.2632 10.9171
47.312 10.9522
47.3606 10.8856
47.4095 10.829
47.4581 10.7923
47.5069 10.7941
47.5556 10.7561
47.6044 10.6671
47.6531 10.6521
47.702 10.5894
47.7507 10.5773
47.7996 10.5088
47.8483 10.4776
47.8972 10.4741
47.9461 10.4172
47.9948 10.3473
48.0438 10.3409
48.0925 10.3064
48.1415 10.3
48.1902 10.2277
48.2392 10.1923
48.288 10.2152
48.337 10.1158
48.3858 10.0951
48.4348 10.0755
48.4837 10.036
48.5327 9.95629
48.5815 9.92402
48.6306 9.89539
48.6795 9.89309
48.7285 9.82626
48.7774 9.80839
48.8265 9.77738
48.8754 9.74396
48.9245 9.71028
48.9734 9.68935
49.0226 9.63351
49.0715 9.6013
49.1206 9.54691
49.1696 9.47633
49.2188 9.53956
49.2679 9.44597
49.3169 9.40076
49.3661 9.3805
49.4151 9.30268
49.4643 9.31454
49.5134 9.23796
49.5626 9.21265
49.6117 9.1877
49.6609 9.15599
49.71 9.13157
49.7592 9.08944
49.8083 9.03481
49.8576 9.01667
49.9067 9.01143
49.956 8.94179
50.0052 8.91384
50.0545 8.90042
50.1036 8.83405
50.153 8.82966
50.2022 8.75802
50.2515 8.72409
50.3007 8.71668
50.3501 8.65296
50.3993 8.66208
50.4487 8.57807
50.498 8.55409
50.5474 8.54043
50.5966 8.50861
50.6461 8.47216
50.6955 8.43668
50.7448 8.39567
50.7943 8.35985
50.8436 8.31555
50.8931 8.29753
50.9424 8.25977
50.9919 8.26027
51.0413 8.20641
51.0908 8.18739
51.1402 8.16783
51.1897 8.09292
51.2391 8.06068
51.2887 8.01359
51.3381 8.01517
51.3877 7.98403
51.4371 7.92517
51.4867 7.91751
51.5362 7.85973
51.5858 7.87644
51.6353 7.78863
51.6849 7.7948
51.7344 7.74088
51.7841 7.74015
51.8336 7.69069
51.8833 7.67467
51.9328 7.64718
51.9826 7.56441
52.0323 7.54886
52.0818 7.52997
52.1316 7.48027
52.1812 7.50993
52.231 7.44576
52.2806 7.35404
52.3304 7.36746
52.38 7.34362
52.4298 7.27508
52.4794 7.2747
52.5293 7.26016
52.5789 7.17595
52.6288 7.16264
52.6785 7.15158
52.7284 7.10441
52.7781 7.10943
52.828 7.07424
52.8777 7.01133
52.9276 6.99966
52.9774 6.98098
53.0273 6.94848
53.0771 6.93231
53.1271 6.89815
53.1769 6.837
53.2269 6.85493
53.2767 6.82108
53.3267 6.76845
53.3765 6.73955
53.4266 6.72248
53.4766 6.71323
53.5265 6.62817
53.5765 6.65553
53.6264 6.60794
53.6765 6.57589
53.7264 6.53937
53.7765 6.53915
53.8265 6.48906
53.8766 6.48298
53.9266 6.42115
53.9767 6.38167
54.0267 6.36824
54.0769 6.34376
54.1269 6.29832
54.1771 6.2705
54.2271 6.23206
54.2773 6.189
54.3274 6.20211
54.3776 6.15216
54.4277 6.09774
54.478 6.04625
54.528 6.01493
54.5783 5.99244
54.6285 5.91476
54.6788 5.85691
54.7289 5.88111
54.7792 5.86605
54.8296 5.76121
54.8798 5.7039
54.9301 5.69367
54.9803 5.66612
55.0307 5.60385
55.0809 5.60446
55.1314 5.53852
55.1816 5.47032
55.232 5.42256
55.2823 5.39116
55.3328 5.30703
55.383 5.23353
55.4335 5.18004
55.4838 5.15631
55.5344 5.15193
55.5847 5.04835
55.6352 5.10178
55.6856 5.00253
55.7361 5.04273