File: XRD/Ni3Fe_FD0877.xy
TT I
1.27165 7.3074
1.31627 6.55416
1.36089 6.89903
1.40551 5.70953
1.45013 5.81326
1.49476 5.06737
1.53938 5.86333
1.584 5.50864
1.62863 4.94046
1.67325 5.17825
1.71787 5.18268
1.7625 4.83273
1.80712 4.82404
1.85174 4.29721
1.89636 5.26651
1.94099 4.93782
1.98562 4.34476
2.03025 5.01252
2.07487 4.66166
2.11949 5.19668
2.16411 4.90748
2.20874 15.828
2.25338 27.4527
2.298 6.25535
2.34263 5.50838
2.38725 6.23446
2.43188 6.21832
2.4765 7.51586
2.52115 7.51662
2.56577 8.36597
2.6104 8.51768
2.65503 8.23725
2.69965 8.70315
2.7443 7.84033
2.78893 8.60153
2.83356 8.9634
2.87818 9.15217
2.92281 8.56245
2.96744 9.58874
3.01209 10.7085
3.05672 11.3657
3.10135 12.4319
3.14599 13.2113
3.19062 14.6863
3.23527 14.8806
3.2799 15.7542
3.32454 16.9822
3.36917 18.0607
3.4138 18.905
3.45844 19.4712
3.50309 20.552
3.54773 21.9308
3.59237 24.4433
3.637 105.446
3.68164 66.6719
3.7263 26.4636
3.77094 26.0791
3.81558 26.7708
3.86022 27.1706
3.90486 28.708
3.9495 30.0228
3.99416 30.705
4.0388 32.4017
4.08344 33.6659
4.12809 34.9522
4.17273 37.171
4.21738 43.6258
4.26204 287.748
4.30669 257.583
4.35133 49.8904
4.39598 44.6974
4.44063 54.6323
4.4853 69.0892
4.52995 49.7344
4.5746 50.9298
4.61925 52.9122
4.6639 55.0233
4.70855 57.7345
4.75322 60.1977
4.79788 62.7131
4.84253 66.0053
4.88719 69.9432
4.93184 73.5937
4.97652 79.1899
5.02118 84.3344
5.06583 91.6877
5.11049 102.094
5.15515 174.204
5.19981 289.486
5.24449 2379.13
5.28916 12813.7
5.33382 2925.92
5.37848 177.948
5.42315 125.485
5.46783 111.256
5.5125 103.654
5.55716 99.8834
5.60183 96.6597
5.6465 95.096
5.69117 92.1584
5.73586 90.2816
5.78053 89.4699
5.8252 88.9818
5.86988 89.3609
5.91455 90.7292
5.95924 96.3059
6.00392 169.459
6.0486 812.667
6.09328 4283.9
6.13795 3229.9
6.18263 228.672
6.22733 90.7327
6.27201 81.8566
6.3167 106.389
6.36138 81.4502
6.40606 68.4654
6.45075 66.4815
6.49545 64.7872
6.54014 63.2393
6.58483 62.6184
6.62952 62.3377
6.67421 99.0105
6.71892 160.799
6.76361 70.6289
6.8083 58.4823
6.853 56.8793
6.89769 56.4758
6.94239 56.1385
6.98711 55.3917
7.03181 55.4697
7.07651 55.4147
7.12121 54.9046
7.16591 54.9793
7.21063 55.4939
7.25533 72.6192
7.30004 201.884
7.34475 98.7147
7.38945 56.964
7.43416 54.3674
7.47889 54.127
7.5236 54.4455
7.56831 54.7104
7.61303 57.0194
7.65774 57.3866
7.70247 55.698
7.74719 56.0522
7.79191 56.0573
7.83663 56.4368
7.88135 57.2039
7.92607 58.1112
7.97081 59.082
8.01553 60.0488
8.06026 61.4316
8.10498 63.054
8.14971 73.6108
8.19446 72.764
8.23919 68.5966
8.28392 70.5614
8.32865 72.9398
8.37339 76.5302
8.41812 83.84
8.46288 115.143
8.50761 144.65
8.55235 324.092
8.59709 1103.16
8.64183 2290.74
8.68658 981.243
8.73134 166.392
8.77609 97.5203
8.82083 91.2475
8.86558 88.0605
8.91033 88.6281
8.9551 91.6008
8.99985 84.4068
9.04461 82.3091
9.08936 81.5107
9.13412 80.8209
9.17888 80.9353
9.22365 81.8585
9.26841 80.8511
9.31318 81.4483
9.35794 81.452
9.4027 81.9257
9.44749 82.9241
9.49226 83.0737
9.53703 84.1653
9.5818 85.7175
9.62657 90.984
9.67134 99.0736
9.71614 92.7641
9.76091 92.2401
9.80569 94.9894
9.85047 98.4236
9.89525 125.665
9.94005 138.0
9.98484 155.576
10.0296 295.531
10.0744 737.745
10.1192 1750.12
10.164 1628.77
10.2088 407.657
10.2536 124.827
10.2984 112.788
10.3432 114.993
10.388 103.12
10.4328 111.212
10.4776 146.306
10.5224 263.542
10.5672 520.22
10.612 506.542
10.6568 199.89
10.7017 95.6425
10.7465 85.2733
10.7913 82.1878
10.8361 80.0422
10.8809 78.019
10.9257 77.5508
10.9706 78.7048
11.0154 73.8885
11.0602 72.0203
11.105 71.1092
11.1499 76.4996
11.1947 85.7063
11.2395 75.1823
11.2844 70.1057
11.3292 66.7577
11.374 65.3582
11.4189 64.7289
11.4637 64.3302
11.5086 64.8715
11.5534 68.4064
11.5983 65.3235
11.6431 63.0293
11.688 61.9495
11.7328 62.1649
11.7777 62.0801
11.8225 61.6721
11.8674 61.3721
11.9122 61.9061
11.9571 62.1091
12.002 62.6276
12.0468 65.4792
12.0917 75.5506
12.1366 97.3325
12.1814 148.973
12.2263 207.163
12.2712 169.217
12.3161 98.3413
12.3609 71.3636
12.4058 63.9536
12.4507 63.4382
12.4956 63.6366
12.5405 63.5522
12.5853 64.7976
12.6302 73.7476
12.6751 80.3181
12.72 69.7577
12.7649 66.9398
12.8098 67.4756
12.8547 68.5217
12.8996 69.911
12.9445 71.1265
12.9894 72.4246
13.0343 74.5254
13.0792 77.0739
13.1242 84.1087
13.1691 104.325
13.214 136.989
13.2589 223.409
13.3038 368.846
13.3487 428.964
13.3937 264.17
13.4386 123.683
13.4835 100.508
13.5285 112.431
13.5734 147.442
13.6183 238.788
13.6633 353.163
13.7082 348.105
13.7531 185.635
13.7981 96.1514
13.843 80.5782
13.888 78.4678
13.9329 75.8526
13.9779 74.6484
14.0228 73.6331
14.0678 71.87
14.1127 71.563
14.1577 71.7088
14.2027 70.6899
14.2476 69.3454
14.2926 69.7418
14.3376 71.1726
14.3825 69.5244
14.4275 67.7017
14.4725 67.642
14.5175 67.6419
14.5624 67.9366
14.6074 70.4384
14.6524 70.9664
14.6974 69.3554
14.7424 70.2302
14.7874 75.2196
14.8324 84.3096
14.8774 104.53
14.9224 148.149
14.9674 207.52
15.0124 218.032
15.0574 147.29
15.1024 89.9259
15.1474 71.5064
15.1924 69.6438
15.2374 70.4554
15.2824 69.7911
15.3274 67.5571
15.3725 65.9187
15.4175 65.4593
15.4625 65.1061
15.5076 65.53
15.5526 65.4526
15.5976 64.6789
15.6426 65.1113
15.6877 69.1913
15.7327 75.6703
15.7778 89.9101
15.8228 121.386
15.8679 167.494
15.9129 194.276
15.958 155.843
16.003 94.6474
16.0481 67.2501
16.0931 64.4378
16.1382 62.5936
16.1833 59.9746
16.2283 58.2769
16.2734 57.6937
16.3185 58.122
16.3636 59.0943
16.4086 57.387
16.4537 55.5242
16.4988 54.6991
16.5439 54.8829
16.589 54.6036
16.6341 54.1853
16.6792 53.9579
16.7243 54.2557
16.7694 54.1509
16.8145 54.1334
16.8596 54.4795
16.9047 56.4043
16.9498 56.5692
16.9949 55.1595
17.04 54.9246
17.0851 55.7886
17.1302 57.376
17.1754 60.2196
17.2205 65.0108
17.2656 73.0003
17.3108 82.5658
17.3559 81.4193
17.401 69.633
17.4462 61.031
17.4913 58.1511
17.5365 58.1939
17.5815 58.1889
17.6268 58.6491
17.6718 59.5267
17.7171 60.0573
17.7622 60.4013
17.8074 60.7714
17.8525 62.5303
17.8977 65.8625
17.9428 70.8512
17.9881 78.9738
18.0331 96.0929
18.0784 119.937
18.1237 138.471
18.1688 129.621
18.214 101.614
18.2591 84.4081
18.3044 88.9352
18.3495 100.059
18.3948 105.716
18.4399 95.7651
18.4852 76.7087
18.5303 65.2744
18.5756 61.3217
18.6207 60.2459
18.666 59.8539
18.7112 59.1161
18.7565 58.2561
18.8016 57.9725
18.8469 57.1531
18.892 56.9246
18.9374 56.3685
18.9825 56.1298
19.0278 56.0331
19.073 56.2166
19.1183 56.5373
19.1635 57.1326
19.2088 58.3832
19.254 60.6523
19.2993 65.3385
19.3447 72.1387
19.3898 76.4566
19.4352 71.8157
19.4804 62.5569
19.5257 56.2112
19.5709 53.3678
19.6163 53.1274
19.6615 53.0804
19.7068 52.5446
19.752 52.4025
19.7974 52.6591
19.8426 53.4471
19.888 54.0928
19.9332 55.0654
19.9786 57.6252
20.0238 61.1016
20.0692 66.1372
20.1144 69.3873
20.1598 67.3234
20.205 62.4536
20.2504 61.1391
20.2957 63.4132
20.3411 65.2464
20.3863 63.6739
20.4318 58.0497
20.477 53.0958
20.5224 51.1035
20.5677 50.4335
20.6131 49.7937
20.6586 49.0778
20.7038 48.9441
20.7493 48.54
20.7945 48.3121
20.84 48.164
20.8853 47.914
20.9307 47.9088
20.976 48.036
21.0215 47.9946
21.0668 48.2802
21.1122 48.6862
21.1575 49.3686
21.203 50.2677
21.2483 51.0453
21.2938 50.8633
21.3391 49.3983
21.3846 48.33
21.4299 47.7634
21.4754 47.8762
21.5207 47.6802
21.5662 48.1367
21.6116 48.2669
21.6571 48.8483
21.7024 49.7203
21.7479 51.4921
21.7933 54.2759
21.8388 58.0297
21.8843 61.9893
21.9297 64.0803
21.9752 62.5392
22.0206 58.9409
22.0661 55.9747
22.1115 55.5222
22.157 55.2979
22.2024 53.6939
22.248 50.8013
22.2933 49.2066
22.3389 48.4731
22.3843 48.5105
22.4299 48.2198
22.4753 48.4607
22.5208 48.0471
22.5662 47.9177
22.6118 47.8076
22.6572 47.9274
22.7028 48.3492
22.7483 48.7505
22.7939 49.5885
22.8393 50.9661
22.8849 53.3054
22.9303 55.4247
22.9759 57.3743
23.0214 56.8686
23.067 53.8672
23.1126 50.5594
23.1581 48.6123
23.2037 48.2292
23.2492 48.2273
23.2948 48.0125
23.3403 48.1865
23.3859 48.8216
23.4314 49.7872
23.477 51.797
23.5225 54.0352
23.5682 56.4541
23.6137 57.546
23.6593 55.1973
23.7048 50.9856
23.7505 47.841
23.796 46.0158
23.8417 45.501
23.8872 45.0374
23.9329 44.6879
23.9784 44.4362
24.0241 44.1357
24.0697 44.0212
24.1154 43.5599
24.1609 43.566
24.2066 43.2942
24.2522 43.3154
24.2979 42.9919
24.3434 42.8981
24.3892 42.7036
24.4349 42.672
24.4805 42.4286
24.5262 42.7386
24.5718 42.5382
24.6175 42.2458
24.6631 42.3531
24.7089 41.9577
24.7545 41.9044
24.8002 41.8434
24.8458 41.6894
24.8916 41.4903
24.9372 41.6746
24.983 41.936
25.0286 42.2125
25.0744 42.7472
25.12 43.192
25.1658 43.6727
25.2114 44.0947
25.2572 44.2125
25.3029 44.394
25.3487 44.5194
25.3943 44.304
25.4402 43.0422
25.4858 41.9215
25.5316 41.0116
25.5773 40.4126
25.6231 40.4308
25.669 40.0912
25.7147 40.0285
25.7605 40.0354
25.8062 39.9938
25.8521 40.1709
25.8977 40.0964
25.9436 40.3345
25.9893 40.4112
26.0352 40.8961
26.0809 41.11
26.1268 41.1954
26.1725 40.8633
26.2184 40.2094
26.2641 39.7596
26.31 39.6326
26.3557 39.5844
26.4017 39.5192
26.4474 39.9269
26.4933 40.1948
26.5391 40.7728
26.585 41.1871
26.6308 41.5942
26.6767 41.6266
26.7225 41.4486
26.7684 40.977
26.8142 40.4796
26.8601 40.0389
26.9059 39.5663
26.9519 39.1232
26.9979 38.8765
27.0437 38.4795
27.0896 38.242
27.1354 38.2179
27.1814 38.0622
27.2272 37.9855
27.2732 37.9839
27.3191 37.8398
27.3651 37.9938
27.4109 37.794
27.4569 37.9811
27.5027 38.1412
27.5488 38.1574
27.5946 37.8705
27.6407 37.7125
27.6865 37.5872
27.7326 37.3448
27.7784 37.4674
27.8245 37.2936
27.8703 37.4782
27.9164 37.8753
27.9623 37.9347
28.0084 38.249
28.0543 38.6835
28.1003 38.6908
28.1462 38.4018
28.1923 37.9513
28.2384 37.4472
28.2843 37.2265
28.3304 36.8515
28.3764 36.323
28.4225 35.9649
28.4684 35.8162
28.5145 35.4396
28.5605 35.3798
28.6066 35.2729
28.6526 35.1492
28.6987 35.1734
28.7447 35.1952
28.7908 34.9923
28.8368 35.0133
28.8829 34.9959
28.9289 35.0275
28.9751 34.7874
29.0211 34.5576
29.0673 34.2661
29.1133 34.2077
29.1595 33.9136
29.2055 33.9568
29.2517 33.9532
29.2977 33.944
29.3439 33.8129
29.3899 33.9506
29.4361 33.7542
29.4824 33.5659
29.5284 33.3136
29.5746 33.0202
29.6207 32.7013
29.6669 32.6537
29.713 32.5936
29.7593 32.4919
29.8053 32.5071
29.8516 32.428
29.8977 32.3323
29.9439 32.2092
29.99 32.1612
30.0363 32.0969
30.0824 32.0891
30.1287 32.092
30.1748 32.0068
30.2211 32.0833
30.2673 31.895
30.3136 31.9192
30.3597 31.9237
30.406 31.7398
30.4522 31.6243
30.4985 31.6866
30.5447 31.7567
30.591 31.7055
30.6372 31.7987
30.6835 31.8051
30.7297 31.8915
30.7761 31.7366
30.8224 31.6155
30.8686 31.4347
30.915 31.1982
30.9612 31.1152
31.0076 30.8181
31.0538 30.7468
31.1002 30.7502
31.1464 30.5156
31.1928 30.5106
31.2391 30.6376
31.2855 30.4865
31.3317 30.5131
31.3781 30.6288
31.4244 30.5292
31.4708 30.4631
31.5171 30.3851
31.5636 30.3573
31.6098 30.1066
31.6563 29.992
31.7026 29.9019
31.7491 29.7365
31.7953 29.8102
31.8418 29.7307
31.8881 29.7889
31.9346 29.8705
31.9809 29.6682
32.0275 29.6115
32.074 29.462
32.1203 29.3324
32.1668 29.2568
32.2132 29.0486
32.2597 28.8402
32.306 28.8431
32.3526 28.6554
32.399 28.5752
32.4455 28.4667
32.4919 28.3753
32.5385 28.2854
32.5848 28.1742
32.6314 28.2481
32.6778 28.1658
32.7244 27.9313
32.7708 27.7879
32.8174 27.7539
32.8638 27.6597
32.9104 27.7709
32.9569 27.7234
33.0035 27.5471
33.0499 27.5596
33.0966 27.6156
33.143 27.5082
33.1897 27.3407
33.2361 27.2597
33.2828 27.2923
33.3293 27.1704
33.3759 27.0973
33.4226 26.9404
33.4691 26.7743
33.5158 26.734
33.5623 26.6265
33.609 26.4364
33.6555 26.3216
33.7022 26.3746
33.7487 26.147
33.7954 26.1912
33.842 25.9975
33.8887 25.9819
33.9353 25.9716
33.982 25.878
34.0286 25.7468
34.0753 25.7146
34.1219 25.6168
34.1687 25.5716
34.2152 25.4702
34.262 25.2694
34.3086 25.2818
34.3554 25.2985
34.402 25.1726
34.4488 24.9885
34.4954 25.0033
34.5422 24.8475
34.5889 24.781
34.6357 24.6945
34.6825 24.582
34.7292 24.5506
34.776 24.4296
34.8227 24.3693
34.8695 24.4281
34.9162 24.2905
34.9631 24.2769
35.0098 24.2071
35.0566 24.0529
35.1033 24.0633
35.1502 23.9885
35.1969 23.8911
35.2438 23.8633
35.2906 23.855
35.3375 23.7378
35.3842 23.7461
35.4311 23.7415
35.4779 23.6843
35.5248 23.5823
35.5716 23.4881
35.6185 23.4274
35.6653 23.3508
35.7123 23.2312
35.759 23.1622
35.806 23.0516
35.8528 22.9752
35.8998 22.9334
35.9468 22.8429
35.9936 22.87
36.0406 22.7131
36.0874 22.7246
36.1345 22.6559
36.1813 22.5411
36.2283 22.4726
36.2752 22.4026
36.3222 22.4348
36.3691 22.2696
36.4161 22.1376
36.463 22.1977
36.5101 22.151
36.557 22.1155
36.6041 21.9199
36.651 21.8943
36.6981 21.8772
36.745 21.7671
36.7921 21.6935
36.839 21.5551
36.8861 21.5116
36.9331 21.4503
36.9802 21.35
37.0272 21.31
37.0743 21.2374
37.1213 21.24
37.1684 21.2027
37.2154 21.0404
37.2626 20.9868
37.3098 20.9708
37.3568 20.8297
37.404 20.7619
37.451 20.7318
37.4982 20.657
37.5452 20.6287
37.5924 20.5748
37.6395 20.5911
37.6867 20.5053
37.7337 20.3822
37.781 20.3309
37.8281 20.3113
37.8753 20.182
37.9224 20.0974
37.9697 19.9872
38.0168 19.9938
38.064 19.8984
38.1111 19.8153
38.1584 19.8289
38.2056 19.7675
38.2529 19.6857
38.3 19.6173
38.3473 19.4924
38.3945 19.4504
38.4418 19.4466
38.489 19.3725
38.5363 19.3042
38.5837 19.241
38.6309 19.2376
38.6782 19.1414
38.7254 19.0673
38.7728 18.9685
38.82 18.9503
38.8674 18.958
38.9146 18.8083
38.9621 18.7228
39.0093 18.6931
39.0567 18.6496
39.104 18.6387
39.1514 18.5725
39.1987 18.5251
39.2461 18.4018
39.2934 18.357
39.3409 18.3006
39.3882 18.241
39.4356 18.144
39.483 18.1201
39.5304 18.0329
39.5778 18.0252
39.6253 17.9946
39.6726 17.9122
39.7201 17.8673
39.7675 17.7882
39.815 17.755
39.8624 17.6451
39.9099 17.6787
39.9575 17.5176
40.0049 17.4617
40.0525 17.4437
40.0999 17.3281
40.1474 17.3404
40.1949 17.243
40.2425 17.1256
40.2899 17.1528
40.3375 17.0626
40.385 17.0894
40.4326 16.9642
40.48 16.937
40.5277 16.895
40.5752 16.8022
40.6228 16.7219
40.6703 16.7064
40.718 16.6464
40.7655 16.6686
40.8132 16.579
40.8607 16.5565
40.9084 16.4607
40.9559 16.4386
41.0036 16.4049
41.0512 16.3518
41.0989 16.3101
41.1465 16.2145
41.1942 16.169
41.242 16.1021
41.2896 16.0252
41.3373 15.9912
41.3849 15.9572
41.4327 15.8828
41.4803 15.7801
41.5281 15.7583
41.5758 15.7198
41.6236 15.6629
41.6712 15.5941
41.7191 15.6038
41.7667 15.5042
41.8146 15.5291
41.8622 15.3977
41.9101 15.3613
41.9578 15.2814
42.0057 15.2194
42.0534 15.1941
42.1013 15.1271
42.149 15.0923
42.1969 15.0118
42.2446 15.057
42.2925 14.9584
42.3403 14.8937
42.3882 14.852
42.436 14.8287
42.4839 14.7623
42.5319 14.6923
42.5797 14.6638
42.6277 14.6212
42.6755 14.5934
42.7235 14.4877
42.7713 14.5451
42.8193 14.4268
42.8671 14.3639
42.9152 14.3452
42.963 14.2503
43.0111 14.2017
43.0589 14.1224
43.107 14.1177
43.1549 14.0717
43.2029 13.9921
43.2508 13.9893
43.2989 13.9326
43.3468 13.8666
43.3949 13.8237
43.4429 13.7765
43.491 13.7472
43.5389 13.7118
43.5871 13.6724
43.635 13.6465
43.6832 13.5971
43.7312 13.4918
43.7793 13.4312
43.8273 13.4177
43.8755 13.3274
43.9237 13.297
43.9717 13.2388
44.0199 13.216
44.068 13.1826
44.1162 13.0959
44.1642 13.114
44.2125 13.067
44.2606 13.0387
44.3088 12.9589
44.3569 12.9315
44.4052 12.8805
44.4533 12.8298
44.5016 12.7369
44.5497 12.7196
44.598 12.676
44.6461 12.6819
44.6945 12.5684
44.7426 12.519
44.791 12.4796
44.8391 12.4895
44.8875 12.4726
44.9357 12.3941
44.984 12.3149
45.0322 12.2893
45.0806 12.2568
45.1288 12.1959
45.1773 12.1543
45.2257 12.1331
45.2739 12.0892
45.3224 12.0246
45.3706 11.9751
45.4191 11.9436
45.4673 11.9094
45.5158 11.8503
45.5641 11.813
45.6126 11.7639
45.6609 11.7018
45.7094 11.6721
45.7577 11.6314
45.8063 11.5589
45.8546 11.5883
45.9031 11.4892
45.9515 11.4785
46.0001 11.4402
46.0484 11.4388
46.097 11.3738
46.1454 11.3401
46.194 11.3147
46.2424 11.2309
46.291 11.1952
46.3395 11.1609
46.3881 11.0799
46.4365 11.0687
46.4852 11.0528
46.5337 10.967
46.5823 10.9582
46.631 10.9126
46.6795 10.8704
46.7282 10.8043
46.7767 10.7716
46.8254 10.7533
46.8739 10.7383
46.9226 10.7023
46.9712 10.638
47.0199 10.567
47.0685 10.5583
47.1173 10.5028
47.1658 10.4574
47.2146 10.4257
47.2632 10.4111
47.312 10.3527
47.3606 10.3152
47.4095 10.2928
47.4581 10.2517
47.5069 10.1966
47.5556 10.1663
47.6044 10.0943
47.6531 10.1211
47.702 10.0435
47.7507 10.0087
47.7996 9.96298
47.8483 9.94585
47.8972 9.92299
47.9461 9.88349
47.9948 9.85203
48.0438 9.78309
48.0925 9.79963
48.1415 9.74665
48.1902 9.694
48.2392 9.7027
48.288 9.63039
48.337 9.58707
48.3858 9.59362
48.4348 9.53885
48.4837 9.50358
48.5327 9.44827
48.5815 9.44133
48.6306 9.40558
48.6795 9.37208
48.7285 9.3179
48.7774 9.30182
48.8265 9.22525
48.8754 9.20979
48.9245 9.1648
48.9734 9.15897
49.0226 9.12627
49.0715 9.07925
49.1206 9.01988
49.1696 8.99845
49.2188 8.97678
49.2679 8.95585
49.3169 8.90064
49.3661 8.82784
49.4151 8.86136
49.4643 8.80565
49.5134 8.79875
49.5626 8.70954
49.6117 8.72532
49.6609 8.70862
49.71 8.60964
49.7592 8.58231
49.8083 8.60161
49.8576 8.55461
49.9067 8.48967
49.956 8.49017
50.0052 8.42909
50.0545 8.44411
50.1036 8.39599
50.153 8.3478
50.2022 8.31305
50.2515 8.25484
50.3007 8.24535
50.3501 8.22407
50.3993 8.19024
50.4487 8.13608
50.498 8.10888
50.5474 8.08843
50.5966 8.05785
50.6461 8.02816
50.6955 8.00377
50.7448 7.97057
50.7943 7.93758
50.8436 7.91771
50.8931 7.88111
50.9424 7.86085
50.9919 7.82643
51.0413 7.78492
51.0908 7.75309
51.1402 7.71247
51.1897 7.65722
51.2391 7.66907
51.2887 7.60897
51.3381 7.56355
51.3877 7.56965
51.4371 7.53782
51.4867 7.49722
51.5362 7.47323
51.5858 7.44034
51.6353 7.39576
51.6849 7.38412
51.7344 7.36743
51.7841 7.34579
51.8336 7.28515
51.8833 7.23509
51.9328 7.20153
51.9826 7.20816
52.0323 7.15692
52.0818 7.13147
52.1316 7.06209
52.1812 7.09931
52.231 7.02813
52.2806 7.05337
52.3304 6.94785
52.38 6.98399
52.4298 6.94974
52.4794 6.88682
52.5293 6.90336
52.5789 6.88334
52.6288 6.81305
52.6785 6.77968
52.7284 6.75231
52.7781 6.75184
52.828 6.72508
52.8777 6.66663
52.9276 6.64809
52.9774 6.6796
53.0273 6.58696
53.0771 6.55879
53.1271 6.56252
53.1769 6.49888
53.2269 6.48742
53.2767 6.4542
53.3267 6.46167
53.3765 6.43425
53.4266 6.42618
53.4766 6.32376
53.5265 6.333
53.5765 6.30497
53.6264 6.25749
53.6765 6.258
53.7264 6.19873
53.7765 6.14752
53.8265 6.15402
53.8766 6.16083
53.9266 6.09606
53.9767 6.05495
54.0267 6.06437
54.0769 6.03329
54.1269 5.95273
54.1771 5.94916
54.2271 5.91706
54.2773 5.93297
54.3274 5.89179
54.3776 5.8496
54.4277 5.82338
54.478 5.76134
54.528 5.72794
54.5783 5.62926
54.6285 5.66271
54.6788 5.63138
54.7289 5.57233
54.7792 5.52066
54.8296 5.5175
54.8798 5.38148
54.9301 5.47042
54.9803 5.36636
55.0307 5.3685
55.0809 5.33532
55.1314 5.32229
55.1816 5.23649
55.232 5.1626
55.2823 5.12557
55.3328 5.09286
55.383 5.02913
55.4335 5.01555
55.4838 4.97604
55.5344 4.90948
55.5847 4.90265
55.6352 4.81757
55.6856 4.80008
55.7361 4.70326