File: XRD/Ni3Fe_FD0495.xy
TT I
1.27165 7.40568
1.31627 6.97491
1.36089 6.69225
1.40551 6.31983
1.45013 6.61744
1.49476 5.80399
1.53938 6.1062
1.584 5.30654
1.62863 4.69002
1.67325 5.12781
1.71787 5.43053
1.7625 5.33826
1.80712 4.99414
1.85174 4.88861
1.89636 4.42696
1.94099 5.04447
1.98562 4.57599
2.03025 4.63296
2.07487 4.54983
2.11949 4.6356
2.16411 5.27284
2.20874 12.7656
2.25338 20.0688
2.298 5.45746
2.34263 4.57343
2.38725 5.56327
2.43188 5.31881
2.4765 6.66736
2.52115 5.99848
2.56577 6.90542
2.6104 7.66573
2.65503 7.10941
2.69965 7.90754
2.7443 7.39124
2.78893 7.74248
2.83356 8.29397
2.87818 8.89692
2.92281 9.20606
2.96744 9.6774
3.01209 10.037
3.05672 10.9428
3.10135 12.5436
3.14599 13.0006
3.19062 14.0181
3.23527 14.7518
3.2799 16.138
3.32454 16.9079
3.36917 17.2924
3.4138 18.9747
3.45844 19.5818
3.50309 20.9276
3.54773 22.1408
3.59237 24.006
3.637 82.8039
3.68164 53.7896
3.7263 26.4134
3.77094 26.1987
3.81558 27.0387
3.86022 27.5918
3.90486 29.1724
3.9495 30.2623
3.99416 31.1904
4.0388 32.78
4.08344 33.492
4.12809 35.4435
4.17273 37.1758
4.21738 42.9011
4.26204 215.824
4.30669 184.437
4.35133 48.0332
4.39598 45.0678
4.44063 53.4012
4.4853 62.5029
4.52995 50.8719
4.5746 51.7434
4.61925 54.1367
4.6639 56.2402
4.70855 58.6667
4.75322 61.7053
4.79788 64.95
4.84253 68.01
4.88719 72.5005
4.93184 76.475
4.97652 81.9592
5.02118 88.7992
5.06583 96.7325
5.11049 109.151
5.15515 173.623
5.19981 413.796
5.24449 3145.1
5.28916 11770.7
5.33382 3208.79
5.37848 204.347
5.42315 134.236
5.46783 117.325
5.5125 109.014
5.55716 104.128
5.60183 100.488
5.6465 98.6513
5.69117 95.8313
5.73586 94.0549
5.78053 93.6114
5.8252 93.1473
5.86988 94.6366
5.91455 96.6544
5.95924 106.485
6.00392 233.026
6.0486 1072.31
6.09328 4152.82
6.13795 3515.54
6.18263 289.363
6.22733 97.225
6.27201 84.8172
6.3167 99.5675
6.36138 80.2758
6.40606 70.0996
6.45075 68.3503
6.49545 66.0524
6.54014 64.515
6.58483 63.4461
6.62952 63.5213
6.67421 89.9939
6.71892 130.665
6.76361 67.4497
6.8083 59.0622
6.853 57.8866
6.89769 57.773
6.94239 57.3424
6.98711 56.5859
7.03181 56.1496
7.07651 55.8021
7.12121 55.8013
7.16591 56.2022
7.21063 56.4301
7.25533 68.7957
7.30004 158.826
7.34475 86.1328
7.38945 57.2198
7.43416 55.2197
7.47889 55.2119
7.5236 55.4138
7.56831 55.9867
7.61303 57.5349
7.65774 57.8508
7.70247 56.8441
7.74719 56.9541
7.79191 57.5563
7.83663 57.6612
7.88135 58.506
7.92607 59.5103
7.97081 60.3731
8.01553 61.5585
8.06026 62.9453
8.10498 64.9495
8.14971 73.1067
8.19446 72.1343
8.23919 70.2415
8.28392 72.9839
8.32865 75.2108
8.37339 79.9161
8.41812 86.6659
8.46288 112.774
8.50761 177.323
8.55235 422.122
8.59709 1207.13
8.64183 2151.64
8.68658 1071.34
8.73134 183.682
8.77609 102.322
8.82083 94.6331
8.86558 91.2099
8.91033 91.3517
8.9551 91.7687
8.99985 86.4493
9.04461 84.5966
9.08936 84.1493
9.13412 83.2757
9.17888 83.1558
9.22365 83.7127
9.26841 83.3872
9.31318 83.9475
9.35794 84.0943
9.4027 84.4745
9.44749 85.1778
9.49226 85.8679
9.53703 86.9654
9.5818 88.5342
9.62657 93.2115
9.67134 98.801
9.71614 94.654
9.76091 95.4807
9.80569 97.8412
9.85047 101.214
9.89525 122.842
9.94005 135.601
9.98484 189.597
10.0296 374.165
10.0744 844.448
10.1192 1657.69
10.164 1658.38
10.2088 463.663
10.2536 136.203
10.2984 114.981
10.3432 115.105
10.388 106.626
10.4328 122.49
10.4776 167.78
10.5224 292.147
10.5672 497.49
10.612 503.996
10.6568 224.331
10.7017 99.6497
10.7465 88.3306
10.7913 84.4364
10.8361 82.3663
10.8809 79.9448
10.9257 79.4389
10.9706 79.62
11.0154 76.0837
11.0602 73.6916
11.105 72.9084
11.1499 76.4824
11.1947 82.1762
11.2395 74.428
11.2844 70.9048
11.3292 67.9987
11.374 66.8378
11.4189 66.3911
11.4637 65.6918
11.5086 66.0752
11.5534 68.6388
11.5983 66.1042
11.6431 64.4278
11.688 63.7445
11.7328 63.8926
11.7777 63.6606
11.8225 63.1114
11.8674 63.3126
11.9122 63.7452
11.9571 63.7051
12.002 64.4549
12.0468 69.7989
12.0917 82.0303
12.1366 106.576
12.1814 155.681
12.2263 198.847
12.2712 169.111
12.3161 100.29
12.3609 71.2946
12.4058 65.7037
12.4507 65.1699
12.4956 65.4004
12.5405 65.5831
12.5853 66.4577
12.6302 72.931
12.6751 77.9257
12.72 70.3759
12.7649 68.7247
12.8098 69.0847
12.8547 70.6397
12.8996 71.8188
12.9445 73.1987
12.9894 74.9825
13.0343 77.0295
13.0792 80.4563
13.1242 90.7135
13.1691 116.646
13.214 154.821
13.2589 243.238
13.3038 359.567
13.3487 417.299
13.3937 278.129
13.4386 131.484
13.4835 109.313
13.5285 125.685
13.5734 164.677
13.6183 249.267
13.6633 332.271
13.7082 342.314
13.7531 202.72
13.7981 103.565
13.843 83.3639
13.888 80.7634
13.9329 78.4896
13.9779 76.8865
14.0228 75.665
14.0678 74.0947
14.1127 73.5593
14.1577 73.4923
14.2027 72.4289
14.2476 71.426
14.2926 71.4137
14.3376 72.4494
14.3825 71.2086
14.4275 70.0667
14.4725 69.5871
14.5175 69.7906
14.5624 69.8482
14.6074 71.7917
14.6524 72.6575
14.6974 71.4412
14.7424 73.3375
14.7874 81.1318
14.8324 92.0104
14.8774 114.236
14.9224 154.679
14.9674 200.489
15.0124 214.823
15.0574 157.244
15.1024 96.1086
15.1474 73.7036
15.1924 71.5753
15.2374 71.8174
15.2824 70.7582
15.3274 69.1519
15.3725 67.9229
15.4175 67.6273
15.4625 66.981
15.5076 67.0733
15.5526 67.2569
15.5976 66.8995
15.6426 68.0188
15.6877 74.2383
15.7327 82.4458
15.7778 98.2041
15.8228 128.619
15.8679 166.548
15.9129 188.004
15.958 159.26
16.003 102.389
16.0481 70.098
16.0931 65.2908
16.1382 63.3825
16.1833 61.5638
16.2283 59.868
16.2734 59.176
16.3185 59.3609
16.3636 59.8398
16.4086 58.4898
16.4537 57.0247
16.4988 56.372
16.5439 56.206
16.589 56.1139
16.6341 55.6975
16.6792 55.2886
16.7243 55.6649
16.7694 55.634
16.8145 55.5854
16.8596 56.0063
16.9047 57.4135
16.9498 57.478
16.9949 56.6373
17.04 56.6852
17.0851 58.031
17.1302 59.8237
17.1754 62.9053
17.2205 68.0023
17.2656 74.6886
17.3108 81.2726
17.3559 82.0061
17.401 72.9192
17.4462 63.8493
17.4913 60.0177
17.5365 60.1641
17.5815 60.0495
17.6268 60.4985
17.6718 61.3706
17.7171 61.8541
17.7622 62.2573
17.8074 62.9267
17.8525 65.4713
17.8977 69.7926
17.9428 75.68
17.9881 84.5925
18.0331 101.426
18.0784 120.37
18.1237 136.369
18.1688 133.418
18.214 108.183
18.2591 89.7069
18.3044 91.7936
18.3495 99.4565
18.3948 104.78
18.4399 98.3595
18.4852 80.7045
18.5303 67.888
18.5756 63.2611
18.6207 62.1479
18.666 61.171
18.7112 60.7073
18.7565 59.746
18.8016 59.4444
18.8469 58.946
18.892 58.6207
18.9374 58.0638
18.9825 57.8768
19.0278 57.6615
19.073 57.9729
19.1183 58.4333
19.1635 59.0738
19.2088 60.4589
19.254 63.2819
19.2993 67.7534
19.3447 72.9556
19.3898 76.2422
19.4352 73.3606
19.4804 64.8517
19.5257 57.9687
19.5709 55.0636
19.6163 54.6139
19.6615 54.4871
19.7068 54.1908
19.752 54.1392
19.7974 54.3078
19.8426 55.4821
19.888 55.9953
19.9332 57.313
19.9786 59.8064
20.0238 63.1548
20.0692 67.1428
20.1144 69.9072
20.1598 69.4112
20.205 65.1259
20.2504 63.4048
20.2957 64.1744
20.3411 65.5765
20.3863 64.7678
20.4318 59.9158
20.477 54.7925
20.5224 52.5097
20.5677 51.772
20.6131 51.0168
20.6586 50.5378
20.7038 50.3905
20.7493 49.894
20.7945 49.7406
20.84 49.6117
20.8853 49.4236
20.9307 49.2762
20.976 49.4722
21.0215 49.3637
21.0668 49.7591
21.1122 50.1668
21.1575 50.9325
21.203 51.4542
21.2483 51.9318
21.2938 52.1405
21.3391 50.9776
21.3846 49.8483
21.4299 49.0701
21.4754 49.0729
21.5207 49.2645
21.5662 49.5627
21.6116 50.1223
21.6571 50.7607
21.7024 51.7049
21.7479 53.5449
21.7933 56.253
21.8388 59.6227
21.8843 62.7278
21.9297 64.7505
21.9752 64.0065
22.0206 60.9754
22.0661 57.6917
22.1115 56.544
22.157 56.6164
22.2024 54.9779
22.248 52.6669
22.2933 50.7999
22.3389 49.8936
22.3843 49.6642
22.4299 49.5657
22.4753 49.5463
22.5208 49.1657
22.5662 49.2802
22.6118 49.3372
22.6572 49.6055
22.7028 50.1557
22.7483 50.4845
22.7939 51.2489
22.8393 52.7085
22.8849 54.6953
22.9303 56.5263
22.9759 58.0506
23.0214 57.9474
23.067 55.5503
23.1126 52.3492
23.1581 50.0828
23.2037 49.4923
23.2492 49.6136
23.2948 49.724
23.3403 49.9275
23.3859 50.6214
23.4314 51.6971
23.477 53.3276
23.5225 55.4025
23.5682 56.9509
23.6137 58.0597
23.6593 56.4606
23.7048 52.6071
23.7505 49.2778
23.796 47.3773
23.8417 46.6519
23.8872 46.2558
23.9329 45.9711
23.9784 45.5908
24.0241 45.2702
24.0697 45.0936
24.1154 44.7625
24.1609 44.5676
24.2066 44.5341
24.2522 44.3033
24.2979 44.2181
24.3434 44.0385
24.3892 43.7967
24.4349 43.8123
24.4805 43.5186
24.5262 43.7636
24.5718 43.6779
24.6175 43.5344
24.6631 43.4052
24.7089 43.225
24.7545 43.0377
24.8002 42.9025
24.8458 42.9705
24.8916 42.6403
24.9372 42.7914
24.983 43.1313
25.0286 43.5234
25.0744 44.0088
25.12 44.445
25.1658 44.9017
25.2114 45.1776
25.2572 45.3508
25.3029 45.3842
25.3487 45.2275
25.3943 45.0769
25.4402 44.3162
25.4858 43.1929
25.5316 42.192
25.5773 41.6368
25.6231 41.4198
25.669 41.2965
25.7147 41.1927
25.7605 40.9616
25.8062 41.1184
25.8521 41.1711
25.8977 41.2729
25.9436 41.3946
25.9893 41.4923
26.0352 42.0188
26.0809 42.1516
26.1268 42.2613
26.1725 42.098
26.2184 41.4035
26.2641 40.9483
26.31 40.7942
26.3557 40.794
26.4017 40.718
26.4474 41.0866
26.4933 41.4012
26.5391 41.8007
26.585 42.3313
26.6308 42.4654
26.6767 42.6316
26.7225 42.5721
26.7684 42.0563
26.8142 41.421
26.8601 41.0146
26.9059 40.5151
26.9519 40.0949
26.9979 39.8735
27.0437 39.4673
27.0896 39.3849
27.1354 39.2688
27.1814 39.1056
27.2272 39.0933
27.2732 39.2409
27.3191 38.9816
27.3651 39.0997
27.4109 38.9555
27.4569 39.0053
27.5027 39.0275
27.5488 39.0371
27.5946 38.757
27.6407 38.7081
27.6865 38.5341
27.7326 38.4114
27.7784 38.4888
27.8245 38.3602
27.8703 38.6064
27.9164 38.8495
27.9623 38.9916
28.0084 39.1376
28.0543 39.4917
28.1003 39.5406
28.1462 39.3239
28.1923 39.0513
28.2384 38.5581
28.2843 38.3349
28.3304 37.7874
28.3764 37.4136
28.4225 36.9257
28.4684 36.9132
28.5145 36.4918
28.5605 36.3576
28.6066 36.1815
28.6526 36.1607
28.6987 36.1289
28.7447 36.0076
28.7908 35.9311
28.8368 35.9328
28.8829 35.8562
28.9289 35.8024
28.9751 35.7058
29.0211 35.5279
29.0673 35.1492
29.1133 35.0347
29.1595 34.9198
29.2055 34.7998
29.2517 34.8817
29.2977 34.8433
29.3439 34.5987
29.3899 34.7741
29.4361 34.5714
29.4824 34.4732
29.5284 34.3354
29.5746 33.9097
29.6207 33.6402
29.6669 33.5751
29.713 33.4688
29.7593 33.4478
29.8053 33.3785
29.8516 33.3377
29.8977 33.2783
29.9439 33.0667
29.99 33.104
30.0363 33.013
30.0824 32.9783
30.1287 32.9829
30.1748 32.9563
30.2211 32.8363
30.2673 32.7391
30.3136 32.8574
30.3597 32.7626
30.406 32.6461
30.4522 32.6082
30.4985 32.5631
30.5447 32.6502
30.591 32.6766
30.6372 32.7025
30.6835 32.5633
30.7297 32.7184
30.7761 32.6694
30.8224 32.4419
30.8686 32.3751
30.915 32.0595
30.9612 31.8881
31.0076 31.7699
31.0538 31.7033
31.1002 31.5555
31.1464 31.4006
31.1928 31.4078
31.2391 31.3308
31.2855 31.3995
31.3317 31.252
31.3781 31.4375
31.4244 31.325
31.4708 31.2216
31.5171 31.2379
31.5636 31.2394
31.6098 30.9297
31.6563 30.7964
31.7026 30.6909
31.7491 30.5667
31.7953 30.6487
31.8418 30.5641
31.8881 30.6315
31.9346 30.5004
31.9809 30.4877
32.0275 30.2825
32.074 30.2265
32.1203 30.0259
32.1668 30.0117
32.2132 29.7533
32.2597 29.6757
32.306 29.6202
32.3526 29.3878
32.399 29.2907
32.4455 29.2779
32.4919 29.1133
32.5385 29.1315
32.5848 28.8939
32.6314 28.899
32.6778 28.8621
32.7244 28.6202
32.7708 28.52
32.8174 28.4285
32.8638 28.3773
32.9104 28.5174
32.9569 28.4859
33.0035 28.3117
33.0499 28.2634
33.0966 28.1876
33.143 28.2511
33.1897 28.075
33.2361 27.9859
33.2828 27.9622
33.3293 27.8125
33.3759 27.7658
33.4226 27.6081
33.4691 27.4606
33.5158 27.44
33.5623 27.3437
33.609 27.1298
33.6555 26.974
33.7022 27.0823
33.7487 26.9122
33.7954 26.9582
33.842 26.7709
33.8887 26.6261
33.9353 26.6283
33.982 26.5331
34.0286 26.4345
34.0753 26.3893
34.1219 26.252
34.1687 26.213
34.2152 26.1333
34.262 26.0249
34.3086 25.9564
34.3554 25.8183
34.402 25.7112
34.4488 25.6105
34.4954 25.6249
34.5422 25.5654
34.5889 25.43
34.6357 25.3592
34.6825 25.2787
34.7292 25.2469
34.776 25.0097
34.8227 25.0958
34.8695 24.9953
34.9162 24.9798
34.9631 24.9101
35.0098 24.8909
35.0566 24.6767
35.1033 24.6579
35.1502 24.6696
35.1969 24.5855
35.2438 24.5056
35.2906 24.4521
35.3375 24.445
35.3842 24.3367
35.4311 24.332
35.4779 24.3214
35.5248 24.2339
35.5716 24.1627
35.6185 24.1185
35.6653 23.98
35.7123 23.8931
35.759 23.8675
35.806 23.7182
35.8528 23.6466
35.8998 23.531
35.9468 23.4685
35.9936 23.3845
36.0406 23.2543
36.0874 23.3045
36.1345 23.2518
36.1813 23.1767
36.2283 22.9826
36.2752 22.944
36.3222 22.9925
36.3691 22.9338
36.4161 22.8392
36.463 22.7826
36.5101 22.7146
36.557 22.6474
36.6041 22.5952
36.651 22.4616
36.6981 22.5062
36.745 22.3954
36.7921 22.3651
36.839 22.1846
36.8861 22.0934
36.9331 21.9823
36.9802 22.0862
37.0272 21.8991
37.0743 21.8192
37.1213 21.7031
37.1684 21.6949
37.2154 21.6135
37.2626 21.6286
37.3098 21.6156
37.3568 21.4057
37.404 21.4266
37.451 21.3185
37.4982 21.2282
37.5452 21.1472
37.5924 21.0833
37.6395 21.1557
37.6867 20.9826
37.7337 20.9101
37.781 20.8412
37.8281 20.7538
37.8753 20.7104
37.9224 20.6134
37.9697 20.5486
38.0168 20.5042
38.064 20.4184
38.1111 20.381
38.1584 20.3632
38.2056 20.2952
38.2529 20.1748
38.3 20.059
38.3473 20.1176
38.3945 19.9893
38.4418 19.9467
38.489 19.8719
38.5363 19.7747
38.5837 19.7356
38.6309 19.6802
38.6782 19.6032
38.7254 19.6517
38.7728 19.5458
38.82 19.3812
38.8674 19.4167
38.9146 19.3187
38.9621 19.2709
39.0093 19.1866
39.0567 19.1789
39.104 19.0994
39.1514 19.0322
39.1987 19.001
39.2461 18.9081
39.2934 18.8315
39.3409 18.7
39.3882 18.6744
39.4356 18.6582
39.483 18.6153
39.5304 18.5227
39.5778 18.4884
39.6253 18.4585
39.6726 18.4045
39.7201 18.2708
39.7675 18.2294
39.815 18.1968
39.8624 18.0634
39.9099 18.13
39.9575 17.9632
40.0049 17.9437
40.0525 17.9195
40.0999 17.8062
40.1474 17.7658
40.1949 17.7424
40.2425 17.5753
40.2899 17.6082
40.3375 17.6328
40.385 17.4789
40.4326 17.3529
40.48 17.3
40.5277 17.363
40.5752 17.3206
40.6228 17.2191
40.6703 17.1427
40.718 17.0777
40.7655 17.0608
40.8132 17.034
40.8607 17.0203
40.9084 16.9124
40.9559 16.8358
41.0036 16.8263
41.0512 16.8327
41.0989 16.7096
41.1465 16.5802
41.1942 16.5516
41.242 16.468
41.2896 16.4348
41.3373 16.3889
41.3849 16.3496
41.4327 16.2707
41.4803 16.1974
41.5281 16.1431
41.5758 16.1115
41.6236 16.0736
41.6712 15.9979
41.7191 15.8961
41.7667 15.9097
41.8146 15.9049
41.8622 15.8373
41.9101 15.7464
41.9578 15.6733
42.0057 15.632
42.0534 15.6094
42.1013 15.5659
42.149 15.5253
42.1969 15.3616
42.2446 15.3784
42.2925 15.3857
42.3403 15.2595
42.3882 15.3383
42.436 15.1959
42.4839 15.085
42.5319 15.0235
42.5797 14.981
42.6277 14.9815
42.6755 14.9463
42.7235 14.8366
42.7713 14.7999
42.8193 14.7477
42.8671 14.7246
42.9152 14.6794
42.963 14.6347
43.0111 14.5684
43.0589 14.5415
43.107 14.4501
43.1549 14.4079
43.2029 14.346
43.2508 14.322
43.2989 14.2688
43.3468 14.2171
43.3949 14.1691
43.4429 14.1159
43.491 14.0686
43.5389 14.0427
43.5871 13.933
43.635 13.9284
43.6832 13.8838
43.7312 13.8401
43.7793 13.7405
43.8273 13.7477
43.8755 13.6954
43.9237 13.6495
43.9717 13.6086
44.0199 13.5114
44.068 13.5283
44.1162 13.4324
44.1642 13.4355
44.2125 13.3254
44.2606 13.3282
44.3088 13.289
44.3569 13.2087
44.4052 13.1783
44.4533 13.0983
44.5016 13.0916
44.5497 13.0754
44.598 13.0028
44.6461 12.9409
44.6945 12.8861
44.7426 12.8799
44.791 12.805
44.8391 12.7849
44.8875 12.6867
44.9357 12.6832
44.984 12.6167
45.0322 12.6171
45.0806 12.5737
45.1288 12.4985
45.1773 12.4503
45.2257 12.4642
45.2739 12.3314
45.3224 12.3343
45.3706 12.3024
45.4191 12.2593
45.4673 12.2247
45.5158 12.1402
45.5641 12.1301
45.6126 12.0669
45.6609 11.9964
45.7094 11.9369
45.7577 11.942
45.8063 11.8624
45.8546 11.8584
45.9031 11.8076
45.9515 11.7361
46.0001 11.7163
46.0484 11.7056
46.097 11.5917
46.1454 11.6663
46.194 11.5463
46.2424 11.5625
46.291 11.4303
46.3395 11.4121
46.3881 11.3249
46.4365 11.3674
46.4852 11.3383
46.5337 11.2748
46.5823 11.2617
46.631 11.192
46.6795 11.1749
46.7282 11.1267
46.7767 11.0871
46.8254 10.9841
46.8739 10.9703
46.9226 10.9324
46.9712 10.9083
47.0199 10.865
47.0685 10.8238
47.1173 10.7702
47.1658 10.7142
47.2146 10.6931
47.2632 10.6438
47.312 10.6631
47.3606 10.5548
47.4095 10.5427
47.4581 10.5174
47.5069 10.4523
47.5556 10.4036
47.6044 10.3971
47.6531 10.3224
47.702 10.3395
47.7507 10.2797
47.7996 10.2111
47.8483 10.2358
47.8972 10.1461
47.9461 10.1216
47.9948 10.0887
48.0438 10.0096
48.0925 10.0199
48.1415 9.99118
48.1902 9.91719
48.2392 9.90864
48.288 9.8738
48.337 9.82753
48.3858 9.81998
48.4348 9.72829
48.4837 9.80716
48.5327 9.69464
48.5815 9.68767
48.6306 9.62608
48.6795 9.60526
48.7285 9.58243
48.7774 9.52222
48.8265 9.50363
48.8754 9.45184
48.9245 9.43116
48.9734 9.40487
49.0226 9.33459
49.0715 9.2967
49.1206 9.28469
49.1696 9.23505
49.2188 9.21193
49.2679 9.15449
49.3169 9.10324
49.3661 9.08467
49.4151 9.10603
49.4643 9.05825
49.5134 9.0138
49.5626 8.94535
49.6117 8.93822
49.6609 8.91944
49.71 8.84831
49.7592 8.81435
49.8083 8.73282
49.8576 8.75725
49.9067 8.74606
49.956 8.677
50.0052 8.66404
50.0545 8.61613
50.1036 8.5921
50.153 8.57131
50.2022 8.53131
50.2515 8.48213
50.3007 8.41589
50.3501 8.41475
50.3993 8.38367
50.4487 8.35398
50.498 8.33151
50.5474 8.29694
50.5966 8.2768
50.6461 8.22416
50.6955 8.19043
50.7448 8.1708
50.7943 8.14447
50.8436 8.1115
50.8931 8.09112
50.9424 8.05158
50.9919 8.03124
51.0413 8.00928
51.0908 7.9605
51.1402 7.92917
51.1897 7.90523
51.2391 7.8258
51.2887 7.81104
51.3381 7.77642
51.3877 7.73889
51.4371 7.73307
51.4867 7.68918
51.5362 7.63262
51.5858 7.61522
51.6353 7.57493
51.6849 7.57715
51.7344 7.5622
51.7841 7.49073
51.8336 7.44282
51.8833 7.43614
51.9328 7.4097
51.9826 7.39723
52.0323 7.30829
52.0818 7.30214
52.1316 7.26661
52.1812 7.23945
52.231 7.2273
52.2806 7.17142
52.3304 7.17824
52.38 7.11992
52.4298 7.09041
52.4794 7.09886
52.5293 7.06307
52.5789 7.04832
52.6288 6.98262
52.6785 6.97285
52.7284 6.95133
52.7781 6.91058
52.828 6.90443
52.8777 6.8239
52.9276 6.83783
52.9774 6.77821
53.0273 6.79275
53.0771 6.73623
53.1271 6.70028
53.1769 6.70688
53.2269 6.67804
53.2767 6.63061
53.3267 6.5895
53.3765 6.56215
53.4266 6.53096
53.4766 6.4775
53.5265 6.41111
53.5765 6.46759
53.6264 6.37735
53.6765 6.41998
53.7264 6.33697
53.7765 6.3709
53.8265 6.29862
53.8766 6.24432
53.9266 6.27153
53.9767 6.20997
54.0267 6.22927
54.0769 6.17674
54.1269 6.17789
54.1771 6.12046
54.2271 6.1154
54.2773 6.02429
54.3274 5.99212
54.3776 5.96547
54.4277 5.96034
54.478 5.91078
54.528 5.88821
54.5783 5.85432
54.6285 5.80688
54.6788 5.7821
54.7289 5.7434
54.7792 5.68723
54.8296 5.62785
54.8798 5.56682
54.9301 5.56159
54.9803 5.50372
55.0307 5.5173
55.0809 5.41992
55.1314 5.41554
55.1816 5.37701
55.232 5.3284
55.2823 5.25176
55.3328 5.24171
55.383 5.1524
55.4335 5.15816
55.4838 5.018
55.5344 5.02853
55.5847 4.97013
55.6352 4.93353
55.6856 4.92332
55.7361 4.86208