File: XRD/Ni3Fe_FD0726.xy
TT I
1.27165 7.43645
1.31627 6.79734
1.36089 6.87624
1.40551 6.00952
1.45013 6.30569
1.49476 5.76685
1.53938 5.92998
1.584 5.42808
1.62863 5.00792
1.67325 4.99653
1.71787 4.94624
1.7625 4.07948
1.80712 4.70204
1.85174 4.57695
1.89636 4.62017
1.94099 5.26835
1.98562 3.92138
2.03025 4.24135
2.07487 4.327
2.11949 4.53201
2.16411 4.91403
2.20874 12.7191
2.25338 19.0007
2.298 5.74157
2.34263 5.57459
2.38725 5.60719
2.43188 6.33202
2.4765 6.77753
2.52115 7.07277
2.56577 7.98329
2.6104 7.95359
2.65503 8.39105
2.69965 7.30234
2.7443 7.88026
2.78893 7.47895
2.83356 8.39298
2.87818 8.34919
2.92281 9.25953
2.96744 9.24442
3.01209 10.4355
3.05672 10.9955
3.10135 12.094
3.14599 12.7248
3.19062 14.2789
3.23527 14.9796
3.2799 15.9039
3.32454 16.2462
3.36917 17.2123
3.4138 18.9547
3.45844 19.4535
3.50309 20.1559
3.54773 21.5856
3.59237 23.4108
3.637 80.2595
3.68164 52.2388
3.7263 25.8101
3.77094 25.929
3.81558 26.9412
3.86022 27.1716
3.90486 28.6074
3.9495 29.6791
3.99416 30.6824
4.0388 32.2418
4.08344 33.2363
4.12809 34.9385
4.17273 36.6149
4.21738 42.2544
4.26204 212.313
4.30669 186.178
4.35133 47.6305
4.39598 44.4209
4.44063 52.6757
4.4853 62.1833
4.52995 50.1231
4.5746 51.2272
4.61925 53.2101
4.6639 55.2087
4.70855 57.6813
4.75322 60.8223
4.79788 63.6205
4.84253 66.9199
4.88719 71.0955
4.93184 74.4131
4.97652 80.3893
5.02118 86.5646
5.06583 93.577
5.11049 104.971
5.15515 163.003
5.19981 336.756
5.24449 2841.77
5.28916 12576.4
5.33382 2927.39
5.37848 186.014
5.42315 128.009
5.46783 113.497
5.5125 106.035
5.55716 102.002
5.60183 98.1342
5.6465 96.1813
5.69117 94.0224
5.73586 91.7488
5.78053 91.7035
5.8252 91.1081
5.86988 91.5144
5.91455 93.7491
5.95924 101.073
6.00392 200.354
6.0486 944.484
6.09328 4449.7
6.13795 3196.41
6.18263 235.587
6.22733 91.9051
6.27201 81.9291
6.3167 96.4881
6.36138 78.1473
6.40606 68.6818
6.45075 66.8958
6.49545 65.018
6.54014 63.3393
6.58483 62.7888
6.62952 62.3074
6.67421 88.0684
6.71892 127.737
6.76361 66.7644
6.8083 58.1577
6.853 57.3397
6.89769 56.8459
6.94239 56.1414
6.98711 55.5233
7.03181 55.1441
7.07651 54.799
7.12121 54.8799
7.16591 55.0432
7.21063 54.9856
7.25533 68.1601
7.30004 155.712
7.34475 84.3526
7.38945 55.9557
7.43416 54.3213
7.47889 53.9137
7.5236 54.4274
7.56831 54.6969
7.61303 56.7948
7.65774 56.7681
7.70247 55.9032
7.74719 55.6442
7.79191 56.7141
7.83663 56.5952
7.88135 57.9248
7.92607 58.6254
7.97081 59.6214
8.01553 60.6816
8.06026 61.9105
8.10498 63.4343
8.14971 71.5534
8.19446 71.0135
8.23919 69.1561
8.28392 71.404
8.32865 73.7995
8.37339 78.3022
8.41812 84.3007
8.46288 108.698
8.50761 158.441
8.55235 376.994
8.59709 1189.9
8.64183 2131.94
8.68658 961.707
8.73134 168.471
8.77609 98.6577
8.82083 92.0577
8.86558 89.4842
8.91033 89.3862
8.9551 90.1824
8.99985 85.1402
9.04461 83.3879
9.08936 82.2713
9.13412 81.6502
9.17888 82.1044
9.22365 82.0599
9.26841 81.4168
9.31318 82.3329
9.35794 82.6998
9.4027 82.9587
9.44749 83.5948
9.49226 84.2337
9.53703 85.3937
9.5818 86.7087
9.62657 90.8211
9.67134 96.4939
9.71614 93.0961
9.76091 93.5909
9.80569 96.2216
9.85047 99.2074
9.89525 119.546
9.94005 130.396
9.98484 172.464
10.0296 339.086
10.0744 824.746
10.1192 1764.84
10.164 1583.53
10.2088 409.521
10.2536 126.042
10.2984 111.882
10.3432 112.173
10.388 103.732
10.4328 116.712
10.4776 158.97
10.5224 286.938
10.5672 516.0
10.612 505.741
10.6568 206.309
10.7017 96.7867
10.7465 86.2846
10.7913 82.8407
10.8361 80.7361
10.8809 78.8068
10.9257 77.7353
10.9706 78.0865
11.0154 74.6179
11.0602 72.6093
11.105 71.5363
11.1499 74.8796
11.1947 80.5844
11.2395 73.067
11.2844 69.7437
11.3292 66.9096
11.374 65.5732
11.4189 65.2711
11.4637 64.589
11.5086 65.0242
11.5534 66.9479
11.5983 65.1499
11.6431 63.3612
11.688 62.3826
11.7328 62.4426
11.7777 62.5869
11.8225 62.0478
11.8674 62.1531
11.9122 62.6099
11.9571 62.6556
12.002 63.2117
12.0468 66.9889
12.0917 77.6728
12.1366 102.833
12.1814 154.733
12.2263 201.045
12.2712 162.79
12.3161 95.1024
12.3609 69.4171
12.4058 64.0892
12.4507 63.7672
12.4956 63.859
12.5405 64.1187
12.5853 65.3299
12.6302 71.4616
12.6751 75.7926
12.72 68.7734
12.7649 67.4841
12.8098 68.1373
12.8547 69.319
12.8996 70.4687
12.9445 71.7728
12.9894 74.1912
13.0343 75.5035
13.0792 78.5616
13.1242 87.0634
13.1691 109.682
13.214 147.28
13.2589 242.151
13.3038 371.544
13.3487 414.782
13.3937 264.512
13.4386 126.848
13.4835 104.737
13.5285 119.017
13.5734 159.068
13.6183 251.599
13.6633 343.913
13.7082 332.243
13.7531 185.088
13.7981 97.2521
13.843 81.5659
13.888 79.3318
13.9329 76.7682
13.9779 75.504
14.0228 74.1992
14.0678 72.508
14.1127 72.122
14.1577 71.947
14.2027 71.0823
14.2476 69.9291
14.2926 70.0521
14.3376 71.0273
14.3825 69.9349
14.4275 68.6365
14.4725 68.328
14.5175 68.7183
14.5624 68.9069
14.6074 70.4787
14.6524 70.7446
14.6974 70.0791
14.7424 71.5829
14.7874 78.1474
14.8324 88.2791
14.8774 111.229
14.9224 155.052
14.9674 207.609
15.0124 214.176
15.0574 147.572
15.1024 91.1713
15.1474 72.2251
15.1924 70.2212
15.2374 70.3438
15.2824 69.5776
15.3274 67.7053
15.3725 66.3924
15.4175 65.9693
15.4625 65.6828
15.5076 65.8282
15.5526 65.7854
15.5976 65.4271
15.6426 66.0834
15.6877 71.4614
15.7327 79.2363
15.7778 94.8819
15.8228 127.601
15.8679 172.108
15.9129 189.37
15.958 153.283
16.003 98.3457
16.0481 68.0428
16.0931 63.807
16.1382 62.0301
16.1833 60.1737
16.2283 58.7511
16.2734 57.9759
16.3185 58.2213
16.3636 58.7365
16.4086 57.2786
16.4537 55.9871
16.4988 55.2995
16.5439 55.0917
16.589 54.8029
16.6341 54.7014
16.6792 54.3077
16.7243 54.6248
16.7694 54.6479
16.8145 54.528
16.8596 54.8445
16.9047 56.4079
16.9498 56.4736
16.9949 55.4519
17.04 55.2596
17.0851 56.6889
17.1302 58.2327
17.1754 61.3187
17.2205 66.7232
17.2656 74.5064
17.3108 82.3036
17.3559 81.4807
17.401 70.7976
17.4462 62.1321
17.4913 59.0889
17.5365 58.9287
17.5815 58.9864
17.6268 59.4117
17.6718 60.0848
17.7171 60.4603
17.7622 61.095
17.8074 61.7359
17.8525 63.696
17.8977 67.5725
17.9428 73.2313
17.9881 82.6071
18.0331 100.843
18.0784 122.873
18.1237 138.66
18.1688 131.125
18.214 103.493
18.2591 87.0164
18.3044 90.9507
18.3495 100.142
18.3948 104.818
18.4399 95.5996
18.4852 77.1989
18.5303 65.8704
18.5756 61.9151
18.6207 61.0864
18.666 60.218
18.7112 59.3799
18.7565 58.614
18.8016 58.4437
18.8469 57.9058
18.892 57.5086
18.9374 56.9912
18.9825 56.7993
19.0278 56.4947
19.073 56.5924
19.1183 57.0563
19.1635 57.7391
19.2088 59.3638
19.254 62.047
19.2993 66.8165
19.3447 72.8157
19.3898 75.5514
19.4352 71.5892
19.4804 63.351
19.5257 56.8042
19.5709 54.0396
19.6163 53.7532
19.6615 53.3881
19.7068 53.0973
19.752 53.1184
19.7974 53.4766
19.8426 54.0619
19.888 54.7254
19.9332 56.0912
19.9786 58.8351
20.0238 62.3475
20.0692 67.2243
20.1144 69.2323
20.1598 67.7574
20.205 63.4672
20.2504 62.4146
20.2957 63.8416
20.3411 65.014
20.3863 63.4934
20.4318 58.2206
20.477 53.6854
20.5224 51.3904
20.5677 50.6836
20.6131 50.1396
20.6586 49.478
20.7038 49.244
20.7493 48.9697
20.7945 48.859
20.84 48.5802
20.8853 48.5012
20.9307 48.4144
20.976 48.4459
21.0215 48.4638
21.0668 48.9559
21.1122 49.1058
21.1575 50.0652
21.203 50.8165
21.2483 51.0217
21.2938 51.1954
21.3391 49.9975
21.3846 48.8432
21.4299 48.3401
21.4754 48.2944
21.5207 48.2794
21.5662 48.6791
21.6116 48.9289
21.6571 49.6599
21.7024 50.6162
21.7479 52.5411
21.7933 55.3923
21.8388 59.1573
21.8843 62.3029
21.9297 64.3712
21.9752 63.1343
22.0206 59.5804
22.0661 56.5905
22.1115 55.9092
22.157 55.564
22.2024 54.2558
22.248 51.2941
22.2933 49.8696
22.3389 49.1466
22.3843 48.7825
22.4299 48.7675
22.4753 48.6821
22.5208 48.4602
22.5662 48.3816
22.6118 48.5141
22.6572 48.734
22.7028 49.0038
22.7483 49.5071
22.7939 50.2406
22.8393 51.9356
22.8849 54.1179
22.9303 56.0589
22.9759 57.4816
23.0214 56.9461
23.067 54.3142
23.1126 51.1386
23.1581 49.2383
23.2037 48.6395
23.2492 48.6115
23.2948 48.5752
23.3403 48.9061
23.3859 49.6223
23.4314 50.7354
23.477 52.6116
23.5225 54.9162
23.5682 56.9859
23.6137 57.4984
23.6593 55.2462
23.7048 51.4443
23.7505 48.3638
23.796 46.6736
23.8417 45.9662
23.8872 45.4093
23.9329 45.0173
23.9784 44.9225
24.0241 44.4419
24.0697 44.4697
24.1154 43.8818
24.1609 43.8432
24.2066 43.741
24.2522 43.5173
24.2979 43.3229
24.3434 43.2679
24.3892 43.0076
24.4349 42.9615
24.4805 42.8111
24.5262 42.9481
24.5718 42.853
24.6175 42.8078
24.6631 42.7809
24.7089 42.3316
24.7545 42.2806
24.8002 42.043
24.8458 42.0953
24.8916 41.9768
24.9372 42.1224
24.983 42.3908
25.0286 42.8338
25.0744 43.0598
25.12 43.7737
25.1658 44.1341
25.2114 44.4598
25.2572 44.7588
25.3029 44.7512
25.3487 44.6509
25.3943 44.4
25.4402 43.447
25.4858 42.4309
25.5316 41.3901
25.5773 40.7868
25.6231 40.7108
25.669 40.3653
25.7147 40.4104
25.7605 40.3427
25.8062 40.3958
25.8521 40.5393
25.8977 40.5702
25.9436 40.7686
25.9893 40.8995
26.0352 41.4987
26.0809 41.3841
26.1268 41.6036
26.1725 41.2393
26.2184 40.7565
26.2641 40.1584
26.31 39.9557
26.3557 39.989
26.4017 40.0166
26.4474 40.265
26.4933 40.5071
26.5391 41.1161
26.585 41.5944
26.6308 41.8399
26.6767 42.0831
26.7225 41.7792
26.7684 41.3241
26.8142 40.675
26.8601 40.1254
26.9059 39.8815
26.9519 39.2376
26.9979 39.0704
27.0437 38.824
27.0896 38.6569
27.1354 38.7335
27.1814 38.5723
27.2272 38.4311
27.2732 38.445
27.3191 38.2292
27.3651 38.2856
27.4109 38.2729
27.4569 38.5177
27.5027 38.4018
27.5488 38.4233
27.5946 38.1874
27.6407 38.0817
27.6865 37.9951
27.7326 37.6772
27.7784 37.8796
27.8245 37.645
27.8703 37.9212
27.9164 38.1536
27.9623 38.3405
28.0084 38.5741
28.0543 38.8554
28.1003 38.974
28.1462 38.7248
28.1923 38.4282
28.2384 37.815
28.2843 37.5376
28.3304 37.0752
28.3764 36.5257
28.4225 36.252
28.4684 36.2043
28.5145 35.746
28.5605 35.7601
28.6066 35.6328
28.6526 35.5158
28.6987 35.6276
28.7447 35.4827
28.7908 35.2215
28.8368 35.3632
28.8829 35.3779
28.9289 35.2455
28.9751 34.9282
29.0211 34.8338
29.0673 34.5902
29.1133 34.4718
29.1595 34.44
29.2055 34.2159
29.2517 34.2037
29.2977 34.1729
29.3439 34.1996
29.3899 34.2452
29.4361 34.0359
29.4824 33.858
29.5284 33.6839
29.5746 33.2668
29.6207 33.1209
29.6669 33.0028
29.713 33.0194
29.7593 32.7832
29.8053 32.7234
29.8516 32.7539
29.8977 32.6588
29.9439 32.4501
29.99 32.5245
30.0363 32.2376
30.0824 32.5135
30.1287 32.2669
30.1748 32.4411
30.2211 32.3592
30.2673 32.1744
30.3136 32.2818
30.3597 32.1621
30.406 32.0516
30.4522 32.0729
30.4985 31.9769
30.5447 32.119
30.591 32.1654
30.6372 32.0986
30.6835 32.1017
30.7297 32.1224
30.7761 32.1468
30.8224 31.8795
30.8686 31.8036
30.915 31.5428
30.9612 31.4121
31.0076 31.1982
31.0538 31.17
31.1002 31.0239
31.1464 30.7457
31.1928 30.8883
31.2391 30.7818
31.2855 30.8552
31.3317 30.7056
31.3781 30.7741
31.4244 30.7841
31.4708 30.6596
31.5171 30.6355
31.5636 30.7146
31.6098 30.449
31.6563 30.3256
31.7026 30.1957
31.7491 30.0939
31.7953 30.107
31.8418 30.1079
31.8881 30.1341
31.9346 30.0764
31.9809 29.9695
32.0275 29.8362
32.074 29.7692
32.1203 29.5498
32.1668 29.4514
32.2132 29.3102
32.2597 29.1067
32.306 29.0302
32.3526 28.9497
32.399 28.8499
32.4455 28.7141
32.4919 28.6032
32.5385 28.5717
32.5848 28.3417
32.6314 28.3713
32.6778 28.3777
32.7244 28.2158
32.7708 28.0305
32.8174 28.0535
32.8638 27.9467
32.9104 27.9808
32.9569 27.9106
33.0035 27.8463
33.0499 27.7913
33.0966 27.6728
33.143 27.7212
33.1897 27.5787
33.2361 27.5976
33.2828 27.5009
33.3293 27.3394
33.3759 27.3127
33.4226 27.1454
33.4691 27.0079
33.5158 26.9656
33.5623 26.8193
33.609 26.7412
33.6555 26.6128
33.7022 26.5844
33.7487 26.4428
33.7954 26.4169
33.842 26.3285
33.8887 26.1569
33.9353 26.1752
33.982 26.0729
34.0286 25.9768
34.0753 25.8835
34.1219 25.88
34.1687 25.7946
34.2152 25.7362
34.262 25.6601
34.3086 25.4703
34.3554 25.4842
34.402 25.2809
34.4488 25.2408
34.4954 25.151
34.5422 25.0948
34.5889 24.985
34.6357 24.9985
34.6825 24.8384
34.7292 24.7826
34.776 24.622
34.8227 24.5703
34.8695 24.5877
34.9162 24.5111
34.9631 24.3707
35.0098 24.381
35.0566 24.2226
35.1033 24.2082
35.1502 24.2077
35.1969 24.1037
35.2438 24.1306
35.2906 23.995
35.3375 24.0082
35.3842 23.8211
35.4311 23.9731
35.4779 23.9087
35.5248 23.8293
35.5716 23.652
35.6185 23.6269
35.6653 23.4811
35.7123 23.4668
35.759 23.3552
35.806 23.303
35.8528 23.1859
35.8998 23.0934
35.9468 23.0892
35.9936 23.0711
36.0406 22.9148
36.0874 22.9181
36.1345 22.8313
36.1813 22.785
36.2283 22.6725
36.2752 22.4762
36.3222 22.6248
36.3691 22.4719
36.4161 22.3796
36.463 22.4596
36.5101 22.3922
36.557 22.3181
36.6041 22.1335
36.651 22.1737
36.6981 22.0426
36.745 21.9415
36.7921 21.8498
36.839 21.7372
36.8861 21.7636
36.9331 21.7753
36.9802 21.6126
37.0272 21.5268
37.0743 21.4235
37.1213 21.3557
37.1684 21.3565
37.2154 21.3209
37.2626 21.1689
37.3098 21.1109
37.3568 21.1068
37.404 21.0375
37.451 20.8964
37.4982 20.8968
37.5452 20.776
37.5924 20.7971
37.6395 20.7407
37.6867 20.7057
37.7337 20.5919
37.781 20.5452
37.8281 20.3938
37.8753 20.3028
37.9224 20.2745
37.9697 20.1759
38.0168 20.1981
38.064 20.0462
38.1111 20.0191
38.1584 19.9751
38.2056 19.9124
38.2529 19.9009
38.3 19.759
38.3473 19.7425
38.3945 19.6141
38.4418 19.6076
38.489 19.5371
38.5363 19.4408
38.5837 19.3898
38.6309 19.3831
38.6782 19.2079
38.7254 19.1147
38.7728 19.173
38.82 19.0457
38.8674 19.0259
38.9146 18.9854
38.9621 18.8921
39.0093 18.7908
39.0567 18.8609
39.104 18.7774
39.1514 18.6651
39.1987 18.5956
39.2461 18.5575
39.2934 18.5399
39.3409 18.4602
39.3882 18.3233
39.4356 18.2794
39.483 18.2315
39.5304 18.2184
39.5778 18.1886
39.6253 18.1313
39.6726 18.0228
39.7201 17.9791
39.7675 17.9952
39.815 17.8748
39.8624 17.7848
39.9099 17.8041
39.9575 17.7024
40.0049 17.659
40.0525 17.5136
40.0999 17.567
40.1474 17.463
40.1949 17.4195
40.2425 17.3286
40.2899 17.3005
40.3375 17.2267
40.385 17.1839
40.4326 17.1562
40.48 17.1135
40.5277 17.1013
40.5752 16.9973
40.6228 16.8569
40.6703 16.884
40.718 16.8027
40.7655 16.763
40.8132 16.7141
40.8607 16.7327
40.9084 16.6007
40.9559 16.5426
41.0036 16.5423
41.0512 16.4898
41.0989 16.4383
41.1465 16.2799
41.1942 16.2533
41.242 16.205
41.2896 16.1546
41.3373 16.1624
41.3849 16.0726
41.4327 16.0475
41.4803 15.8971
41.5281 15.9216
41.5758 15.879
41.6236 15.8206
41.6712 15.7369
41.7191 15.6313
41.7667 15.6746
41.8146 15.6321
41.8622 15.5532
41.9101 15.4914
41.9578 15.3522
42.0057 15.3355
42.0534 15.3531
42.1013 15.2275
42.149 15.2015
42.1969 15.1533
42.2446 15.1576
42.2925 15.0734
42.3403 15.0159
42.3882 14.9773
42.436 14.9683
42.4839 14.8473
42.5319 14.7714
42.5797 14.7943
42.6277 14.7336
42.6755 14.6431
42.7235 14.5991
42.7713 14.5531
42.8193 14.5566
42.8671 14.4753
42.9152 14.4419
42.963 14.3805
43.0111 14.3314
43.0589 14.2782
43.107 14.2188
43.1549 14.151
43.2029 14.1543
43.2508 14.1228
43.2989 14.0686
43.3468 14.0142
43.3949 13.9723
43.4429 13.9058
43.491 13.8312
43.5389 13.829
43.5871 13.7863
43.635 13.7301
43.6832 13.66
43.7312 13.6149
43.7793 13.5908
43.8273 13.4938
43.8755 13.4773
43.9237 13.397
43.9717 13.3851
44.0199 13.3836
44.068 13.3084
44.1162 13.2653
44.1642 13.227
44.2125 13.1587
44.2606 13.0679
44.3088 13.0703
44.3569 12.9992
44.4052 12.9721
44.4533 12.8706
44.5016 12.8558
44.5497 12.8104
44.598 12.794
44.6461 12.7259
44.6945 12.6888
44.7426 12.6289
44.791 12.5711
44.8391 12.5878
44.8875 12.5347
44.9357 12.4522
44.984 12.413
45.0322 12.3823
45.0806 12.3324
45.1288 12.2385
45.1773 12.2909
45.2257 12.1986
45.2739 12.2244
45.3224 12.1224
45.3706 12.0735
45.4191 12.0246
45.4673 11.9583
45.5158 11.9643
45.5641 11.9005
45.6126 11.852
45.6609 11.8204
45.7094 11.7588
45.7577 11.6941
45.8063 11.6697
45.8546 11.6554
45.9031 11.6084
45.9515 11.5803
46.0001 11.5152
46.0484 11.5077
46.097 11.4695
46.1454 11.4224
46.194 11.3906
46.2424 11.3493
46.291 11.2368
46.3395 11.2311
46.3881 11.1881
46.4365 11.1861
46.4852 11.1463
46.5337 11.079
46.5823 11.0914
46.631 10.9826
46.6795 11.0111
46.7282 10.9285
46.7767 10.9142
46.8254 10.8235
46.8739 10.801
46.9226 10.7262
46.9712 10.7145
47.0199 10.6853
47.0685 10.6415
47.1173 10.6169
47.1658 10.561
47.2146 10.5106
47.2632 10.4372
47.312 10.4394
47.3606 10.3946
47.4095 10.3554
47.4581 10.3365
47.5069 10.2953
47.5556 10.2435
47.6044 10.1983
47.6531 10.1937
47.702 10.1365
47.7507 10.0873
47.7996 10.0524
47.8483 10.0627
47.8972 10.0079
47.9461 9.97847
47.9948 9.89946
48.0438 9.88316
48.0925 9.86835
48.1415 9.82774
48.1902 9.75929
48.2392 9.7616
48.288 9.74881
48.337 9.67159
48.3858 9.62332
48.4348 9.58458
48.4837 9.58618
48.5327 9.54563
48.5815 9.50861
48.6306 9.47929
48.6795 9.43476
48.7285 9.38863
48.7774 9.33833
48.8265 9.32806
48.8754 9.28406
48.9245 9.23795
48.9734 9.21714
49.0226 9.20318
49.0715 9.19549
49.1206 9.11683
49.1696 9.09057
49.2188 9.04053
49.2679 9.03211
49.3169 8.96508
49.3661 8.93507
49.4151 8.91627
49.4643 8.89919
49.5134 8.84872
49.5626 8.79516
49.6117 8.75424
49.6609 8.73858
49.71 8.69769
49.7592 8.68347
49.8083 8.627
49.8576 8.62036
49.9067 8.56171
49.956 8.55363
50.0052 8.52181
50.0545 8.48652
50.1036 8.42276
50.153 8.4278
50.2022 8.40701
50.2515 8.34313
50.3007 8.2985
50.3501 8.30048
50.3993 8.23169
50.4487 8.19675
50.498 8.20114
50.5474 8.1472
50.5966 8.11267
50.6461 8.07912
50.6955 8.05724
50.7448 8.0483
50.7943 8.014
50.8436 7.9797
50.8931 7.93274
50.9424 7.89837
50.9919 7.90128
51.0413 7.86583
51.0908 7.81385
51.1402 7.77857
51.1897 7.75705
51.2391 7.70618
51.2887 7.67771
51.3381 7.66687
51.3877 7.6228
51.4371 7.53194
51.4867 7.52763
51.5362 7.53619
51.5858 7.50233
51.6353 7.45423
51.6849 7.44135
51.7344 7.41433
51.7841 7.37875
51.8336 7.35815
51.8833 7.29385
51.9328 7.27714
51.9826 7.22778
52.0323 7.22279
52.0818 7.18322
52.1316 7.18713
52.1812 7.15191
52.231 7.10121
52.2806 7.05607
52.3304 7.05261
52.38 7.03195
52.4298 6.97933
52.4794 6.95754
52.5293 6.90745
52.5789 6.91733
52.6288 6.87922
52.6785 6.8496
52.7284 6.80397
52.7781 6.8032
52.828 6.7517
52.8777 6.71935
52.9276 6.73585
52.9774 6.68953
53.0273 6.63669
53.0771 6.62427
53.1271 6.59329
53.1769 6.60309
53.2269 6.51329
53.2767 6.50191
53.3267 6.51349
53.3765 6.40872
53.4266 6.44215
53.4766 6.38539
53.5265 6.35168
53.5765 6.33991
53.6264 6.3237
53.6765 6.28393
53.7264 6.29875
53.7765 6.25854
53.8265 6.19377
53.8766 6.14972
53.9266 6.13075
53.9767 6.12977
54.0267 6.0993
54.0769 6.07586
54.1269 6.02892
54.1771 5.97718
54.2271 5.96711
54.2773 5.90508
54.3274 5.92113
54.3776 5.89628
54.4277 5.865
54.478 5.81406
54.528 5.81349
54.5783 5.77387
54.6285 5.71601
54.6788 5.64288
54.7289 5.65887
54.7792 5.57688
54.8296 5.55057
54.8798 5.44494
54.9301 5.45879
54.9803 5.46028
55.0307 5.44647
55.0809 5.3383
55.1314 5.33053
55.1816 5.26702
55.232 5.22848
55.2823 5.22186
55.3328 5.13167
55.383 5.05188
55.4335 5.09383
55.4838 5.03394
55.5344 4.94284
55.5847 4.91984
55.6352 4.84823
55.6856 4.79297
55.7361 4.79356