File: XRD/Ni3Fe_FD0869.xy
TT I
1.27165 7.58726
1.31627 6.65187
1.36089 6.69561
1.40551 5.37774
1.45013 6.25044
1.49476 5.94235
1.53938 5.70376
1.584 5.066
1.62863 5.17935
1.67325 4.98547
1.71787 5.10935
1.7625 4.85976
1.80712 4.82535
1.85174 4.46762
1.89636 4.84757
1.94099 5.043
1.98562 4.60194
2.03025 4.63719
2.07487 4.97998
2.11949 5.0898
2.16411 5.06424
2.20874 15.5454
2.25338 25.4618
2.298 6.88155
2.34263 5.84849
2.38725 6.39101
2.43188 6.45214
2.4765 7.42284
2.52115 6.77983
2.56577 8.01104
2.6104 8.46936
2.65503 8.05953
2.69965 8.49477
2.7443 8.62527
2.78893 8.64291
2.83356 8.70995
2.87818 8.68555
2.92281 9.44988
2.96744 9.8527
3.01209 10.7998
3.05672 11.5325
3.10135 12.1366
3.14599 12.9047
3.19062 14.1796
3.23527 15.1472
3.2799 15.5202
3.32454 16.8063
3.36917 17.9518
3.4138 19.2811
3.45844 19.831
3.50309 20.8364
3.54773 21.946
3.59237 23.5334
3.637 101.115
3.68164 63.1653
3.7263 26.2102
3.77094 26.0618
3.81558 27.016
3.86022 27.4177
3.90486 28.9883
3.9495 29.5014
3.99416 30.5467
4.0388 32.3343
4.08344 33.9004
4.12809 34.9147
4.17273 36.4731
4.21738 42.8184
4.26204 272.502
4.30669 240.174
4.35133 49.0003
4.39598 44.4786
4.44063 54.3261
4.4853 67.5027
4.52995 49.6386
4.5746 50.6537
4.61925 52.9102
4.6639 54.7358
4.70855 57.5321
4.75322 60.209
4.79788 62.9418
4.84253 66.1114
4.88719 70.359
4.93184 74.1049
4.97652 78.5852
5.02118 85.0476
5.06583 91.3058
5.11049 101.885
5.15515 170.916
5.19981 292.171
5.24449 2406.97
5.28916 12550.6
5.33382 2818.19
5.37848 176.964
5.42315 125.219
5.46783 111.349
5.5125 103.908
5.55716 100.394
5.60183 96.8339
5.6465 95.487
5.69117 92.6116
5.73586 90.3581
5.78053 90.0479
5.8252 88.6858
5.86988 89.8972
5.91455 91.0097
5.95924 96.6407
6.00392 172.34
6.0486 811.637
6.09328 4335.76
6.13795 3199.07
6.18263 223.698
6.22733 90.8071
6.27201 81.8145
6.3167 104.336
6.36138 80.7041
6.40606 68.6058
6.45075 66.7755
6.49545 64.9888
6.54014 63.4706
6.58483 62.2926
6.62952 62.0036
6.67421 97.1424
6.71892 153.13
6.76361 69.3956
6.8083 58.1696
6.853 56.9161
6.89769 56.2025
6.94239 56.0314
6.98711 55.1826
7.03181 55.4506
7.07651 55.0447
7.12121 54.7767
7.16591 55.0594
7.21063 55.3439
7.25533 72.1201
7.30004 191.247
7.34475 94.8785
7.38945 56.5614
7.43416 54.1557
7.47889 54.4728
7.5236 54.3303
7.56831 54.7899
7.61303 56.6105
7.65774 57.1091
7.70247 55.7144
7.74719 55.7025
7.79191 56.1801
7.83663 56.531
7.88135 57.3344
7.92607 58.2863
7.97081 59.1906
8.01553 60.3021
8.06026 61.5498
8.10498 62.9649
8.14971 73.3523
8.19446 71.8441
8.23919 68.6733
8.28392 70.7663
8.32865 72.8434
8.37339 76.3459
8.41812 83.9709
8.46288 113.614
8.50761 145.299
8.55235 333.842
8.59709 1126.75
8.64183 2290.52
8.68658 958.955
8.73134 163.743
8.77609 97.6165
8.82083 91.146
8.86558 88.2385
8.91033 88.9448
8.9551 91.0771
8.99985 84.2391
9.04461 82.4618
9.08936 81.9829
9.13412 80.9562
9.17888 81.146
9.22365 81.9035
9.26841 80.5464
9.31318 81.2898
9.35794 81.7577
9.4027 82.1851
9.44749 82.8084
9.49226 83.2225
9.53703 84.239
9.5818 86.0726
9.62657 91.1778
9.67134 97.9162
9.71614 92.6684
9.76091 92.281
9.80569 94.6897
9.85047 98.3911
9.89525 124.233
9.94005 135.627
9.98484 156.527
10.0296 301.154
10.0744 751.11
10.1192 1750.54
10.164 1583.49
10.2088 396.63
10.2536 123.849
10.2984 111.967
10.3432 114.41
10.388 102.649
10.4328 111.217
10.4776 147.389
10.5224 266.12
10.5672 519.694
10.612 502.816
10.6568 201.166
10.7017 95.5362
10.7465 85.2981
10.7913 82.363
10.8361 80.0984
10.8809 77.81
10.9257 77.9557
10.9706 78.5298
11.0154 73.9566
11.0602 71.8053
11.105 71.1317
11.1499 76.2116
11.1947 84.1834
11.2395 74.2944
11.2844 69.9242
11.3292 66.2492
11.374 65.3794
11.4189 64.8004
11.4637 64.2944
11.5086 64.9401
11.5534 68.0649
11.5983 64.977
11.6431 62.8479
11.688 61.9799
11.7328 62.0931
11.7777 61.9319
11.8225 61.6931
11.8674 61.4828
11.9122 62.0688
11.9571 62.0166
12.002 62.3046
12.0468 65.3297
12.0917 75.3798
12.1366 97.8852
12.1814 149.858
12.2263 207.637
12.2712 168.289
12.3161 96.7936
12.3609 70.1958
12.4058 63.8147
12.4507 63.0962
12.4956 63.5453
12.5405 63.5208
12.5853 64.7191
12.6302 73.4529
12.6751 79.1988
12.72 69.5272
12.7649 66.869
12.8098 67.1599
12.8547 68.4922
12.8996 69.9014
12.9445 71.1296
12.9894 73.1388
13.0343 74.4931
13.0792 77.3458
13.1242 84.3115
13.1691 104.494
13.214 138.499
13.2589 228.649
13.3038 369.975
13.3487 425.584
13.3937 260.516
13.4386 122.217
13.4835 100.881
13.5285 113.121
13.5734 149.708
13.6183 243.112
13.6633 352.5
13.7082 340.051
13.7531 182.728
13.7981 95.6173
13.843 80.5458
13.888 78.2818
13.9329 75.8332
13.9779 74.5605
14.0228 73.0312
14.0678 71.965
14.1127 71.3884
14.1577 71.3397
14.2027 70.2662
14.2476 69.2266
14.2926 69.6892
14.3376 70.9292
14.3825 69.3766
14.4275 67.7855
14.4725 67.4927
14.5175 67.7171
14.5624 68.1159
14.6074 70.4121
14.6524 70.7801
14.6974 69.5807
14.7424 70.0549
14.7874 75.7804
14.8324 84.4955
14.8774 104.927
14.9224 149.918
14.9674 209.735
15.0124 216.904
15.0574 145.46
15.1024 89.0317
15.1474 71.2738
15.1924 69.5104
15.2374 70.248
15.2824 69.704
15.3274 67.3185
15.3725 66.221
15.4175 65.486
15.4625 65.0552
15.5076 65.4924
15.5526 65.2933
15.5976 64.7448
15.6426 65.1464
15.6877 69.4993
15.7327 76.1192
15.7778 90.2326
15.8228 122.284
15.8679 170.113
15.9129 195.03
15.958 154.214
16.003 93.464
16.0481 67.1205
16.0931 63.8759
16.1382 62.1017
16.1833 59.867
16.2283 58.2583
16.2734 57.5986
16.3185 58.0713
16.3636 58.8746
16.4086 57.2516
16.4537 55.4249
16.4988 54.8543
16.5439 54.698
16.589 54.4056
16.6341 54.2151
16.6792 53.883
16.7243 54.1666
16.7694 54.2599
16.8145 54.2187
16.8596 54.6925
16.9047 56.365
16.9498 56.4446
16.9949 55.07
17.04 54.8782
17.0851 55.7027
17.1302 57.1993
17.1754 60.1566
17.2205 64.956
17.2656 73.462
17.3108 82.4221
17.3559 81.3858
17.401 69.6817
17.4462 60.9911
17.4913 58.0753
17.5365 57.9958
17.5815 58.3348
17.6268 58.5643
17.6718 59.3929
17.7171 60.0316
17.7622 60.4644
17.8074 60.8481
17.8525 62.6375
17.8977 65.8866
17.9428 71.1153
17.9881 79.385
18.0331 97.3773
18.0784 121.255
18.1237 138.549
18.1688 127.871
18.214 100.724
18.2591 84.0767
18.3044 89.069
18.3495 99.809
18.3948 105.484
18.4399 94.6327
18.4852 76.4781
18.5303 65.123
18.5756 61.2249
18.6207 60.3632
18.666 59.4644
18.7112 58.7746
18.7565 58.1594
18.8016 57.6413
18.8469 57.1744
18.892 56.9803
18.9374 56.3318
18.9825 56.2757
19.0278 56.0368
19.073 56.0383
19.1183 56.4192
19.1635 57.0951
19.2088 58.213
19.254 60.7782
19.2993 65.3162
19.3447 71.9791
19.3898 76.125
19.4352 71.1702
19.4804 62.284
19.5257 56.0078
19.5709 53.4612
19.6163 53.248
19.6615 53.0906
19.7068 52.6006
19.752 52.5255
19.7974 52.6236
19.8426 53.3863
19.888 53.9442
19.9332 55.2435
19.9786 57.576
20.0238 61.3509
20.0692 66.4284
20.1144 69.0899
20.1598 67.0969
20.205 62.4012
20.2504 61.3688
20.2957 63.5596
20.3411 65.4304
20.3863 63.5543
20.4318 57.7609
20.477 53.069
20.5224 50.9616
20.5677 50.2641
20.6131 49.5474
20.6586 48.9393
20.7038 48.8414
20.7493 48.3544
20.7945 48.3083
20.84 48.1749
20.8853 48.0722
20.9307 47.8576
20.976 47.7679
21.0215 47.9689
21.0668 48.3112
21.1122 48.7521
21.1575 49.4824
21.203 50.2138
21.2483 50.8971
21.2938 50.7889
21.3391 49.3623
21.3846 48.3307
21.4299 47.825
21.4754 47.7242
21.5207 47.8194
21.5662 47.9795
21.6116 48.2844
21.6571 48.9573
21.7024 49.9627
21.7479 51.5582
21.7933 54.3047
21.8388 58.1811
21.8843 62.2298
21.9297 63.6669
21.9752 62.1137
22.0206 58.5458
22.0661 55.872
22.1115 55.3998
22.157 55.2119
22.2024 53.3532
22.248 50.6494
22.2933 49.1868
22.3389 48.4664
22.3843 48.4791
22.4299 48.407
22.4753 48.1907
22.5208 47.9497
22.5662 47.7498
22.6118 47.8836
22.6572 48.0199
22.7028 48.4343
22.7483 48.7954
22.7939 49.5766
22.8393 50.8158
22.8849 53.2227
22.9303 55.4706
22.9759 57.3406
23.0214 56.6938
23.067 53.4926
23.1126 50.462
23.1581 48.5227
23.2037 48.1992
23.2492 48.1478
23.2948 48.0855
23.3403 48.2567
23.3859 48.7803
23.4314 49.8169
23.477 51.8226
23.5225 54.1355
23.5682 56.4357
23.6137 57.1313
23.6593 54.9793
23.7048 50.9025
23.7505 47.6809
23.796 46.0073
23.8417 45.4323
23.8872 44.9812
23.9329 44.7023
23.9784 44.2759
24.0241 44.1177
24.0697 43.9269
24.1154 43.6581
24.1609 43.509
24.2066 43.2625
24.2522 43.0424
24.2979 42.8945
24.3434 42.8069
24.3892 42.5518
24.4349 42.5054
24.4805 42.2901
24.5262 42.6107
24.5718 42.3945
24.6175 42.4495
24.6631 42.4371
24.7089 41.9767
24.7545 41.9245
24.8002 41.6483
24.8458 41.6708
24.8916 41.532
24.9372 41.6533
24.983 41.9695
25.0286 42.1386
25.0744 42.7395
25.12 43.2264
25.1658 43.8925
25.2114 43.967
25.2572 44.1606
25.3029 44.4426
25.3487 44.4228
25.3943 43.9891
25.4402 42.8491
25.4858 41.9156
25.5316 40.8789
25.5773 40.3544
25.6231 40.4086
25.669 39.9662
25.7147 40.0705
25.7605 39.9583
25.8062 39.8539
25.8521 40.0029
25.8977 39.9248
25.9436 40.1882
25.9893 40.5711
26.0352 40.8597
26.0809 41.0097
26.1268 41.3177
26.1725 40.7418
26.2184 40.1457
26.2641 39.7045
26.31 39.4376
26.3557 39.6216
26.4017 39.6171
26.4474 39.8929
26.4933 40.0958
26.5391 40.6587
26.585 41.1868
26.6308 41.5208
26.6767 41.5303
26.7225 41.3759
26.7684 40.8347
26.8142 40.2381
26.8601 39.9503
26.9059 39.5666
26.9519 39.0514
26.9979 38.6384
27.0437 38.3635
27.0896 38.2076
27.1354 38.2636
27.1814 37.8723
27.2272 37.9663
27.2732 38.1274
27.3191 37.7648
27.3651 37.9525
27.4109 37.9254
27.4569 37.9505
27.5027 37.9955
27.5488 38.1293
27.5946 37.9283
27.6407 37.4856
27.6865 37.5268
27.7326 37.2605
27.7784 37.2784
27.8245 37.1926
27.8703 37.4329
27.9164 37.7441
27.9623 37.9011
28.0084 38.2484
28.0543 38.7142
28.1003 38.5242
28.1462 38.3151
28.1923 38.0089
28.2384 37.4313
28.2843 37.1172
28.3304 36.6915
28.3764 36.2265
28.4225 35.9344
28.4684 35.8501
28.5145 35.47
28.5605 35.3248
28.6066 35.1294
28.6526 35.209
28.6987 35.0842
28.7447 34.9861
28.7908 34.9948
28.8368 35.0674
28.8829 34.9256
28.9289 34.9398
28.9751 34.792
29.0211 34.4629
29.0673 34.1473
29.1133 34.0323
29.1595 33.8749
29.2055 33.835
29.2517 33.8382
29.2977 33.8701
29.3439 33.762
29.3899 33.8835
29.4361 33.803
29.4824 33.5298
29.5284 33.3857
29.5746 33.0369
29.6207 32.7328
29.6669 32.4905
29.713 32.5971
29.7593 32.4655
29.8053 32.4454
29.8516 32.3761
29.8977 32.3945
29.9439 32.2707
29.99 32.0914
30.0363 32.1816
30.0824 32.0853
30.1287 31.9672
30.1748 31.9413
30.2211 31.9911
30.2673 31.8623
30.3136 31.9881
30.3597 31.7702
30.406 31.8051
30.4522 31.5977
30.4985 31.6179
30.5447 31.6525
30.591 31.758
30.6372 31.7818
30.6835 31.8031
30.7297 31.7557
30.7761 31.8
30.8224 31.6079
30.8686 31.4705
30.915 31.1333
30.9612 31.1509
31.0076 30.956
31.0538 30.677
31.1002 30.7116
31.1464 30.516
31.1928 30.5343
31.2391 30.537
31.2855 30.4554
31.3317 30.4169
31.3781 30.5057
31.4244 30.5114
31.4708 30.4714
31.5171 30.373
31.5636 30.3055
31.6098 30.0914
31.6563 29.9679
31.7026 29.9448
31.7491 29.7047
31.7953 29.705
31.8418 29.7097
31.8881 29.7772
31.9346 29.7287
31.9809 29.6997
32.0275 29.542
32.074 29.3947
32.1203 29.2414
32.1668 29.1419
32.2132 28.9966
32.2597 28.8778
32.306 28.7613
32.3526 28.5224
32.399 28.5251
32.4455 28.4019
32.4919 28.3462
32.5385 28.3102
32.5848 28.048
32.6314 28.0115
32.6778 28.0103
32.7244 27.9666
32.7708 27.7059
32.8174 27.7446
32.8638 27.6892
32.9104 27.7603
32.9569 27.5984
33.0035 27.488
33.0499 27.4803
33.0966 27.282
33.143 27.5158
33.1897 27.4005
33.2361 27.3204
33.2828 27.2516
33.3293 27.0293
33.3759 27.0127
33.4226 26.8737
33.4691 26.7155
33.5158 26.712
33.5623 26.5113
33.609 26.4326
33.6555 26.3564
33.7022 26.2096
33.7487 26.1599
33.7954 26.0046
33.842 26.1083
33.8887 25.9662
33.9353 25.927
33.982 25.7919
34.0286 25.794
34.0753 25.6492
34.1219 25.6353
34.1687 25.502
34.2152 25.4315
34.262 25.3664
34.3086 25.1796
34.3554 25.145
34.402 24.9938
34.4488 24.908
34.4954 24.8766
34.5422 24.82
34.5889 24.7172
34.6357 24.5765
34.6825 24.6045
34.7292 24.5607
34.776 24.4151
34.8227 24.4428
34.8695 24.3096
34.9162 24.2148
34.9631 24.1803
35.0098 24.093
35.0566 24.0197
35.1033 23.987
35.1502 23.8941
35.1969 23.8965
35.2438 23.8485
35.2906 23.8041
35.3375 23.7695
35.3842 23.6868
35.4311 23.6576
35.4779 23.6801
35.5248 23.5795
35.5716 23.4287
35.6185 23.4619
35.6653 23.2327
35.7123 23.2895
35.759 23.2104
35.806 23.0052
35.8528 22.9758
35.8998 22.9196
35.9468 22.8476
35.9936 22.751
36.0406 22.6794
36.0874 22.7073
36.1345 22.5857
36.1813 22.4994
36.2283 22.4774
36.2752 22.3607
36.3222 22.3585
36.3691 22.2784
36.4161 22.168
36.463 22.1129
36.5101 22.1586
36.557 22.16
36.6041 21.8546
36.651 21.9665
36.6981 21.8721
36.745 21.7662
36.7921 21.6289
36.839 21.5411
36.8861 21.5185
36.9331 21.5251
36.9802 21.3566
37.0272 21.2767
37.0743 21.2521
37.1213 21.2377
37.1684 21.1496
37.2154 21.0689
37.2626 21.0021
37.3098 20.9279
37.3568 20.8356
37.404 20.8729
37.451 20.6755
37.4982 20.6335
37.5452 20.5963
37.5924 20.5589
37.6395 20.5765
37.6867 20.4194
37.7337 20.3777
37.781 20.2378
37.8281 20.2802
37.8753 20.0734
37.9224 20.0666
37.9697 20.0521
38.0168 19.9401
38.064 19.9033
38.1111 19.8393
38.1584 19.7292
38.2056 19.7221
38.2529 19.6849
38.3 19.5928
38.3473 19.5696
38.3945 19.4065
38.4418 19.3867
38.489 19.3459
38.5363 19.2965
38.5837 19.1539
38.6309 19.178
38.6782 19.0968
38.7254 19.0542
38.7728 18.985
38.82 18.9195
38.8674 18.8843
38.9146 18.7848
38.9621 18.8012
39.0093 18.7043
39.0567 18.6806
39.104 18.5303
39.1514 18.5209
39.1987 18.4208
39.2461 18.4083
39.2934 18.3799
39.3409 18.2624
39.3882 18.238
39.4356 18.138
39.483 18.1257
39.5304 17.9986
39.5778 17.9848
39.6253 17.9502
39.6726 17.8358
39.7201 17.8383
39.7675 17.7637
39.815 17.7561
39.8624 17.6862
39.9099 17.6154
39.9575 17.5553
40.0049 17.4773
40.0525 17.4145
40.0999 17.3593
40.1474 17.3293
40.1949 17.2652
40.2425 17.2486
40.2899 17.1746
40.3375 17.0958
40.385 17.0092
40.4326 16.9972
40.48 16.9508
40.5277 16.8583
40.5752 16.77
40.6228 16.7592
40.6703 16.7272
40.718 16.678
40.7655 16.5667
40.8132 16.5821
40.8607 16.5427
40.9084 16.4586
40.9559 16.454
41.0036 16.3884
41.0512 16.3606
41.0989 16.2702
41.1465 16.1617
41.1942 16.1365
41.242 16.03
41.2896 16.0177
41.3373 15.9719
41.3849 15.8917
41.4327 15.841
41.4803 15.799
41.5281 15.7598
41.5758 15.6681
41.6236 15.6135
41.6712 15.5565
41.7191 15.4844
41.7667 15.5266
41.8146 15.4495
41.8622 15.3671
41.9101 15.3403
41.9578 15.2495
42.0057 15.2853
42.0534 15.2346
42.1013 15.1268
42.149 15.0967
42.1969 14.9919
42.2446 14.9921
42.2925 14.9669
42.3403 14.9094
42.3882 14.8684
42.436 14.8019
42.4839 14.7361
42.5319 14.6954
42.5797 14.6352
42.6277 14.6333
42.6755 14.5818
42.7235 14.4931
42.7713 14.4706
42.8193 14.3792
42.8671 14.3778
42.9152 14.2833
42.963 14.2841
43.0111 14.2243
43.0589 14.1606
43.107 14.1162
43.1549 14.0834
43.2029 13.9944
43.2508 13.9997
43.2989 13.936
43.3468 13.799
43.3949 13.8012
43.4429 13.7934
43.491 13.7029
43.5389 13.7158
43.5871 13.6456
43.635 13.5479
43.6832 13.5506
43.7312 13.4622
43.7793 13.4277
43.8273 13.4311
43.8755 13.3049
43.9237 13.2993
43.9717 13.2864
44.0199 13.1825
44.068 13.141
44.1162 13.1347
44.1642 13.0848
44.2125 13.0497
44.2606 12.9838
44.3088 12.8881
44.3569 12.8957
44.4052 12.851
44.4533 12.8269
44.5016 12.7539
44.5497 12.6951
44.598 12.7118
44.6461 12.5731
44.6945 12.6192
44.7426 12.5861
44.791 12.5117
44.8391 12.4362
44.8875 12.4468
44.9357 12.3462
44.984 12.2561
45.0322 12.2919
45.0806 12.2314
45.1288 12.1582
45.1773 12.1285
45.2257 12.0805
45.2739 12.0645
45.3224 11.9997
45.3706 11.9732
45.4191 11.9067
45.4673 11.9333
45.5158 11.8468
45.5641 11.8621
45.6126 11.7811
45.6609 11.6802
45.7094 11.6621
45.7577 11.6338
45.8063 11.5767
45.8546 11.5679
45.9031 11.5142
45.9515 11.5286
46.0001 11.4517
46.0484 11.4446
46.097 11.3497
46.1454 11.2839
46.194 11.2724
46.2424 11.2216
46.291 11.2012
46.3395 11.1409
46.3881 11.0698
46.4365 11.0924
46.4852 11.025
46.5337 10.9554
46.5823 10.9803
46.631 10.8942
46.6795 10.8887
46.7282 10.8089
46.7767 10.8199
46.8254 10.7312
46.8739 10.6961
46.9226 10.6789
46.9712 10.6369
47.0199 10.5535
47.0685 10.5502
47.1173 10.5358
47.1658 10.4696
47.2146 10.4467
47.2632 10.3595
47.312 10.3848
47.3606 10.324
47.4095 10.2858
47.4581 10.283
47.5069 10.1755
47.5556 10.2078
47.6044 10.1154
47.6531 10.1213
47.702 10.029
47.7507 10.0341
47.7996 9.96066
47.8483 9.93408
47.8972 9.9446
47.9461 9.89847
47.9948 9.83275
48.0438 9.80044
48.0925 9.76521
48.1415 9.76997
48.1902 9.70537
48.2392 9.64566
48.288 9.63555
48.337 9.5667
48.3858 9.51967
48.4348 9.52803
48.4837 9.48314
48.5327 9.47911
48.5815 9.3874
48.6306 9.38523
48.6795 9.31703
48.7285 9.31182
48.7774 9.31644
48.8265 9.2579
48.8754 9.17881
48.9245 9.21043
48.9734 9.13568
49.0226 9.12962
49.0715 9.08724
49.1206 9.04616
49.1696 9.02701
49.2188 8.96891
49.2679 8.92694
49.3169 8.87919
49.3661 8.86361
49.4151 8.84138
49.4643 8.79156
49.5134 8.75623
49.5626 8.68926
49.6117 8.68014
49.6609 8.68983
49.71 8.59439
49.7592 8.59137
49.8083 8.5483
49.8576 8.55415
49.9067 8.46991
49.956 8.4678
50.0052 8.4228
50.0545 8.3831
50.1036 8.40152
50.153 8.3081
50.2022 8.32551
50.2515 8.24109
50.3007 8.2183
50.3501 8.20997
50.3993 8.17828
50.4487 8.12478
50.498 8.12018
50.5474 8.08667
50.5966 8.06158
50.6461 8.01151
50.6955 7.98554
50.7448 7.91777
50.7943 7.92491
50.8436 7.9268
50.8931 7.84797
50.9424 7.8463
50.9919 7.7684
51.0413 7.80305
51.0908 7.75963
51.1402 7.7399
51.1897 7.65552
51.2391 7.64411
51.2887 7.65041
51.3381 7.57897
51.3877 7.58808
51.4371 7.54707
51.4867 7.46721
51.5362 7.47006
51.5858 7.4599
51.6353 7.40686
51.6849 7.37637
51.7344 7.32155
51.7841 7.30943
51.8336 7.27398
51.8833 7.27297
51.9328 7.19743
51.9826 7.19675
52.0323 7.15978
52.0818 7.10403
52.1316 7.07896
52.1812 7.06419
52.231 7.05562
52.2806 7.01594
52.3304 7.00678
52.38 6.98973
52.4298 6.91036
52.4794 6.88259
52.5293 6.88906
52.5789 6.82708
52.6288 6.82624
52.6785 6.75068
52.7284 6.76104
52.7781 6.74656
52.828 6.69606
52.8777 6.68169
52.9276 6.67185
52.9774 6.62534
53.0273 6.59107
53.0771 6.59899
53.1271 6.56245
53.1769 6.51322
53.2269 6.50772
53.2767 6.41554
53.3267 6.37774
53.3765 6.41049
53.4266 6.3679
53.4766 6.32091
53.5265 6.30731
53.5765 6.26501
53.6264 6.20673
53.6765 6.21947
53.7264 6.19511
53.7765 6.16533
53.8265 6.13344
53.8766 6.1282
53.9266 6.11157
53.9767 6.0632
54.0267 6.05
54.0769 5.97792
54.1269 6.00393
54.1771 5.91488
54.2271 5.93563
54.2773 5.87458
54.3274 5.88731
54.3776 5.81123
54.4277 5.76756
54.478 5.80457
54.528 5.73289
54.5783 5.68527
54.6285 5.66701
54.6788 5.61344
54.7289 5.55087
54.7792 5.56948
54.8296 5.47485
54.8798 5.41289
54.9301 5.41368
54.9803 5.38715
55.0307 5.32331
55.0809 5.32494
55.1314 5.28273
55.1816 5.23166
55.232 5.15304
55.2823 5.14236
55.3328 5.06287
55.383 5.04388
55.4335 4.95554
55.4838 4.91028
55.5344 4.88969
55.5847 4.85589
55.6352 4.84623
55.6856 4.77887
55.7361 4.78226