File: XRD/Ni3Fe_FD0305.xy
TT I
1.27165 7.55158
1.31627 6.89812
1.36089 7.15528
1.40551 6.41161
1.45013 6.53246
1.49476 6.0537
1.53938 6.32453
1.584 5.78958
1.62863 6.37963
1.67325 5.24696
1.71787 5.12723
1.7625 5.16306
1.80712 4.89661
1.85174 5.19142
1.89636 4.8364
1.94099 5.45906
1.98562 4.81859
2.03025 4.94578
2.07487 4.43616
2.11949 5.87196
2.16411 5.23346
2.20874 18.3809
2.25338 32.9215
2.298 6.12955
2.34263 5.2482
2.38725 5.21906
2.43188 5.30854
2.4765 5.08731
2.52115 5.9857
2.56577 6.32605
2.6104 6.86601
2.65503 6.73267
2.69965 7.09774
2.7443 7.01895
2.78893 7.76626
2.83356 8.57427
2.87818 8.1474
2.92281 9.06761
2.96744 9.70721
3.01209 10.3835
3.05672 11.2507
3.10135 12.6936
3.14599 13.6049
3.19062 14.6332
3.23527 15.1884
3.2799 15.9595
3.32454 17.1415
3.36917 18.4554
3.4138 19.4236
3.45844 19.9913
3.50309 21.1785
3.54773 22.7298
3.59237 25.5382
3.637 130.474
3.68164 80.3754
3.7263 27.7038
3.77094 27.1512
3.81558 27.4734
3.86022 28.6454
3.90486 29.7552
3.9495 30.3947
3.99416 31.9024
4.0388 33.2642
4.08344 35.0281
4.12809 35.9496
4.17273 38.5136
4.21738 46.7945
4.26204 356.386
4.30669 323.573
4.35133 54.1568
4.39598 46.4912
4.44063 58.7284
4.4853 77.7067
4.52995 53.6817
4.5746 52.8638
4.61925 55.059
4.6639 56.7309
4.70855 59.4623
4.75322 63.1674
4.79788 65.8002
4.84253 68.9757
4.88719 73.9379
4.93184 77.0535
4.97652 82.855
5.02118 90.2852
5.06583 99.0423
5.11049 113.169
5.15515 216.639
5.19981 481.828
5.24449 2895.1
5.28916 11111.7
5.33382 4363.6
5.37848 258.396
5.42315 145.054
5.46783 122.67
5.5125 111.893
5.55716 106.447
5.60183 102.338
5.6465 101.504
5.69117 97.912
5.73586 95.9431
5.78053 95.9818
5.8252 95.4588
5.86988 96.7622
5.91455 100.014
5.95924 109.87
6.00392 247.927
6.0486 1013.52
6.09328 3677.75
6.13795 3945.47
6.18263 367.9
6.22733 106.525
6.27201 89.7315
6.3167 121.137
6.36138 89.6629
6.40606 72.4423
6.45075 70.0841
6.49545 67.9859
6.54014 66.4948
6.58483 65.6894
6.62952 65.8645
6.67421 110.056
6.71892 194.669
6.76361 76.951
6.8083 61.5544
6.853 60.0732
6.89769 58.8198
6.94239 59.0233
6.98711 57.8782
7.03181 57.9651
7.07651 57.6008
7.12121 57.834
7.16591 57.9511
7.21063 57.9465
7.25533 77.8877
7.30004 248.743
7.34475 117.111
7.38945 59.7658
7.43416 57.1199
7.47889 56.4438
7.5236 57.024
7.56831 57.6912
7.61303 60.1685
7.65774 60.6555
7.70247 58.4413
7.74719 58.0903
7.79191 58.6201
7.83663 58.879
7.88135 59.7246
7.92607 60.2261
7.97081 61.7113
8.01553 62.608
8.06026 64.0916
8.10498 66.0901
8.14971 79.7399
8.19446 78.1521
8.23919 71.9116
8.28392 73.8523
8.32865 76.2112
8.37339 80.6212
8.41812 89.2736
8.46288 131.198
8.50761 187.548
8.55235 421.764
8.59709 966.803
8.64183 2036.3
8.68658 1275.08
8.73134 226.708
8.77609 108.357
8.82083 97.7793
8.86558 93.256
8.91033 94.0406
8.9551 98.1077
8.99985 88.9477
9.04461 86.1123
9.08936 85.1165
9.13412 83.9222
9.17888 84.6444
9.22365 85.8173
9.26841 84.4501
9.31318 85.0699
9.35794 85.6131
9.4027 85.6266
9.44749 86.2376
9.49226 86.6474
9.53703 87.8319
9.5818 89.6262
9.62657 96.1994
9.67134 106.671
9.71614 97.2818
9.76091 96.7903
9.80569 99.0916
9.85047 103.544
9.89525 137.558
9.94005 157.217
9.98484 193.935
10.0296 367.35
10.0744 689.778
10.1192 1466.43
10.164 1818.79
10.2088 600.206
10.2536 154.619
10.2984 122.111
10.3432 126.136
10.388 110.555
10.4328 124.975
10.4776 168.778
10.5224 249.533
10.5672 439.624
10.612 546.305
10.6568 260.82
10.7017 106.456
10.7465 90.2393
10.7913 86.4359
10.8361 83.8708
10.8809 81.7186
10.9257 81.9508
10.9706 84.0636
11.0154 77.9756
11.0602 75.4237
11.105 74.5179
11.1499 81.1746
11.1947 93.783
11.2395 80.326
11.2844 74.5983
11.3292 69.9242
11.374 68.3102
11.4189 67.9915
11.4637 67.1373
11.5086 68.2284
11.5534 73.268
11.5983 69.0729
11.6431 65.9101
11.688 65.0969
11.7328 65.0857
11.7777 65.3333
11.8225 64.7511
11.8674 64.664
11.9122 64.8845
11.9571 65.2134
12.002 65.8555
12.0468 70.8298
12.0917 83.0637
12.1366 100.859
12.1814 134.739
12.2263 197.445
12.2712 194.773
12.3161 117.457
12.3609 77.7245
12.4058 67.8142
12.4507 66.7466
12.4956 66.9919
12.5405 67.206
12.5853 68.1977
12.6302 79.3937
12.6751 88.8335
12.72 74.6721
12.7649 70.2188
12.8098 70.6026
12.8547 71.7893
12.8996 73.1504
12.9445 74.4801
12.9894 76.2019
13.0343 77.7691
13.0792 81.2999
13.1242 92.02
13.1691 119.373
13.214 151.357
13.2589 207.632
13.3038 318.455
13.3487 448.73
13.3937 331.67
13.4386 151.037
13.4835 113.899
13.5285 127.614
13.5734 153.84
13.6183 209.812
13.6633 310.854
13.7082 371.247
13.7531 237.243
13.7981 113.301
13.843 85.7681
13.888 82.539
13.9329 79.8241
13.9779 78.5309
14.0228 76.648
14.0678 75.4279
14.1127 74.9909
14.1577 75.5539
14.2027 74.0283
14.2476 72.9598
14.2926 73.1531
14.3376 75.2487
14.3825 73.3759
14.4275 71.3384
14.4725 71.0154
14.5175 71.1677
14.5624 71.2429
14.6074 74.46
14.6524 75.3136
14.6974 73.0068
14.7424 74.3811
14.7874 82.093
14.8324 93.0163
14.8774 107.741
14.9224 135.475
14.9674 185.282
15.0124 226.979
15.0574 176.994
15.1024 104.486
15.1474 76.2235
15.1924 73.3835
15.2374 74.7899
15.2824 74.3222
15.3274 71.2897
15.3725 69.2689
15.4175 68.6521
15.4625 68.4578
15.5076 68.9129
15.5526 68.84
15.5976 68.1505
15.6426 69.4558
15.6877 75.0248
15.7327 83.4052
15.7778 94.1492
15.8228 114.209
15.8679 150.985
15.9129 194.493
15.958 182.95
16.003 117.958
16.0481 75.0965
16.0931 68.7987
16.1382 66.32
16.1833 63.4128
16.2283 61.2946
16.2734 60.542
16.3185 61.343
16.3636 62.8745
16.4086 60.9923
16.4537 58.4894
16.4988 57.6622
16.5439 57.5917
16.589 57.1318
16.6341 56.8318
16.6792 56.4527
16.7243 57.0933
16.7694 56.9591
16.8145 57.0543
16.8596 57.3794
16.9047 59.6956
16.9498 59.98
16.9949 58.0988
17.04 57.5505
17.0851 58.8599
17.1302 61.0569
17.1754 63.6243
17.2205 66.8202
17.2656 72.2145
17.3108 81.4075
17.3559 85.895
17.401 77.9023
17.4462 66.5188
17.4913 61.4912
17.5365 61.1531
17.5815 61.1578
17.6268 61.5816
17.6718 62.7231
17.7171 63.1244
17.7622 63.4341
17.8074 63.9203
17.8525 66.3532
17.8977 70.9331
17.9428 76.6179
17.9881 82.582
18.0331 93.417
18.0784 111.541
18.1237 137.377
18.1688 144.426
18.214 118.687
18.2591 92.3799
18.3044 88.3303
18.3495 96.001
18.3948 108.288
18.4399 106.448
18.4852 86.4663
18.5303 70.5186
18.5756 64.9108
18.6207 63.7246
18.666 62.8097
18.7112 61.9752
18.7565 61.0644
18.8016 60.7336
18.8469 60.2164
18.892 59.9361
18.9374 59.326
18.9825 59.1477
19.0278 58.9918
19.073 59.2459
19.1183 59.6561
19.1635 60.771
19.2088 61.8204
19.254 63.0173
19.2993 65.7142
19.3447 71.71
19.3898 78.5535
19.4352 78.0536
19.4804 69.2279
19.5257 60.5482
19.5709 56.5842
19.6163 55.94
19.6615 55.7068
19.7068 55.2263
19.752 55.305
19.7974 55.4984
19.8426 56.6515
19.888 57.3882
19.9332 58.1599
19.9786 59.611
20.0238 61.8573
20.0692 66.5939
20.1144 71.0869
20.1598 72.5464
20.205 67.2057
20.2504 63.7535
20.2957 63.6078
20.3411 66.8158
20.3863 67.593
20.4318 62.9925
20.477 56.9293
20.5224 54.2669
20.5677 53.2193
20.6131 52.3432
20.6586 51.5609
20.7038 51.4969
20.7493 51.0764
20.7945 50.7647
20.84 50.6457
20.8853 50.5083
20.9307 50.165
20.976 50.4914
21.0215 50.3123
21.0668 50.8666
21.1122 50.9595
21.1575 51.3077
21.203 52.0307
21.2483 52.9387
21.2938 53.612
21.3391 52.3216
21.3846 51.188
21.4299 50.2463
21.4754 49.9659
21.5207 50.2579
21.5662 50.3748
21.6116 50.8564
21.6571 51.7479
21.7024 52.5979
21.7479 53.7873
21.7933 55.8296
21.8388 58.5151
21.8843 62.4916
21.9297 66.3622
21.9752 67.3113
22.0206 63.4565
22.0661 58.7369
22.1115 57.5933
22.157 58.0383
22.2024 57.2611
22.248 54.4092
22.2933 52.1983
22.3389 50.9925
22.3843 50.9275
22.4299 50.8827
22.4753 50.8259
22.5208 50.1745
22.5662 50.1515
22.6118 50.3006
22.6572 50.4939
22.7028 51.0022
22.7483 51.4202
22.7939 52.0689
22.8393 52.886
22.8849 54.4509
22.9303 56.2775
22.9759 58.8227
23.0214 60.2697
23.067 58.1403
23.1126 54.181
23.1581 51.3875
23.2037 50.6885
23.2492 50.6047
23.2948 50.7233
23.3403 50.7593
23.3859 51.2745
23.4314 52.0309
23.477 53.1636
23.5225 54.7665
23.5682 57.2902
23.6137 59.5392
23.6593 59.2112
23.7048 55.2748
23.7505 50.9635
23.796 48.6792
23.8417 47.7861
23.8872 47.2408
23.9329 46.7296
23.9784 46.5489
24.0241 46.3664
24.0697 46.2498
24.1154 45.701
24.1609 45.6227
24.2066 45.4215
24.2522 45.4691
24.2979 44.9821
24.3434 44.9228
24.3892 44.8586
24.4349 44.6911
24.4805 44.3343
24.5262 44.6244
24.5718 44.3945
24.6175 44.3892
24.6631 44.3743
24.7089 44.1743
24.7545 43.9077
24.8002 43.9346
24.8458 43.646
24.8916 43.5414
24.9372 43.7029
24.983 43.9225
25.0286 44.1622
25.0744 44.4598
25.12 44.7958
25.1658 45.367
25.2114 45.9635
25.2572 46.1666
25.3029 46.127
25.3487 46.1996
25.3943 46.4515
25.4402 45.7836
25.4858 44.6017
25.5316 43.2999
25.5773 42.507
25.6231 42.4136
25.669 42.0299
25.7147 41.9864
25.7605 42.0161
25.8062 42.023
25.8521 42.1645
25.8977 41.9724
25.9436 42.1316
25.9893 42.0341
26.0352 42.6725
26.0809 42.8144
26.1268 43.1141
26.1725 43.1412
26.2184 42.6593
26.2641 41.9713
26.31 41.6961
26.3557 41.7735
26.4017 41.4922
26.4474 41.848
26.4933 42.0752
26.5391 42.3679
26.585 42.7498
26.6308 43.1207
26.6767 43.6272
26.7225 43.5256
26.7684 43.107
26.8142 42.4421
26.8601 41.9134
26.9059 41.6394
26.9519 41.1023
26.9979 40.6157
27.0437 40.3915
27.0896 40.1306
27.1354 40.0624
27.1814 39.9053
27.2272 39.9773
27.2732 39.9737
27.3191 39.6907
27.3651 39.7967
27.4109 39.7714
27.4569 39.6966
27.5027 39.7464
27.5488 39.9331
27.5946 39.7612
27.6407 39.5666
27.6865 39.5022
27.7326 39.1566
27.7784 39.2176
27.8245 39.0988
27.8703 39.2535
27.9164 39.4882
27.9623 39.4253
28.0084 39.7542
28.0543 40.2699
28.1003 40.332
28.1462 40.2862
28.1923 39.9404
28.2384 39.4665
28.2843 39.2358
28.3304 38.6734
28.3764 38.1478
28.4225 37.7779
28.4684 37.6095
28.5145 37.2541
28.5605 37.1717
28.6066 37.0318
28.6526 36.9024
28.6987 36.7515
28.7447 36.7934
28.7908 36.6473
28.8368 36.5993
28.8829 36.6059
28.9289 36.7084
28.9751 36.4548
29.0211 36.3271
29.0673 35.8677
29.1133 35.8909
29.1595 35.6544
29.2055 35.5825
29.2517 35.5018
29.2977 35.3903
29.3439 35.3068
29.3899 35.3684
29.4361 35.4357
29.4824 35.2359
29.5284 35.088
29.5746 34.6284
29.6207 34.3963
29.6669 34.3892
29.713 34.222
29.7593 34.0624
29.8053 34.0366
29.8516 33.9012
29.8977 33.9914
29.9439 33.72
29.99 33.6559
30.0363 33.6307
30.0824 33.6698
30.1287 33.5024
30.1748 33.5254
30.2211 33.5865
30.2673 33.4219
30.3136 33.4402
30.3597 33.5169
30.406 33.2928
30.4522 33.1603
30.4985 33.118
30.5447 33.1842
30.591 33.1953
30.6372 33.2752
30.6835 33.1838
30.7297 33.3052
30.7761 33.2465
30.8224 33.163
30.8686 32.9984
30.915 32.7941
30.9612 32.6448
31.0076 32.4193
31.0538 32.292
31.1002 32.2474
31.1464 32.0724
31.1928 32.0189
31.2391 32.0484
31.2855 31.9049
31.3317 31.923
31.3781 31.9793
31.4244 31.8938
31.4708 31.9121
31.5171 31.8896
31.5636 31.8949
31.6098 31.6493
31.6563 31.5146
31.7026 31.484
31.7491 31.2113
31.7953 31.1565
31.8418 31.1863
31.8881 31.2096
31.9346 31.1023
31.9809 31.2004
32.0275 30.9843
32.074 30.9327
32.1203 30.6986
32.1668 30.6183
32.2132 30.5212
32.2597 30.3664
32.306 30.2012
32.3526 30.0469
32.399 29.9864
32.4455 29.8205
32.4919 29.8423
32.5385 29.624
32.5848 29.4378
32.6314 29.5056
32.6778 29.4776
32.7244 29.3816
32.7708 29.1985
32.8174 29.1758
32.8638 29.0343
32.9104 29.0646
32.9569 28.9931
33.0035 28.8821
33.0499 28.8047
33.0966 28.7938
33.143 28.7122
33.1897 28.6665
33.2361 28.522
33.2828 28.4527
33.3293 28.4098
33.3759 28.4244
33.4226 28.2661
33.4691 28.1002
33.5158 28.1007
33.5623 27.9955
33.609 27.6764
33.6555 27.5747
33.7022 27.5515
33.7487 27.5549
33.7954 27.4206
33.842 27.3584
33.8887 27.2453
33.9353 27.1774
33.982 27.1449
34.0286 26.9793
34.0753 26.9979
34.1219 26.872
34.1687 26.7375
34.2152 26.6933
34.262 26.5427
34.3086 26.4317
34.3554 26.4279
34.402 26.2916
34.4488 26.1969
34.4954 26.0906
34.5422 25.994
34.5889 26.0204
34.6357 25.8929
34.6825 25.8245
34.7292 25.7178
34.776 25.675
34.8227 25.6147
34.8695 25.4744
34.9162 25.4812
34.9631 25.3694
35.0098 25.4661
35.0566 25.2485
35.1033 25.1564
35.1502 25.209
35.1969 25.0738
35.2438 25.0015
35.2906 25.0053
35.3375 24.9151
35.3842 24.8257
35.4311 24.8771
35.4779 24.7848
35.5248 24.7536
35.5716 24.6649
35.6185 24.5067
35.6653 24.4265
35.7123 24.3878
35.759 24.2717
35.806 24.2694
35.8528 24.1063
35.8998 23.989
35.9468 23.9499
35.9936 23.9443
36.0406 23.7636
36.0874 23.7899
36.1345 23.7633
36.1813 23.6391
36.2283 23.6097
36.2752 23.4345
36.3222 23.4989
36.3691 23.3375
36.4161 23.2071
36.463 23.171
36.5101 23.2423
36.557 23.1493
36.6041 22.9537
36.651 22.9994
36.6981 22.8778
36.745 22.8217
36.7921 22.7914
36.839 22.6759
36.8861 22.5536
36.9331 22.5853
36.9802 22.4877
37.0272 22.3625
37.0743 22.2596
37.1213 22.1718
37.1684 22.1337
37.2154 22.1155
37.2626 21.9951
37.3098 21.9524
37.3568 21.8549
37.404 21.8909
37.451 21.6878
37.4982 21.6984
37.5452 21.5897
37.5924 21.5355
37.6395 21.6203
37.6867 21.5491
37.7337 21.3745
37.781 21.3035
37.8281 21.2392
37.8753 21.1307
37.9224 21.051
37.9697 20.9927
38.0168 20.9581
38.064 20.867
38.1111 20.8173
38.1584 20.7223
38.2056 20.6836
38.2529 20.5673
38.3 20.4561
38.3473 20.5106
38.3945 20.3783
38.4418 20.3633
38.489 20.2883
38.5363 20.2166
38.5837 20.1162
38.6309 20.0908
38.6782 20.0803
38.7254 19.9596
38.7728 19.9567
38.82 19.8626
38.8674 19.8131
38.9146 19.6961
38.9621 19.6659
39.0093 19.6
39.0567 19.5559
39.104 19.5062
39.1514 19.3818
39.1987 19.3604
39.2461 19.3196
39.2934 19.2111
39.3409 19.0918
39.3882 19.0707
39.4356 19.0165
39.483 18.9406
39.5304 18.8992
39.5778 18.9156
39.6253 18.8469
39.6726 18.7956
39.7201 18.7118
39.7675 18.6372
39.815 18.5585
39.8624 18.4576
39.9099 18.4693
39.9575 18.3465
40.0049 18.3585
40.0525 18.2636
40.0999 18.2099
40.1474 18.1699
40.1949 18.0686
40.2425 18.073
40.2899 18.0043
40.3375 17.9737
40.385 17.9232
40.4326 17.7782
40.48 17.7013
40.5277 17.7146
40.5752 17.6875
40.6228 17.5575
40.6703 17.4793
40.718 17.4651
40.7655 17.4441
40.8132 17.3869
40.8607 17.3839
40.9084 17.2866
40.9559 17.2183
41.0036 17.1415
41.0512 17.1684
41.0989 17.0548
41.1465 16.9747
41.1942 16.9607
41.242 16.8438
41.2896 16.8005
41.3373 16.745
41.3849 16.7
41.4327 16.6464
41.4803 16.5521
41.5281 16.5466
41.5758 16.4826
41.6236 16.4034
41.6712 16.3664
41.7191 16.3297
41.7667 16.3015
41.8146 16.2372
41.8622 16.2201
41.9101 16.0945
41.9578 16.0165
42.0057 15.9678
42.0534 16.0116
42.1013 15.8896
42.149 15.8398
42.1969 15.7961
42.2446 15.7486
42.2925 15.6866
42.3403 15.6056
42.3882 15.5795
42.436 15.563
42.4839 15.4421
42.5319 15.4673
42.5797 15.3721
42.6277 15.3557
42.6755 15.2532
42.7235 15.193
42.7713 15.1941
42.8193 15.0806
42.8671 15.0427
42.9152 14.9962
42.963 14.9846
43.0111 14.9089
43.0589 14.8487
43.107 14.8275
43.1549 14.706
43.2029 14.7217
43.2508 14.6362
43.2989 14.6054
43.3468 14.5056
43.3949 14.5025
43.4429 14.5044
43.491 14.3442
43.5389 14.2986
43.5871 14.3496
43.635 14.2292
43.6832 14.2251
43.7312 14.1463
43.7793 14.0241
43.8273 14.0614
43.8755 14.0076
43.9237 13.9501
43.9717 13.9338
44.0199 13.8406
44.068 13.862
44.1162 13.7262
44.1642 13.7194
44.2125 13.6639
44.2606 13.6412
44.3088 13.5778
44.3569 13.4933
44.4052 13.4804
44.4533 13.4198
44.5016 13.4224
44.5497 13.3421
44.598 13.2946
44.6461 13.2102
44.6945 13.2014
44.7426 13.1557
44.791 13.0758
44.8391 13.0636
44.8875 12.9687
44.9357 12.9857
44.984 12.914
45.0322 12.864
45.0806 12.8409
45.1288 12.7956
45.1773 12.7369
45.2257 12.706
45.2739 12.6893
45.3224 12.6066
45.3706 12.595
45.4191 12.5506
45.4673 12.515
45.5158 12.4137
45.5641 12.4163
45.6126 12.3783
45.6609 12.2818
45.7094 12.2098
45.7577 12.1974
45.8063 12.135
45.8546 12.1188
45.9031 12.0399
45.9515 12.0504
46.0001 11.9959
46.0484 11.9105
46.097 11.9193
46.1454 11.8334
46.194 11.8428
46.2424 11.7443
46.291 11.6966
46.3395 11.6924
46.3881 11.6257
46.4365 11.6218
46.4852 11.52
46.5337 11.5118
46.5823 11.4945
46.631 11.4244
46.6795 11.4263
46.7282 11.3837
46.7767 11.3323
46.8254 11.2773
46.8739 11.2534
46.9226 11.1535
46.9712 11.1318
47.0199 11.0889
47.0685 11.0632
47.1173 11.0393
47.1658 10.9783
47.2146 10.9117
47.2632 10.8572
47.312 10.8599
47.3606 10.8322
47.4095 10.7825
47.4581 10.7506
47.5069 10.6974
47.5556 10.6547
47.6044 10.5798
47.6531 10.5749
47.702 10.4959
47.7507 10.4785
47.7996 10.4455
47.8483 10.4508
47.8972 10.407
47.9461 10.358
47.9948 10.3063
48.0438 10.2632
48.0925 10.2674
48.1415 10.2019
48.1902 10.1574
48.2392 10.1372
48.288 10.1295
48.337 10.0456
48.3858 10.0346
48.4348 9.98041
48.4837 9.94153
48.5327 9.91851
48.5815 9.87454
48.6306 9.86051
48.6795 9.7807
48.7285 9.77852
48.7774 9.78456
48.8265 9.72623
48.8754 9.61304
48.9245 9.59427
48.9734 9.59639
49.0226 9.57484
49.0715 9.4983
49.1206 9.44672
49.1696 9.42839
49.2188 9.38836
49.2679 9.37214
49.3169 9.32605
49.3661 9.27904
49.4151 9.28889
49.4643 9.2233
49.5134 9.20263
49.5626 9.10103
49.6117 9.13001
49.6609 9.06995
49.71 9.01217
49.7592 9.02615
49.8083 8.97795
49.8576 8.94576
49.9067 8.91123
49.956 8.88775
50.0052 8.84352
50.0545 8.78534
50.1036 8.73529
50.153 8.75781
50.2022 8.70095
50.2515 8.65078
50.3007 8.65864
50.3501 8.58481
50.3993 8.58436
50.4487 8.53771
50.498 8.49891
50.5474 8.47159
50.5966 8.4291
50.6461 8.42208
50.6955 8.3678
50.7448 8.38106
50.7943 8.30847
50.8436 8.25864
50.8931 8.2264
50.9424 8.21887
50.9919 8.1769
51.0413 8.16021
51.0908 8.11954
51.1402 8.11436
51.1897 7.99879
51.2391 8.05576
51.2887 8.00804
51.3381 7.93994
51.3877 7.95696
51.4371 7.88288
51.4867 7.84452
51.5362 7.81927
51.5858 7.78847
51.6353 7.70342
51.6849 7.70411
51.7344 7.69749
51.7841 7.68666
51.8336 7.63442
51.8833 7.5778
51.9328 7.56551
51.9826 7.50564
52.0323 7.50742
52.0818 7.45701
52.1316 7.41197
52.1812 7.4162
52.231 7.41029
52.2806 7.34145
52.3304 7.34066
52.38 7.30114
52.4298 7.23306
52.4794 7.22103
52.5293 7.19933
52.5789 7.14196
52.6288 7.13812
52.6785 7.09448
52.7284 7.07365
52.7781 7.07674
52.828 7.04625
52.8777 6.97959
52.9276 6.96502
52.9774 6.95178
53.0273 6.88233
53.0771 6.88853
53.1271 6.87379
53.1769 6.80238
53.2269 6.79602
53.2767 6.76054
53.3267 6.70568
53.3765 6.7356
53.4266 6.70568
53.4766 6.6435
53.5265 6.6173
53.5765 6.65372
53.6264 6.51355
53.6765 6.50726
53.7264 6.56064
53.7765 6.51954
53.8265 6.45143
53.8766 6.46119
53.9266 6.37423
53.9767 6.38253
54.0267 6.35075
54.0769 6.29753
54.1269 6.25553
54.1771 6.24241
54.2271 6.231
54.2773 6.16076
54.3274 6.16149
54.3776 6.1005
54.4277 6.10126
54.478 6.02969
54.528 6.04178
54.5783 5.96405
54.6285 5.91386
54.6788 5.84515
54.7289 5.83716
54.7792 5.80179
54.8296 5.77798
54.8798 5.70646
54.9301 5.66326
54.9803 5.62733
55.0307 5.64386
55.0809 5.5685
55.1314 5.50541
55.1816 5.45503
55.232 5.43653
55.2823 5.32939
55.3328 5.29205
55.383 5.28984
55.4335 5.21557
55.4838 5.14111
55.5344 5.14364
55.5847 5.04572
55.6352 5.11923
55.6856 4.99691
55.7361 5.01869