File: XRD/Ni3Fe_FD0567.xy
TT I
1.27165 7.28657
1.31627 6.5684
1.36089 6.07195
1.40551 6.00335
1.45013 6.31275
1.49476 6.14334
1.53938 5.67278
1.584 5.76753
1.62863 5.55242
1.67325 4.58389
1.71787 4.62583
1.7625 4.81522
1.80712 5.13715
1.85174 4.44028
1.89636 4.36105
1.94099 4.53758
1.98562 4.763
2.03025 4.50742
2.07487 4.5261
2.11949 5.16695
2.16411 4.26473
2.20874 10.6044
2.25338 15.2049
2.298 5.34947
2.34263 5.73887
2.38725 5.27088
2.43188 5.44892
2.4765 6.4955
2.52115 6.88106
2.56577 7.55722
2.6104 8.06194
2.65503 7.45653
2.69965 7.56008
2.7443 8.16159
2.78893 8.13475
2.83356 8.09713
2.87818 8.36764
2.92281 9.01388
2.96744 9.26999
3.01209 10.1872
3.05672 11.5627
3.10135 12.0379
3.14599 12.398
3.19062 14.3724
3.23527 14.7717
3.2799 15.7303
3.32454 16.8129
3.36917 17.3548
3.4138 19.0629
3.45844 19.7093
3.50309 20.7523
3.54773 21.9853
3.59237 23.3209
3.637 64.6984
3.68164 43.9036
3.7263 25.5597
3.77094 25.7554
3.81558 26.7823
3.86022 27.6774
3.90486 28.9213
3.9495 29.863
3.99416 30.7564
4.0388 31.973
4.08344 33.2977
4.12809 34.8758
4.17273 36.3094
4.21738 40.666
4.26204 169.031
4.30669 140.222
4.35133 46.0324
4.39598 44.2392
4.44063 50.6501
4.4853 58.3482
4.52995 51.6301
4.5746 52.9152
4.61925 53.6472
4.6639 55.853
4.70855 58.6431
4.75322 61.8584
4.79788 65.3194
4.84253 68.2875
4.88719 72.7614
4.93184 76.2695
4.97652 82.1898
5.02118 89.1309
5.06583 97.3002
5.11049 109.194
5.15515 166.355
5.19981 447.943
5.24449 3220.42
5.28916 12294.5
5.33382 2833.0
5.37848 196.567
5.42315 131.126
5.46783 115.82
5.5125 108.361
5.55716 103.42
5.60183 99.5366
5.6465 97.4238
5.69117 95.388
5.73586 93.703
5.78053 93.7582
5.8252 93.8177
5.86988 95.6679
5.91455 97.0883
5.95924 108.115
6.00392 260.651
6.0486 1111.3
6.09328 4488.04
6.13795 3358.0
6.18263 247.344
6.22733 93.899
6.27201 82.4879
6.3167 91.9833
6.36138 77.058
6.40606 69.5444
6.45075 68.175
6.49545 65.6513
6.54014 64.067
6.58483 62.9914
6.62952 62.7165
6.67421 81.2981
6.71892 109.877
6.76361 64.8978
6.8083 58.9247
6.853 58.1457
6.89769 57.0829
6.94239 56.753
6.98711 55.5537
7.03181 55.6169
7.07651 55.7892
7.12121 55.1752
7.16591 55.5448
7.21063 55.0376
7.25533 65.0549
7.30004 129.969
7.34475 76.533
7.38945 56.0483
7.43416 54.6404
7.47889 54.3027
7.5236 54.9113
7.56831 55.6856
7.61303 56.4872
7.65774 56.8833
7.70247 56.8141
7.74719 56.764
7.79191 57.1385
7.83663 57.4223
7.88135 58.2225
7.92607 59.4861
7.97081 60.0992
8.01553 61.3809
8.06026 62.8407
8.10498 64.3898
8.14971 71.1781
8.19446 70.8301
8.23919 70.0659
8.28392 72.6853
8.32865 75.1067
8.37339 79.6983
8.41812 85.8867
8.46288 109.49
8.50761 191.471
8.55235 437.646
8.59709 1234.43
8.64183 2171.39
8.68658 944.085
8.73134 158.991
8.77609 100.204
8.82083 93.3968
8.86558 90.8525
8.91033 90.4327
8.9551 90.2277
8.99985 86.026
9.04461 84.5149
9.08936 83.7624
9.13412 82.6907
9.17888 82.5497
9.22365 83.2531
9.26841 82.6504
9.31318 83.798
9.35794 83.9211
9.4027 84.4152
9.44749 85.3886
9.49226 85.6127
9.53703 86.5034
9.5818 88.9659
9.62657 92.5704
9.67134 96.5237
9.71614 93.6605
9.76091 95.2338
9.80569 98.0093
9.85047 101.605
9.89525 117.658
9.94005 133.014
9.98484 204.807
10.0296 381.208
10.0744 860.743
10.1192 1705.13
10.164 1505.82
10.2088 378.112
10.2536 126.116
10.2984 111.749
10.3432 111.636
10.388 106.26
10.4328 126.214
10.4776 171.013
10.5224 299.208
10.5672 524.812
10.612 503.518
10.6568 191.728
10.7017 95.6607
10.7465 86.9514
10.7913 83.9403
10.8361 82.0416
10.8809 79.1207
10.9257 78.3715
10.9706 78.2502
11.0154 75.3034
11.0602 73.2584
11.105 72.1392
11.1499 74.3667
11.1947 78.4447
11.2395 72.2119
11.2844 69.7943
11.3292 67.3911
11.374 66.5151
11.4189 65.9628
11.4637 65.3932
11.5086 65.3901
11.5534 66.7576
11.5983 64.8597
11.6431 64.0556
11.688 63.2283
11.7328 63.5232
11.7777 63.1827
11.8225 63.0112
11.8674 63.0003
11.9122 63.678
11.9571 63.3716
12.002 64.4693
12.0468 70.3835
12.0917 82.0004
12.1366 106.613
12.1814 156.292
12.2263 201.031
12.2712 158.508
12.3161 89.5691
12.3609 68.3691
12.4058 65.1282
12.4507 64.5061
12.4956 64.7327
12.5405 64.9077
12.5853 65.8821
12.6302 70.5399
12.6751 74.0152
12.72 69.4115
12.7649 68.3424
12.8098 68.9289
12.8547 69.9781
12.8996 71.7873
12.9445 73.3142
12.9894 75.0727
13.0343 76.7184
13.0792 80.8486
13.1242 93.793
13.1691 117.622
13.214 158.072
13.2589 250.649
13.3038 374.333
13.3487 421.601
13.3937 252.607
13.4386 121.567
13.4835 110.183
13.5285 126.473
13.5734 167.907
13.6183 257.456
13.6633 353.891
13.7082 335.386
13.7531 180.179
13.7981 97.0053
13.843 82.0589
13.888 80.1223
13.9329 77.6666
13.9779 76.3775
14.0228 75.0857
14.0678 73.6034
14.1127 73.1845
14.1577 72.6392
14.2027 71.7938
14.2476 71.1791
14.2926 71.064
14.3376 71.4014
14.3825 70.5473
14.4275 69.4788
14.4725 69.5667
14.5175 69.5256
14.5624 69.6986
14.6074 71.197
14.6524 71.5571
14.6974 71.2634
14.7424 74.1818
14.7874 81.8785
14.8324 92.6936
14.8774 116.127
14.9224 158.131
14.9674 209.421
15.0124 216.29
15.0574 143.831
15.1024 88.561
15.1474 72.6087
15.1924 70.8667
15.2374 70.4951
15.2824 69.8088
15.3274 68.3396
15.3725 67.5486
15.4175 66.9403
15.4625 66.5977
15.5076 66.439
15.5526 66.6392
15.5976 66.5289
15.6426 68.5436
15.6877 74.9791
15.7327 82.6758
15.7778 99.1279
15.8228 131.009
15.8679 172.402
15.9129 193.781
15.958 150.846
16.003 94.2117
16.0481 67.4655
16.0931 64.1042
16.1382 62.555
16.1833 60.8296
16.2283 59.4837
16.2734 58.7921
16.3185 58.7514
16.3636 58.8694
16.4086 57.6579
16.4537 56.492
16.4988 55.8194
16.5439 55.9343
16.589 55.5835
16.6341 55.2218
16.6792 54.9036
16.7243 55.1727
16.7694 55.4862
16.8145 55.0917
16.8596 55.6306
16.9047 56.4996
16.9498 56.8138
16.9949 55.9337
17.04 56.6254
17.0851 57.9704
17.1302 59.5396
17.1754 62.7434
17.2205 68.1427
17.2656 75.1734
17.3108 82.9364
17.3559 82.0268
17.401 70.761
17.4462 62.198
17.4913 59.45
17.5365 59.5575
17.5815 59.7306
17.6268 60.0514
17.6718 60.741
17.7171 61.3816
17.7622 61.9584
17.8074 62.9379
17.8525 66.1131
17.8977 70.0579
17.9428 75.5568
17.9881 85.4375
18.0331 102.977
18.0784 123.623
18.1237 141.605
18.1688 132.115
18.214 102.49
18.2591 87.1738
18.3044 92.2024
18.3495 101.467
18.3948 105.983
18.4399 95.2156
18.4852 76.8662
18.5303 66.0422
18.5756 62.5224
18.6207 61.6932
18.666 60.8904
18.7112 60.1574
18.7565 59.467
18.8016 59.0617
18.8469 58.4575
18.892 58.1301
18.9374 57.573
18.9825 57.5157
19.0278 57.5003
19.073 57.3663
19.1183 57.9847
19.1635 58.819
19.2088 60.3196
19.254 62.9391
19.2993 67.6324
19.3447 72.961
19.3898 76.3508
19.4352 71.9754
19.4804 63.0585
19.5257 56.8361
19.5709 54.4498
19.6163 54.195
19.6615 54.2097
19.7068 53.7926
19.752 53.8169
19.7974 54.0266
19.8426 55.035
19.888 55.7528
19.9332 57.006
19.9786 59.7597
20.0238 63.3145
20.0692 67.9081
20.1144 70.2367
20.1598 68.1854
20.205 63.9045
20.2504 62.51
20.2957 64.2965
20.3411 65.687
20.3863 64.099
20.4318 58.2622
20.477 53.7147
20.5224 51.7116
20.5677 51.3228
20.6131 50.4692
20.6586 50.1161
20.7038 49.9137
20.7493 49.298
20.7945 49.3624
20.84 49.1537
20.8853 49.151
20.9307 49.0569
20.976 49.2844
21.0215 49.1242
21.0668 49.3472
21.1122 50.0333
21.1575 50.5148
21.203 51.1732
21.2483 51.4893
21.2938 51.711
21.3391 50.3715
21.3846 49.2235
21.4299 48.9095
21.4754 48.8974
21.5207 49.1082
21.5662 49.314
21.6116 49.8949
21.6571 50.5042
21.7024 51.4751
21.7479 53.342
21.7933 56.1251
21.8388 59.6225
21.8843 63.2096
21.9297 64.9148
21.9752 63.3135
22.0206 59.5863
22.0661 56.8035
22.1115 56.3114
22.157 56.1296
22.2024 54.2656
22.248 51.5364
22.2933 49.9997
22.3389 49.2256
22.3843 49.3237
22.4299 49.0336
22.4753 49.1247
22.5208 48.9022
22.5662 48.8596
22.6118 49.0309
22.6572 49.4414
22.7028 49.6071
22.7483 50.369
22.7939 51.0823
22.8393 52.5238
22.8849 54.7075
22.9303 56.764
22.9759 58.0968
23.0214 57.3099
23.067 54.551
23.1126 51.3021
23.1581 49.5387
23.2037 49.102
23.2492 49.3249
23.2948 49.2523
23.3403 49.6098
23.3859 50.2954
23.4314 51.4031
23.477 53.1989
23.5225 55.2296
23.5682 57.4187
23.6137 58.1232
23.6593 55.5439
23.7048 51.474
23.7505 48.1839
23.796 46.7877
23.8417 46.2733
23.8872 45.7685
23.9329 45.4892
23.9784 45.145
24.0241 44.9203
24.0697 44.7502
24.1154 44.2606
24.1609 44.1714
24.2066 44.1244
24.2522 44.0718
24.2979 43.6145
24.3434 43.6269
24.3892 43.4473
24.4349 43.3757
24.4805 43.2646
24.5262 43.4518
24.5718 43.1937
24.6175 43.1428
24.6631 43.0178
24.7089 42.8547
24.7545 42.5281
24.8002 42.5131
24.8458 42.5541
24.8916 42.2314
24.9372 42.6339
24.983 42.9095
25.0286 43.2656
25.0744 43.6807
25.12 44.1586
25.1658 44.664
25.2114 44.8693
25.2572 45.093
25.3029 45.17
25.3487 45.0647
25.3943 44.7832
25.4402 43.5193
25.4858 42.5443
25.5316 41.6928
25.5773 41.2786
25.6231 41.0036
25.669 40.869
25.7147 40.8111
25.7605 40.6014
25.8062 40.7303
25.8521 40.9419
25.8977 40.754
25.9436 40.9853
25.9893 41.2589
26.0352 41.8449
26.0809 41.7682
26.1268 41.9422
26.1725 41.7007
26.2184 40.9648
26.2641 40.5288
26.31 40.3143
26.3557 40.3265
26.4017 40.5319
26.4474 40.7448
26.4933 41.051
26.5391 41.5894
26.585 41.962
26.6308 42.3866
26.6767 42.3679
26.7225 42.2257
26.7684 41.5492
26.8142 41.0629
26.8601 40.6428
26.9059 40.2613
26.9519 39.8359
26.9979 39.3665
27.0437 39.0643
27.0896 39.0947
27.1354 38.9916
27.1814 38.9105
27.2272 38.8082
27.2732 38.8373
27.3191 38.6788
27.3651 38.6897
27.4109 38.7873
27.4569 38.7615
27.5027 38.8672
27.5488 38.8544
27.5946 38.6423
27.6407 38.3792
27.6865 38.2748
27.7326 38.0132
27.7784 38.176
27.8245 38.2533
27.8703 38.2708
27.9164 38.673
27.9623 38.629
28.0084 39.0259
28.0543 39.4002
28.1003 39.2205
28.1462 38.8663
28.1923 38.6793
28.2384 38.196
28.2843 37.7263
28.3304 37.344
28.3764 36.8836
28.4225 36.539
28.4684 36.4838
28.5145 36.205
28.5605 36.0273
28.6066 35.9505
28.6526 35.7532
28.6987 35.8707
28.7447 35.6741
28.7908 35.517
28.8368 35.6305
28.8829 35.5972
28.9289 35.5806
28.9751 35.4577
29.0211 35.1502
29.0673 34.8764
29.1133 34.6285
29.1595 34.6028
29.2055 34.5914
29.2517 34.6623
29.2977 34.477
29.3439 34.5609
29.3899 34.4533
29.4361 34.3249
29.4824 34.1502
29.5284 33.9005
29.5746 33.5886
29.6207 33.4519
29.6669 33.2573
29.713 33.1733
29.7593 33.0063
29.8053 33.0765
29.8516 33.0547
29.8977 33.0828
29.9439 32.9278
29.99 32.7846
30.0363 32.7136
30.0824 32.8013
30.1287 32.6073
30.1748 32.6421
30.2211 32.6649
30.2673 32.5074
30.3136 32.6547
30.3597 32.4164
30.406 32.4602
30.4522 32.2723
30.4985 32.2329
30.5447 32.4282
30.591 32.4235
30.6372 32.5143
30.6835 32.3463
30.7297 32.43
30.7761 32.3453
30.8224 32.1508
30.8686 32.0555
30.915 31.7933
30.9612 31.6873
31.0076 31.4493
31.0538 31.3134
31.1002 31.4543
31.1464 31.1051
31.1928 31.0761
31.2391 31.1986
31.2855 31.0918
31.3317 30.9945
31.3781 31.2396
31.4244 31.0614
31.4708 30.9441
31.5171 31.0031
31.5636 31.0017
31.6098 30.6333
31.6563 30.4965
31.7026 30.5469
31.7491 30.2977
31.7953 30.2728
31.8418 30.4203
31.8881 30.3678
31.9346 30.3033
31.9809 30.2675
32.0275 30.1647
32.074 30.0926
32.1203 29.8418
32.1668 29.6625
32.2132 29.6105
32.2597 29.3585
32.306 29.4557
32.3526 29.1538
32.399 29.1031
32.4455 29.0249
32.4919 28.9511
32.5385 28.8237
32.5848 28.6908
32.6314 28.7019
32.6778 28.7254
32.7244 28.551
32.7708 28.3453
32.8174 28.285
32.8638 28.208
32.9104 28.2119
32.9569 28.2203
33.0035 28.0395
33.0499 28.0745
33.0966 28.0572
33.143 27.9753
33.1897 27.7905
33.2361 27.7435
33.2828 27.759
33.3293 27.5248
33.3759 27.4806
33.4226 27.3716
33.4691 27.2691
33.5158 27.2562
33.5623 27.0239
33.609 26.9419
33.6555 26.8853
33.7022 26.7122
33.7487 26.7528
33.7954 26.6405
33.842 26.5769
33.8887 26.4789
33.9353 26.356
33.982 26.3407
34.0286 26.1982
34.0753 26.0998
34.1219 26.1045
34.1687 25.9512
34.2152 25.8913
34.262 25.7848
34.3086 25.656
34.3554 25.739
34.402 25.5948
34.4488 25.4823
34.4954 25.4145
34.5422 25.2261
34.5889 25.2159
34.6357 25.1199
34.6825 25.0455
34.7292 24.9811
34.776 24.8201
34.8227 24.869
34.8695 24.8365
34.9162 24.7441
34.9631 24.645
35.0098 24.6845
35.0566 24.4779
35.1033 24.4887
35.1502 24.4134
35.1969 24.3894
35.2438 24.3132
35.2906 24.2576
35.3375 24.1652
35.3842 24.1539
35.4311 24.0752
35.4779 24.0613
35.5248 24.0746
35.5716 23.8622
35.6185 23.9544
35.6653 23.7987
35.7123 23.6948
35.759 23.5953
35.806 23.4765
35.8528 23.3773
35.8998 23.3336
35.9468 23.2549
35.9936 23.2435
36.0406 23.2489
36.0874 23.1093
36.1345 23.017
36.1813 22.9994
36.2283 22.8603
36.2752 22.7782
36.3222 22.7912
36.3691 22.7382
36.4161 22.6165
36.463 22.5888
36.5101 22.5645
36.557 22.4558
36.6041 22.2589
36.651 22.3835
36.6981 22.3091
36.745 22.1799
36.7921 22.1328
36.839 22.0206
36.8861 21.9817
36.9331 21.8765
36.9802 21.8294
37.0272 21.7464
37.0743 21.6945
37.1213 21.5924
37.1684 21.5212
37.2154 21.4415
37.2626 21.3934
37.3098 21.3515
37.3568 21.2733
37.404 21.2501
37.451 21.135
37.4982 21.0577
37.5452 20.9833
37.5924 20.9324
37.6395 20.907
37.6867 20.8487
37.7337 20.698
37.781 20.6657
37.8281 20.6678
37.8753 20.5083
37.9224 20.4709
37.9697 20.3334
38.0168 20.334
38.064 20.208
38.1111 20.2388
38.1584 20.1666
38.2056 20.1069
38.2529 20.0493
38.3 19.9569
38.3473 19.8888
38.3945 19.7586
38.4418 19.8077
38.489 19.7322
38.5363 19.6235
38.5837 19.6548
38.6309 19.5344
38.6782 19.4694
38.7254 19.4086
38.7728 19.3514
38.82 19.2711
38.8674 19.2201
38.9146 19.1729
38.9621 19.1138
39.0093 19.0652
39.0567 18.9801
39.104 18.9351
39.1514 18.8067
39.1987 18.7799
39.2461 18.7005
39.2934 18.6727
39.3409 18.5541
39.3882 18.5387
39.4356 18.5434
39.483 18.4124
39.5304 18.3578
39.5778 18.3025
39.6253 18.2573
39.6726 18.2494
39.7201 18.207
39.7675 18.1423
39.815 18.0197
39.8624 18.0359
39.9099 17.8764
39.9575 17.8209
40.0049 17.8225
40.0525 17.7529
40.0999 17.7304
40.1474 17.6352
40.1949 17.5453
40.2425 17.5287
40.2899 17.4843
40.3375 17.4311
40.385 17.3147
40.4326 17.3023
40.48 17.2322
40.5277 17.2151
40.5752 17.1668
40.6228 17.0226
40.6703 17.0541
40.718 17.0059
40.7655 16.9276
40.8132 16.817
40.8607 16.8362
40.9084 16.7609
40.9559 16.6892
41.0036 16.6574
41.0512 16.6204
41.0989 16.5733
41.1465 16.5036
41.1942 16.4469
41.242 16.3649
41.2896 16.3077
41.3373 16.2501
41.3849 16.2418
41.4327 16.1761
41.4803 16.1053
41.5281 16.0693
41.5758 15.9801
41.6236 15.9578
41.6712 15.8915
41.7191 15.8629
41.7667 15.7605
41.8146 15.7396
41.8622 15.6958
41.9101 15.6561
41.9578 15.4794
42.0057 15.5574
42.0534 15.4193
42.1013 15.4247
42.149 15.3492
42.1969 15.3202
42.2446 15.2471
42.2925 15.2281
42.3403 15.1041
42.3882 15.1466
42.436 15.1306
42.4839 14.9783
42.5319 14.9968
42.5797 14.9632
42.6277 14.8475
42.6755 14.7828
42.7235 14.6909
42.7713 14.7057
42.8193 14.6757
42.8671 14.6169
42.9152 14.5435
42.963 14.5186
43.0111 14.4342
43.0589 14.3651
43.107 14.3738
43.1549 14.2965
43.2029 14.2304
43.2508 14.2585
43.2989 14.1618
43.3468 14.0831
43.3949 14.1269
43.4429 14.0165
43.491 13.9441
43.5389 13.8619
43.5871 13.8858
43.635 13.8638
43.6832 13.7779
43.7312 13.7245
43.7793 13.6656
43.8273 13.6456
43.8755 13.6125
43.9237 13.5323
43.9717 13.5192
44.0199 13.4248
44.068 13.3851
44.1162 13.3256
44.1642 13.3168
44.2125 13.2629
44.2606 13.2057
44.3088 13.1702
44.3569 13.123
44.4052 13.0705
44.4533 13.0171
44.5016 12.9331
44.5497 12.9473
44.598 12.9337
44.6461 12.8349
44.6945 12.8074
44.7426 12.739
44.791 12.7348
44.8391 12.7127
44.8875 12.6579
44.9357 12.5984
44.984 12.5597
45.0322 12.4661
45.0806 12.4173
45.1288 12.4207
45.1773 12.3985
45.2257 12.3014
45.2739 12.2835
45.3224 12.1925
45.3706 12.2278
45.4191 12.0843
45.4673 12.1065
45.5158 12.0795
45.5641 12.0112
45.6126 11.9997
45.6609 11.9345
45.7094 11.8593
45.7577 11.8557
45.8063 11.7496
45.8546 11.779
45.9031 11.7118
45.9515 11.6622
46.0001 11.6222
46.0484 11.5943
46.097 11.5697
46.1454 11.5147
46.194 11.4916
46.2424 11.4242
46.291 11.3719
46.3395 11.3555
46.3881 11.2999
46.4365 11.2627
46.4852 11.2371
46.5337 11.1847
46.5823 11.1829
46.631 11.0805
46.6795 11.0636
46.7282 11.0573
46.7767 10.9871
46.8254 10.9626
46.8739 10.9178
46.9226 10.9193
46.9712 10.7948
47.0199 10.7757
47.0685 10.7207
47.1173 10.6922
47.1658 10.6825
47.2146 10.6104
47.2632 10.5663
47.312 10.5377
47.3606 10.4869
47.4095 10.4705
47.4581 10.423
47.5069 10.3478
47.5556 10.3108
47.6044 10.2822
47.6531 10.2978
47.702 10.1863
47.7507 10.1881
47.7996 10.1181
47.8483 10.1396
47.8972 10.0814
47.9461 10.0308
47.9948 9.97926
48.0438 9.9528
48.0925 9.95801
48.1415 9.89409
48.1902 9.81884
48.2392 9.85066
48.288 9.79574
48.337 9.75761
48.3858 9.70823
48.4348 9.69317
48.4837 9.69952
48.5327 9.6176
48.5815 9.60903
48.6306 9.55271
48.6795 9.52812
48.7285 9.46943
48.7774 9.47489
48.8265 9.41728
48.8754 9.36968
48.9245 9.3704
48.9734 9.28453
49.0226 9.30012
49.0715 9.24577
49.1206 9.18839
49.1696 9.16261
49.2188 9.17722
49.2679 9.10032
49.3169 9.071
49.3661 9.00606
49.4151 8.9905
49.4643 8.97029
49.5134 8.93479
49.5626 8.86216
49.6117 8.82998
49.6609 8.80342
49.71 8.7527
49.7592 8.74237
49.8083 8.71904
49.8576 8.66515
49.9067 8.63052
49.956 8.61737
50.0052 8.55113
50.0545 8.53574
50.1036 8.53372
50.153 8.45245
50.2022 8.45015
50.2515 8.42075
50.3007 8.3692
50.3501 8.32809
50.3993 8.32731
50.4487 8.30138
50.498 8.27305
50.5474 8.26421
50.5966 8.21079
50.6461 8.15959
50.6955 8.10162
50.7448 8.09359
50.7943 8.0453
50.8436 8.02067
50.8931 8.00819
50.9424 7.9734
50.9919 7.96541
51.0413 7.93036
51.0908 7.87298
51.1402 7.85542
51.1897 7.79087
51.2391 7.82181
51.2887 7.72335
51.3381 7.74019
51.3877 7.68851
51.4371 7.6221
51.4867 7.63668
51.5362 7.60046
51.5858 7.55669
51.6353 7.52323
51.6849 7.4963
51.7344 7.46581
51.7841 7.44827
51.8336 7.42671
51.8833 7.39504
51.9328 7.3484
51.9826 7.28668
52.0323 7.28348
52.0818 7.24994
52.1316 7.22101
52.1812 7.18108
52.231 7.16251
52.2806 7.11814
52.3304 7.13734
52.38 7.06578
52.4298 7.04129
52.4794 6.98929
52.5293 7.0194
52.5789 6.94387
52.6288 6.92359
52.6785 6.87753
52.7284 6.88153
52.7781 6.84625
52.828 6.87475
52.8777 6.79653
52.9276 6.73129
52.9774 6.73522
53.0273 6.73159
53.0771 6.66701
53.1271 6.66266
53.1769 6.59636
53.2269 6.55222
53.2767 6.53898
53.3267 6.56046
53.3765 6.50312
53.4266 6.49879
53.4766 6.44743
53.5265 6.3917
53.5765 6.39269
53.6264 6.39384
53.6765 6.37705
53.7264 6.3379
53.7765 6.29363
53.8265 6.24836
53.8766 6.21501
53.9266 6.22312
53.9767 6.19932
54.0267 6.20498
54.0769 6.14141
54.1269 6.1053
54.1771 6.04934
54.2271 6.06227
54.2773 5.98122
54.3274 5.93866
54.3776 5.9241
54.4277 5.92069
54.478 5.8935
54.528 5.84662
54.5783 5.81999
54.6285 5.77012
54.6788 5.70539
54.7289 5.69092
54.7792 5.63657
54.8296 5.5834
54.8798 5.53947
54.9301 5.50815
54.9803 5.53094
55.0307 5.49838
55.0809 5.34471
55.1314 5.37185
55.1816 5.294
55.232 5.30273
55.2823 5.24305
55.3328 5.18436
55.383 5.15618
55.4335 5.07101
55.4838 5.00831
55.5344 4.97987
55.5847 4.95393
55.6352 4.94983
55.6856 4.8742
55.7361 4.82833