File: XRD/Ni3Fe_FD0701.xy
TT I
1.27165 7.43412
1.31627 6.6356
1.36089 6.48063
1.40551 6.23251
1.45013 5.94836
1.49476 5.73389
1.53938 6.07757
1.584 5.90917
1.62863 5.00752
1.67325 5.06139
1.71787 4.97645
1.7625 4.88329
1.80712 4.5991
1.85174 4.78835
1.89636 4.59595
1.94099 5.03714
1.98562 4.653
2.03025 4.80475
2.07487 5.24799
2.11949 4.2926
2.16411 4.16108
2.20874 8.90737
2.25338 11.9728
2.298 5.74648
2.34263 5.36437
2.38725 5.40611
2.43188 5.81287
2.4765 7.10958
2.52115 6.87819
2.56577 7.51043
2.6104 8.29317
2.65503 7.77858
2.69965 8.83891
2.7443 8.3259
2.78893 8.39919
2.83356 8.54206
2.87818 8.13177
2.92281 8.82773
2.96744 9.74318
3.01209 10.0387
3.05672 10.926
3.10135 12.3244
3.14599 12.9025
3.19062 14.4993
3.23527 15.4752
3.2799 15.4197
3.32454 16.4938
3.36917 17.8083
3.4138 19.1168
3.45844 19.6667
3.50309 20.6035
3.54773 21.676
3.59237 23.1856
3.637 53.6307
3.68164 37.9823
3.7263 25.3548
3.77094 25.5045
3.81558 26.4548
3.86022 27.5377
3.90486 28.9074
3.9495 29.7062
3.99416 30.3157
4.0388 32.1329
4.08344 32.9548
4.12809 34.254
4.17273 35.8272
4.21738 39.8041
4.26204 128.351
4.30669 110.804
4.35133 44.6762
4.39598 43.7051
4.44063 49.2417
4.4853 55.239
4.52995 55.763
4.5746 56.2094
4.61925 53.6845
4.6639 55.6488
4.70855 58.644
4.75322 61.7778
4.79788 67.9061
4.84253 68.4539
4.88719 74.493
4.93184 77.1515
4.97652 81.6708
5.02118 87.4199
5.06583 95.7027
5.11049 107.677
5.15515 158.833
5.19981 435.871
5.24449 3066.29
5.28916 12750.2
5.33382 2643.46
5.37848 194.439
5.42315 130.641
5.46783 119.066
5.5125 111.629
5.55716 103.12
5.60183 98.6753
5.6465 96.3954
5.69117 94.7198
5.73586 93.2611
5.78053 97.2019
5.8252 97.0371
5.86988 99.2768
5.91455 95.821
5.95924 105.9
6.00392 255.181
6.0486 1036.96
6.09328 4644.67
6.13795 3104.46
6.18263 221.071
6.22733 91.2056
6.27201 80.9216
6.3167 86.057
6.36138 75.3119
6.40606 70.0908
6.45075 69.2889
6.49545 65.6281
6.54014 63.461
6.58483 62.7239
6.62952 62.7488
6.67421 75.2029
6.71892 94.2701
6.76361 62.7556
6.8083 59.161
6.853 59.2934
6.89769 56.6201
6.94239 56.1629
6.98711 55.3854
7.03181 55.539
7.07651 55.1818
7.12121 54.7285
7.16591 55.56
7.21063 55.0569
7.25533 61.4223
7.30004 105.621
7.34475 69.3137
7.38945 54.7294
7.43416 53.6838
7.47889 53.8817
7.5236 54.3487
7.56831 55.0656
7.61303 55.5711
7.65774 56.5498
7.70247 56.7665
7.74719 56.3574
7.79191 56.5336
7.83663 56.8051
7.88135 57.5958
7.92607 58.5373
7.97081 60.0158
8.01553 60.9328
8.06026 62.6243
8.10498 64.1355
8.14971 70.9228
8.19446 70.7616
8.23919 69.693
8.28392 71.8486
8.32865 74.0271
8.37339 78.7887
8.41812 84.2035
8.46288 105.183
8.50761 188.337
8.55235 412.772
8.59709 1248.5
8.64183 2202.03
8.68658 846.377
8.73134 149.572
8.77609 98.3437
8.82083 92.7712
8.86558 91.7035
8.91033 91.7337
8.9551 89.7955
8.99985 85.3899
9.04461 84.0802
9.08936 84.1951
9.13412 82.6792
9.17888 82.2332
9.22365 82.5535
9.26841 82.8645
9.31318 84.5779
9.35794 86.2912
9.4027 85.6132
9.44749 85.3854
9.49226 85.2021
9.53703 86.2691
9.5818 89.6098
9.62657 94.2598
9.67134 95.723
9.71614 93.2256
9.76091 94.9109
9.80569 99.3422
9.85047 101.38
9.89525 113.825
9.94005 130.466
9.98484 200.787
10.0296 367.663
10.0744 858.449
10.1192 1803.37
10.164 1535.28
10.2088 353.217
10.2536 122.357
10.2984 109.96
10.3432 109.208
10.388 106.184
10.4328 124.906
10.4776 166.798
10.5224 294.704
10.5672 518.736
10.612 495.889
10.6568 193.665
10.7017 94.2403
10.7465 86.4149
10.7913 83.0362
10.8361 80.8988
10.8809 79.042
10.9257 77.9216
10.9706 77.7607
11.0154 75.218
11.0602 72.8885
11.105 71.5815
11.1499 72.5976
11.1947 74.9742
11.2395 70.7848
11.2844 68.7004
11.3292 66.8444
11.374 65.9998
11.4189 65.6544
11.4637 64.9003
11.5086 64.913
11.5534 65.4017
11.5983 64.2942
11.6431 63.7127
11.688 62.836
11.7328 62.8783
11.7777 62.6611
11.8225 62.6524
11.8674 62.5429
11.9122 62.7703
11.9571 63.1343
12.002 64.4234
12.0468 69.6339
12.0917 79.6605
12.1366 106.058
12.1814 156.516
12.2263 206.695
12.2712 156.796
12.3161 87.2707
12.3609 67.2022
12.4058 63.9468
12.4507 64.0493
12.4956 64.5315
12.5405 64.9678
12.5853 65.2446
12.6302 68.5207
12.6751 70.9915
12.72 68.2118
12.7649 67.652
12.8098 68.2558
12.8547 69.8085
12.8996 71.3417
12.9445 73.127
12.9894 74.6093
13.0343 76.0977
13.0792 80.6107
13.1242 94.3001
13.1691 114.362
13.214 153.896
13.2589 250.697
13.3038 381.564
13.3487 415.163
13.3937 247.003
13.4386 120.133
13.4835 108.408
13.5285 123.518
13.5734 165.551
13.6183 259.233
13.6633 357.447
13.7082 327.143
13.7531 172.015
13.7981 93.9166
13.843 81.2629
13.888 79.7657
13.9329 77.3637
13.9779 75.8235
14.0228 74.0794
14.0678 73.0565
14.1127 72.5662
14.1577 72.1034
14.2027 71.2871
14.2476 70.0974
14.2926 69.9802
14.3376 70.2719
14.3825 69.872
14.4275 68.8048
14.4725 68.7086
14.5175 68.7228
14.5624 68.979
14.6074 69.9934
14.6524 70.6094
14.6974 70.5756
14.7424 74.2386
14.7874 80.5886
14.8324 90.7344
14.8774 114.294
14.9224 159.744
14.9674 212.403
15.0124 215.045
15.0574 138.814
15.1024 86.455
15.1474 71.7568
15.1924 69.9619
15.2374 69.7951
15.2824 68.6689
15.3274 67.742
15.3725 66.7949
15.4175 66.5215
15.4625 65.9665
15.5076 65.5032
15.5526 65.9384
15.5976 65.9918
15.6426 68.6795
15.6877 73.847
15.7327 80.819
15.7778 97.2731
15.8228 130.757
15.8679 175.961
15.9129 194.779
15.958 148.412
16.003 90.821
16.0481 66.3869
16.0931 63.1756
16.1382 61.5588
16.1833 60.2871
16.2283 58.7496
16.2734 57.9631
16.3185 57.9112
16.3636 57.6469
16.4086 56.7695
16.4537 55.8811
16.4988 55.4208
16.5439 55.3833
16.589 55.1281
16.6341 54.9432
16.6792 54.3777
16.7243 54.5831
16.7694 54.5668
16.8145 54.7638
16.8596 55.0019
16.9047 55.5266
16.9498 55.9666
16.9949 55.3922
17.04 55.9251
17.0851 57.4257
17.1302 58.825
17.1754 61.9134
17.2205 67.4509
17.2656 75.4409
17.3108 83.1493
17.3559 81.3055
17.401 69.6801
17.4462 61.5105
17.4913 59.0208
17.5365 59.0576
17.5815 59.3725
17.6268 59.5811
17.6718 60.3673
17.7171 60.767
17.7622 61.3745
17.8074 62.7038
17.8525 65.6159
17.8977 69.091
17.9428 74.6733
17.9881 84.3273
18.0331 102.876
18.0784 125.906
18.1237 141.51
18.1688 130.094
18.214 100.508
18.2591 85.876
18.3044 91.4203
18.3495 101.394
18.3948 105.323
18.4399 93.5341
18.4852 74.8031
18.5303 64.9091
18.5756 61.9249
18.6207 61.1757
18.666 60.2668
18.7112 59.5166
18.7565 58.7903
18.8016 58.5699
18.8469 57.8475
18.892 57.7075
18.9374 57.2374
18.9825 56.7625
19.0278 56.5304
19.073 57.1756
19.1183 57.3988
19.1635 57.924
19.2088 59.4795
19.254 62.6591
19.2993 67.317
19.3447 73.0506
19.3898 76.076
19.4352 70.8398
19.4804 61.8944
19.5257 56.0117
19.5709 53.8904
19.6163 53.9309
19.6615 53.7384
19.7068 53.1556
19.752 53.3078
19.7974 53.714
19.8426 54.4092
19.888 54.8083
19.9332 56.3618
19.9786 59.1081
20.0238 63.1676
20.0692 67.8541
20.1144 69.4668
20.1598 67.4828
20.205 63.1147
20.2504 62.2561
20.2957 64.0844
20.3411 65.524
20.3863 63.2259
20.4318 57.3736
20.477 52.9022
20.5224 51.0248
20.5677 50.5553
20.6131 50.2861
20.6586 49.4043
20.7038 49.4353
20.7493 48.9111
20.7945 48.9102
20.84 48.8201
20.8853 48.8966
20.9307 48.5216
20.976 48.6777
21.0215 48.6179
21.0668 48.9686
21.1122 49.363
21.1575 50.2462
21.203 50.905
21.2483 51.2944
21.2938 51.3616
21.3391 49.799
21.3846 48.6765
21.4299 48.3251
21.4754 48.2898
21.5207 48.4085
21.5662 48.9077
21.6116 49.455
21.6571 49.9803
21.7024 50.9932
21.7479 53.0388
21.7933 55.9422
21.8388 59.5718
21.8843 63.204
21.9297 64.8616
21.9752 62.5894
22.0206 58.8903
22.0661 56.1677
22.1115 55.9684
22.157 55.6464
22.2024 53.7821
22.248 51.1019
22.2933 49.5342
22.3389 48.7557
22.3843 48.674
22.4299 48.5399
22.4753 48.6864
22.5208 48.6013
22.5662 48.3906
22.6118 48.7823
22.6572 48.8429
22.7028 49.2889
22.7483 49.8389
22.7939 50.5158
22.8393 52.1087
22.8849 54.3933
22.9303 56.2612
22.9759 57.8545
23.0214 57.05
23.067 53.9049
23.1126 50.7784
23.1581 48.8435
23.2037 48.7156
23.2492 48.9512
23.2948 48.7255
23.3403 49.2835
23.3859 49.8717
23.4314 50.9913
23.477 52.9126
23.5225 55.2674
23.5682 57.2527
23.6137 57.7738
23.6593 54.9839
23.7048 50.9034
23.7505 47.811
23.796 46.4954
23.8417 45.9244
23.8872 45.4456
23.9329 45.2077
23.9784 44.8959
24.0241 44.5112
24.0697 44.3525
24.1154 44.1586
24.1609 43.8862
24.2066 43.6059
24.2522 43.6572
24.2979 43.2227
24.3434 43.1946
24.3892 43.0784
24.4349 43.1006
24.4805 42.9074
24.5262 43.0054
24.5718 42.9826
24.6175 42.8951
24.6631 42.7989
24.7089 42.5054
24.7545 42.2875
24.8002 42.1382
24.8458 42.1395
24.8916 42.0535
24.9372 42.2146
24.983 42.6594
25.0286 42.8545
25.0744 43.3536
25.12 43.8891
25.1658 44.472
25.2114 44.6531
25.2572 44.6894
25.3029 44.8023
25.3487 44.8626
25.3943 44.4237
25.4402 43.1621
25.4858 42.2686
25.5316 41.36
25.5773 40.9755
25.6231 40.7306
25.669 40.5506
25.7147 40.5182
25.7605 40.3087
25.8062 40.3946
25.8521 40.5742
25.8977 40.5659
25.9436 40.7965
25.9893 41.0764
26.0352 41.453
26.0809 41.6407
26.1268 41.7785
26.1725 41.1573
26.2184 40.702
26.2641 40.1969
26.31 40.0631
26.3557 40.0079
26.4017 40.1125
26.4474 40.3565
26.4933 40.7889
26.5391 41.1808
26.585 41.7717
26.6308 42.0494
26.6767 42.2091
26.7225 41.8692
26.7684 41.3092
26.8142 40.6681
26.8601 40.304
26.9059 39.9765
26.9519 39.2635
26.9979 39.0878
27.0437 38.7482
27.0896 38.6076
27.1354 38.766
27.1814 38.5865
27.2272 38.4363
27.2732 38.5086
27.3191 38.3561
27.3651 38.4013
27.4109 38.384
27.4569 38.5211
27.5027 38.519
27.5488 38.5069
27.5946 38.1874
27.6407 38.0634
27.6865 38.018
27.7326 37.7125
27.7784 37.8929
27.8245 37.8757
27.8703 37.9338
27.9164 38.322
27.9623 38.4178
28.0084 38.8421
28.0543 39.1225
28.1003 38.9488
28.1462 38.6759
28.1923 38.3502
28.2384 37.7994
28.2843 37.5402
28.3304 37.0587
28.3764 36.6548
28.4225 36.3686
28.4684 36.2984
28.5145 35.9235
28.5605 35.8124
28.6066 35.7867
28.6526 35.4039
28.6987 35.4986
28.7447 35.5325
28.7908 35.429
28.8368 35.3722
28.8829 35.3963
28.9289 35.274
28.9751 35.1728
29.0211 34.881
29.0673 34.6083
29.1133 34.4987
29.1595 34.3574
29.2055 34.2922
29.2517 34.3862
29.2977 34.242
29.3439 34.289
29.3899 34.2154
29.4361 34.0411
29.4824 33.7993
29.5284 33.6645
29.5746 33.4281
29.6207 33.0413
29.6669 33.0107
29.713 32.8438
29.7593 32.8346
29.8053 32.8172
29.8516 32.7176
29.8977 32.7837
29.9439 32.6369
29.99 32.5236
30.0363 32.5098
30.0824 32.4345
30.1287 32.2858
30.1748 32.3861
30.2211 32.3068
30.2673 32.2462
30.3136 32.3397
30.3597 32.1421
30.406 32.1656
30.4522 32.0642
30.4985 31.9782
30.5447 32.1462
30.591 32.0022
30.6372 32.1398
30.6835 32.1819
30.7297 32.1026
30.7761 32.0793
30.8224 31.9525
30.8686 31.7324
30.915 31.5389
30.9612 31.3792
31.0076 31.2694
31.0538 31.1839
31.1002 31.1117
31.1464 30.9552
31.1928 30.7921
31.2391 30.9166
31.2855 30.7678
31.3317 30.73
31.3781 30.8054
31.4244 30.8825
31.4708 30.8049
31.5171 30.703
31.5636 30.7445
31.6098 30.3862
31.6563 30.3212
31.7026 30.1794
31.7491 30.0674
31.7953 30.134
31.8418 30.0301
31.8881 30.0859
31.9346 30.1445
31.9809 29.9921
32.0275 29.8444
32.074 29.8123
32.1203 29.595
32.1668 29.4357
32.2132 29.3829
32.2597 29.1966
32.306 29.1285
32.3526 28.94
32.399 28.8462
32.4455 28.7203
32.4919 28.6089
32.5385 28.5858
32.5848 28.4341
32.6314 28.4396
32.6778 28.4107
32.7244 28.2124
32.7708 28.1125
32.8174 28.1575
32.8638 27.954
32.9104 27.9935
32.9569 27.9073
33.0035 27.8027
33.0499 27.8479
33.0966 27.755
33.143 27.7368
33.1897 27.5702
33.2361 27.6277
33.2828 27.5532
33.3293 27.3153
33.3759 27.319
33.4226 27.1792
33.4691 27.1301
33.5158 26.9867
33.5623 26.8362
33.609 26.6808
33.6555 26.5776
33.7022 26.6163
33.7487 26.4397
33.7954 26.4278
33.842 26.254
33.8887 26.316
33.9353 26.2196
33.982 26.1511
34.0286 26.0237
34.0753 25.9682
34.1219 25.8232
34.1687 25.7051
34.2152 25.7195
34.262 25.5252
34.3086 25.5106
34.3554 25.4832
34.402 25.3171
34.4488 25.2805
34.4954 25.2526
34.5422 25.0951
34.5889 24.9915
34.6357 24.9281
34.6825 24.8939
34.7292 24.7905
34.776 24.7504
34.8227 24.6511
34.8695 24.5105
34.9162 24.5473
34.9631 24.4124
35.0098 24.4174
35.0566 24.2477
35.1033 24.1788
35.1502 24.1912
35.1969 24.1242
35.2438 24.1487
35.2906 23.9564
35.3375 23.9932
35.3842 23.9478
35.4311 23.9368
35.4779 23.8997
35.5248 23.8028
35.5716 23.7801
35.6185 23.6003
35.6653 23.5475
35.7123 23.5089
35.759 23.4394
35.806 23.3692
35.8528 23.163
35.8998 23.214
35.9468 23.0444
35.9936 23.0297
36.0406 23.0592
36.0874 22.9718
36.1345 22.9289
36.1813 22.7607
36.2283 22.635
36.2752 22.5563
36.3222 22.6396
36.3691 22.4725
36.4161 22.3429
36.463 22.3949
36.5101 22.3312
36.557 22.3304
36.6041 22.1092
36.651 22.1919
36.6981 22.0754
36.745 22.0671
36.7921 21.9318
36.839 21.8177
36.8861 21.79
36.9331 21.7189
36.9802 21.6408
37.0272 21.5847
37.0743 21.5131
37.1213 21.4572
37.1684 21.3936
37.2154 21.2699
37.2626 21.1951
37.3098 21.1351
37.3568 21.0942
37.404 21.0725
37.451 20.9494
37.4982 20.8528
37.5452 20.7813
37.5924 20.7558
37.6395 20.7522
37.6867 20.6204
37.7337 20.5848
37.781 20.4638
37.8281 20.4381
37.8753 20.336
37.9224 20.2821
37.9697 20.2813
38.0168 20.1167
38.064 20.1219
38.1111 20.0869
38.1584 19.9436
38.2056 19.9199
38.2529 19.8707
38.3 19.7962
38.3473 19.7554
38.3945 19.6691
38.4418 19.6371
38.489 19.6265
38.5363 19.4413
38.5837 19.3944
38.6309 19.4258
38.6782 19.2554
38.7254 19.156
38.7728 19.1934
38.82 19.0731
38.8674 19.0345
38.9146 18.9604
38.9621 18.8729
39.0093 18.8208
39.0567 18.8048
39.104 18.7465
39.1514 18.6908
39.1987 18.6519
39.2461 18.6138
39.2934 18.4643
39.3409 18.4023
39.3882 18.3096
39.4356 18.3766
39.483 18.3224
39.5304 18.2555
39.5778 18.2158
39.6253 18.1246
39.6726 18.0507
39.7201 18.0742
39.7675 17.9605
39.815 17.8448
39.8624 17.7779
39.9099 17.7844
39.9575 17.7279
40.0049 17.6752
40.0525 17.6082
40.0999 17.5356
40.1474 17.5144
40.1949 17.4202
40.2425 17.3328
40.2899 17.3104
40.3375 17.2875
40.385 17.2457
40.4326 17.1088
40.48 17.1062
40.5277 17.0627
40.5752 17.0013
40.6228 16.9063
40.6703 16.9306
40.718 16.8284
40.7655 16.7389
40.8132 16.7153
40.8607 16.6837
40.9084 16.6402
40.9559 16.548
41.0036 16.5507
41.0512 16.5209
41.0989 16.4066
41.1465 16.3306
41.1942 16.2893
41.242 16.1823
41.2896 16.1736
41.3373 16.1725
41.3849 16.1087
41.4327 16.0244
41.4803 15.9437
41.5281 15.9164
41.5758 15.8705
41.6236 15.7628
41.6712 15.7847
41.7191 15.7287
41.7667 15.6388
41.8146 15.6291
41.8622 15.5191
41.9101 15.4975
41.9578 15.3872
42.0057 15.3856
42.0534 15.3674
42.1013 15.3004
42.149 15.2663
42.1969 15.1705
42.2446 15.1583
42.2925 15.1398
42.3403 15.0337
42.3882 15.0042
42.436 14.992
42.4839 14.8436
42.5319 14.8469
42.5797 14.7872
42.6277 14.7193
42.6755 14.6799
42.7235 14.6476
42.7713 14.6009
42.8193 14.5249
42.8671 14.4205
42.9152 14.4199
42.963 14.3657
43.0111 14.3438
43.0589 14.3063
43.107 14.2178
43.1549 14.1976
43.2029 14.1183
43.2508 14.1449
43.2989 14.0537
43.3468 14.0181
43.3949 13.9286
43.4429 13.8808
43.491 13.8685
43.5389 13.82
43.5871 13.7524
43.635 13.7003
43.6832 13.6833
43.7312 13.6013
43.7793 13.5427
43.8273 13.5097
43.8755 13.4691
43.9237 13.3892
43.9717 13.3992
44.0199 13.3247
44.068 13.2826
44.1162 13.263
44.1642 13.2393
44.2125 13.1508
44.2606 13.0594
44.3088 13.0505
44.3569 13.0043
44.4052 12.9935
44.4533 12.9352
44.5016 12.8073
44.5497 12.8277
44.598 12.7812
44.6461 12.7615
44.6945 12.7313
44.7426 12.6565
44.791 12.5757
44.8391 12.5837
44.8875 12.556
44.9357 12.473
44.984 12.419
45.0322 12.3884
45.0806 12.3509
45.1288 12.3073
45.1773 12.2546
45.2257 12.203
45.2739 12.1973
45.3224 12.1535
45.3706 12.1035
45.4191 12.0049
45.4673 12.0497
45.5158 11.9612
45.5641 11.8402
45.6126 11.873
45.6609 11.8024
45.7094 11.7219
45.7577 11.7396
45.8063 11.6808
45.8546 11.6657
45.9031 11.6242
45.9515 11.5396
46.0001 11.5012
46.0484 11.5003
46.097 11.4727
46.1454 11.4336
46.194 11.3678
46.2424 11.3744
46.291 11.2619
46.3395 11.2673
46.3881 11.1411
46.4365 11.1915
46.4852 11.1388
46.5337 11.0808
46.5823 11.0846
46.631 10.9777
46.6795 10.9812
46.7282 10.9112
46.7767 10.9356
46.8254 10.8485
46.8739 10.7838
46.9226 10.7552
46.9712 10.6888
47.0199 10.6803
47.0685 10.6354
47.1173 10.5804
47.1658 10.6095
47.2146 10.5433
47.2632 10.4832
47.312 10.4207
47.3606 10.3822
47.4095 10.3694
47.4581 10.3214
47.5069 10.309
47.5556 10.2597
47.6044 10.2375
47.6531 10.1887
47.702 10.147
47.7507 10.0922
47.7996 10.0996
47.8483 10.0391
47.8972 10.0203
47.9461 9.9495
47.9948 9.91941
48.0438 9.87288
48.0925 9.8685
48.1415 9.80145
48.1902 9.77532
48.2392 9.75785
48.288 9.7041
48.337 9.70672
48.3858 9.63575
48.4348 9.63998
48.4837 9.58495
48.5327 9.54632
48.5815 9.53689
48.6306 9.50415
48.6795 9.43951
48.7285 9.39857
48.7774 9.40355
48.8265 9.3677
48.8754 9.28228
48.9245 9.25796
48.9734 9.2351
49.0226 9.17567
49.0715 9.14182
49.1206 9.09614
49.1696 9.11328
49.2188 9.06163
49.2679 9.04203
49.3169 8.99833
49.3661 8.97309
49.4151 8.90444
49.4643 8.89808
49.5134 8.84397
49.5626 8.77806
49.6117 8.79353
49.6609 8.767
49.71 8.68402
49.7592 8.66024
49.8083 8.60212
49.8576 8.57146
49.9067 8.54592
49.956 8.54892
50.0052 8.49691
50.0545 8.47731
50.1036 8.45377
50.153 8.42118
50.2022 8.37582
50.2515 8.34233
50.3007 8.29631
50.3501 8.27033
50.3993 8.26397
50.4487 8.21961
50.498 8.16986
50.5474 8.14651
50.5966 8.12533
50.6461 8.09898
50.6955 8.08939
50.7448 8.03457
50.7943 8.01207
50.8436 7.97982
50.8931 7.95653
50.9424 7.91436
50.9919 7.87355
51.0413 7.85758
51.0908 7.83144
51.1402 7.78401
51.1897 7.73762
51.2391 7.73762
51.2887 7.68451
51.3381 7.65769
51.3877 7.65875
51.4371 7.58671
51.4867 7.58782
51.5362 7.52859
51.5858 7.52277
51.6353 7.4639
51.6849 7.42212
51.7344 7.39618
51.7841 7.39853
51.8336 7.34597
51.8833 7.33265
51.9328 7.28577
51.9826 7.19552
52.0323 7.22718
52.0818 7.19667
52.1316 7.14596
52.1812 7.16816
52.231 7.1519
52.2806 7.05835
52.3304 7.07124
52.38 7.01595
52.4298 6.98609
52.4794 6.94811
52.5293 6.9434
52.5789 6.91697
52.6288 6.89046
52.6785 6.83058
52.7284 6.81402
52.7781 6.7868
52.828 6.75108
52.8777 6.72319
52.9276 6.68727
52.9774 6.68214
53.0273 6.69931
53.0771 6.63032
53.1271 6.63339
53.1769 6.55699
53.2269 6.5307
53.2767 6.55007
53.3267 6.50019
53.3765 6.4646
53.4266 6.43226
53.4766 6.40204
53.5265 6.3322
53.5765 6.37226
53.6264 6.35322
53.6765 6.30186
53.7264 6.28264
53.7765 6.25967
53.8265 6.2458
53.8766 6.21148
53.9266 6.15996
53.9767 6.10535
54.0267 6.14532
54.0769 6.07617
54.1269 6.05528
54.1771 6.0125
54.2271 5.9274
54.2773 5.95865
54.3274 5.90131
54.3776 5.89606
54.4277 5.8771
54.478 5.8146
54.528 5.79688
54.5783 5.77436
54.6285 5.69477
54.6788 5.67728
54.7289 5.63412
54.7792 5.56926
54.8296 5.53843
54.8798 5.50379
54.9301 5.48598
54.9803 5.45444
55.0307 5.39993
55.0809 5.37355
55.1314 5.35736
55.1816 5.28523
55.232 5.24469
55.2823 5.25239
55.3328 5.16834
55.383 5.08279
55.4335 5.08118
55.4838 4.96789
55.5344 4.97748
55.5847 4.92438
55.6352 4.89846
55.6856 4.88373
55.7361 4.79732