File: XRD/Ni3Fe_FD0403.xy
TT I
1.27165 7.92643
1.31627 7.03018
1.36089 6.56976
1.40551 6.60598
1.45013 6.24269
1.49476 6.07135
1.53938 5.94356
1.584 5.83481
1.62863 5.31285
1.67325 4.79551
1.71787 5.37645
1.7625 5.1726
1.80712 4.82399
1.85174 4.63077
1.89636 4.62644
1.94099 4.76281
1.98562 4.64556
2.03025 5.30702
2.07487 4.39338
2.11949 4.68717
2.16411 5.10393
2.20874 16.0285
2.25338 26.5925
2.298 6.61868
2.34263 5.28734
2.38725 5.25532
2.43188 5.32569
2.4765 6.38762
2.52115 6.68229
2.56577 6.74253
2.6104 7.36658
2.65503 6.75541
2.69965 7.46762
2.7443 7.82819
2.78893 7.72717
2.83356 8.32554
2.87818 8.2849
2.92281 8.5596
2.96744 8.95382
3.01209 10.5503
3.05672 10.8847
3.10135 12.012
3.14599 12.8786
3.19062 14.3842
3.23527 15.0234
3.2799 15.7937
3.32454 17.2998
3.36917 17.8552
3.4138 19.2604
3.45844 20.2154
3.50309 21.4643
3.54773 21.9477
3.59237 24.9148
3.637 108.075
3.68164 66.7379
3.7263 27.2683
3.77094 26.8987
3.81558 27.1928
3.86022 28.0919
3.90486 29.6358
3.9495 30.1973
3.99416 31.3607
4.0388 33.0362
4.08344 34.1406
4.12809 35.4885
4.17273 37.5786
4.21738 44.8748
4.26204 291.346
4.30669 257.879
4.35133 50.6904
4.39598 46.0165
4.44063 55.9595
4.4853 70.0068
4.52995 52.2971
4.5746 52.2888
4.61925 54.2713
4.6639 56.4322
4.70855 59.6452
4.75322 62.4974
4.79788 65.1312
4.84253 68.4041
4.88719 72.7952
4.93184 76.4307
4.97652 82.9073
5.02118 88.9192
5.06583 97.2772
5.11049 110.484
5.15515 197.725
5.19981 433.149
5.24449 2984.37
5.28916 11705.0
5.33382 3619.82
5.37848 225.055
5.42315 138.622
5.46783 119.625
5.5125 110.164
5.55716 105.121
5.60183 101.426
5.6465 99.697
5.69117 96.6431
5.73586 94.7166
5.78053 94.1654
5.8252 94.1219
5.86988 95.0841
5.91455 97.9867
5.95924 106.797
6.00392 233.464
6.0486 1035.17
6.09328 3936.31
6.13795 3487.51
6.18263 307.524
6.22733 100.747
6.27201 87.3134
6.3167 110.457
6.36138 84.7995
6.40606 70.9861
6.45075 69.096
6.49545 67.0564
6.54014 65.3603
6.58483 64.6907
6.62952 64.9055
6.67421 101.27
6.71892 164.176
6.76361 72.3809
6.8083 60.4148
6.853 58.7471
6.89769 58.7932
6.94239 58.0362
6.98711 57.2348
7.03181 56.9988
7.07651 56.6224
7.12121 56.8567
7.16591 57.491
7.21063 57.2152
7.25533 74.1622
7.30004 208.23
7.34475 101.075
7.38945 58.4602
7.43416 56.0262
7.47889 55.7892
7.5236 56.1762
7.56831 56.6814
7.61303 58.7358
7.65774 59.0818
7.70247 57.5518
7.74719 57.5899
7.79191 57.8946
7.83663 58.1384
7.88135 58.8634
7.92607 60.1765
7.97081 61.3487
8.01553 62.1899
8.06026 63.7651
8.10498 65.328
8.14971 76.611
8.19446 75.1688
8.23919 71.023
8.28392 73.2185
8.32865 76.0256
8.37339 79.9609
8.41812 88.0457
8.46288 122.408
8.50761 178.185
8.55235 418.579
8.59709 1093.55
8.64183 2083.85
8.68658 1124.66
8.73134 199.623
8.77609 104.778
8.82083 95.9709
8.86558 92.6064
8.91033 92.8083
8.9551 94.7644
8.99985 87.3478
9.04461 85.4146
9.08936 84.305
9.13412 83.7643
9.17888 83.7219
9.22365 84.911
9.26841 83.7161
9.31318 84.5368
9.35794 84.4122
9.4027 84.7451
9.44749 85.4797
9.49226 86.0859
9.53703 87.0932
9.5818 89.1955
9.62657 94.3979
9.67134 102.254
9.71614 96.2369
9.76091 96.135
9.80569 98.4946
9.85047 102.171
9.89525 130.668
9.94005 145.661
9.98484 187.543
10.0296 366.026
10.0744 775.458
10.1192 1580.81
10.164 1742.77
10.2088 511.4
10.2536 141.885
10.2984 118.558
10.3432 120.418
10.388 107.88
10.4328 123.294
10.4776 166.817
10.5224 270.482
10.5672 480.317
10.612 539.975
10.6568 230.283
10.7017 102.991
10.7465 89.1982
10.7913 85.2973
10.8361 83.1239
10.8809 80.7417
10.9257 80.4958
10.9706 81.7072
11.0154 76.9126
11.0602 74.5383
11.105 73.5158
11.1499 78.6901
11.1947 88.6337
11.2395 77.6088
11.2844 72.9404
11.3292 68.9772
11.374 67.4703
11.4189 67.0216
11.4637 66.5095
11.5086 67.2556
11.5534 71.0219
11.5983 67.5661
11.6431 65.0939
11.688 64.302
11.7328 64.4027
11.7777 64.422
11.8225 63.8974
11.8674 63.8634
11.9122 64.212
11.9571 64.2449
12.002 64.9175
12.0468 69.5117
12.0917 82.1912
12.1366 103.486
12.1814 145.678
12.2263 199.796
12.2712 183.355
12.3161 108.235
12.3609 74.2462
12.4058 66.7298
12.4507 65.8875
12.4956 66.0009
12.5405 66.1133
12.5853 67.0138
12.6302 76.5487
12.6751 83.3746
12.72 72.5191
12.7649 69.6012
12.8098 69.8298
12.8547 70.9839
12.8996 72.5653
12.9445 73.5222
12.9894 75.5444
13.0343 77.2748
13.0792 80.7131
13.1242 90.3467
13.1691 116.931
13.214 152.396
13.2589 226.663
13.3038 343.011
13.3487 429.518
13.3937 296.195
13.4386 138.413
13.4835 109.962
13.5285 125.411
13.5734 159.179
13.6183 231.692
13.6633 328.452
13.7082 354.931
13.7531 217.006
13.7981 106.904
13.843 84.1381
13.888 81.7347
13.9329 78.8514
13.9779 77.3992
14.0228 76.1311
14.0678 74.7088
14.1127 74.3143
14.1577 74.5918
14.2027 73.4337
14.2476 71.9567
14.2926 72.2953
14.3376 73.7267
14.3825 72.0729
14.4275 70.5017
14.4725 70.2572
14.5175 70.3552
14.5624 70.5205
14.6074 73.1561
14.6524 73.7458
14.6974 72.3404
14.7424 73.5784
14.7874 81.1681
14.8324 91.8666
14.8774 111.096
14.9224 146.7
14.9674 195.859
15.0124 219.077
15.0574 165.133
15.1024 101.043
15.1474 75.3628
15.1924 72.5781
15.2374 73.2936
15.2824 72.4711
15.3274 70.2155
15.3725 68.6107
15.4175 68.0175
15.4625 67.606
15.5076 68.0127
15.5526 68.1781
15.5976 67.3968
15.6426 68.2899
15.6877 74.2706
15.7327 82.6456
15.7778 95.9809
15.8228 121.365
15.8679 160.317
15.9129 193.546
15.958 170.463
16.003 108.195
16.0481 71.9682
16.0931 67.0475
16.1382 64.7979
16.1833 62.0398
16.2283 60.6438
16.2734 60.0135
16.3185 60.3979
16.3636 61.4821
16.4086 59.5729
16.4537 57.9131
16.4988 56.9562
16.5439 56.7447
16.589 56.592
16.6341 56.1627
16.6792 55.7153
16.7243 56.3575
16.7694 56.4266
16.8145 56.2062
16.8596 56.4593
16.9047 58.6261
16.9498 58.7416
16.9949 57.2061
17.04 57.1592
17.0851 58.4394
17.1302 60.281
17.1754 63.1637
17.2205 67.0189
17.2656 73.7184
17.3108 82.1076
17.3559 83.712
17.401 74.4388
17.4462 64.6976
17.4913 60.7633
17.5365 60.5496
17.5815 60.5535
17.6268 60.8099
17.6718 61.9226
17.7171 62.5438
17.7622 62.7032
17.8074 63.118
17.8525 65.8562
17.8977 70.1033
17.9428 75.7202
17.9881 83.3905
18.0331 97.6955
18.0784 117.17
18.1237 137.377
18.1688 137.912
18.214 112.192
18.2591 90.1125
18.3044 89.7459
18.3495 98.2465
18.3948 106.745
18.4399 101.543
18.4852 82.61
18.5303 68.6397
18.5756 63.7301
18.6207 62.7759
18.666 61.8519
18.7112 61.2079
18.7565 60.4982
18.8016 60.004
18.8469 59.5932
18.892 59.125
18.9374 58.5839
18.9825 58.4695
19.0278 58.4724
19.073 58.5303
19.1183 58.8087
19.1635 60.1229
19.2088 61.0554
19.254 63.1018
19.2993 66.8865
19.3447 72.2912
19.3898 77.2858
19.4352 75.1788
19.4804 66.4729
19.5257 59.2961
19.5709 55.6982
19.6163 55.2437
19.6615 55.0285
19.7068 54.7386
19.752 54.6033
19.7974 54.8558
19.8426 55.8777
19.888 56.5217
19.9332 57.5014
19.9786 59.5724
20.0238 62.5322
20.0692 67.1996
20.1144 70.9575
20.1598 70.4471
20.205 65.726
20.2504 63.1747
20.2957 64.0181
20.3411 66.1906
20.3863 66.2801
20.4318 61.2991
20.477 55.8184
20.5224 53.2119
20.5677 52.3267
20.6131 51.5075
20.6586 51.0671
20.7038 50.7512
20.7493 50.4328
20.7945 50.3036
20.84 50.0559
20.8853 49.8244
20.9307 49.6428
20.976 49.9681
21.0215 50.0108
21.0668 50.1682
21.1122 50.6507
21.1575 51.2526
21.203 51.7757
21.2483 52.5203
21.2938 52.6467
21.3391 51.6007
21.3846 50.4282
21.4299 49.6991
21.4754 49.6504
21.5207 49.8342
21.5662 49.9768
21.6116 50.3681
21.6571 51.177
21.7024 52.1166
21.7479 53.6247
21.7933 55.9169
21.8388 59.2051
21.8843 62.8516
21.9297 65.6333
21.9752 65.7416
22.0206 62.1941
22.0661 58.0624
22.1115 57.0923
22.157 57.2369
22.2024 56.1128
22.248 53.2583
22.2933 51.4445
22.3389 50.3263
22.3843 50.359
22.4299 50.1933
22.4753 50.0751
22.5208 49.7083
22.5662 49.6516
22.6118 50.0527
22.6572 50.1745
22.7028 50.5225
22.7483 50.7696
22.7939 51.535
22.8393 52.9046
22.8849 54.704
22.9303 56.3456
22.9759 58.4939
23.0214 59.0722
23.067 56.7563
23.1126 52.987
23.1581 50.6655
23.2037 49.9695
23.2492 50.2127
23.2948 50.1774
23.3403 50.3527
23.3859 51.0333
23.4314 51.8497
23.477 53.2954
23.5225 55.2091
23.5682 57.3132
23.6137 59.0293
23.6593 57.6226
23.7048 53.8083
23.7505 50.1176
23.796 48.1073
23.8417 47.2759
23.8872 46.7715
23.9329 46.395
23.9784 46.0029
24.0241 45.7057
24.0697 45.5284
24.1154 45.2909
24.1609 45.2321
24.2066 44.8585
24.2522 44.7725
24.2979 44.4974
24.3434 44.5427
24.3892 44.2478
24.4349 44.137
24.4805 43.9982
24.5262 44.0457
24.5718 44.0425
24.6175 43.9204
24.6631 43.971
24.7089 43.5702
24.7545 43.4682
24.8002 43.2971
24.8458 43.232
24.8916 43.083
24.9372 43.1877
24.983 43.5323
25.0286 43.9583
25.0744 44.1158
25.12 44.5711
25.1658 45.272
25.2114 45.6288
25.2572 45.719
25.3029 45.7299
25.3487 45.9071
25.3943 45.9634
25.4402 45.1154
25.4858 43.7536
25.5316 42.6907
25.5773 42.028
25.6231 41.8919
25.669 41.4398
25.7147 41.6516
25.7605 41.5358
25.8062 41.5533
25.8521 41.7506
25.8977 41.5729
25.9436 41.8671
25.9893 41.7866
26.0352 42.3398
26.0809 42.4783
26.1268 42.8895
26.1725 42.5336
26.2184 41.9793
26.2641 41.3609
26.31 41.1675
26.3557 41.1726
26.4017 41.0611
26.4474 41.4265
26.4933 41.6999
26.5391 42.0854
26.585 42.4424
26.6308 42.9778
26.6767 43.1204
26.7225 42.9105
26.7684 42.5611
26.8142 41.9846
26.8601 41.4904
26.9059 41.0585
26.9519 40.5964
26.9979 40.2077
27.0437 40.0035
27.0896 39.6295
27.1354 39.6552
27.1814 39.5612
27.2272 39.3648
27.2732 39.5164
27.3191 39.1476
27.3651 39.4746
27.4109 39.2445
27.4569 39.4203
27.5027 39.4208
27.5488 39.4563
27.5946 39.3422
27.6407 39.1244
27.6865 38.998
27.7326 38.835
27.7784 38.761
27.8245 38.7695
27.8703 38.9083
27.9164 39.0875
27.9623 39.1814
28.0084 39.4699
28.0543 39.7798
28.1003 39.9727
28.1462 39.6916
28.1923 39.4542
28.2384 38.9441
28.2843 38.5847
28.3304 38.288
28.3764 37.777
28.4225 37.3701
28.4684 37.1772
28.5145 36.8162
28.5605 36.7795
28.6066 36.5494
28.6526 36.5081
28.6987 36.5481
28.7447 36.2755
28.7908 36.2292
28.8368 36.2414
28.8829 36.1935
28.9289 36.1951
28.9751 35.9696
29.0211 35.9171
29.0673 35.6368
29.1133 35.4762
29.1595 35.1935
29.2055 35.2089
29.2517 35.0995
29.2977 35.0801
29.3439 35.0648
29.3899 35.1491
29.4361 34.9935
29.4824 34.8966
29.5284 34.715
29.5746 34.251
29.6207 33.971
29.6669 33.9146
29.713 33.7482
29.7593 33.676
29.8053 33.6634
29.8516 33.6702
29.8977 33.5158
29.9439 33.4548
29.99 33.4141
30.0363 33.2321
30.0824 33.2445
30.1287 33.1514
30.1748 33.2664
30.2211 33.1492
30.2673 32.9996
30.3136 33.2398
30.3597 33.0131
30.406 33.0533
30.4522 32.9146
30.4985 32.7496
30.5447 32.8572
30.591 32.884
30.6372 32.9865
30.6835 32.916
30.7297 32.961
30.7761 32.9259
30.8224 32.8051
30.8686 32.6421
30.915 32.4759
30.9612 32.4598
31.0076 32.031
31.0538 31.9566
31.1002 31.9537
31.1464 31.6388
31.1928 31.7389
31.2391 31.7778
31.2855 31.5953
31.3317 31.5558
31.3781 31.6047
31.4244 31.6016
31.4708 31.5193
31.5171 31.5335
31.5636 31.3976
31.6098 31.305
31.6563 31.0752
31.7026 30.9306
31.7491 30.8042
31.7953 30.9108
31.8418 30.8158
31.8881 30.8363
31.9346 30.8386
31.9809 30.7625
32.0275 30.6463
32.074 30.563
32.1203 30.3524
32.1668 30.2612
32.2132 30.2353
32.2597 30.0305
32.306 29.9402
32.3526 29.6574
32.399 29.6944
32.4455 29.4496
32.4919 29.4277
32.5385 29.3754
32.5848 29.0644
32.6314 29.159
32.6778 29.099
32.7244 28.9404
32.7708 28.8256
32.8174 28.8756
32.8638 28.6865
32.9104 28.7187
32.9569 28.6511
33.0035 28.4854
33.0499 28.6077
33.0966 28.4608
33.143 28.5608
33.1897 28.2771
33.2361 28.2454
33.2828 28.2394
33.3293 28.1147
33.3759 28.0771
33.4226 28.0055
33.4691 27.7327
33.5158 27.7296
33.5623 27.6506
33.609 27.4609
33.6555 27.352
33.7022 27.2624
33.7487 27.1733
33.7954 27.102
33.842 27.0031
33.8887 26.9209
33.9353 26.9168
33.982 26.828
34.0286 26.6708
34.0753 26.6606
34.1219 26.5142
34.1687 26.3854
34.2152 26.3948
34.262 26.2568
34.3086 26.2229
34.3554 26.179
34.402 26.0062
34.4488 25.9015
34.4954 25.9179
34.5422 25.7697
34.5889 25.7078
34.6357 25.5985
34.6825 25.5152
34.7292 25.4569
34.776 25.2564
34.8227 25.1865
34.8695 25.23
34.9162 25.1921
34.9631 25.0419
35.0098 25.06
35.0566 24.9774
35.1033 24.7783
35.1502 24.8683
35.1969 24.7928
35.2438 24.7731
35.2906 24.6885
35.3375 24.6299
35.3842 24.5531
35.4311 24.5197
35.4779 24.4004
35.5248 24.4588
35.5716 24.3849
35.6185 24.2051
35.6653 24.1177
35.7123 24.0105
35.759 23.9807
35.806 23.8904
35.8528 23.7998
35.8998 23.702
35.9468 23.6733
35.9936 23.6507
36.0406 23.5914
36.0874 23.5887
36.1345 23.4337
36.1813 23.3531
36.2283 23.3032
36.2752 23.1325
36.3222 23.2089
36.3691 23.1408
36.4161 23.0538
36.463 22.9991
36.5101 22.9924
36.557 22.867
36.6041 22.7549
36.651 22.6754
36.6981 22.5772
36.745 22.5524
36.7921 22.5062
36.839 22.3318
36.8861 22.3358
36.9331 22.2846
36.9802 22.2104
37.0272 22.0544
37.0743 22.0722
37.1213 22.0546
37.1684 21.9679
37.2154 21.7919
37.2626 21.7838
37.3098 21.788
37.3568 21.6073
37.404 21.5904
37.451 21.5029
37.4982 21.467
37.5452 21.3526
37.5924 21.3317
37.6395 21.3196
37.6867 21.2676
37.7337 21.146
37.781 21.0565
37.8281 21.0584
37.8753 20.8597
37.9224 20.7846
37.9697 20.771
38.0168 20.7149
38.064 20.6016
38.1111 20.5935
38.1584 20.4464
38.2056 20.4867
38.2529 20.3204
38.3 20.3494
38.3473 20.2383
38.3945 20.1623
38.4418 20.1428
38.489 20.1109
38.5363 20.0392
38.5837 19.9373
38.6309 19.832
38.6782 19.7834
38.7254 19.6851
38.7728 19.6941
38.82 19.6344
38.8674 19.5332
38.9146 19.481
38.9621 19.4616
39.0093 19.3627
39.0567 19.3619
39.104 19.2547
39.1514 19.1842
39.1987 19.0455
39.2461 19.0238
39.2934 18.9927
39.3409 18.9116
39.3882 18.8382
39.4356 18.8822
39.483 18.7823
39.5304 18.7231
39.5778 18.6773
39.6253 18.6002
39.6726 18.5595
39.7201 18.4644
39.7675 18.3947
39.815 18.3667
39.8624 18.3122
39.9099 18.2755
39.9575 18.1624
40.0049 18.1468
40.0525 18.0726
40.0999 18.0316
40.1474 17.968
40.1949 17.9184
40.2425 17.7809
40.2899 17.787
40.3375 17.7085
40.385 17.7172
40.4326 17.544
40.48 17.5286
40.5277 17.5075
40.5752 17.4286
40.6228 17.3967
40.6703 17.3717
40.718 17.2889
40.7655 17.1876
40.8132 17.1291
40.8607 17.126
40.9084 17.0723
40.9559 16.9802
41.0036 17.0169
41.0512 16.9013
41.0989 16.9001
41.1465 16.8045
41.1942 16.7315
41.242 16.6392
41.2896 16.6562
41.3373 16.5709
41.3849 16.4785
41.4327 16.4455
41.4803 16.3952
41.5281 16.3236
41.5758 16.2633
41.6236 16.1957
41.6712 16.1602
41.7191 16.0951
41.7667 16.0779
41.8146 16.1207
41.8622 15.9394
41.9101 15.8898
41.9578 15.8118
42.0057 15.8103
42.0534 15.7647
42.1013 15.7354
42.149 15.6844
42.1969 15.6041
42.2446 15.5271
42.2925 15.4619
42.3403 15.4156
42.3882 15.4065
42.436 15.3571
42.4839 15.2518
42.5319 15.2381
42.5797 15.1719
42.6277 15.1264
42.6755 15.1088
42.7235 15.0385
42.7713 14.9801
42.8193 14.9068
42.8671 14.9173
42.9152 14.8552
42.963 14.762
43.0111 14.6619
43.0589 14.653
43.107 14.6263
43.1549 14.5009
43.2029 14.5426
43.2508 14.4851
43.2989 14.4262
43.3468 14.3424
43.3949 14.3071
43.4429 14.2709
43.491 14.156
43.5389 14.1811
43.5871 14.1289
43.635 14.0348
43.6832 14.054
43.7312 13.9965
43.7793 13.914
43.8273 13.8935
43.8755 13.7909
43.9237 13.8075
43.9717 13.7276
44.0199 13.6554
44.068 13.6405
44.1162 13.5573
44.1642 13.5478
44.2125 13.5005
44.2606 13.4207
44.3088 13.3945
44.3569 13.3208
44.4052 13.3015
44.4533 13.2605
44.5016 13.2518
44.5497 13.1846
44.598 13.1283
44.6461 13.1029
44.6945 12.9953
44.7426 13.011
44.791 12.9218
44.8391 12.9431
44.8875 12.824
44.9357 12.8064
44.984 12.7636
45.0322 12.7479
45.0806 12.6253
45.1288 12.6411
45.1773 12.5776
45.2257 12.5081
45.2739 12.4716
45.3224 12.4361
45.3706 12.4209
45.4191 12.3126
45.4673 12.3504
45.5158 12.3166
45.5641 12.2152
45.6126 12.1922
45.6609 12.1164
45.7094 12.1003
45.7577 12.0768
45.8063 11.9904
45.8546 12.0041
45.9031 11.9276
45.9515 11.8937
46.0001 11.8106
46.0484 11.8033
46.097 11.7543
46.1454 11.7379
46.194 11.6978
46.2424 11.6315
46.291 11.5828
46.3395 11.5544
46.3881 11.502
46.4365 11.4763
46.4852 11.428
46.5337 11.427
46.5823 11.3614
46.631 11.2392
46.6795 11.2318
46.7282 11.198
46.7767 11.2013
46.8254 11.0967
46.8739 11.0759
46.9226 11.0474
46.9712 11.0171
47.0199 10.9843
47.0685 10.9194
47.1173 10.8778
47.1658 10.8277
47.2146 10.8402
47.2632 10.7917
47.312 10.7657
47.3606 10.6677
47.4095 10.633
47.4581 10.588
47.5069 10.5492
47.5556 10.5024
47.6044 10.5001
47.6531 10.4461
47.702 10.4158
47.7507 10.3801
47.7996 10.3146
47.8483 10.3128
47.8972 10.2841
47.9461 10.2123
47.9948 10.1753
48.0438 10.1447
48.0925 10.1374
48.1415 10.0823
48.1902 10.0142
48.2392 10.0157
48.288 9.9833
48.337 9.95786
48.3858 9.91777
48.4348 9.84785
48.4837 9.85731
48.5327 9.78478
48.5815 9.76983
48.6306 9.70966
48.6795 9.69486
48.7285 9.61559
48.7774 9.609
48.8265 9.58368
48.8754 9.51783
48.9245 9.51039
48.9734 9.47357
49.0226 9.44057
49.0715 9.38196
49.1206 9.38466
49.1696 9.32046
49.2188 9.30469
49.2679 9.2686
49.3169 9.22908
49.3661 9.15841
49.4151 9.17627
49.4643 9.14608
49.5134 9.0498
49.5626 9.01887
49.6117 9.00951
49.6609 8.99163
49.71 8.94984
49.7592 8.89084
49.8083 8.8768
49.8576 8.83851
49.9067 8.78876
49.956 8.79757
50.0052 8.73755
50.0545 8.73029
50.1036 8.67091
50.153 8.61387
50.2022 8.6082
50.2515 8.54321
50.3007 8.52937
50.3501 8.4546
50.3993 8.46119
50.4487 8.46888
50.498 8.40215
50.5474 8.36122
50.5966 8.31794
50.6461 8.30619
50.6955 8.31975
50.7448 8.28514
50.7943 8.21909
50.8436 8.16946
50.8931 8.18742
50.9424 8.12523
50.9919 8.08232
51.0413 8.07882
51.0908 8.02932
51.1402 7.96592
51.1897 7.94429
51.2391 7.92326
51.2887 7.89006
51.3381 7.8696
51.3877 7.85737
51.4371 7.78549
51.4867 7.76782
51.5362 7.74979
51.5858 7.68813
51.6353 7.64925
51.6849 7.61193
51.7344 7.59572
51.7841 7.6067
51.8336 7.55866
51.8833 7.52578
51.9328 7.4634
51.9826 7.42276
52.0323 7.40524
52.0818 7.40219
52.1316 7.35074
52.1812 7.36001
52.231 7.27854
52.2806 7.28213
52.3304 7.24145
52.38 7.19834
52.4298 7.22743
52.4794 7.13375
52.5293 7.11851
52.5789 7.11383
52.6288 7.08086
52.6785 7.02509
52.7284 6.94957
52.7781 6.95486
52.828 6.91928
52.8777 6.89727
52.9276 6.92525
52.9774 6.88723
53.0273 6.8096
53.0771 6.80606
53.1271 6.81524
53.1769 6.74272
53.2269 6.73815
53.2767 6.71039
53.3267 6.65193
53.3765 6.6246
53.4266 6.57756
53.4766 6.54638
53.5265 6.50178
53.5765 6.5262
53.6264 6.48949
53.6765 6.4769
53.7264 6.45261
53.7765 6.42566
53.8265 6.3559
53.8766 6.35899
53.9266 6.3353
53.9767 6.28125
54.0267 6.27892
54.0769 6.24871
54.1269 6.20774
54.1771 6.16436
54.2271 6.15293
54.2773 6.10575
54.3274 6.05797
54.3776 6.03559
54.4277 6.00964
54.478 5.97548
54.528 5.93091
54.5783 5.89676
54.6285 5.8055
54.6788 5.84074
54.7289 5.82112
54.7792 5.77142
54.8296 5.69299
54.8798 5.63368
54.9301 5.62806
54.9803 5.54406
55.0307 5.55063
55.0809 5.5195
55.1314 5.51651
55.1816 5.41597
55.232 5.30649
55.2823 5.30116
55.3328 5.27964
55.383 5.22332
55.4335 5.21636
55.4838 5.09035
55.5344 5.10749
55.5847 5.05436
55.6352 5.01037
55.6856 5.01787
55.7361 4.98211