File: XRD/Ni3Fe_FD0645.xy
TT I
1.27165 7.2382
1.31627 6.88372
1.36089 6.72247
1.40551 5.76671
1.45013 6.21085
1.49476 5.96472
1.53938 5.71237
1.584 5.06715
1.62863 5.59046
1.67325 5.59146
1.71787 5.24544
1.7625 4.96736
1.80712 4.94608
1.85174 4.20904
1.89636 5.08926
1.94099 4.87382
1.98562 4.38742
2.03025 4.70448
2.07487 4.2821
2.11949 4.92588
2.16411 4.62348
2.20874 17.0653
2.25338 28.1247
2.298 6.70663
2.34263 5.08149
2.38725 5.66213
2.43188 5.62163
2.4765 6.81601
2.52115 6.76985
2.56577 6.78651
2.6104 7.80704
2.65503 7.55763
2.69965 8.07189
2.7443 7.89661
2.78893 7.51765
2.83356 8.59564
2.87818 8.94061
2.92281 9.23159
2.96744 9.93826
3.01209 10.3042
3.05672 11.0984
3.10135 12.6915
3.14599 13.11
3.19062 14.2464
3.23527 15.0962
3.2799 16.0348
3.32454 17.0401
3.36917 17.6322
3.4138 18.8664
3.45844 19.85
3.50309 21.4493
3.54773 22.3287
3.59237 24.7892
3.637 113.283
3.68164 70.2095
3.7263 26.6421
3.77094 26.5414
3.81558 26.906
3.86022 27.9481
3.90486 29.4719
3.9495 30.1574
3.99416 31.3254
4.0388 32.6504
4.08344 33.9277
4.12809 35.8046
4.17273 37.6336
4.21738 44.4413
4.26204 309.599
4.30669 269.184
4.35133 50.5071
4.39598 44.8706
4.44063 56.9677
4.4853 71.2684
4.52995 50.7447
4.5746 51.112
4.61925 53.8779
4.6639 55.4926
4.70855 58.1604
4.75322 60.7129
4.79788 64.074
4.84253 66.9051
4.88719 71.098
4.93184 75.0213
4.97652 80.0029
5.02118 86.1168
5.06583 93.8654
5.11049 104.958
5.15515 186.86
5.19981 336.065
5.24449 2637.76
5.28916 12610.7
5.33382 3172.06
5.37848 196.771
5.42315 130.486
5.46783 113.88
5.5125 105.866
5.55716 102.636
5.60183 98.6164
5.6465 97.2715
5.69117 94.1141
5.73586 92.2635
5.78053 91.2514
5.8252 90.5886
5.86988 91.2178
5.91455 93.4149
5.95924 100.556
6.00392 192.809
6.0486 913.73
6.09328 4312.99
6.13795 3508.56
6.18263 255.308
6.22733 95.0745
6.27201 84.4668
6.3167 110.783
6.36138 83.9361
6.40606 69.6738
6.45075 67.8877
6.49545 65.924
6.54014 64.0881
6.58483 63.2974
6.62952 63.2931
6.67421 103.645
6.71892 169.829
6.76361 72.291
6.8083 59.4628
6.853 57.8827
6.89769 57.8587
6.94239 57.1506
6.98711 56.4479
7.03181 56.0835
7.07651 55.5981
7.12121 55.852
7.16591 55.966
7.21063 56.3199
7.25533 74.5133
7.30004 219.225
7.34475 103.3
7.38945 57.6344
7.43416 55.4563
7.47889 55.1918
7.5236 54.8813
7.56831 55.8365
7.61303 57.7779
7.65774 58.6998
7.70247 56.5468
7.74719 56.3355
7.79191 57.1569
7.83663 57.1211
7.88135 58.0566
7.92607 59.1116
7.97081 60.2991
8.01553 61.1827
8.06026 62.6821
8.10498 64.3839
8.14971 75.9397
8.19446 74.0636
8.23919 69.8418
8.28392 72.2188
8.32865 74.1405
8.37339 78.3976
8.41812 86.1069
8.46288 120.231
8.50761 157.896
8.55235 366.068
8.59709 1102.08
8.64183 2176.36
8.68658 1015.0
8.73134 174.581
8.77609 100.43
8.82083 93.1733
8.86558 89.948
8.91033 90.8666
8.9551 93.4546
8.99985 85.6535
9.04461 83.7259
9.08936 82.671
9.13412 82.1951
9.17888 82.131
9.22365 83.5842
9.26841 82.1834
9.31318 82.6785
9.35794 82.787
9.4027 83.2338
9.44749 83.7607
9.49226 84.4327
9.53703 85.747
9.5818 87.0726
9.62657 92.8988
9.67134 100.913
9.71614 94.3025
9.76091 93.7539
9.80569 96.0398
9.85047 100.051
9.89525 129.514
9.94005 143.232
9.98484 168.679
10.0296 325.245
10.0744 759.524
10.1192 1684.63
10.164 1635.74
10.2088 439.487
10.2536 131.065
10.2984 115.345
10.3432 118.758
10.388 105.035
10.4328 115.427
10.4776 154.222
10.5224 267.79
10.5672 497.71
10.612 516.915
10.6568 210.456
10.7017 98.3344
10.7465 87.0847
10.7913 83.3751
10.8361 81.3956
10.8809 79.3031
10.9257 79.2289
10.9706 80.5237
11.0154 75.3481
11.0602 73.0178
11.105 72.3909
11.1499 78.3569
11.1947 88.2365
11.2395 76.8112
11.2844 71.7057
11.3292 67.9219
11.374 66.4232
11.4189 66.0864
11.4637 65.5516
11.5086 66.2252
11.5534 70.2989
11.5983 66.6015
11.6431 64.2042
11.688 63.2471
11.7328 63.2981
11.7777 63.1905
11.8225 62.5816
11.8674 62.6719
11.9122 62.8626
11.9571 63.0773
12.002 63.9074
12.0468 67.3624
12.0917 78.3203
12.1366 100.208
12.1814 146.209
12.2263 203.982
12.2712 172.708
12.3161 103.245
12.3609 72.6714
12.4058 65.3148
12.4507 64.6158
12.4956 64.6857
12.5405 64.7179
12.5853 66.0109
12.6302 75.7652
12.6751 83.0121
12.72 71.5713
12.7649 68.2536
12.8098 68.5388
12.8547 69.9499
12.8996 71.1609
12.9445 72.4113
12.9894 73.9719
13.0343 75.6353
13.0792 78.6144
13.1242 86.77
13.1691 109.612
13.214 144.514
13.2589 226.768
13.3038 357.719
13.3487 432.283
13.3937 279.595
13.4386 129.057
13.4835 104.686
13.5285 117.966
13.5734 153.537
13.6183 237.539
13.6633 340.48
13.7082 347.589
13.7531 194.164
13.7981 100.269
13.843 82.0582
13.888 79.9331
13.9329 77.24
13.9779 75.9995
14.0228 74.6338
14.0678 73.2386
14.1127 72.8803
14.1577 73.0917
14.2027 71.8935
14.2476 70.5819
14.2926 70.8627
14.3376 72.448
14.3825 70.7547
14.4275 68.975
14.4725 68.7447
14.5175 69.0778
14.5624 69.2835
14.6074 71.9186
14.6524 72.4804
14.6974 70.5861
14.7424 71.5934
14.7874 77.7916
14.8324 87.1957
14.8774 107.674
14.9224 148.125
14.9674 200.22
15.0124 217.922
15.0574 152.529
15.1024 92.7997
15.1474 72.9391
15.1924 70.7453
15.2374 71.9784
15.2824 71.3607
15.3274 68.6866
15.3725 67.1801
15.4175 66.4899
15.4625 66.1661
15.5076 66.709
15.5526 66.3951
15.5976 65.9173
15.6426 66.5333
15.6877 71.4418
15.7327 78.5675
15.7778 92.6938
15.8228 121.999
15.8679 163.578
15.9129 192.944
15.958 161.991
16.003 101.704
16.0481 69.4603
16.0931 65.9108
16.1382 63.6553
16.1833 61.2808
16.2283 59.4771
16.2734 58.6777
16.3185 59.4416
16.3636 60.2904
16.4086 58.6366
16.4537 56.4634
16.4988 55.8909
16.5439 55.6792
16.589 55.5415
16.6341 55.3874
16.6792 55.026
16.7243 55.264
16.7694 55.2741
16.8145 55.2391
16.8596 55.5334
16.9047 57.593
16.9498 57.7878
16.9949 56.1565
17.04 56.0234
17.0851 56.9058
17.1302 58.6784
17.1754 61.6605
17.2205 66.0673
17.2656 73.5115
17.3108 82.4144
17.3559 83.7596
17.401 72.49
17.4462 62.6326
17.4913 59.2512
17.5365 59.3168
17.5815 59.3935
17.6268 59.7576
17.6718 60.6027
17.7171 61.2903
17.7622 61.515
17.8074 61.8962
17.8525 63.5902
17.8977 67.8097
17.9428 73.0728
17.9881 81.2832
18.0331 97.1102
18.0784 118.967
18.1237 139.311
18.1688 133.908
18.214 106.261
18.2591 86.8607
18.3044 89.5098
18.3495 99.0369
18.3948 106.051
18.4399 98.7585
18.4852 79.4952
18.5303 67.0676
18.5756 62.3188
18.6207 61.7008
18.666 60.7238
18.7112 59.9048
18.7565 59.2952
18.8016 58.9121
18.8469 58.3229
18.892 57.8749
18.9374 57.4353
18.9825 57.2893
19.0278 57.0971
19.073 57.2207
19.1183 57.6221
19.1635 58.4819
19.2088 59.6561
19.254 61.876
19.2993 66.1976
19.3447 72.7256
19.3898 77.0019
19.4352 73.4589
19.4804 64.2171
19.5257 57.404
19.5709 54.4943
19.6163 54.0947
19.6615 54.0074
19.7068 53.63
19.752 53.4153
19.7974 53.5594
19.8426 54.6814
19.888 55.1986
19.9332 56.2058
19.9786 58.4894
20.0238 61.8196
20.0692 66.8405
20.1144 69.9355
20.1598 68.4739
20.205 63.9376
20.2504 62.2115
20.2957 63.5961
20.3411 65.9983
20.3863 64.9789
20.4318 59.2223
20.477 54.0983
20.5224 52.2618
20.5677 51.3493
20.6131 50.4592
20.6586 49.8473
20.7038 49.9443
20.7493 49.4234
20.7945 49.1975
20.84 49.0136
20.8853 48.9478
20.9307 48.6839
20.976 48.836
21.0215 48.8675
21.0668 49.2701
21.1122 49.6059
21.1575 50.0678
21.203 50.9259
21.2483 51.5977
21.2938 51.6423
21.3391 50.3071
21.3846 49.3855
21.4299 48.6608
21.4754 48.4739
21.5207 48.7943
21.5662 48.8284
21.6116 49.2297
21.6571 49.9479
21.7024 51.0297
21.7479 52.4705
21.7933 55.0286
21.8388 58.6569
21.8843 62.2919
21.9297 64.8892
21.9752 64.08
22.0206 60.2009
22.0661 56.8182
22.1115 56.3415
22.157 56.3345
22.2024 54.738
22.248 51.9656
22.2933 50.1462
22.3389 49.3388
22.3843 49.2782
22.4299 49.3184
22.4753 49.2118
22.5208 48.7264
22.5662 48.7308
22.6118 48.7423
22.6572 48.899
22.7028 49.3981
22.7483 49.7884
22.7939 50.4262
22.8393 51.5803
22.8849 53.8394
22.9303 55.7569
22.9759 57.8234
23.0214 57.846
23.067 55.2731
23.1126 51.6214
23.1581 49.5399
23.2037 48.8987
23.2492 49.013
23.2948 48.8812
23.3403 49.1475
23.3859 49.6385
23.4314 50.7624
23.477 52.3676
23.5225 54.591
23.5682 56.9326
23.6137 58.183
23.6593 56.3597
23.7048 52.2105
23.7505 48.6775
23.796 46.8685
23.8417 46.3712
23.8872 45.7797
23.9329 45.6305
23.9784 45.0678
24.0241 44.8749
24.0697 44.5842
24.1154 44.4554
24.1609 44.1931
24.2066 44.1198
24.2522 43.9781
24.2979 43.7695
24.3434 43.6094
24.3892 43.2961
24.4349 43.3235
24.4805 43.1584
24.5262 43.1383
24.5718 43.045
24.6175 43.0709
24.6631 43.1453
24.7089 42.7687
24.7545 42.5287
24.8002 42.3568
24.8458 42.3409
24.8916 42.1392
24.9372 42.3551
24.983 42.5886
25.0286 42.8793
25.0744 43.3066
25.12 43.7285
25.1658 44.4051
25.2114 44.7033
25.2572 44.8005
25.3029 44.8771
25.3487 45.0159
25.3943 44.7588
25.4402 43.9281
25.4858 42.8673
25.5316 41.677
25.5773 41.1631
25.6231 41.1722
25.669 40.5796
25.7147 40.7098
25.7605 40.5923
25.8062 40.6416
25.8521 40.7626
25.8977 40.7886
25.9436 40.8789
25.9893 41.0452
26.0352 41.6
26.0809 41.6894
26.1268 41.8056
26.1725 41.7029
26.2184 41.0807
26.2641 40.4712
26.31 40.3704
26.3557 40.1238
26.4017 40.2556
26.4474 40.5581
26.4933 40.9223
26.5391 41.3895
26.585 41.795
26.6308 42.1297
26.6767 42.2951
26.7225 42.1036
26.7684 41.6667
26.8142 41.0076
26.8601 40.6314
26.9059 40.2587
26.9519 39.7128
26.9979 39.3536
27.0437 39.1066
27.0896 38.8048
27.1354 38.9503
27.1814 38.7374
27.2272 38.7904
27.2732 38.6828
27.3191 38.4406
27.3651 38.6034
27.4109 38.5369
27.4569 38.6823
27.5027 38.6511
27.5488 38.7373
27.5946 38.4967
27.6407 38.3259
27.6865 38.2916
27.7326 37.9901
27.7784 37.9625
27.8245 37.9375
27.8703 38.0691
27.9164 38.4087
27.9623 38.4624
28.0084 38.7502
28.0543 39.1246
28.1003 39.2456
28.1462 38.932
28.1923 38.8426
28.2384 38.1428
28.2843 37.7344
28.3304 37.4225
28.3764 36.9106
28.4225 36.4992
28.4684 36.4607
28.5145 36.136
28.5605 35.9997
28.6066 35.766
28.6526 35.6956
28.6987 35.7729
28.7447 35.595
28.7908 35.5965
28.8368 35.5688
28.8829 35.5958
28.9289 35.455
28.9751 35.3139
29.0211 35.0386
29.0673 34.7549
29.1133 34.7422
29.1595 34.5399
29.2055 34.5572
29.2517 34.4451
29.2977 34.4594
29.3439 34.3706
29.3899 34.5348
29.4361 34.3369
29.4824 34.0526
29.5284 33.9389
29.5746 33.494
29.6207 33.2694
29.6669 33.1709
29.713 33.1911
29.7593 33.0719
29.8053 33.0722
29.8516 32.8484
29.8977 32.9006
29.9439 32.8007
29.99 32.7
30.0363 32.6109
30.0824 32.6325
30.1287 32.5668
30.1748 32.6439
30.2211 32.5776
30.2673 32.4577
30.3136 32.4878
30.3597 32.4135
30.406 32.2848
30.4522 32.2359
30.4985 32.1798
30.5447 32.2194
30.591 32.2161
30.6372 32.3819
30.6835 32.3075
30.7297 32.4032
30.7761 32.414
30.8224 32.1739
30.8686 31.9068
30.915 31.7583
30.9612 31.5918
31.0076 31.4573
31.0538 31.3728
31.1002 31.2712
31.1464 31.211
31.1928 31.0443
31.2391 31.1448
31.2855 30.9383
31.3317 30.9598
31.3781 30.9969
31.4244 30.8521
31.4708 30.9299
31.5171 31.0034
31.5636 30.8543
31.6098 30.6844
31.6563 30.4926
31.7026 30.3287
31.7491 30.2735
31.7953 30.258
31.8418 30.2059
31.8881 30.1871
31.9346 30.2647
31.9809 30.119
32.0275 30.0952
32.074 29.9297
32.1203 29.7094
32.1668 29.6791
32.2132 29.5455
32.2597 29.3637
32.306 29.2733
32.3526 29.1663
32.399 29.0102
32.4455 28.8595
32.4919 28.7626
32.5385 28.8138
32.5848 28.6422
32.6314 28.6081
32.6778 28.5649
32.7244 28.4898
32.7708 28.3433
32.8174 28.2781
32.8638 28.0554
32.9104 28.2275
32.9569 28.0425
33.0035 27.9929
33.0499 27.8786
33.0966 27.9587
33.143 27.8537
33.1897 27.7995
33.2361 27.744
33.2828 27.7478
33.3293 27.5299
33.3759 27.5354
33.4226 27.352
33.4691 27.1775
33.5158 27.1124
33.5623 27.0125
33.609 26.8481
33.6555 26.8023
33.7022 26.6892
33.7487 26.6795
33.7954 26.5834
33.842 26.4173
33.8887 26.3585
33.9353 26.3408
33.982 26.2374
34.0286 26.1504
34.0753 26.1473
34.1219 26.0448
34.1687 25.8692
34.2152 25.9164
34.262 25.8017
34.3086 25.6639
34.3554 25.7132
34.402 25.5449
34.4488 25.4587
34.4954 25.3784
34.5422 25.3028
34.5889 25.1913
34.6357 25.0836
34.6825 25.0005
34.7292 24.9681
34.776 24.8693
34.8227 24.8243
34.8695 24.7197
34.9162 24.6599
34.9631 24.5959
35.0098 24.6386
35.0566 24.4859
35.1033 24.3849
35.1502 24.324
35.1969 24.289
35.2438 24.3134
35.2906 24.2331
35.3375 24.1856
35.3842 24.135
35.4311 24.0943
35.4779 24.0248
35.5248 23.975
35.5716 23.9416
35.6185 23.8447
35.6653 23.6744
35.7123 23.6888
35.759 23.5088
35.806 23.4125
35.8528 23.3754
35.8998 23.3311
35.9468 23.2321
35.9936 23.168
36.0406 23.0927
36.0874 23.121
36.1345 23.0568
36.1813 22.9071
36.2283 22.8659
36.2752 22.6763
36.3222 22.7437
36.3691 22.6717
36.4161 22.5829
36.463 22.5418
36.5101 22.5157
36.557 22.4674
36.6041 22.2768
36.651 22.2752
36.6981 22.2465
36.745 22.1075
36.7921 22.1327
36.839 21.9732
36.8861 21.9407
36.9331 21.8024
36.9802 21.7376
37.0272 21.5977
37.0743 21.58
37.1213 21.5323
37.1684 21.6083
37.2154 21.4288
37.2626 21.3528
37.3098 21.3239
37.3568 21.2239
37.404 21.1695
37.451 21.1199
37.4982 21.0415
37.5452 21.0608
37.5924 20.9038
37.6395 20.8844
37.6867 20.8019
37.7337 20.7283
37.781 20.6384
37.8281 20.6007
37.8753 20.3888
37.9224 20.4037
37.9697 20.4059
38.0168 20.297
38.064 20.2486
38.1111 20.215
38.1584 20.1523
38.2056 20.0033
38.2529 20.0136
38.3 19.9205
38.3473 19.9243
38.3945 19.7824
38.4418 19.7587
38.489 19.709
38.5363 19.5707
38.5837 19.5402
38.6309 19.5133
38.6782 19.3904
38.7254 19.3379
38.7728 19.3007
38.82 19.2386
38.8674 19.2166
38.9146 19.0467
38.9621 19.0534
39.0093 19.0018
39.0567 18.9244
39.104 18.8445
39.1514 18.7564
39.1987 18.7871
39.2461 18.6688
39.2934 18.6641
39.3409 18.5333
39.3882 18.4918
39.4356 18.4393
39.483 18.4012
39.5304 18.2981
39.5778 18.3251
39.6253 18.2873
39.6726 18.1449
39.7201 18.1689
39.7675 18.1242
39.815 18.0074
39.8624 17.9235
39.9099 17.9284
39.9575 17.802
40.0049 17.8148
40.0525 17.6965
40.0999 17.6263
40.1474 17.5812
40.1949 17.5406
40.2425 17.4154
40.2899 17.4008
40.3375 17.377
40.385 17.322
40.4326 17.2358
40.48 17.2109
40.5277 17.2098
40.5752 17.1232
40.6228 16.998
40.6703 17.0171
40.718 16.9963
40.7655 16.8605
40.8132 16.8288
40.8607 16.8585
40.9084 16.7492
40.9559 16.6802
41.0036 16.6025
41.0512 16.5955
41.0989 16.5239
41.1465 16.4531
41.1942 16.4171
41.242 16.3311
41.2896 16.3286
41.3373 16.2604
41.3849 16.2238
41.4327 16.1352
41.4803 16.0068
41.5281 16.034
41.5758 15.9537
41.6236 15.9482
41.6712 15.8589
41.7191 15.8085
41.7667 15.7482
41.8146 15.7088
41.8622 15.6192
41.9101 15.6129
41.9578 15.524
42.0057 15.5424
42.0534 15.4463
42.1013 15.4151
42.149 15.3503
42.1969 15.2864
42.2446 15.2516
42.2925 15.1348
42.3403 15.1342
42.3882 15.1079
42.436 15.0995
42.4839 14.9538
42.5319 14.9488
42.5797 14.8784
42.6277 14.8224
42.6755 14.7972
42.7235 14.7403
42.7713 14.7301
42.8193 14.6094
42.8671 14.5916
42.9152 14.5373
42.963 14.5283
43.0111 14.4156
43.0589 14.3989
43.107 14.3323
43.1549 14.3433
43.2029 14.234
43.2508 14.2143
43.2989 14.112
43.3468 14.1155
43.3949 14.0481
43.4429 13.9473
43.491 13.9621
43.5389 13.9124
43.5871 13.8652
43.635 13.8361
43.6832 13.8267
43.7312 13.6613
43.7793 13.6558
43.8273 13.6401
43.8755 13.579
43.9237 13.5399
43.9717 13.5352
44.0199 13.4587
44.068 13.4167
44.1162 13.3284
44.1642 13.3091
44.2125 13.2831
44.2606 13.1826
44.3088 13.1394
44.3569 13.1441
44.4052 13.0821
44.4533 13.0189
44.5016 12.9365
44.5497 12.9375
44.598 12.8645
44.6461 12.8656
44.6945 12.7642
44.7426 12.731
44.791 12.696
44.8391 12.6608
44.8875 12.5935
44.9357 12.5619
44.984 12.4945
45.0322 12.4811
45.0806 12.4552
45.1288 12.3761
45.1773 12.3593
45.2257 12.31
45.2739 12.276
45.3224 12.2409
45.3706 12.1599
45.4191 12.1136
45.4673 12.1109
45.5158 12.0848
45.5641 12.0125
45.6126 11.9495
45.6609 11.9064
45.7094 11.9035
45.7577 11.7898
45.8063 11.7344
45.8546 11.7914
45.9031 11.7034
45.9515 11.6366
46.0001 11.6474
46.0484 11.6306
46.097 11.5693
46.1454 11.5091
46.194 11.4822
46.2424 11.3981
46.291 11.3875
46.3395 11.3512
46.3881 11.2916
46.4365 11.2453
46.4852 11.2545
46.5337 11.156
46.5823 11.1433
46.631 11.1083
46.6795 11.0362
46.7282 11.0021
46.7767 10.9833
46.8254 10.9113
46.8739 10.8854
46.9226 10.8473
46.9712 10.8106
47.0199 10.7585
47.0685 10.7019
47.1173 10.6795
47.1658 10.61
47.2146 10.6427
47.2632 10.5889
47.312 10.5317
47.3606 10.498
47.4095 10.4391
47.4581 10.3857
47.5069 10.3708
47.5556 10.3669
47.6044 10.3071
47.6531 10.278
47.702 10.2368
47.7507 10.168
47.7996 10.1711
47.8483 10.0989
47.8972 10.0544
47.9461 10.0395
47.9948 9.95862
48.0438 9.92614
48.0925 9.93199
48.1415 9.88499
48.1902 9.84012
48.2392 9.80721
48.288 9.82142
48.337 9.78731
48.3858 9.70493
48.4348 9.67219
48.4837 9.65425
48.5327 9.62248
48.5815 9.58209
48.6306 9.58364
48.6795 9.53252
48.7285 9.42204
48.7774 9.42875
48.8265 9.39362
48.8754 9.41251
48.9245 9.31378
48.9734 9.30392
49.0226 9.28234
49.0715 9.23001
49.1206 9.19187
49.1696 9.15983
49.2188 9.12125
49.2679 9.06653
49.3169 9.03039
49.3661 9.0103
49.4151 9.00238
49.4643 8.94953
49.5134 8.88282
49.5626 8.86791
49.6117 8.82687
49.6609 8.8283
49.71 8.77952
49.7592 8.74572
49.8083 8.69336
49.8576 8.68938
49.9067 8.63684
49.956 8.59439
50.0052 8.57514
50.0545 8.5417
50.1036 8.49871
50.153 8.46785
50.2022 8.45196
50.2515 8.42023
50.3007 8.35798
50.3501 8.35709
50.3993 8.32705
50.4487 8.30673
50.498 8.22418
50.5474 8.21879
50.5966 8.18266
50.6461 8.17802
50.6955 8.12806
50.7448 8.06891
50.7943 8.05479
50.8436 8.04373
50.8931 8.00633
50.9424 7.98303
50.9919 7.92898
51.0413 7.91932
51.0908 7.86241
51.1402 7.84185
51.1897 7.82476
51.2391 7.80372
51.2887 7.71211
51.3381 7.72873
51.3877 7.67302
51.4371 7.63761
51.4867 7.60893
51.5362 7.64568
51.5858 7.5841
51.6353 7.49477
51.6849 7.49251
51.7344 7.47026
51.7841 7.44863
51.8336 7.40762
51.8833 7.36725
51.9328 7.33461
51.9826 7.33159
52.0323 7.30432
52.0818 7.27325
52.1316 7.18315
52.1812 7.20893
52.231 7.17636
52.2806 7.10448
52.3304 7.11867
52.38 7.06859
52.4298 7.05896
52.4794 7.0093
52.5293 7.02203
52.5789 6.96318
52.6288 6.94965
52.6785 6.87603
52.7284 6.87554
52.7781 6.87923
52.828 6.8445
52.8777 6.77477
52.9276 6.76585
52.9774 6.75242
53.0273 6.67589
53.0771 6.70399
53.1271 6.63141
53.1769 6.61229
53.2269 6.60226
53.2767 6.60563
53.3267 6.53374
53.3765 6.55585
53.4266 6.45944
53.4766 6.43945
53.5265 6.43823
53.5765 6.37992
53.6264 6.38846
53.6765 6.33259
53.7264 6.27491
53.7765 6.27784
53.8265 6.25136
53.8766 6.2399
53.9266 6.19792
53.9767 6.17511
54.0267 6.23309
54.0769 6.11211
54.1269 6.08294
54.1771 6.07598
54.2271 6.04549
54.2773 5.99865
54.3274 5.96795
54.3776 5.93584
54.4277 5.91034
54.478 5.88696
54.528 5.86772
54.5783 5.79173
54.6285 5.69163
54.6788 5.6808
54.7289 5.66769
54.7792 5.62132
54.8296 5.59215
54.8798 5.53028
54.9301 5.54442
54.9803 5.4663
55.0307 5.44131
55.0809 5.38203
55.1314 5.41895
55.1816 5.30285
55.232 5.26068
55.2823 5.26072
55.3328 5.17484
55.383 5.11732
55.4335 5.13821
55.4838 5.02815
55.5344 4.97783
55.5847 5.00398
55.6352 4.92894
55.6856 4.93363
55.7361 4.83098