File: XRD/Ni3Fe_FD0409.xy
TT I
1.27165 7.8909
1.31627 6.92227
1.36089 7.02683
1.40551 6.07401
1.45013 6.30629
1.49476 6.3663
1.53938 6.00127
1.584 5.45717
1.62863 5.26605
1.67325 4.94029
1.71787 5.29826
1.7625 5.30703
1.80712 5.19353
1.85174 4.89645
1.89636 5.29318
1.94099 5.18808
1.98562 5.20277
2.03025 4.61137
2.07487 4.48794
2.11949 4.8463
2.16411 5.06878
2.20874 16.6085
2.25338 27.8504
2.298 6.77846
2.34263 5.38692
2.38725 5.81076
2.43188 5.9259
2.4765 5.44793
2.52115 6.04147
2.56577 6.77631
2.6104 7.84705
2.65503 7.09668
2.69965 7.48369
2.7443 7.95432
2.78893 7.86271
2.83356 7.96598
2.87818 8.47966
2.92281 8.52831
2.96744 9.06813
3.01209 10.6382
3.05672 11.3202
3.10135 12.5605
3.14599 13.4716
3.19062 14.0671
3.23527 15.3951
3.2799 15.8459
3.32454 16.7054
3.36917 18.2111
3.4138 19.1573
3.45844 20.1365
3.50309 20.8529
3.54773 22.3719
3.59237 24.5277
3.637 113.966
3.68164 69.2585
3.7263 27.2913
3.77094 26.2866
3.81558 26.9972
3.86022 28.1345
3.90486 29.6632
3.9495 30.6137
3.99416 31.6216
4.0388 32.952
4.08344 34.3649
4.12809 35.9367
4.17273 38.2088
4.21738 45.8523
4.26204 313.148
4.30669 266.602
4.35133 51.5895
4.39598 45.9323
4.44063 57.1559
4.4853 71.7172
4.52995 52.497
4.5746 53.1402
4.61925 54.2547
4.6639 56.7623
4.70855 59.3895
4.75322 62.5401
4.79788 65.1166
4.84253 68.701
4.88719 73.1047
4.93184 76.6907
4.97652 82.8636
5.02118 89.1525
5.06583 97.15
5.11049 110.95
5.15515 200.577
5.19981 434.687
5.24449 2964.9
5.28916 11496.0
5.33382 3485.3
5.37848 222.744
5.42315 139.14
5.46783 119.156
5.5125 109.838
5.55716 104.95
5.60183 101.626
5.6465 99.3888
5.69117 97.1491
5.73586 94.4238
5.78053 93.9938
5.8252 94.5831
5.86988 94.8479
5.91455 97.9477
5.95924 107.423
6.00392 234.207
6.0486 1040.26
6.09328 3945.28
6.13795 3413.6
6.18263 299.303
6.22733 100.475
6.27201 86.9117
6.3167 113.324
6.36138 85.0374
6.40606 71.5083
6.45075 69.06
6.49545 67.3347
6.54014 65.8486
6.58483 64.8906
6.62952 64.5905
6.67421 106.297
6.71892 169.527
6.76361 72.9502
6.8083 60.681
6.853 59.039
6.89769 58.4315
6.94239 58.2427
6.98711 57.3613
7.03181 56.9887
7.07651 57.1479
7.12121 56.7178
7.16591 57.1041
7.21063 57.3456
7.25533 77.0753
7.30004 217.979
7.34475 102.624
7.38945 59.0348
7.43416 56.5328
7.47889 55.931
7.5236 56.4931
7.56831 57.4624
7.61303 59.1991
7.65774 59.3958
7.70247 57.7046
7.74719 57.7304
7.79191 57.9778
7.83663 58.4117
7.88135 59.5727
7.92607 59.9724
7.97081 61.5635
8.01553 62.375
8.06026 63.5593
8.10498 65.9265
8.14971 77.8073
8.19446 75.5102
8.23919 71.1449
8.28392 73.3751
8.32865 76.2112
8.37339 80.699
8.41812 88.3329
8.46288 124.552
8.50761 179.783
8.55235 416.168
8.59709 1088.91
8.64183 2108.85
8.68658 1104.7
8.73134 194.36
8.77609 104.751
8.82083 96.0244
8.86558 92.208
8.91033 92.9875
8.9551 95.7904
8.99985 87.9214
9.04461 85.8328
9.08936 84.7475
9.13412 84.0634
9.17888 84.472
9.22365 85.0565
9.26841 83.6185
9.31318 84.7307
9.35794 84.8403
9.4027 84.9246
9.44749 85.9381
9.49226 86.3362
9.53703 87.4744
9.5818 89.7801
9.62657 95.3525
9.67134 103.065
9.71614 96.4479
9.76091 95.9918
9.80569 98.8754
9.85047 102.561
9.89525 133.613
9.94005 147.422
9.98484 188.825
10.0296 364.947
10.0744 769.116
10.1192 1589.88
10.164 1721.81
10.2088 493.647
10.2536 140.72
10.2984 119.515
10.3432 121.558
10.388 108.263
10.4328 122.895
10.4776 165.986
10.5224 269.626
10.5672 476.427
10.612 533.105
10.6568 228.035
10.7017 102.618
10.7465 89.145
10.7913 85.2649
10.8361 83.2496
10.8809 81.023
10.9257 81.1466
10.9706 82.0912
11.0154 77.038
11.0602 74.7358
11.105 73.9127
11.1499 80.0814
11.1947 89.68
11.2395 77.9652
11.2844 72.7502
11.3292 69.0127
11.374 67.6425
11.4189 67.1854
11.4637 66.5393
11.5086 67.8642
11.5534 71.3313
11.5983 67.7267
11.6431 65.3386
11.688 64.5232
11.7328 64.9092
11.7777 64.65
11.8225 64.148
11.8674 63.7503
11.9122 64.344
11.9571 64.321
12.002 65.3452
12.0468 69.9116
12.0917 82.2031
12.1366 103.279
12.1814 144.648
12.2263 201.18
12.2712 182.645
12.3161 108.62
12.3609 74.5439
12.4058 66.6181
12.4507 66.0167
12.4956 66.1947
12.5405 66.2299
12.5853 67.6073
12.6302 77.9019
12.6751 84.0192
12.72 72.3859
12.7649 69.5268
12.8098 70.1368
12.8547 71.5424
12.8996 72.733
12.9445 74.2504
12.9894 75.7357
13.0343 77.4178
13.0792 80.6172
13.1242 91.182
13.1691 116.927
13.214 152.409
13.2589 226.046
13.3038 342.77
13.3487 428.407
13.3937 292.193
13.4386 137.343
13.4835 110.169
13.5285 124.992
13.5734 158.213
13.6183 229.853
13.6633 326.428
13.7082 354.411
13.7531 217.179
13.7981 105.599
13.843 84.4966
13.888 81.7061
13.9329 79.1039
13.9779 77.7882
14.0228 76.0074
14.0678 74.8579
14.1127 74.4669
14.1577 74.6005
14.2027 73.5955
14.2476 72.2909
14.2926 72.6279
14.3376 74.3102
14.3825 72.2378
14.4275 70.5267
14.4725 70.3053
14.5175 70.494
14.5624 70.6453
14.6074 73.6274
14.6524 73.8346
14.6974 72.2928
14.7424 73.7645
14.7874 81.0889
14.8324 91.8849
14.8774 111.026
14.9224 146.275
14.9674 197.309
15.0124 222.458
15.0574 163.887
15.1024 99.357
15.1474 75.0477
15.1924 72.6998
15.2374 73.8638
15.2824 73.0039
15.3274 70.1831
15.3725 68.5013
15.4175 68.0272
15.4625 67.6779
15.5076 68.0099
15.5526 68.1638
15.5976 67.5535
15.6426 68.5481
15.6877 74.2349
15.7327 82.352
15.7778 95.6167
15.8228 121.462
15.8679 159.71
15.9129 192.67
15.958 170.102
16.003 106.426
16.0481 72.2594
16.0931 67.3426
16.1382 64.9149
16.1833 62.409
16.2283 60.6682
16.2734 59.8854
16.3185 60.7314
16.3636 61.5517
16.4086 59.6279
16.4537 57.8489
16.4988 57.0597
16.5439 56.9591
16.589 56.5958
16.6341 56.4827
16.6792 56.1036
16.7243 56.4322
16.7694 56.3118
16.8145 56.2674
16.8596 56.7368
16.9047 58.7564
16.9498 58.9108
16.9949 57.3178
17.04 57.2479
17.0851 58.3461
17.1302 60.3198
17.1754 63.1537
17.2205 67.2869
17.2656 73.3151
17.3108 81.7863
17.3559 83.3661
17.401 74.019
17.4462 64.6067
17.4913 60.7414
17.5365 60.577
17.5815 60.9027
17.6268 61.1206
17.6718 61.8337
17.7171 62.4818
17.7622 62.7413
17.8074 63.2086
17.8525 65.6181
17.8977 70.1734
17.9428 75.7865
17.9881 83.3666
18.0331 97.1777
18.0784 116.335
18.1237 137.206
18.1688 137.128
18.214 110.879
18.2591 89.4504
18.3044 89.2385
18.3495 97.9834
18.3948 106.643
18.4399 100.766
18.4852 82.2538
18.5303 68.4698
18.5756 63.8608
18.6207 63.0609
18.666 62.0604
18.7112 61.0532
18.7565 60.445
18.8016 59.9315
18.8469 59.5473
18.892 59.2686
18.9374 58.8078
18.9825 58.4539
19.0278 58.3354
19.073 58.4702
19.1183 59.0124
19.1635 59.9332
19.2088 61.0606
19.254 63.2281
19.2993 66.4599
19.3447 72.4083
19.3898 77.5686
19.4352 75.1262
19.4804 66.0389
19.5257 58.9618
19.5709 55.8469
19.6163 55.2437
19.6615 54.9612
19.7068 54.622
19.752 54.5245
19.7974 54.95
19.8426 56.134
19.888 56.623
19.9332 57.5204
19.9786 59.6091
20.0238 62.4827
20.0692 67.0769
20.1144 70.7075
20.1598 70.1816
20.205 65.6718
20.2504 63.0119
20.2957 64.1837
20.3411 66.1384
20.3863 65.9329
20.4318 60.8165
20.477 55.6571
20.5224 53.276
20.5677 52.3019
20.6131 51.5222
20.6586 50.914
20.7038 50.8583
20.7493 50.3872
20.7945 50.3257
20.84 50.0364
20.8853 50.1651
20.9307 49.7532
20.976 50.02
21.0215 50.039
21.0668 50.45
21.1122 50.5551
21.1575 51.1836
21.203 51.8233
21.2483 52.3816
21.2938 52.9209
21.3391 51.4626
21.3846 50.4096
21.4299 49.8464
21.4754 49.5727
21.5207 49.7037
21.5662 49.9354
21.6116 50.4498
21.6571 51.1547
21.7024 52.189
21.7479 53.7098
21.7933 55.8731
21.8388 59.1643
21.8843 62.758
21.9297 65.5019
21.9752 65.6525
22.0206 61.7704
22.0661 58.0312
22.1115 56.9498
22.157 57.3042
22.2024 56.0423
22.248 53.1795
22.2933 51.4652
22.3389 50.4777
22.3843 50.5164
22.4299 50.3486
22.4753 50.2243
22.5208 49.9491
22.5662 49.568
22.6118 49.8356
22.6572 50.0594
22.7028 50.4718
22.7483 51.0191
22.7939 51.5973
22.8393 52.7405
22.8849 54.6769
22.9303 56.5353
22.9759 58.641
23.0214 59.0493
23.067 56.5211
23.1126 52.8861
23.1581 50.752
23.2037 50.2051
23.2492 50.1691
23.2948 50.0995
23.3403 50.3345
23.3859 50.8865
23.4314 51.7926
23.477 53.1101
23.5225 55.003
23.5682 57.2297
23.6137 59.085
23.6593 57.4456
23.7048 53.574
23.7505 50.1758
23.796 47.9224
23.8417 47.3664
23.8872 46.7063
23.9329 46.4767
23.9784 46.1675
24.0241 45.6945
24.0697 45.4941
24.1154 45.2961
24.1609 45.1983
24.2066 45.0681
24.2522 45.0354
24.2979 44.5242
24.3434 44.4832
24.3892 44.2673
24.4349 44.2323
24.4805 43.8812
24.5262 44.09
24.5718 44.0768
24.6175 44.0483
24.6631 43.9015
24.7089 43.6416
24.7545 43.5849
24.8002 43.2751
24.8458 43.2065
24.8916 43.0132
24.9372 43.1231
24.983 43.4606
25.0286 43.7263
25.0744 44.2381
25.12 44.5063
25.1658 45.199
25.2114 45.5765
25.2572 45.6857
25.3029 45.7135
25.3487 45.8268
25.3943 45.771
25.4402 44.7302
25.4858 43.7895
25.5316 42.5729
25.5773 42.1095
25.6231 41.9824
25.669 41.5401
25.7147 41.4979
25.7605 41.4732
25.8062 41.4555
25.8521 41.6747
25.8977 41.5851
25.9436 41.8443
25.9893 41.8255
26.0352 42.2147
26.0809 42.4306
26.1268 42.7414
26.1725 42.5602
26.2184 41.948
26.2641 41.4364
26.31 41.0094
26.3557 40.9746
26.4017 41.1066
26.4474 41.4338
26.4933 41.5738
26.5391 41.9978
26.585 42.4878
26.6308 42.8837
26.6767 43.1436
26.7225 43.1164
26.7684 42.4507
26.8142 41.9541
26.8601 41.3243
26.9059 41.1204
26.9519 40.5919
26.9979 40.1898
27.0437 39.8525
27.0896 39.7052
27.1354 39.682
27.1814 39.4399
27.2272 39.505
27.2732 39.4692
27.3191 39.4213
27.3651 39.3389
27.4109 39.1833
27.4569 39.4704
27.5027 39.4516
27.5488 39.5208
27.5946 39.2509
27.6407 39.0477
27.6865 39.2747
27.7326 38.7539
27.7784 38.776
27.8245 38.6549
27.8703 38.8078
27.9164 39.1325
27.9623 39.2854
28.0084 39.4837
28.0543 39.9112
28.1003 39.8926
28.1462 39.6896
28.1923 39.304
28.2384 38.8013
28.2843 38.6207
28.3304 38.2167
28.3764 37.7069
28.4225 37.3411
28.4684 37.14
28.5145 36.7609
28.5605 36.7028
28.6066 36.6255
28.6526 36.4366
28.6987 36.4379
28.7447 36.2224
28.7908 36.2338
28.8368 36.2685
28.8829 36.2445
28.9289 36.2401
28.9751 36.0275
29.0211 35.7379
29.0673 35.4008
29.1133 35.3222
29.1595 35.203
29.2055 35.148
29.2517 35.1568
29.2977 34.9691
29.3439 35.1493
29.3899 35.0982
29.4361 35.0147
29.4824 34.8399
29.5284 34.6067
29.5746 34.2709
29.6207 33.8877
29.6669 33.8434
29.713 33.7942
29.7593 33.6819
29.8053 33.5621
29.8516 33.6346
29.8977 33.7084
29.9439 33.3614
29.99 33.328
30.0363 33.2597
30.0824 33.3552
30.1287 33.177
30.1748 33.2799
30.2211 33.1666
30.2673 33.0142
30.3136 33.18
30.3597 33.0963
30.406 32.9486
30.4522 32.7932
30.4985 32.824
30.5447 32.9027
30.591 32.8381
30.6372 32.9134
30.6835 32.9252
30.7297 32.9346
30.7761 32.9063
30.8224 32.6951
30.8686 32.6948
30.915 32.3772
30.9612 32.2481
31.0076 32.1382
31.0538 31.9367
31.1002 31.9318
31.1464 31.6686
31.1928 31.698
31.2391 31.7205
31.2855 31.4442
31.3317 31.5783
31.3781 31.6826
31.4244 31.6322
31.4708 31.5263
31.5171 31.602
31.5636 31.4032
31.6098 31.2511
31.6563 31.1048
31.7026 31.0029
31.7491 30.8744
31.7953 30.852
31.8418 30.7372
31.8881 30.8819
31.9346 30.8309
31.9809 30.8105
32.0275 30.6423
32.074 30.5813
32.1203 30.3451
32.1668 30.1952
32.2132 30.0654
32.2597 29.9983
32.306 29.9014
32.3526 29.6567
32.399 29.6526
32.4455 29.5567
32.4919 29.3816
32.5385 29.3548
32.5848 29.2432
32.6314 29.2318
32.6778 29.1408
32.7244 29.038
32.7708 28.7776
32.8174 28.8061
32.8638 28.6823
32.9104 28.7437
32.9569 28.6535
33.0035 28.5191
33.0499 28.503
33.0966 28.5048
33.143 28.4065
33.1897 28.369
33.2361 28.1865
33.2828 28.2307
33.3293 28.0981
33.3759 28.0069
33.4226 27.9707
33.4691 27.8576
33.5158 27.6657
33.5623 27.6077
33.609 27.4861
33.6555 27.3458
33.7022 27.2515
33.7487 27.1456
33.7954 27.0854
33.842 26.9558
33.8887 26.9405
33.9353 26.8752
33.982 26.8099
34.0286 26.6316
34.0753 26.6287
34.1219 26.5476
34.1687 26.4662
34.2152 26.4116
34.262 26.2848
34.3086 26.1829
34.3554 26.0234
34.402 26.0405
34.4488 25.8567
34.4954 25.9039
34.5422 25.7861
34.5889 25.6573
34.6357 25.6075
34.6825 25.5089
34.7292 25.4218
34.776 25.3422
34.8227 25.255
34.8695 25.2302
34.9162 25.1975
34.9631 25.0686
35.0098 25.0443
35.0566 24.9628
35.1033 24.8726
35.1502 24.8995
35.1969 24.8494
35.2438 24.7318
35.2906 24.7204
35.3375 24.5654
35.3842 24.5508
35.4311 24.5014
35.4779 24.4674
35.5248 24.4146
35.5716 24.4251
35.6185 24.2908
35.6653 24.1331
35.7123 24.2082
35.759 24.0542
35.806 23.9641
35.8528 23.7821
35.8998 23.8115
35.9468 23.6421
35.9936 23.577
36.0406 23.583
36.0874 23.5388
36.1345 23.4684
36.1813 23.3957
36.2283 23.3095
36.2752 23.2016
36.3222 23.2167
36.3691 23.0916
36.4161 23.0121
36.463 22.9438
36.5101 22.9579
36.557 22.8356
36.6041 22.7399
36.651 22.7309
36.6981 22.6872
36.745 22.6522
36.7921 22.4678
36.839 22.3994
36.8861 22.3753
36.9331 22.2559
36.9802 22.2311
37.0272 22.1499
37.0743 22.0338
37.1213 21.9578
37.1684 21.8857
37.2154 21.8522
37.2626 21.7854
37.3098 21.7953
37.3568 21.6849
37.404 21.6442
37.451 21.415
37.4982 21.4672
37.5452 21.2835
37.5924 21.3316
37.6395 21.3194
37.6867 21.2204
37.7337 21.117
37.781 21.0272
37.8281 20.9558
37.8753 20.9038
37.9224 20.8087
37.9697 20.8096
38.0168 20.745
38.064 20.6842
38.1111 20.6394
38.1584 20.4788
38.2056 20.4502
38.2529 20.3651
38.3 20.2576
38.3473 20.2528
38.3945 20.1342
38.4418 20.1388
38.489 20.0355
38.5363 19.9953
38.5837 19.8893
38.6309 19.8695
38.6782 19.7998
38.7254 19.7473
38.7728 19.6982
38.82 19.5935
38.8674 19.5487
38.9146 19.4618
38.9621 19.4084
39.0093 19.399
39.0567 19.2776
39.104 19.3181
39.1514 19.2268
39.1987 19.202
39.2461 19.0486
39.2934 19.0432
39.3409 18.8717
39.3882 18.8356
39.4356 18.7463
39.483 18.7502
39.5304 18.6889
39.5778 18.6901
39.6253 18.6083
39.6726 18.564
39.7201 18.4781
39.7675 18.3999
39.815 18.3542
39.8624 18.2415
39.9099 18.2648
39.9575 18.1375
40.0049 18.1495
40.0525 18.053
40.0999 17.9858
40.1474 17.9583
40.1949 17.8568
40.2425 17.7457
40.2899 17.7887
40.3375 17.6863
40.385 17.6796
40.4326 17.6058
40.48 17.5834
40.5277 17.5402
40.5752 17.4013
40.6228 17.3279
40.6703 17.3897
40.718 17.3204
40.7655 17.2062
40.8132 17.1325
40.8607 17.1398
40.9084 17.0694
40.9559 17.0339
41.0036 16.9666
41.0512 16.9148
41.0989 16.9194
41.1465 16.7387
41.1942 16.6714
41.242 16.6262
41.2896 16.6115
41.3373 16.5595
41.3849 16.514
41.4327 16.4202
41.4803 16.3721
41.5281 16.3811
41.5758 16.3068
41.6236 16.1955
41.6712 16.1925
41.7191 16.1162
41.7667 16.1017
41.8146 16.0301
41.8622 15.9396
41.9101 15.9009
41.9578 15.8218
42.0057 15.7957
42.0534 15.7298
42.1013 15.7178
42.149 15.6189
42.1969 15.5865
42.2446 15.5333
42.2925 15.4441
42.3403 15.4245
42.3882 15.3972
42.436 15.3332
42.4839 15.2364
42.5319 15.1978
42.5797 15.1903
42.6277 15.0944
42.6755 15.0723
42.7235 15.0087
42.7713 14.9638
42.8193 14.893
42.8671 14.8354
42.9152 14.8682
42.963 14.7728
43.0111 14.7219
43.0589 14.6564
43.107 14.5729
43.1549 14.5641
43.2029 14.4967
43.2508 14.4524
43.2989 14.4023
43.3468 14.2813
43.3949 14.296
43.4429 14.2625
43.491 14.2094
43.5389 14.0879
43.5871 14.1492
43.635 14.0343
43.6832 14.0282
43.7312 13.955
43.7793 13.9044
43.8273 13.929
43.8755 13.8058
43.9237 13.7329
43.9717 13.7537
44.0199 13.7279
44.068 13.6545
44.1162 13.5787
44.1642 13.5934
44.2125 13.5061
44.2606 13.4321
44.3088 13.3871
44.3569 13.3557
44.4052 13.3323
44.4533 13.2392
44.5016 13.2184
44.5497 13.1794
44.598 13.1475
44.6461 13.0582
44.6945 12.9836
44.7426 12.9989
44.791 12.9086
44.8391 12.8722
44.8875 12.8737
44.9357 12.7946
44.984 12.8311
45.0322 12.6889
45.0806 12.6709
45.1288 12.6255
45.1773 12.5539
45.2257 12.5557
45.2739 12.4936
45.3224 12.4409
45.3706 12.3843
45.4191 12.3501
45.4673 12.2987
45.5158 12.2522
45.5641 12.1998
45.6126 12.1862
45.6609 12.1037
45.7094 12.0438
45.7577 12.0529
45.8063 11.9596
45.8546 11.9547
45.9031 11.919
45.9515 11.8356
46.0001 11.8578
46.0484 11.7974
46.097 11.7553
46.1454 11.7409
46.194 11.6909
46.2424 11.609
46.291 11.6009
46.3395 11.5587
46.3881 11.4794
46.4365 11.4417
46.4852 11.423
46.5337 11.348
46.5823 11.3116
46.631 11.2618
46.6795 11.2651
46.7282 11.1807
46.7767 11.1432
46.8254 11.134
46.8739 11.0825
46.9226 11.0364
46.9712 10.9899
47.0199 10.9534
47.0685 10.9137
47.1173 10.8674
47.1658 10.8306
47.2146 10.8127
47.2632 10.7333
47.312 10.7641
47.3606 10.6584
47.4095 10.6015
47.4581 10.6036
47.5069 10.5349
47.5556 10.5135
47.6044 10.5159
47.6531 10.4248
47.702 10.3697
47.7507 10.3587
47.7996 10.3281
47.8483 10.2804
47.8972 10.2621
47.9461 10.1836
47.9948 10.1945
48.0438 10.1062
48.0925 10.1116
48.1415 10.0755
48.1902 10.0361
48.2392 10.0102
48.288 9.98128
48.337 9.9284
48.3858 9.86489
48.4348 9.88671
48.4837 9.86111
48.5327 9.78519
48.5815 9.74777
48.6306 9.74069
48.6795 9.67052
48.7285 9.65692
48.7774 9.61651
48.8265 9.60112
48.8754 9.52117
48.9245 9.48462
48.9734 9.4699
49.0226 9.44399
49.0715 9.37878
49.1206 9.35731
49.1696 9.30127
49.2188 9.29841
49.2679 9.25247
49.3169 9.22466
49.3661 9.21271
49.4151 9.13768
49.4643 9.10938
49.5134 9.07661
49.5626 9.03321
49.6117 8.99286
49.6609 9.00627
49.71 8.91516
49.7592 8.91289
49.8083 8.86864
49.8576 8.80937
49.9067 8.78317
49.956 8.78132
50.0052 8.75623
50.0545 8.67466
50.1036 8.66895
50.153 8.60797
50.2022 8.57549
50.2515 8.56818
50.3007 8.49411
50.3501 8.47357
50.3993 8.46227
50.4487 8.43265
50.498 8.43747
50.5474 8.37451
50.5966 8.34347
50.6461 8.32427
50.6955 8.29065
50.7448 8.26019
50.7943 8.20159
50.8436 8.17959
50.8931 8.18257
50.9424 8.09466
50.9919 8.0687
51.0413 8.06719
51.0908 8.01987
51.1402 8.00681
51.1897 7.95645
51.2391 7.90963
51.2887 7.8663
51.3381 7.83789
51.3877 7.85274
51.4371 7.78075
51.4867 7.72299
51.5362 7.73697
51.5858 7.6995
51.6353 7.64098
51.6849 7.63491
51.7344 7.61233
51.7841 7.56848
51.8336 7.54032
51.8833 7.4964
51.9328 7.45838
51.9826 7.43563
52.0323 7.42786
52.0818 7.38208
52.1316 7.32599
52.1812 7.32768
52.231 7.27088
52.2806 7.25425
52.3304 7.24805
52.38 7.21266
52.4298 7.14248
52.4794 7.12384
52.5293 7.1093
52.5789 7.09159
52.6288 7.03917
52.6785 7.04042
52.7284 6.98161
52.7781 6.96497
52.828 6.95925
52.8777 6.88268
52.9276 6.88022
52.9774 6.86582
53.0273 6.80264
53.0771 6.8312
53.1271 6.78521
53.1769 6.72507
53.2269 6.69066
53.2767 6.6811
53.3267 6.66567
53.3765 6.64227
53.4266 6.58645
53.4766 6.53656
53.5265 6.50136
53.5765 6.5281
53.6264 6.47451
53.6765 6.46574
53.7264 6.42206
53.7765 6.40612
53.8265 6.33113
53.8766 6.3342
53.9266 6.29078
53.9767 6.31171
54.0267 6.23218
54.0769 6.28033
54.1269 6.19312
54.1771 6.18482
54.2271 6.14768
54.2773 6.08254
54.3274 6.06207
54.3776 6.06262
54.4277 6.00638
54.478 5.97584
54.528 5.96243
54.5783 5.89603
54.6285 5.87134
54.6788 5.82822
54.7289 5.77453
54.7792 5.79276
54.8296 5.64787
54.8798 5.65554
54.9301 5.63843
54.9803 5.59368
55.0307 5.57854
55.0809 5.48353
55.1314 5.44214
55.1816 5.44176
55.232 5.31706
55.2823 5.31679
55.3328 5.2504
55.383 5.17036
55.4335 5.19902
55.4838 5.11477
55.5344 5.13628
55.5847 5.01203
55.6352 5.01673
55.6856 4.97576
55.7361 4.93935