File: XRD/Ni3Fe_FD0667.xy
TT I
1.27165 7.54769
1.31627 6.46304
1.36089 6.57498
1.40551 5.47735
1.45013 6.08489
1.49476 6.09267
1.53938 6.12042
1.584 5.62474
1.62863 5.87216
1.67325 4.86853
1.71787 5.7132
1.7625 4.87415
1.80712 4.99186
1.85174 5.15531
1.89636 5.18636
1.94099 5.56935
1.98562 5.35033
2.03025 4.42809
2.07487 5.01544
2.11949 5.00544
2.16411 5.35203
2.20874 11.9528
2.25338 18.9506
2.298 5.95343
2.34263 5.62426
2.38725 5.72618
2.43188 6.54736
2.4765 7.09341
2.52115 7.43232
2.56577 7.27085
2.6104 8.71178
2.65503 8.1917
2.69965 8.22518
2.7443 8.0154
2.78893 8.51509
2.83356 8.34815
2.87818 8.92316
2.92281 9.50083
2.96744 9.63482
3.01209 10.3321
3.05672 11.3679
3.10135 12.2532
3.14599 13.596
3.19062 13.6462
3.23527 14.8995
3.2799 15.732
3.32454 16.5669
3.36917 17.8386
3.4138 18.747
3.45844 19.6374
3.50309 20.8446
3.54773 21.839
3.59237 23.7593
3.637 79.9633
3.68164 51.7737
3.7263 25.9165
3.77094 25.9465
3.81558 26.885
3.86022 27.5644
3.90486 28.9073
3.9495 29.5487
3.99416 30.9024
4.0388 32.1926
4.08344 33.4352
4.12809 34.4077
4.17273 36.1304
4.21738 42.0444
4.26204 209.685
4.30669 179.591
4.35133 47.1359
4.39598 44.1947
4.44063 52.2973
4.4853 61.4011
4.52995 49.9093
4.5746 51.3773
4.61925 53.4508
4.6639 55.1829
4.70855 58.1297
4.75322 61.0882
4.79788 63.7327
4.84253 67.7502
4.88719 71.3933
4.93184 75.0929
4.97652 81.1252
5.02118 87.3504
5.06583 94.4056
5.11049 106.051
5.15515 166.572
5.19981 364.719
5.24449 2923.85
5.28916 12556.4
5.33382 2774.71
5.37848 180.813
5.42315 126.909
5.46783 112.603
5.5125 105.672
5.55716 101.73
5.60183 97.8825
5.6465 96.2518
5.69117 93.8648
5.73586 92.098
5.78053 91.2742
5.8252 90.9639
5.86988 91.9409
5.91455 94.412
5.95924 103.75
6.00392 215.622
6.0486 988.188
6.09328 4504.23
6.13795 3246.07
6.18263 222.743
6.22733 91.7395
6.27201 81.7602
6.3167 96.3607
6.36138 78.3083
6.40606 68.6704
6.45075 67.1624
6.49545 65.1651
6.54014 63.6959
6.58483 62.6935
6.62952 62.375
6.67421 87.3923
6.71892 126.881
6.76361 66.3977
6.8083 58.35
6.853 57.085
6.89769 56.9914
6.94239 56.2692
6.98711 55.6593
7.03181 54.8391
7.07651 54.8499
7.12121 54.9855
7.16591 55.0763
7.21063 55.1844
7.25533 67.7876
7.30004 153.775
7.34475 83.9048
7.38945 55.8842
7.43416 53.9657
7.47889 54.2545
7.5236 54.4805
7.56831 54.7693
7.61303 56.405
7.65774 57.3998
7.70247 55.7963
7.74719 55.8716
7.79191 56.7927
7.83663 56.5347
7.88135 57.4242
7.92607 58.424
7.97081 59.8526
8.01553 60.7848
8.06026 61.9501
8.10498 63.6334
8.14971 71.6062
8.19446 71.3554
8.23919 69.6172
8.28392 71.7543
8.32865 73.9688
8.37339 78.5014
8.41812 84.9531
8.46288 110.407
8.50761 169.959
8.55235 399.775
8.59709 1221.03
8.64183 2182.97
8.68658 930.258
8.73134 154.843
8.77609 98.2566
8.82083 91.7553
8.86558 89.4506
8.91033 89.0224
8.9551 89.7981
8.99985 85.0275
9.04461 83.0286
9.08936 82.8923
9.13412 81.6926
9.17888 81.9035
9.22365 82.5883
9.26841 81.8145
9.31318 82.1339
9.35794 82.3618
9.4027 83.1076
9.44749 83.7035
9.49226 84.1921
9.53703 85.2414
9.5818 87.1954
9.62657 91.0557
9.67134 96.7045
9.71614 93.1234
9.76091 93.5794
9.80569 96.2999
9.85047 99.809
9.89525 120.463
9.94005 133.213
9.98484 181.973
10.0296 355.409
10.0744 834.016
10.1192 1784.57
10.164 1566.57
10.2088 370.817
10.2536 123.43
10.2984 111.911
10.3432 112.247
10.388 104.292
10.4328 119.255
10.4776 163.149
10.5224 286.827
10.5672 515.181
10.612 503.363
10.6568 190.754
10.7017 94.7625
10.7465 86.0616
10.7913 82.9229
10.8361 80.8549
10.8809 78.5688
10.9257 77.7492
10.9706 78.1177
11.0154 74.4375
11.0602 72.2438
11.105 71.9373
11.1499 74.9763
11.1947 80.3608
11.2395 73.1083
11.2844 69.5662
11.3292 66.8077
11.374 65.7425
11.4189 65.0847
11.4637 64.7957
11.5086 64.8604
11.5534 67.1582
11.5983 65.0526
11.6431 63.3966
11.688 62.9872
11.7328 62.6716
11.7777 62.5301
11.8225 62.4156
11.8674 62.2419
11.9122 62.5749
11.9571 62.7388
12.002 63.6146
12.0468 67.8952
12.0917 79.5896
12.1366 103.861
12.1814 154.83
12.2263 206.252
12.2712 160.809
12.3161 90.6732
12.3609 69.1181
12.4058 64.3782
12.4507 64.0222
12.4956 64.0591
12.5405 64.2773
12.5853 65.2031
12.6302 71.3876
12.6751 76.0629
12.72 69.5662
12.7649 67.4764
12.8098 68.0522
12.8547 69.578
12.8996 70.8616
12.9445 72.2018
12.9894 74.0664
13.0343 75.4656
13.0792 79.2035
13.1242 88.9055
13.1691 113.301
13.214 150.651
13.2589 243.902
13.3038 379.499
13.3487 424.983
13.3937 253.708
13.4386 120.899
13.4835 105.946
13.5285 121.551
13.5734 160.56
13.6183 253.155
13.6633 357.908
13.7082 332.197
13.7531 174.415
13.7981 94.7331
13.843 81.1907
13.888 79.3108
13.9329 77.066
13.9779 75.6311
14.0228 74.2087
14.0678 72.7316
14.1127 72.3219
14.1577 72.199
14.2027 71.1298
14.2476 70.1613
14.2926 70.2788
14.3376 71.1294
14.3825 69.9176
14.4275 68.7058
14.4725 68.6481
14.5175 68.5938
14.5624 69.2974
14.6074 70.613
14.6524 71.0764
14.6974 70.4125
14.7424 71.9913
14.7874 79.2014
14.8324 89.4362
14.8774 111.395
14.9224 156.591
14.9674 211.381
15.0124 217.039
15.0574 142.511
15.1024 87.5178
15.1474 71.633
15.1924 70.0937
15.2374 70.4142
15.2824 69.6825
15.3274 67.768
15.3725 66.5554
15.4175 66.5341
15.4625 65.9279
15.5076 65.766
15.5526 66.0541
15.5976 65.8976
15.6426 66.8131
15.6877 72.5002
15.7327 80.2484
15.7778 95.9377
15.8228 127.925
15.8679 174.849
15.9129 196.398
15.958 154.028
16.003 93.7861
16.0481 66.7575
16.0931 64.0761
16.1382 61.9793
16.1833 60.3728
16.2283 58.658
16.2734 58.4118
16.3185 58.4798
16.3636 58.8702
16.4086 57.3893
16.4537 56.2152
16.4988 55.454
16.5439 55.4095
16.589 55.1625
16.6341 54.9001
16.6792 54.2329
16.7243 54.5963
16.7694 54.6866
16.8145 54.6311
16.8596 55.2265
16.9047 56.4002
16.9498 56.555
16.9949 55.523
17.04 55.7864
17.0851 57.0667
17.1302 58.5684
17.1754 61.7261
17.2205 66.955
17.2656 74.934
17.3108 83.3026
17.3559 81.6223
17.401 70.1282
17.4462 61.4318
17.4913 58.9076
17.5365 58.8881
17.5815 59.054
17.6268 59.4678
17.6718 60.0956
17.7171 60.6509
17.7622 61.1453
17.8074 61.8065
17.8525 64.3173
17.8977 68.5951
17.9428 73.9698
17.9881 83.1364
18.0331 101.114
18.0784 124.082
18.1237 142.842
18.1688 130.066
18.214 101.17
18.2591 86.1069
18.3044 91.0362
18.3495 100.932
18.3948 105.975
18.4399 94.8373
18.4852 75.8114
18.5303 65.2298
18.5756 62.0538
18.6207 61.077
18.666 60.1023
18.7112 59.5116
18.7565 58.7219
18.8016 58.3176
18.8469 57.8203
18.892 57.5526
18.9374 57.0087
18.9825 56.755
19.0278 56.8183
19.073 56.7982
19.1183 57.2682
19.1635 57.929
19.2088 59.5456
19.254 62.1009
19.2993 67.1664
19.3447 73.6094
19.3898 76.8403
19.4352 71.8177
19.4804 62.5876
19.5257 56.0278
19.5709 53.9948
19.6163 53.7043
19.6615 53.6291
19.7068 53.2854
19.752 53.3421
19.7974 53.3478
19.8426 54.5968
19.888 54.7488
19.9332 56.2195
19.9786 59.0068
20.0238 62.6043
20.0692 67.4898
20.1144 69.7702
20.1598 67.6987
20.205 62.8857
20.2504 62.008
20.2957 64.2608
20.3411 65.5999
20.3863 63.4008
20.4318 57.4458
20.477 52.9816
20.5224 51.4474
20.5677 50.7633
20.6131 50.2382
20.6586 49.4725
20.7038 49.3656
20.7493 48.9916
20.7945 48.8583
20.84 48.9382
20.8853 48.8106
20.9307 48.2106
20.976 48.5666
21.0215 48.4991
21.0668 48.8855
21.1122 49.3014
21.1575 50.1476
21.203 50.8146
21.2483 51.4932
21.2938 51.3526
21.3391 49.8592
21.3846 48.6976
21.4299 48.2646
21.4754 48.251
21.5207 48.3309
21.5662 48.7361
21.6116 49.2644
21.6571 49.8086
21.7024 50.7102
21.7479 52.5237
21.7933 55.3243
21.8388 59.2834
21.8843 63.0818
21.9297 64.9039
21.9752 63.1229
22.0206 59.2362
22.0661 56.4271
22.1115 55.8379
22.157 55.8438
22.2024 53.853
22.248 51.1478
22.2933 49.6886
22.3389 48.8696
22.3843 48.9125
22.4299 48.9319
22.4753 48.7016
22.5208 48.5204
22.5662 48.411
22.6118 48.5088
22.6572 48.6471
22.7028 49.2563
22.7483 49.5877
22.7939 50.3628
22.8393 52.0213
22.8849 54.1862
22.9303 56.4039
22.9759 58.1522
23.0214 57.0464
23.067 54.1131
23.1126 50.6815
23.1581 49.028
23.2037 48.6534
23.2492 48.6855
23.2948 48.7366
23.3403 48.9965
23.3859 49.6792
23.4314 50.8122
23.477 52.7196
23.5225 54.9192
23.5682 57.0823
23.6137 57.8006
23.6593 55.0495
23.7048 50.8778
23.7505 47.8868
23.796 46.4426
23.8417 45.7139
23.8872 45.4967
23.9329 45.1587
23.9784 44.741
24.0241 44.6283
24.0697 44.2779
24.1154 44.0071
24.1609 43.8365
24.2066 43.573
24.2522 43.5794
24.2979 43.3098
24.3434 43.2264
24.3892 43.1436
24.4349 43.0806
24.4805 42.7017
24.5262 42.8756
24.5718 42.8578
24.6175 42.8988
24.6631 42.5625
24.7089 42.425
24.7545 42.3921
24.8002 42.0017
24.8458 41.9691
24.8916 41.9181
24.9372 42.1509
24.983 42.5167
25.0286 42.9323
25.0744 43.2395
25.12 43.6688
25.1658 44.3369
25.2114 44.6763
25.2572 44.5356
25.3029 44.7119
25.3487 44.8479
25.3943 44.4013
25.4402 43.2237
25.4858 42.2818
25.5316 41.384
25.5773 40.7882
25.6231 40.7844
25.669 40.512
25.7147 40.4083
25.7605 40.2602
25.8062 40.4254
25.8521 40.4799
25.8977 40.4513
25.9436 40.7405
25.9893 41.0507
26.0352 41.402
26.0809 41.4557
26.1268 41.6919
26.1725 41.277
26.2184 40.5681
26.2641 40.1214
26.31 40.0038
26.3557 40.1381
26.4017 40.0295
26.4474 40.2993
26.4933 40.5998
26.5391 41.2022
26.585 41.656
26.6308 42.0952
26.6767 42.1573
26.7225 41.8731
26.7684 41.3095
26.8142 40.7691
26.8601 40.2993
26.9059 39.9604
26.9519 39.4514
26.9979 39.1251
27.0437 38.746
27.0896 38.5851
27.1354 38.7758
27.1814 38.622
27.2272 38.4768
27.2732 38.4459
27.3191 38.2173
27.3651 38.4598
27.4109 38.3309
27.4569 38.5146
27.5027 38.4915
27.5488 38.4761
27.5946 38.2589
27.6407 37.9751
27.6865 37.9815
27.7326 37.7553
27.7784 37.9093
27.8245 37.7743
27.8703 37.7605
27.9164 38.1975
27.9623 38.3046
28.0084 38.7994
28.0543 39.0947
28.1003 38.9492
28.1462 38.7815
28.1923 38.33
28.2384 37.755
28.2843 37.48
28.3304 37.0351
28.3764 36.6311
28.4225 36.4034
28.4684 36.1016
28.5145 35.9004
28.5605 35.7559
28.6066 35.5706
28.6526 35.6714
28.6987 35.5275
28.7447 35.378
28.7908 35.3687
28.8368 35.4343
28.8829 35.4423
28.9289 35.3689
28.9751 35.1121
29.0211 34.8589
29.0673 34.6048
29.1133 34.5261
29.1595 34.325
29.2055 34.2247
29.2517 34.3018
29.2977 34.2037
29.3439 34.2021
29.3899 34.1519
29.4361 34.044
29.4824 33.8737
29.5284 33.6466
29.5746 33.2522
29.6207 33.0016
29.6669 32.9853
29.713 32.9089
29.7593 32.866
29.8053 32.803
29.8516 32.6404
29.8977 32.6563
29.9439 32.5778
29.99 32.5092
30.0363 32.4066
30.0824 32.373
30.1287 32.3616
30.1748 32.4106
30.2211 32.3103
30.2673 32.2572
30.3136 32.4212
30.3597 32.1585
30.406 32.0989
30.4522 32.0919
30.4985 32.0343
30.5447 32.1598
30.591 32.0492
30.6372 32.0998
30.6835 32.2078
30.7297 32.133
30.7761 32.1221
30.8224 31.8717
30.8686 31.7672
30.915 31.5565
30.9612 31.4505
31.0076 31.2156
31.0538 31.1539
31.1002 31.0044
31.1464 30.9902
31.1928 30.8228
31.2391 30.9483
31.2855 30.8203
31.3317 30.7863
31.3781 30.8429
31.4244 30.8757
31.4708 30.8921
31.5171 30.6596
31.5636 30.6757
31.6098 30.3921
31.6563 30.3411
31.7026 30.1891
31.7491 30.0521
31.7953 30.0921
31.8418 30.0001
31.8881 30.1618
31.9346 29.9699
31.9809 29.9307
32.0275 29.9338
32.074 29.7566
32.1203 29.5962
32.1668 29.469
32.2132 29.3284
32.2597 29.1843
32.306 29.0955
32.3526 28.9319
32.399 28.8417
32.4455 28.6991
32.4919 28.6668
32.5385 28.5973
32.5848 28.4503
32.6314 28.3715
32.6778 28.3799
32.7244 28.2415
32.7708 28.1115
32.8174 28.0539
32.8638 27.922
32.9104 28.0692
32.9569 27.9533
33.0035 27.862
33.0499 27.7406
33.0966 27.7682
33.143 27.7005
33.1897 27.6737
33.2361 27.517
33.2828 27.5211
33.3293 27.3475
33.3759 27.3281
33.4226 27.1379
33.4691 27.0255
33.5158 26.9004
33.5623 26.8644
33.609 26.6285
33.6555 26.611
33.7022 26.6025
33.7487 26.5012
33.7954 26.4762
33.842 26.3267
33.8887 26.2479
33.9353 26.1952
33.982 26.1058
34.0286 26.0447
34.0753 25.937
34.1219 25.9068
34.1687 25.9072
34.2152 25.715
34.262 25.6213
34.3086 25.4983
34.3554 25.4631
34.402 25.3593
34.4488 25.1938
34.4954 25.2288
34.5422 25.1347
34.5889 24.9398
34.6357 24.8999
34.6825 24.8298
34.7292 24.6983
34.776 24.6416
34.8227 24.6686
34.8695 24.5885
34.9162 24.5583
34.9631 24.3885
35.0098 24.4261
35.0566 24.3211
35.1033 24.2635
35.1502 24.27
35.1969 24.1331
35.2438 24.0995
35.2906 24.1174
35.3375 24.0777
35.3842 24.033
35.4311 23.9824
35.4779 23.9513
35.5248 23.8479
35.5716 23.7969
35.6185 23.6842
35.6653 23.574
35.7123 23.4247
35.759 23.4282
35.806 23.2697
35.8528 23.2461
35.8998 23.1549
35.9468 23.0802
35.9936 23.047
36.0406 22.9867
36.0874 23.0238
36.1345 22.8322
36.1813 22.7521
36.2283 22.6346
36.2752 22.661
36.3222 22.5615
36.3691 22.5704
36.4161 22.3413
36.463 22.4148
36.5101 22.347
36.557 22.3837
36.6041 22.1503
36.651 22.059
36.6981 22.0333
36.745 21.9762
36.7921 21.9426
36.839 21.8155
36.8861 21.82
36.9331 21.7111
36.9802 21.6608
37.0272 21.4881
37.0743 21.4936
37.1213 21.4103
37.1684 21.3207
37.2154 21.302
37.2626 21.1876
37.3098 21.2452
37.3568 21.1916
37.404 21.102
37.451 21.0101
37.4982 20.9188
37.5452 20.7688
37.5924 20.7895
37.6395 20.8119
37.6867 20.7154
37.7337 20.5455
37.781 20.4866
37.8281 20.4371
37.8753 20.3049
37.9224 20.2576
37.9697 20.2347
38.0168 20.1924
38.064 20.0711
38.1111 20.0531
38.1584 20.0354
38.2056 19.9286
38.2529 19.8654
38.3 19.7628
38.3473 19.7955
38.3945 19.6664
38.4418 19.5755
38.489 19.6037
38.5363 19.4452
38.5837 19.4617
38.6309 19.3944
38.6782 19.3042
38.7254 19.2234
38.7728 19.2273
38.82 19.1687
38.8674 19.0874
38.9146 19.036
38.9621 18.8789
39.0093 18.8284
39.0567 18.8332
39.104 18.7851
39.1514 18.7084
39.1987 18.6901
39.2461 18.6368
39.2934 18.5771
39.3409 18.4594
39.3882 18.333
39.4356 18.3445
39.483 18.2076
39.5304 18.177
39.5778 18.1921
39.6253 18.0906
39.6726 18.0328
39.7201 17.9947
39.7675 17.9159
39.815 17.9075
39.8624 17.8225
39.9099 17.8162
39.9575 17.7302
40.0049 17.6988
40.0525 17.5303
40.0999 17.6059
40.1474 17.4765
40.1949 17.4737
40.2425 17.3896
40.2899 17.292
40.3375 17.2835
40.385 17.2376
40.4326 17.1269
40.48 17.0797
40.5277 17.0796
40.5752 17.0587
40.6228 16.9256
40.6703 16.9393
40.718 16.8506
40.7655 16.8085
40.8132 16.7362
40.8607 16.7375
40.9084 16.6435
40.9559 16.6126
41.0036 16.5799
41.0512 16.5412
41.0989 16.4543
41.1465 16.3836
41.1942 16.2985
41.242 16.2302
41.2896 16.2051
41.3373 16.1515
41.3849 16.105
41.4327 16.0569
41.4803 15.9811
41.5281 15.9344
41.5758 15.874
41.6236 15.8076
41.6712 15.7903
41.7191 15.6811
41.7667 15.6303
41.8146 15.6225
41.8622 15.5379
41.9101 15.5355
41.9578 15.4601
42.0057 15.3923
42.0534 15.3365
42.1013 15.2974
42.149 15.2696
42.1969 15.1935
42.2446 15.1818
42.2925 15.115
42.3403 15.0747
42.3882 15.0147
42.436 14.9881
42.4839 14.9114
42.5319 14.8665
42.5797 14.7832
42.6277 14.7435
42.6755 14.7417
42.7235 14.6513
42.7713 14.6242
42.8193 14.556
42.8671 14.5477
42.9152 14.4597
42.963 14.4169
43.0111 14.3246
43.0589 14.319
43.107 14.2284
43.1549 14.2367
43.2029 14.1631
43.2508 14.1349
43.2989 14.0492
43.3468 13.9705
43.3949 13.9508
43.4429 13.8915
43.491 13.8741
43.5389 13.8066
43.5871 13.7698
43.635 13.7066
43.6832 13.6539
43.7312 13.6494
43.7793 13.5587
43.8273 13.5243
43.8755 13.4884
43.9237 13.438
43.9717 13.4027
44.0199 13.3281
44.068 13.372
44.1162 13.2959
44.1642 13.2191
44.2125 13.2105
44.2606 13.1257
44.3088 13.0533
44.3569 12.9928
44.4052 12.9637
44.4533 12.8833
44.5016 12.9128
44.5497 12.8558
44.598 12.8026
44.6461 12.8036
44.6945 12.685
44.7426 12.6719
44.791 12.6298
44.8391 12.5788
44.8875 12.5359
44.9357 12.4492
44.984 12.4431
45.0322 12.4106
45.0806 12.3348
45.1288 12.3423
45.1773 12.2835
45.2257 12.2587
45.2739 12.1584
45.3224 12.1183
45.3706 12.1068
45.4191 12.0448
45.4673 12.0704
45.5158 11.9703
45.5641 11.9045
45.6126 11.8931
45.6609 11.8057
45.7094 11.7832
45.7577 11.7496
45.8063 11.7196
45.8546 11.6643
45.9031 11.6218
45.9515 11.6159
46.0001 11.5389
46.0484 11.5049
46.097 11.5074
46.1454 11.4232
46.194 11.3878
46.2424 11.3428
46.291 11.3066
46.3395 11.2845
46.3881 11.1606
46.4365 11.2273
46.4852 11.1549
46.5337 11.0742
46.5823 11.1141
46.631 11.0358
46.6795 10.9848
46.7282 10.9845
46.7767 10.9158
46.8254 10.8525
46.8739 10.8078
46.9226 10.7694
46.9712 10.7403
47.0199 10.6961
47.0685 10.6777
47.1173 10.6163
47.1658 10.5691
47.2146 10.548
47.2632 10.4815
47.312 10.4904
47.3606 10.3961
47.4095 10.4008
47.4581 10.3498
47.5069 10.2694
47.5556 10.2725
47.6044 10.1939
47.6531 10.2021
47.702 10.1591
47.7507 10.1081
47.7996 10.0831
47.8483 10.0594
47.8972 10.0515
47.9461 9.93944
47.9948 9.92901
48.0438 9.92438
48.0925 9.86382
48.1415 9.83508
48.1902 9.80275
48.2392 9.80926
48.288 9.72156
48.337 9.68531
48.3858 9.64312
48.4348 9.62953
48.4837 9.57858
48.5327 9.54285
48.5815 9.51978
48.6306 9.48141
48.6795 9.47816
48.7285 9.39225
48.7774 9.40079
48.8265 9.35092
48.8754 9.30674
48.9245 9.27206
48.9734 9.24902
49.0226 9.2003
49.0715 9.17179
49.1206 9.11732
49.1696 9.09961
49.2188 9.05299
49.2679 9.03848
49.3169 8.96366
49.3661 8.9315
49.4151 8.92116
49.4643 8.89524
49.5134 8.84961
49.5626 8.77617
49.6117 8.7805
49.6609 8.77991
49.71 8.73703
49.7592 8.69357
49.8083 8.65705
49.8576 8.6414
49.9067 8.55677
49.956 8.56548
50.0052 8.50205
50.0545 8.49267
50.1036 8.41812
50.153 8.42931
50.2022 8.3757
50.2515 8.35131
50.3007 8.29507
50.3501 8.3131
50.3993 8.23575
50.4487 8.20912
50.498 8.21211
50.5474 8.19458
50.5966 8.141
50.6461 8.07144
50.6955 8.07018
50.7448 8.04448
50.7943 8.00711
50.8436 7.97133
50.8931 7.93894
50.9424 7.90233
50.9919 7.88295
51.0413 7.84736
51.0908 7.81343
51.1402 7.78967
51.1897 7.75141
51.2391 7.71909
51.2887 7.68966
51.3381 7.64221
51.3877 7.63744
51.4371 7.59404
51.4867 7.56967
51.5362 7.52746
51.5858 7.51873
51.6353 7.44685
51.6849 7.44741
51.7344 7.43324
51.7841 7.41994
51.8336 7.37127
51.8833 7.33971
51.9328 7.31959
51.9826 7.26445
52.0323 7.23252
52.0818 7.20181
52.1316 7.17334
52.1812 7.14208
52.231 7.09807
52.2806 7.06236
52.3304 7.02997
52.38 7.05193
52.4298 6.99929
52.4794 6.97585
52.5293 6.9173
52.5789 6.92827
52.6288 6.88471
52.6785 6.875
52.7284 6.84575
52.7781 6.78126
52.828 6.78694
52.8777 6.73292
52.9276 6.71433
52.9774 6.69444
53.0273 6.66871
53.0771 6.6104
53.1271 6.61181
53.1769 6.57782
53.2269 6.52234
53.2767 6.51159
53.3267 6.47309
53.3765 6.51216
53.4266 6.40351
53.4766 6.42388
53.5265 6.34595
53.5765 6.35866
53.6264 6.35499
53.6765 6.27791
53.7264 6.24598
53.7765 6.21906
53.8265 6.22469
53.8766 6.21499
53.9266 6.19924
53.9767 6.14329
54.0267 6.12635
54.0769 6.09106
54.1269 6.04873
54.1771 6.01909
54.2271 5.98562
54.2773 5.9057
54.3274 5.92856
54.3776 5.88855
54.4277 5.86753
54.478 5.81629
54.528 5.7909
54.5783 5.726
54.6285 5.71506
54.6788 5.69402
54.7289 5.65855
54.7792 5.56051
54.8296 5.53476
54.8798 5.50311
54.9301 5.49463
54.9803 5.41522
55.0307 5.45639
55.0809 5.34557
55.1314 5.34921
55.1816 5.26547
55.232 5.22507
55.2823 5.20867
55.3328 5.14228
55.383 5.09138
55.4335 5.04766
55.4838 4.9902
55.5344 4.96483
55.5847 4.89124
55.6352 4.93311
55.6856 4.86946
55.7361 4.79427