File: XRD/Ni3Fe_FD0725.xy
TT I
1.27165 7.55006
1.31627 7.23071
1.36089 6.87125
1.40551 6.82934
1.45013 6.28681
1.49476 6.70368
1.53938 6.05507
1.584 5.57539
1.62863 4.97401
1.67325 4.94774
1.71787 5.0378
1.7625 5.37179
1.80712 4.46861
1.85174 4.66137
1.89636 4.95515
1.94099 5.58243
1.98562 4.51541
2.03025 4.55999
2.07487 4.32885
2.11949 4.97847
2.16411 5.54064
2.20874 12.9128
2.25338 18.6449
2.298 5.98703
2.34263 4.89841
2.38725 5.89604
2.43188 6.40566
2.4765 7.01772
2.52115 6.48959
2.56577 8.43477
2.6104 8.08913
2.65503 7.52118
2.69965 8.74528
2.7443 8.07428
2.78893 8.09508
2.83356 8.78531
2.87818 8.63448
2.92281 8.46379
2.96744 9.73165
3.01209 10.5271
3.05672 10.6408
3.10135 12.1418
3.14599 13.0675
3.19062 14.4534
3.23527 15.0358
3.2799 16.1874
3.32454 16.8763
3.36917 17.7586
3.4138 19.0121
3.45844 19.5219
3.50309 21.1742
3.54773 21.752
3.59237 23.5398
3.637 79.6144
3.68164 50.943
3.7263 26.3436
3.77094 25.8359
3.81558 26.9396
3.86022 26.9653
3.90486 28.9777
3.9495 29.6107
3.99416 31.0888
4.0388 31.9226
4.08344 33.5421
4.12809 34.5864
4.17273 36.5792
4.21738 42.0785
4.26204 211.224
4.30669 180.173
4.35133 47.1
4.39598 43.9313
4.44063 52.8116
4.4853 61.775
4.52995 50.7091
4.5746 51.7987
4.61925 53.4364
4.6639 55.4933
4.70855 57.9595
4.75322 60.955
4.79788 64.5389
4.84253 67.2722
4.88719 71.7824
4.93184 75.589
4.97652 80.8758
5.02118 86.7751
5.06583 94.6067
5.11049 105.104
5.15515 163.705
5.19981 342.798
5.24449 2873.03
5.28916 12650.2
5.33382 2861.57
5.37848 185.71
5.42315 128.557
5.46783 113.488
5.5125 106.345
5.55716 101.992
5.60183 98.706
5.6465 96.5586
5.69117 94.5029
5.73586 92.2271
5.78053 92.0251
5.8252 91.0927
5.86988 92.642
5.91455 94.0318
5.95924 101.188
6.00392 203.448
6.0486 956.083
6.09328 4480.88
6.13795 3150.2
6.18263 233.228
6.22733 91.9311
6.27201 82.2275
6.3167 96.3508
6.36138 78.1667
6.40606 69.0819
6.45075 67.4914
6.49545 65.7192
6.54014 63.7197
6.58483 63.0612
6.62952 62.273
6.67421 87.8206
6.71892 125.148
6.76361 66.6252
6.8083 58.5632
6.853 57.4849
6.89769 57.2494
6.94239 56.4971
6.98711 55.5068
7.03181 55.5805
7.07651 55.2652
7.12121 55.2551
7.16591 55.3036
7.21063 55.2192
7.25533 68.1135
7.30004 152.85
7.34475 83.0161
7.38945 56.3837
7.43416 54.3887
7.47889 54.3797
7.5236 54.7301
7.56831 55.2292
7.61303 56.7248
7.65774 56.6642
7.70247 56.3693
7.74719 56.3661
7.79191 56.7101
7.83663 56.7744
7.88135 57.8194
7.92607 58.9777
7.97081 59.656
8.01553 60.8008
8.06026 62.2279
8.10498 63.8227
8.14971 71.8712
8.19446 71.0123
8.23919 69.3597
8.28392 71.914
8.32865 73.8813
8.37339 78.7285
8.41812 84.7414
8.46288 109.074
8.50761 161.423
8.55235 382.475
8.59709 1220.42
8.64183 2131.2
8.68658 953.557
8.73134 166.418
8.77609 98.7662
8.82083 92.5697
8.86558 89.8237
8.91033 89.5789
8.9551 90.3853
8.99985 85.1459
9.04461 83.467
9.08936 83.0176
9.13412 82.2541
9.17888 82.1165
9.22365 82.5234
9.26841 82.1868
9.31318 82.3214
9.35794 83.2683
9.4027 83.4769
9.44749 84.3581
9.49226 84.4578
9.53703 85.4943
9.5818 87.2605
9.62657 91.7505
9.67134 97.1773
9.71614 93.3963
9.76091 93.6616
9.80569 96.2993
9.85047 99.7656
9.89525 119.79
9.94005 130.525
9.98484 174.467
10.0296 341.411
10.0744 831.851
10.1192 1771.76
10.164 1571.55
10.2088 400.64
10.2536 125.764
10.2984 111.888
10.3432 112.337
10.388 104.522
10.4328 118.009
10.4776 159.169
10.5224 287.426
10.5672 510.55
10.612 507.339
10.6568 204.185
10.7017 96.3666
10.7465 86.7445
10.7913 83.1046
10.8361 81.099
10.8809 79.0932
10.9257 78.1971
10.9706 78.1198
11.0154 74.7428
11.0602 72.6575
11.105 71.6913
11.1499 74.9715
11.1947 80.5304
11.2395 72.9957
11.2844 69.6279
11.3292 67.1586
11.374 65.8096
11.4189 65.4036
11.4637 64.8786
11.5086 65.0643
11.5534 67.3908
11.5983 65.0054
11.6431 63.4054
11.688 62.7692
11.7328 62.739
11.7777 62.4033
11.8225 62.5418
11.8674 62.574
11.9122 62.6136
11.9571 62.9553
12.002 63.5997
12.0468 67.3142
12.0917 78.0182
12.1366 103.399
12.1814 155.579
12.2263 202.746
12.2712 161.74
12.3161 95.1583
12.3609 69.5481
12.4058 64.4569
12.4507 64.2061
12.4956 64.2935
12.5405 64.2273
12.5853 65.6039
12.6302 71.7285
12.6751 75.9654
12.72 69.3091
12.7649 67.4818
12.8098 68.1061
12.8547 69.536
12.8996 70.8869
12.9445 72.2006
12.9894 73.6692
13.0343 75.5048
13.0792 79.1685
13.1242 87.7867
13.1691 110.328
13.214 148.534
13.2589 243.954
13.3038 373.15
13.3487 412.074
13.3937 263.655
13.4386 125.559
13.4835 105.101
13.5285 119.956
13.5734 160.466
13.6183 255.356
13.6633 345.981
13.7082 328.901
13.7531 183.55
13.7981 97.1509
13.843 81.6714
13.888 79.3582
13.9329 77.0143
13.9779 75.7646
14.0228 74.4564
14.0678 72.9458
14.1127 72.3676
14.1577 72.0486
14.2027 71.1902
14.2476 70.1793
14.2926 70.5005
14.3376 71.0509
14.3825 69.9083
14.4275 68.5704
14.4725 68.6882
14.5175 68.7275
14.5624 69.2121
14.6074 70.7385
14.6524 71.026
14.6974 70.2663
14.7424 71.9227
14.7874 78.5047
14.8324 88.8008
14.8774 111.726
14.9224 156.167
14.9674 207.197
15.0124 214.535
15.0574 146.869
15.1024 90.7537
15.1474 72.1213
15.1924 70.252
15.2374 70.5039
15.2824 69.744
15.3274 67.8792
15.3725 66.912
15.4175 66.2341
15.4625 65.891
15.5076 65.9965
15.5526 65.9885
15.5976 65.4974
15.6426 66.558
15.6877 71.9451
15.7327 79.1117
15.7778 95.28
15.8228 128.035
15.8679 172.523
15.9129 189.874
15.958 153.382
16.003 97.5008
16.0481 68.0882
16.0931 64.0817
16.1382 62.1299
16.1833 60.4449
16.2283 58.8345
16.2734 58.1992
16.3185 58.3838
16.3636 58.8198
16.4086 57.5878
16.4537 56.1264
16.4988 55.3917
16.5439 55.4536
16.589 55.0609
16.6341 54.695
16.6792 54.5027
16.7243 54.6083
16.7694 54.7693
16.8145 54.7023
16.8596 55.1692
16.9047 56.4662
16.9498 56.2243
16.9949 55.525
17.04 55.6983
17.0851 56.9014
17.1302 58.465
17.1754 61.5658
17.2205 66.8151
17.2656 74.8625
17.3108 82.248
17.3559 81.2994
17.401 70.5448
17.4462 62.0169
17.4913 58.9879
17.5365 58.9383
17.5815 58.934
17.6268 59.59
17.6718 60.3299
17.7171 60.849
17.7622 61.2084
17.8074 61.8272
17.8525 64.1409
17.8977 68.0051
17.9428 73.6099
17.9881 82.9396
18.0331 101.171
18.0784 122.795
18.1237 137.767
18.1688 130.384
18.214 103.324
18.2591 87.3983
18.3044 91.1554
18.3495 99.9742
18.3948 104.964
18.4399 95.074
18.4852 77.1719
18.5303 65.8421
18.5756 61.9675
18.6207 61.1845
18.666 60.4153
18.7112 59.5176
18.7565 58.9046
18.8016 58.4905
18.8469 57.9987
18.892 57.8057
18.9374 57.0858
18.9825 56.9533
19.0278 56.6498
19.073 56.9971
19.1183 57.1784
19.1635 57.8411
19.2088 59.3137
19.254 62.2286
19.2993 67.0296
19.3447 73.0333
19.3898 75.73
19.4352 71.3244
19.4804 63.037
19.5257 56.613
19.5709 54.0713
19.6163 53.7597
19.6615 53.6171
19.7068 53.1448
19.752 53.1509
19.7974 53.4166
19.8426 54.2024
19.888 54.9279
19.9332 55.9299
19.9786 58.7877
20.0238 62.8856
20.0692 67.0592
20.1144 69.4799
20.1598 67.9295
20.205 63.4861
20.2504 62.4773
20.2957 64.0611
20.3411 65.2476
20.3863 63.4127
20.4318 58.2315
20.477 53.5756
20.5224 51.4131
20.5677 50.6975
20.6131 49.9839
20.6586 49.6014
20.7038 49.5347
20.7493 48.9793
20.7945 48.9673
20.84 48.8215
20.8853 48.4407
20.9307 48.4551
20.976 48.669
21.0215 48.6862
21.0668 48.9299
21.1122 49.3128
21.1575 50.121
21.203 51.0885
21.2483 51.1184
21.2938 51.2391
21.3391 50.089
21.3846 48.7595
21.4299 48.3312
21.4754 48.2114
21.5207 48.4912
21.5662 48.6383
21.6116 48.9475
21.6571 49.8888
21.7024 50.8182
21.7479 52.5016
21.7933 55.3792
21.8388 59.1956
21.8843 62.755
21.9297 64.5182
21.9752 63.023
22.0206 59.463
22.0661 56.5012
22.1115 55.8411
22.157 55.5012
22.2024 54.091
22.248 51.398
22.2933 49.8446
22.3389 48.9144
22.3843 48.8065
22.4299 48.7805
22.4753 48.6738
22.5208 48.474
22.5662 48.3751
22.6118 48.6033
22.6572 48.682
22.7028 49.1823
22.7483 49.696
22.7939 50.3928
22.8393 52.1399
22.8849 54.1617
22.9303 56.173
22.9759 57.3568
23.0214 57.0253
23.067 54.3589
23.1126 51.1011
23.1581 49.0629
23.2037 48.631
23.2492 48.6823
23.2948 48.7352
23.3403 48.9972
23.3859 49.5824
23.4314 50.8398
23.477 52.6228
23.5225 54.9461
23.5682 56.6584
23.6137 57.3376
23.6593 55.0995
23.7048 51.337
23.7505 48.3357
23.796 46.4585
23.8417 45.9435
23.8872 45.4111
23.9329 45.0841
23.9784 44.7043
24.0241 44.4759
24.0697 44.3433
24.1154 43.9095
24.1609 43.9836
24.2066 43.8019
24.2522 43.6749
24.2979 43.3299
24.3434 43.2026
24.3892 43.1049
24.4349 43.0666
24.4805 42.8809
24.5262 42.9709
24.5718 42.9172
24.6175 42.7341
24.6631 42.8559
24.7089 42.4156
24.7545 42.3027
24.8002 42.1532
24.8458 42.188
24.8916 41.99
24.9372 42.1553
24.983 42.4194
25.0286 42.7778
25.0744 43.1733
25.12 43.6606
25.1658 44.2358
25.2114 44.4689
25.2572 44.748
25.3029 44.8184
25.3487 44.6952
25.3943 44.5023
25.4402 43.3908
25.4858 42.3505
25.5316 41.4682
25.5773 40.9669
25.6231 40.9409
25.669 40.4951
25.7147 40.5316
25.7605 40.4122
25.8062 40.2858
25.8521 40.6418
25.8977 40.4372
25.9436 40.7953
25.9893 40.8392
26.0352 41.3434
26.0809 41.3899
26.1268 41.5429
26.1725 41.2204
26.2184 40.7265
26.2641 40.2321
26.31 40.0403
26.3557 40.0492
26.4017 40.006
26.4474 40.3744
26.4933 40.6633
26.5391 41.0746
26.585 41.6754
26.6308 41.9956
26.6767 41.8757
26.7225 41.8232
26.7684 41.2743
26.8142 40.6923
26.8601 40.427
26.9059 39.9773
26.9519 39.439
26.9979 39.0733
27.0437 38.8171
27.0896 38.5891
27.1354 38.8249
27.1814 38.5673
27.2272 38.3735
27.2732 38.4781
27.3191 38.2868
27.3651 38.3828
27.4109 38.404
27.4569 38.5389
27.5027 38.4695
27.5488 38.4639
27.5946 38.2906
27.6407 38.0143
27.6865 38.0381
27.7326 37.7216
27.7784 37.9007
27.8245 37.8366
27.8703 37.8335
27.9164 38.2689
27.9623 38.3155
28.0084 38.721
28.0543 38.9102
28.1003 38.8727
28.1462 38.783
28.1923 38.4433
28.2384 37.8232
28.2843 37.3892
28.3304 37.0699
28.3764 36.7215
28.4225 36.2514
28.4684 36.2686
28.5145 35.8682
28.5605 35.8162
28.6066 35.6671
28.6526 35.5379
28.6987 35.6875
28.7447 35.4052
28.7908 35.4016
28.8368 35.407
28.8829 35.2713
28.9289 35.2708
28.9751 35.1013
29.0211 34.8592
29.0673 34.6815
29.1133 34.4287
29.1595 34.2701
29.2055 34.1632
29.2517 34.3221
29.2977 34.19
29.3439 34.1782
29.3899 34.1018
29.4361 34.1296
29.4824 33.9002
29.5284 33.5242
29.5746 33.4081
29.6207 32.9477
29.6669 33.1175
29.713 32.9147
29.7593 32.8726
29.8053 32.859
29.8516 32.8276
29.8977 32.6514
29.9439 32.5057
29.99 32.485
30.0363 32.4325
30.0824 32.458
30.1287 32.3094
30.1748 32.3088
30.2211 32.3775
30.2673 32.1369
30.3136 32.278
30.3597 32.2112
30.406 32.1167
30.4522 31.887
30.4985 31.9872
30.5447 32.0812
30.591 32.0682
30.6372 32.204
30.6835 32.0544
30.7297 32.0818
30.7761 32.08
30.8224 32.0172
30.8686 31.787
30.915 31.591
30.9612 31.4168
31.0076 31.251
31.0538 31.1448
31.1002 31.0421
31.1464 30.9004
31.1928 30.8489
31.2391 30.9936
31.2855 30.9492
31.3317 30.8077
31.3781 30.843
31.4244 30.8192
31.4708 30.7505
31.5171 30.8509
31.5636 30.6777
31.6098 30.5165
31.6563 30.3253
31.7026 30.0762
31.7491 30.0858
31.7953 30.1843
31.8418 30.0802
31.8881 30.1072
31.9346 29.9991
31.9809 30.0212
32.0275 29.8731
32.074 29.8544
32.1203 29.5678
32.1668 29.4646
32.2132 29.2751
32.2597 29.0918
32.306 29.1217
32.3526 28.832
32.399 28.8601
32.4455 28.7055
32.4919 28.5611
32.5385 28.6447
32.5848 28.3338
32.6314 28.4389
32.6778 28.4075
32.7244 28.2148
32.7708 28.0126
32.8174 28.1856
32.8638 27.9468
32.9104 28.0497
32.9569 27.8832
33.0035 27.8246
33.0499 27.8158
33.0966 27.7496
33.143 27.7416
33.1897 27.6381
33.2361 27.4903
33.2828 27.543
33.3293 27.2452
33.3759 27.3195
33.4226 27.2084
33.4691 27.1359
33.5158 26.984
33.5623 26.7998
33.609 26.6733
33.6555 26.6833
33.7022 26.5592
33.7487 26.4879
33.7954 26.4904
33.842 26.3635
33.8887 26.2573
33.9353 26.1833
33.982 26.0501
34.0286 26.0127
34.0753 25.9484
34.1219 25.8796
34.1687 25.8971
34.2152 25.6476
34.262 25.6334
34.3086 25.522
34.3554 25.4338
34.402 25.3131
34.4488 25.2124
34.4954 25.2162
34.5422 25.0011
34.5889 25.0145
34.6357 24.8994
34.6825 24.8733
34.7292 24.7309
34.776 24.6548
34.8227 24.6381
34.8695 24.6021
34.9162 24.4954
34.9631 24.4122
35.0098 24.4019
35.0566 24.2594
35.1033 24.1578
35.1502 24.1858
35.1969 24.1761
35.2438 24.1595
35.2906 24.0576
35.3375 24.0146
35.3842 23.8896
35.4311 23.9678
35.4779 23.8761
35.5248 23.8372
35.5716 23.7136
35.6185 23.7097
35.6653 23.5406
35.7123 23.4517
35.759 23.3927
35.806 23.2916
35.8528 23.1869
35.8998 23.1713
35.9468 23.0644
35.9936 23.002
36.0406 22.9591
36.0874 23.0151
36.1345 22.8713
36.1813 22.7708
36.2283 22.693
36.2752 22.5988
36.3222 22.6104
36.3691 22.5094
36.4161 22.4506
36.463 22.3834
36.5101 22.3769
36.557 22.2841
36.6041 22.1652
36.651 22.1416
36.6981 22.0682
36.745 22.0346
36.7921 21.9768
36.839 21.8963
36.8861 21.8292
36.9331 21.7294
36.9802 21.5786
37.0272 21.5205
37.0743 21.4555
37.1213 21.475
37.1684 21.3187
37.2154 21.2507
37.2626 21.1942
37.3098 21.1341
37.3568 21.0476
37.404 21.0485
37.451 20.8785
37.4982 20.857
37.5452 20.7455
37.5924 20.8038
37.6395 20.7824
37.6867 20.6468
37.7337 20.5608
37.781 20.5075
37.8281 20.4691
37.8753 20.3737
37.9224 20.2991
37.9697 20.2174
38.0168 20.1852
38.064 20.1087
38.1111 20.0516
38.1584 19.9404
38.2056 19.8547
38.2529 19.8801
38.3 19.7748
38.3473 19.7913
38.3945 19.6181
38.4418 19.6295
38.489 19.5749
38.5363 19.4688
38.5837 19.4559
38.6309 19.3971
38.6782 19.3674
38.7254 19.2008
38.7728 19.1655
38.82 19.1273
38.8674 19.0393
38.9146 19.011
38.9621 18.93
39.0093 18.8859
39.0567 18.8324
39.104 18.7479
39.1514 18.6474
39.1987 18.6553
39.2461 18.6013
39.2934 18.503
39.3409 18.4146
39.3882 18.3844
39.4356 18.361
39.483 18.2894
39.5304 18.1752
39.5778 18.2173
39.6253 18.12
39.6726 18.0607
39.7201 18.049
39.7675 17.9886
39.815 17.9065
39.8624 17.7674
39.9099 17.8377
39.9575 17.6949
40.0049 17.6071
40.0525 17.5611
40.0999 17.5437
40.1474 17.4991
40.1949 17.4342
40.2425 17.3514
40.2899 17.2712
40.3375 17.2507
40.385 17.2235
40.4326 17.1467
40.48 17.0702
40.5277 17.0991
40.5752 17.0562
40.6228 16.9636
40.6703 16.8837
40.718 16.797
40.7655 16.7854
40.8132 16.68
40.8607 16.6796
40.9084 16.6103
40.9559 16.5527
41.0036 16.5459
41.0512 16.4234
41.0989 16.4099
41.1465 16.3441
41.1942 16.3239
41.242 16.2447
41.2896 16.2228
41.3373 16.1245
41.3849 16.032
41.4327 15.9976
41.4803 15.9256
41.5281 15.893
41.5758 15.854
41.6236 15.8172
41.6712 15.7838
41.7191 15.73
41.7667 15.7
41.8146 15.5943
41.8622 15.5786
41.9101 15.5027
41.9578 15.3732
42.0057 15.4351
42.0534 15.3234
42.1013 15.2683
42.149 15.2828
42.1969 15.2104
42.2446 15.1607
42.2925 15.1042
42.3403 15.0864
42.3882 15.032
42.436 14.9408
42.4839 14.8906
42.5319 14.871
42.5797 14.7643
42.6277 14.6869
42.6755 14.6973
42.7235 14.6228
42.7713 14.5619
42.8193 14.5438
42.8671 14.5134
42.9152 14.4286
42.963 14.4128
43.0111 14.345
43.0589 14.3053
43.107 14.2528
43.1549 14.1997
43.2029 14.1254
43.2508 14.1274
43.2989 14.0439
43.3468 13.9503
43.3949 13.952
43.4429 13.9295
43.491 13.8212
43.5389 13.8662
43.5871 13.7429
43.635 13.7314
43.6832 13.6399
43.7312 13.6164
43.7793 13.6069
43.8273 13.5435
43.8755 13.5001
43.9237 13.4464
43.9717 13.4081
44.0199 13.3727
44.068 13.3278
44.1162 13.232
44.1642 13.2131
44.2125 13.1444
44.2606 13.0967
44.3088 13.044
44.3569 13.0649
44.4052 13.0172
44.4533 12.9241
44.5016 12.8646
44.5497 12.8784
44.598 12.8256
44.6461 12.7136
44.6945 12.6879
44.7426 12.6799
44.791 12.5891
44.8391 12.5646
44.8875 12.5804
44.9357 12.4814
44.984 12.4117
45.0322 12.4064
45.0806 12.3468
45.1288 12.3334
45.1773 12.2895
45.2257 12.2657
45.2739 12.1758
45.3224 12.1645
45.3706 12.1016
45.4191 12.0181
45.4673 12.0298
45.5158 11.9631
45.5641 11.884
45.6126 11.8285
45.6609 11.8334
45.7094 11.7608
45.7577 11.7417
45.8063 11.6752
45.8546 11.6446
45.9031 11.5864
45.9515 11.6086
46.0001 11.5373
46.0484 11.5586
46.097 11.4775
46.1454 11.4076
46.194 11.3592
46.2424 11.3456
46.291 11.259
46.3395 11.2574
46.3881 11.2076
46.4365 11.2364
46.4852 11.1193
46.5337 11.0966
46.5823 11.0418
46.631 10.9924
46.6795 10.9842
46.7282 10.9383
46.7767 10.8909
46.8254 10.8654
46.8739 10.8242
46.9226 10.7613
46.9712 10.7593
47.0199 10.6663
47.0685 10.6406
47.1173 10.5758
47.1658 10.5676
47.2146 10.5195
47.2632 10.4681
47.312 10.4255
47.3606 10.4118
47.4095 10.3861
47.4581 10.353
47.5069 10.288
47.5556 10.2439
47.6044 10.2121
47.6531 10.2065
47.702 10.1357
47.7507 10.087
47.7996 10.078
47.8483 10.0539
47.8972 10.0193
47.9461 9.96426
47.9948 9.92752
48.0438 9.89069
48.0925 9.85814
48.1415 9.83973
48.1902 9.80141
48.2392 9.7274
48.288 9.74665
48.337 9.72016
48.3858 9.66184
48.4348 9.60811
48.4837 9.61069
48.5327 9.5684
48.5815 9.50596
48.6306 9.45163
48.6795 9.42426
48.7285 9.40817
48.7774 9.35311
48.8265 9.37207
48.8754 9.30477
48.9245 9.29198
48.9734 9.21354
49.0226 9.21143
49.0715 9.15853
49.1206 9.11699
49.1696 9.07512
49.2188 9.06922
49.2679 9.02992
49.3169 8.97878
49.3661 8.91538
49.4151 8.91034
49.4643 8.90086
49.5134 8.88859
49.5626 8.76676
49.6117 8.7881
49.6609 8.72809
49.71 8.70315
49.7592 8.70993
49.8083 8.62402
49.8576 8.6282
49.9067 8.55061
49.956 8.59593
50.0052 8.48001
50.0545 8.48536
50.1036 8.40756
50.153 8.44739
50.2022 8.38784
50.2515 8.34296
50.3007 8.28366
50.3501 8.26784
50.3993 8.27025
50.4487 8.23187
50.498 8.16441
50.5474 8.16607
50.5966 8.12027
50.6461 8.13134
50.6955 8.09943
50.7448 8.03378
50.7943 8.00306
50.8436 7.9708
50.8931 7.95518
50.9424 7.90902
50.9919 7.86889
51.0413 7.85075
51.0908 7.8062
51.1402 7.81276
51.1897 7.74133
51.2391 7.70945
51.2887 7.72292
51.3381 7.63392
51.3877 7.6305
51.4371 7.60286
51.4867 7.53786
51.5362 7.55784
51.5858 7.50429
51.6353 7.46103
51.6849 7.44273
51.7344 7.42594
51.7841 7.40178
51.8336 7.35992
51.8833 7.32092
51.9328 7.28224
51.9826 7.23993
52.0323 7.21992
52.0818 7.20651
52.1316 7.14862
52.1812 7.14039
52.231 7.11756
52.2806 7.08577
52.3304 7.05594
52.38 7.04535
52.4298 6.98674
52.4794 6.952
52.5293 6.9356
52.5789 6.8963
52.6288 6.89163
52.6785 6.83473
52.7284 6.79665
52.7781 6.82683
52.828 6.76487
52.8777 6.737
52.9276 6.67448
52.9774 6.67593
53.0273 6.65859
53.0771 6.63231
53.1271 6.63614
53.1769 6.59197
53.2269 6.55915
53.2767 6.51436
53.3267 6.48952
53.3765 6.495
53.4266 6.41076
53.4766 6.40803
53.5265 6.37711
53.5765 6.35614
53.6264 6.32323
53.6765 6.33214
53.7264 6.28109
53.7765 6.28007
53.8265 6.20871
53.8766 6.16596
53.9266 6.20306
53.9767 6.16493
54.0267 6.08193
54.0769 6.04907
54.1269 6.04924
54.1771 6.03224
54.2271 5.96442
54.2773 5.93174
54.3274 5.93731
54.3776 5.90304
54.4277 5.85385
54.478 5.82069
54.528 5.80188
54.5783 5.74751
54.6285 5.72239
54.6788 5.6411
54.7289 5.68971
54.7792 5.60262
54.8296 5.56971
54.8798 5.54214
54.9301 5.43521
54.9803 5.43207
55.0307 5.41833
55.0809 5.36709
55.1314 5.32271
55.1816 5.3375
55.232 5.23521
55.2823 5.24787
55.3328 5.13752
55.383 5.10368
55.4335 5.04254
55.4838 5.01362
55.5344 4.95824
55.5847 4.91165
55.6352 4.90974
55.6856 4.88404
55.7361 4.8081