File: XRD/Ni3Fe_FD0487.xy
TT I
1.27165 7.6279
1.31627 6.33407
1.36089 6.48671
1.40551 6.2394
1.45013 7.17533
1.49476 6.31089
1.53938 6.12419
1.584 5.78213
1.62863 5.52172
1.67325 5.45994
1.71787 5.47957
1.7625 4.71704
1.80712 4.86219
1.85174 4.93975
1.89636 4.28256
1.94099 4.51267
1.98562 5.00505
2.03025 3.9226
2.07487 4.46803
2.11949 5.23857
2.16411 4.80501
2.20874 10.8536
2.25338 14.7254
2.298 5.49902
2.34263 5.20269
2.38725 5.22027
2.43188 5.41664
2.4765 6.82249
2.52115 6.67026
2.56577 7.52869
2.6104 8.02486
2.65503 6.89605
2.69965 7.71415
2.7443 7.68393
2.78893 7.60606
2.83356 8.27062
2.87818 8.84017
2.92281 9.38231
2.96744 9.90371
3.01209 9.77159
3.05672 10.6845
3.10135 12.3194
3.14599 13.01
3.19062 14.097
3.23527 15.4649
3.2799 16.0463
3.32454 16.5436
3.36917 17.5557
3.4138 19.0332
3.45844 19.9457
3.50309 20.9728
3.54773 21.9422
3.59237 23.5552
3.637 64.6001
3.68164 43.8582
3.7263 26.4541
3.77094 26.0406
3.81558 26.7325
3.86022 27.3915
3.90486 29.0373
3.9495 30.0002
3.99416 31.1396
4.0388 32.7188
4.08344 33.308
4.12809 34.6275
4.17273 36.4202
4.21738 41.444
4.26204 164.157
4.30669 141.018
4.35133 46.9176
4.39598 44.8935
4.44063 51.0083
4.4853 58.2003
4.52995 52.6577
4.5746 53.0623
4.61925 53.9322
4.6639 56.4937
4.70855 58.7217
4.75322 62.2479
4.79788 65.8673
4.84253 68.9366
4.88719 73.6732
4.93184 76.9662
4.97652 82.9775
5.02118 89.4871
5.06583 98.3312
5.11049 110.996
5.15515 166.508
5.19981 468.266
5.24449 3365.12
5.28916 11664.6
5.33382 3158.56
5.37848 208.468
5.42315 135.107
5.46783 119.179
5.5125 110.616
5.55716 105.112
5.60183 100.74
5.6465 99.1041
5.69117 96.7434
5.73586 94.743
5.78053 95.5057
5.8252 94.6138
5.86988 96.3137
5.91455 98.1876
5.95924 109.274
6.00392 263.67
6.0486 1147.69
6.09328 4137.85
6.13795 3417.33
6.18263 297.656
6.22733 97.5338
6.27201 84.2732
6.3167 92.5929
6.36138 78.4081
6.40606 70.5401
6.45075 68.8922
6.49545 66.1375
6.54014 64.6964
6.58483 63.5222
6.62952 63.4301
6.67421 81.8761
6.71892 108.725
6.76361 65.3353
6.8083 59.5323
6.853 58.4249
6.89769 57.2008
6.94239 57.0748
6.98711 56.3379
7.03181 56.0658
7.07651 56.0299
7.12121 55.8586
7.16591 56.0014
7.21063 55.5584
7.25533 65.6102
7.30004 125.498
7.34475 76.1867
7.38945 56.6142
7.43416 54.9996
7.47889 55.0661
7.5236 55.3863
7.56831 56.086
7.61303 56.9116
7.65774 56.9594
7.70247 56.8709
7.74719 56.8385
7.79191 57.4089
7.83663 57.891
7.88135 58.8059
7.92607 59.7196
7.97081 60.8634
8.01553 61.8357
8.06026 63.4377
8.10498 64.7641
8.14971 71.7142
8.19446 71.4733
8.23919 70.395
8.28392 73.0375
8.32865 75.5956
8.37339 79.9102
8.41812 86.6399
8.46288 109.659
8.50761 192.944
8.55235 448.114
8.59709 1222.25
8.64183 2095.92
8.68658 1046.25
8.73134 183.308
8.77609 102.106
8.82083 94.7941
8.86558 92.7048
8.91033 91.5492
8.9551 91.131
8.99985 86.6594
9.04461 85.2027
9.08936 84.7363
9.13412 83.5974
9.17888 83.8687
9.22365 84.239
9.26841 83.3488
9.31318 84.7976
9.35794 84.8493
9.4027 85.5318
9.44749 85.6298
9.49226 86.1913
9.53703 87.1832
9.5818 89.5075
9.62657 93.5098
9.67134 96.9703
9.71614 94.4892
9.76091 96.1632
9.80569 99.1963
9.85047 102.371
9.89525 118.441
9.94005 132.266
9.98484 205.742
10.0296 398.057
10.0744 879.936
10.1192 1647.94
10.164 1634.25
10.2088 453.273
10.2536 135.483
10.2984 113.881
10.3432 112.802
10.388 107.594
10.4328 126.97
10.4776 175.543
10.5224 300.153
10.5672 488.185
10.612 501.131
10.6568 219.411
10.7017 99.9875
10.7465 88.1865
10.7913 84.6334
10.8361 82.8602
10.8809 80.3014
10.9257 79.0739
10.9706 79.1857
11.0154 75.5886
11.0602 73.8979
11.105 72.8659
11.1499 74.869
11.1947 78.553
11.2395 72.7645
11.2844 70.211
11.3292 68.0408
11.374 67.1652
11.4189 66.5539
11.4637 66.0755
11.5086 65.8101
11.5534 67.6131
11.5983 65.5948
11.6431 64.5009
11.688 63.8057
11.7328 64.031
11.7777 63.6885
11.8225 63.5611
11.8674 63.4247
11.9122 63.7587
11.9571 63.9391
12.002 64.9248
12.0468 70.8422
12.0917 82.89
12.1366 108.856
12.1814 154.022
12.2263 195.85
12.2712 172.063
12.3161 97.7651
12.3609 69.921
12.4058 65.3954
12.4507 65.1864
12.4956 65.2821
12.5405 65.545
12.5853 66.3246
12.6302 70.8474
12.6751 74.1425
12.72 69.6123
12.7649 68.7466
12.8098 69.4257
12.8547 70.8175
12.8996 72.2877
12.9445 73.8935
12.9894 75.6852
13.0343 77.2825
13.0792 81.2107
13.1242 93.9961
13.1691 118.724
13.214 160.882
13.2589 249.446
13.3038 358.035
13.3487 416.85
13.3937 278.451
13.4386 132.154
13.4835 111.639
13.5285 128.596
13.5734 170.692
13.6183 252.725
13.6633 330.917
13.7082 340.656
13.7531 203.068
13.7981 102.833
13.843 83.5475
13.888 80.6595
13.9329 78.446
13.9779 77.2199
14.0228 75.4657
14.0678 74.477
14.1127 73.8667
14.1577 73.1506
14.2027 72.5563
14.2476 71.5109
14.2926 71.6475
14.3376 71.9744
14.3825 70.871
14.4275 69.9719
14.4725 69.8565
14.5175 69.9472
14.5624 70.0378
14.6074 71.3517
14.6524 71.9372
14.6974 71.7034
14.7424 74.7539
14.7874 82.2814
14.8324 93.8841
14.8774 117.755
14.9224 156.503
14.9674 197.679
15.0124 211.655
15.0574 156.452
15.1024 95.9319
15.1474 73.9489
15.1924 71.7645
15.2374 71.1599
15.2824 70.249
15.3274 68.9669
15.3725 67.8051
15.4175 67.2771
15.4625 67.1716
15.5076 67.1529
15.5526 67.0234
15.5976 67.0923
15.6426 69.1321
15.6877 75.4635
15.7327 83.5071
15.7778 100.397
15.8228 130.712
15.8679 165.168
15.9129 186.95
15.958 158.985
16.003 101.884
16.0481 69.8427
16.0931 64.841
16.1382 62.9071
16.1833 61.3232
16.2283 59.9675
16.2734 59.2781
16.3185 59.3134
16.3636 59.0769
16.4086 57.9116
16.4537 57.0135
16.4988 56.2866
16.5439 56.3373
16.589 56.0084
16.6341 55.7881
16.6792 55.4644
16.7243 55.8144
16.7694 55.6083
16.8145 55.5241
16.8596 56.0687
16.9047 56.9917
16.9498 57.0257
16.9949 56.4096
17.04 56.9217
17.0851 58.4402
17.1302 60.1116
17.1754 63.3788
17.2205 68.44
17.2656 74.9009
17.3108 80.8563
17.3559 81.4153
17.401 72.7885
17.4462 63.7201
17.4913 60.1666
17.5365 59.989
17.5815 60.361
17.6268 60.4437
17.6718 61.2211
17.7171 61.5684
17.7622 62.3085
17.8074 63.6706
17.8525 66.6135
17.8977 70.2919
17.9428 76.546
17.9881 86.6041
18.0331 102.417
18.0784 119.749
18.1237 136.238
18.1688 133.679
18.214 109.234
18.2591 90.8342
18.3044 92.198
18.3495 99.1794
18.3948 104.817
18.4399 97.9237
18.4852 80.1264
18.5303 67.6843
18.5756 63.2143
18.6207 62.3766
18.666 61.3467
18.7112 60.713
18.7565 59.978
18.8016 59.3845
18.8469 59.1511
18.892 58.4699
18.9374 58.2888
18.9825 57.9706
19.0278 57.9089
19.073 57.9461
19.1183 58.392
19.1635 59.1446
19.2088 60.9722
19.254 63.8173
19.2993 67.7535
19.3447 72.1105
19.3898 75.5575
19.4352 73.5529
19.4804 65.1954
19.5257 58.073
19.5709 55.0699
19.6163 54.684
19.6615 54.6885
19.7068 53.9916
19.752 54.1759
19.7974 54.6561
19.8426 55.5307
19.888 56.1847
19.9332 57.4528
19.9786 60.2896
20.0238 63.4887
20.0692 67.2729
20.1144 69.8733
20.1598 69.3645
20.205 65.6468
20.2504 63.3336
20.2957 64.0687
20.3411 65.5941
20.3863 64.8484
20.4318 59.5487
20.477 54.8597
20.5224 52.3526
20.5677 51.6025
20.6131 51.0639
20.6586 50.4337
20.7038 50.3747
20.7493 49.9051
20.7945 49.6139
20.84 49.7362
20.8853 49.4081
20.9307 49.3685
20.976 49.5982
21.0215 49.4064
21.0668 49.8781
21.1122 50.3601
21.1575 50.7784
21.203 51.3475
21.2483 51.9498
21.2938 52.153
21.3391 50.9912
21.3846 49.7852
21.4299 49.3116
21.4754 49.2485
21.5207 49.5012
21.5662 49.7203
21.6116 50.1538
21.6571 50.8018
21.7024 51.9447
21.7479 54.079
21.7933 56.7043
21.8388 59.691
21.8843 62.6685
21.9297 64.7556
21.9752 64.2477
22.0206 60.8359
22.0661 57.529
22.1115 56.5339
22.157 56.5371
22.2024 55.2285
22.248 52.5496
22.2933 50.9406
22.3389 49.8556
22.3843 49.7574
22.4299 49.6325
22.4753 49.6511
22.5208 49.3322
22.5662 49.3597
22.6118 49.5909
22.6572 49.8044
22.7028 50.2052
22.7483 50.8005
22.7939 51.5475
22.8393 53.1993
22.8849 54.8825
22.9303 56.4224
22.9759 57.9508
23.0214 57.9991
23.067 55.6073
23.1126 52.2649
23.1581 50.2936
23.2037 49.5008
23.2492 49.858
23.2948 49.7911
23.3403 49.9619
23.3859 50.7535
23.4314 51.926
23.477 53.7428
23.5225 55.3527
23.5682 56.8951
23.6137 57.9635
23.6593 56.4353
23.7048 53.0512
23.7505 49.3844
23.796 47.3591
23.8417 46.6068
23.8872 46.2199
23.9329 46.0103
23.9784 45.5193
24.0241 45.335
24.0697 45.1353
24.1154 44.7665
24.1609 44.8201
24.2066 44.4588
24.2522 44.3351
24.2979 44.1202
24.3434 43.9039
24.3892 43.9223
24.4349 43.8341
24.4805 43.6403
24.5262 43.8401
24.5718 43.5305
24.6175 43.6983
24.6631 43.5764
24.7089 43.2515
24.7545 42.872
24.8002 42.925
24.8458 43.0253
24.8916 42.825
24.9372 42.9
24.983 43.475
25.0286 43.6573
25.0744 43.9641
25.12 44.4907
25.1658 45.0966
25.2114 45.2809
25.2572 45.4189
25.3029 45.2915
25.3487 45.3582
25.3943 45.0035
25.4402 44.1951
25.4858 43.3329
25.5316 42.2601
25.5773 41.6502
25.6231 41.5088
25.669 41.285
25.7147 41.2978
25.7605 41.096
25.8062 41.0891
25.8521 41.2503
25.8977 41.2989
25.9436 41.6753
25.9893 41.653
26.0352 42.0288
26.0809 41.9492
26.1268 42.2885
26.1725 42.0529
26.2184 41.6286
26.2641 41.1193
26.31 40.7322
26.3557 40.9532
26.4017 40.8093
26.4474 41.211
26.4933 41.4975
26.5391 41.901
26.585 42.2046
26.6308 42.6283
26.6767 42.7859
26.7225 42.7226
26.7684 42.1737
26.8142 41.6221
26.8601 41.0977
26.9059 40.7386
26.9519 40.2152
26.9979 39.8974
27.0437 39.5741
27.0896 39.3369
27.1354 39.3524
27.1814 39.2721
27.2272 39.1744
27.2732 39.2299
27.3191 38.8885
27.3651 39.1585
27.4109 39.0289
27.4569 39.012
27.5027 39.177
27.5488 39.0757
27.5946 38.9211
27.6407 38.8143
27.6865 38.7156
27.7326 38.4411
27.7784 38.4693
27.8245 38.4561
27.8703 38.664
27.9164 38.9326
27.9623 38.9178
28.0084 39.301
28.0543 39.5381
28.1003 39.6205
28.1462 39.3856
28.1923 39.0948
28.2384 38.5872
28.2843 38.2677
28.3304 37.7232
28.3764 37.2985
28.4225 37.1157
28.4684 36.8261
28.5145 36.5731
28.5605 36.5056
28.6066 36.2271
28.6526 36.2962
28.6987 36.2669
28.7447 36.0773
28.7908 36.081
28.8368 35.9726
28.8829 36.0003
28.9289 35.9103
28.9751 35.8107
29.0211 35.4467
29.0673 35.2604
29.1133 35.0732
29.1595 34.8898
29.2055 34.9734
29.2517 34.8613
29.2977 34.8128
29.3439 34.768
29.3899 34.6168
29.4361 34.5416
29.4824 34.453
29.5284 34.3715
29.5746 33.9674
29.6207 33.7516
29.6669 33.6407
29.713 33.5155
29.7593 33.317
29.8053 33.3471
29.8516 33.3208
29.8977 33.3669
29.9439 33.2164
29.99 33.0811
30.0363 32.8962
30.0824 33.0868
30.1287 32.9302
30.1748 32.9978
30.2211 32.8747
30.2673 32.7808
30.3136 32.9165
30.3597 32.875
30.406 32.7452
30.4522 32.6079
30.4985 32.6389
30.5447 32.6636
30.591 32.6703
30.6372 32.6577
30.6835 32.6821
30.7297 32.7269
30.7761 32.7291
30.8224 32.5241
30.8686 32.3452
30.915 32.1196
30.9612 32.015
31.0076 31.8393
31.0538 31.6597
31.1002 31.6184
31.1464 31.484
31.1928 31.501
31.2391 31.4063
31.2855 31.3905
31.3317 31.3456
31.3781 31.4688
31.4244 31.4413
31.4708 31.2598
31.5171 31.1711
31.5636 31.2248
31.6098 31.0321
31.6563 30.8479
31.7026 30.8172
31.7491 30.5635
31.7953 30.7147
31.8418 30.6406
31.8881 30.5754
31.9346 30.5387
31.9809 30.517
32.0275 30.3116
32.074 30.2975
32.1203 30.0308
32.1668 30.0705
32.2132 29.8749
32.2597 29.7202
32.306 29.6452
32.3526 29.4041
32.399 29.4663
32.4455 29.291
32.4919 29.0838
32.5385 29.1447
32.5848 28.8639
32.6314 29.0142
32.6778 28.9113
32.7244 28.7418
32.7708 28.5556
32.8174 28.6274
32.8638 28.4238
32.9104 28.4939
32.9569 28.4296
33.0035 28.3593
33.0499 28.3826
33.0966 28.2365
33.143 28.3156
33.1897 28.1456
33.2361 28.0468
33.2828 27.9565
33.3293 27.7943
33.3759 27.8068
33.4226 27.7483
33.4691 27.5245
33.5158 27.4647
33.5623 27.308
33.609 27.1094
33.6555 27.1295
33.7022 27.0605
33.7487 26.9096
33.7954 26.8909
33.842 26.773
33.8887 26.664
33.9353 26.6484
33.982 26.5663
34.0286 26.4474
34.0753 26.4178
34.1219 26.2676
34.1687 26.24
34.2152 26.1553
34.262 25.9593
34.3086 25.949
34.3554 25.9307
34.402 25.7869
34.4488 25.6915
34.4954 25.6691
34.5422 25.5505
34.5889 25.3581
34.6357 25.424
34.6825 25.3557
34.7292 25.2303
34.776 25.1666
34.8227 25.0144
34.8695 25.0474
34.9162 25.0742
34.9631 24.8471
35.0098 24.903
35.0566 24.7437
35.1033 24.6956
35.1502 24.6249
35.1969 24.5251
35.2438 24.6029
35.2906 24.4425
35.3375 24.4744
35.3842 24.3662
35.4311 24.2915
35.4779 24.2509
35.5248 24.2802
35.5716 24.1828
35.6185 24.0533
35.6653 23.95
35.7123 23.9037
35.759 23.7745
35.806 23.7211
35.8528 23.5657
35.8998 23.6469
35.9468 23.4684
35.9936 23.3966
36.0406 23.3731
36.0874 23.3493
36.1345 23.2925
36.1813 23.1505
36.2283 23.0457
36.2752 22.9529
36.3222 23.092
36.3691 22.9732
36.4161 22.7599
36.463 22.7433
36.5101 22.7122
36.557 22.7086
36.6041 22.5888
36.651 22.5226
36.6981 22.4084
36.745 22.4466
36.7921 22.3508
36.839 22.1889
36.8861 22.1734
36.9331 22.1149
36.9802 22.0473
37.0272 21.9991
37.0743 21.772
37.1213 21.9077
37.1684 21.7511
37.2154 21.6677
37.2626 21.609
37.3098 21.4928
37.3568 21.4311
37.404 21.3498
37.451 21.3133
37.4982 21.2788
37.5452 21.1422
37.5924 21.0576
37.6395 21.2098
37.6867 21.077
37.7337 20.9644
37.781 20.8488
37.8281 20.7464
37.8753 20.624
37.9224 20.6465
37.9697 20.5397
38.0168 20.5034
38.064 20.4545
38.1111 20.3536
38.1584 20.312
38.2056 20.2606
38.2529 20.2083
38.3 20.1451
38.3473 20.0907
38.3945 20.0639
38.4418 19.8956
38.489 19.9334
38.5363 19.8096
38.5837 19.7199
38.6309 19.7323
38.6782 19.6572
38.7254 19.5392
38.7728 19.5166
38.82 19.3887
38.8674 19.3991
38.9146 19.3058
38.9621 19.2624
39.0093 19.2448
39.0567 19.1658
39.104 19.0455
39.1514 19.0162
39.1987 18.9344
39.2461 18.9164
39.2934 18.8456
39.3409 18.7529
39.3882 18.6371
39.4356 18.6208
39.483 18.6215
39.5304 18.5034
39.5778 18.5523
39.6253 18.4698
39.6726 18.3617
39.7201 18.3065
39.7675 18.302
39.815 18.2384
39.8624 18.0868
39.9099 18.1328
39.9575 18.028
40.0049 17.961
40.0525 17.9293
40.0999 17.9082
40.1474 17.7942
40.1949 17.7531
40.2425 17.6414
40.2899 17.597
40.3375 17.6054
40.385 17.5568
40.4326 17.4929
40.48 17.3653
40.5277 17.4606
40.5752 17.3326
40.6228 17.2546
40.6703 17.1601
40.718 17.1103
40.7655 17.1102
40.8132 16.9911
40.8607 16.9609
40.9084 16.9647
40.9559 16.899
41.0036 16.8896
41.0512 16.8144
41.0989 16.7533
41.1465 16.664
41.1942 16.5809
41.242 16.5263
41.2896 16.4845
41.3373 16.4121
41.3849 16.3722
41.4327 16.2645
41.4803 16.3013
41.5281 16.206
41.5758 16.1496
41.6236 16.0404
41.6712 16.0203
41.7191 15.9549
41.7667 15.9555
41.8146 15.8765
41.8622 15.8324
41.9101 15.8343
41.9578 15.7763
42.0057 15.7063
42.0534 15.5841
42.1013 15.5687
42.149 15.4675
42.1969 15.4706
42.2446 15.4268
42.2925 15.3819
42.3403 15.2847
42.3882 15.3097
42.436 15.2181
42.4839 15.1337
42.5319 15.1121
42.5797 15.0269
42.6277 14.9914
42.6755 14.9636
42.7235 14.8859
42.7713 14.8132
42.8193 14.7838
42.8671 14.7563
42.9152 14.7113
42.963 14.6657
43.0111 14.5533
43.0589 14.5393
43.107 14.4832
43.1549 14.4502
43.2029 14.3717
43.2508 14.3518
43.2989 14.2931
43.3468 14.2714
43.3949 14.184
43.4429 14.1599
43.491 14.0875
43.5389 14.0226
43.5871 14.0347
43.635 13.9425
43.6832 13.9307
43.7312 13.8365
43.7793 13.8181
43.8273 13.7325
43.8755 13.729
43.9237 13.7086
43.9717 13.602
44.0199 13.5954
44.068 13.564
44.1162 13.4734
44.1642 13.4728
44.2125 13.3748
44.2606 13.3194
44.3088 13.2513
44.3569 13.2791
44.4052 13.2037
44.4533 13.1116
44.5016 13.09
44.5497 13.0614
44.598 13.0245
44.6461 12.9558
44.6945 12.8752
44.7426 12.8424
44.791 12.7669
44.8391 12.7913
44.8875 12.7313
44.9357 12.6662
44.984 12.6329
45.0322 12.6122
45.0806 12.53
45.1288 12.5045
45.1773 12.466
45.2257 12.4539
45.2739 12.367
45.3224 12.3089
45.3706 12.3304
45.4191 12.2618
45.4673 12.2409
45.5158 12.1609
45.5641 12.1545
45.6126 12.0788
45.6609 12.0421
45.7094 12.0313
45.7577 11.9084
45.8063 11.8399
45.8546 11.8519
45.9031 11.7929
45.9515 11.7924
46.0001 11.7587
46.0484 11.6867
46.097 11.6667
46.1454 11.6359
46.194 11.6017
46.2424 11.5146
46.291 11.442
46.3395 11.4354
46.3881 11.3537
46.4365 11.3982
46.4852 11.3493
46.5337 11.2394
46.5823 11.2358
46.631 11.2266
46.6795 11.1233
46.7282 11.1258
46.7767 11.0659
46.8254 11.0045
46.8739 10.9608
46.9226 10.9772
46.9712 10.8966
47.0199 10.8595
47.0685 10.83
47.1173 10.7649
47.1658 10.7413
47.2146 10.7413
47.2632 10.657
47.312 10.6172
47.3606 10.5796
47.4095 10.5445
47.4581 10.5118
47.5069 10.5119
47.5556 10.4217
47.6044 10.4071
47.6531 10.3204
47.702 10.3194
47.7507 10.2848
47.7996 10.2234
47.8483 10.1899
47.8972 10.1515
47.9461 10.1394
47.9948 10.06
48.0438 10.0374
48.0925 10.0445
48.1415 9.96565
48.1902 9.91182
48.2392 9.87456
48.288 9.8974
48.337 9.8379
48.3858 9.79856
48.4348 9.7522
48.4837 9.76023
48.5327 9.69756
48.5815 9.63217
48.6306 9.62754
48.6795 9.63007
48.7285 9.5699
48.7774 9.50262
48.8265 9.48665
48.8754 9.43831
48.9245 9.42828
48.9734 9.40837
49.0226 9.37099
49.0715 9.3328
49.1206 9.30744
49.1696 9.23828
49.2188 9.23749
49.2679 9.21227
49.3169 9.13505
49.3661 9.13142
49.4151 9.12871
49.4643 9.05468
49.5134 8.96783
49.5626 8.94521
49.6117 8.94132
49.6609 8.90507
49.71 8.84333
49.7592 8.80807
49.8083 8.78829
49.8576 8.76666
49.9067 8.67376
49.956 8.70165
50.0052 8.61406
50.0545 8.64004
50.1036 8.59953
50.153 8.53113
50.2022 8.5297
50.2515 8.5191
50.3007 8.45158
50.3501 8.41137
50.3993 8.42131
50.4487 8.35358
50.498 8.32737
50.5474 8.30285
50.5966 8.28472
50.6461 8.22327
50.6955 8.21068
50.7448 8.16851
50.7943 8.16766
50.8436 8.06864
50.8931 8.08134
50.9424 8.00428
50.9919 8.00059
51.0413 7.97251
51.0908 7.94448
51.1402 7.9376
51.1897 7.84916
51.2391 7.88283
51.2887 7.81769
51.3381 7.77917
51.3877 7.77426
51.4371 7.71011
51.4867 7.67144
51.5362 7.66106
51.5858 7.62225
51.6353 7.57268
51.6849 7.56416
51.7344 7.58559
51.7841 7.52259
51.8336 7.44889
51.8833 7.41483
51.9328 7.38256
51.9826 7.33522
52.0323 7.34593
52.0818 7.34565
52.1316 7.26582
52.1812 7.24498
52.231 7.21142
52.2806 7.20474
52.3304 7.17679
52.38 7.11513
52.4298 7.12082
52.4794 7.04521
52.5293 7.03754
52.5789 7.02074
52.6288 7.0062
52.6785 6.96369
52.7284 6.93004
52.7781 6.92307
52.828 6.84575
52.8777 6.82968
52.9276 6.79267
52.9774 6.77446
53.0273 6.8033
53.0771 6.7444
53.1271 6.7174
53.1769 6.66154
53.2269 6.66317
53.2767 6.61923
53.3267 6.5747
53.3765 6.59061
53.4266 6.54788
53.4766 6.47298
53.5265 6.44351
53.5765 6.41948
53.6264 6.43432
53.6765 6.39554
53.7264 6.33631
53.7765 6.36888
53.8265 6.33388
53.8766 6.27148
53.9266 6.28161
53.9767 6.22402
54.0267 6.19301
54.0769 6.19007
54.1269 6.13316
54.1771 6.08765
54.2271 6.06383
54.2773 6.02566
54.3274 5.99852
54.3776 6.0077
54.4277 5.96862
54.478 5.91387
54.528 5.88624
54.5783 5.82249
54.6285 5.80438
54.6788 5.77589
54.7289 5.69502
54.7792 5.66113
54.8296 5.63281
54.8798 5.55922
54.9301 5.58857
54.9803 5.55352
55.0307 5.47019
55.0809 5.46565
55.1314 5.46673
55.1816 5.33693
55.232 5.29175
55.2823 5.32342
55.3328 5.24578
55.383 5.16461
55.4335 5.14493
55.4838 5.06795
55.5344 5.02645
55.5847 5.03955
55.6352 5.02764
55.6856 4.94052
55.7361 4.87492