File: XRD/Ni3Fe_FD0813.xy
TT I
1.27165 7.18481
1.31627 6.82768
1.36089 6.32968
1.40551 5.97642
1.45013 6.17813
1.49476 6.48002
1.53938 6.29147
1.584 5.28152
1.62863 4.96863
1.67325 5.39368
1.71787 5.1312
1.7625 5.00092
1.80712 4.91071
1.85174 4.27222
1.89636 4.647
1.94099 4.46246
1.98562 4.33256
2.03025 4.37773
2.07487 4.79858
2.11949 4.70725
2.16411 4.82691
2.20874 8.56464
2.25338 12.2359
2.298 5.66318
2.34263 5.36395
2.38725 5.83784
2.43188 6.66594
2.4765 7.0018
2.52115 7.46501
2.56577 7.801
2.6104 8.39481
2.65503 8.30673
2.69965 7.74925
2.7443 8.53472
2.78893 8.22975
2.83356 8.97
2.87818 8.87287
2.92281 9.01758
2.96744 9.56205
3.01209 10.2318
3.05672 10.9796
3.10135 12.3258
3.14599 12.5619
3.19062 14.2968
3.23527 15.4109
3.2799 16.2098
3.32454 16.6653
3.36917 17.3705
3.4138 19.1553
3.45844 19.4143
3.50309 20.4404
3.54773 21.3239
3.59237 23.5321
3.637 50.3784
3.68164 37.1492
3.7263 25.0387
3.77094 25.6113
3.81558 26.444
3.86022 26.8727
3.90486 28.189
3.9495 29.1751
3.99416 30.6702
4.0388 31.7088
4.08344 33.3345
4.12809 34.0574
4.17273 35.7899
4.21738 38.9691
4.26204 123.181
4.30669 108.812
4.35133 43.9338
4.39598 43.1168
4.44063 48.233
4.4853 54.2976
4.52995 55.9817
4.5746 56.9334
4.61925 52.9962
4.6639 55.1145
4.70855 57.792
4.75322 61.4522
4.79788 67.9005
4.84253 67.9389
4.88719 74.9742
4.93184 76.0531
4.97652 80.79
5.02118 86.4392
5.06583 94.4503
5.11049 105.382
5.15515 155.526
5.19981 398.098
5.24449 2876.81
5.28916 12438.8
5.33382 2477.58
5.37848 190.054
5.42315 129.1
5.46783 118.063
5.5125 111.249
5.55716 101.574
5.60183 96.9557
5.6465 95.4107
5.69117 93.7535
5.73586 92.2556
5.78053 96.9643
5.8252 96.9466
5.86988 100.347
5.91455 94.3987
5.95924 103.935
6.00392 238.896
6.0486 965.74
6.09328 4596.98
6.13795 3007.18
6.18263 206.345
6.22733 89.4017
6.27201 79.2649
6.3167 84.5406
6.36138 74.0473
6.40606 69.2481
6.45075 69.0125
6.49545 64.6679
6.54014 62.7084
6.58483 62.2532
6.62952 62.3432
6.67421 73.6356
6.71892 90.0845
6.76361 61.8708
6.8083 58.8985
6.853 59.3914
6.89769 56.013
6.94239 55.5934
6.98711 55.2092
7.03181 55.5327
7.07651 54.7102
7.12121 54.3651
7.16591 55.4671
7.21063 54.8995
7.25533 59.993
7.30004 102.4
7.34475 68.8952
7.38945 54.3193
7.43416 53.3943
7.47889 53.1193
7.5236 53.8945
7.56831 54.3051
7.61303 55.0874
7.65774 55.702
7.70247 56.5449
7.74719 55.8561
7.79191 56.0333
7.83663 56.1634
7.88135 57.1708
7.92607 58.0266
7.97081 59.0037
8.01553 60.2926
8.06026 62.1332
8.10498 63.6784
8.14971 70.1712
8.19446 70.2816
8.23919 69.1568
8.28392 71.319
8.32865 73.4082
8.37339 77.9166
8.41812 83.3857
8.46288 102.595
8.50761 176.926
8.55235 381.975
8.59709 1220.88
8.64183 2212.3
8.68658 848.544
8.73134 147.228
8.77609 96.9426
8.82083 91.6636
8.86558 91.7445
8.91033 91.4325
8.9551 88.9363
8.99985 84.4219
9.04461 83.3195
9.08936 83.5445
9.13412 82.2525
9.17888 81.6458
9.22365 81.5565
9.26841 81.2041
9.31318 84.0135
9.35794 85.8681
9.4027 85.4057
9.44749 84.6808
9.49226 84.3738
9.53703 84.919
9.5818 88.8103
9.62657 93.8542
9.67134 94.8432
9.71614 92.3474
9.76091 93.7661
9.80569 98.7122
9.85047 100.653
9.89525 111.727
9.94005 126.587
9.98484 189.709
10.0296 343.217
10.0744 835.579
10.1192 1820.73
10.164 1513.44
10.2088 348.584
10.2536 120.026
10.2984 108.53
10.3432 107.439
10.388 104.262
10.4328 121.35
10.4776 162.122
10.5224 294.107
10.5672 537.7
10.612 487.769
10.6568 184.409
10.7017 93.5591
10.7465 85.3511
10.7913 82.3547
10.8361 79.9769
10.8809 78.0588
10.9257 77.0104
10.9706 77.6146
11.0154 74.6027
11.0602 72.4862
11.105 70.8676
11.1499 71.5516
11.1947 73.9323
11.2395 69.3465
11.2844 68.1276
11.3292 66.3146
11.374 65.4326
11.4189 64.624
11.4637 64.115
11.5086 64.2821
11.5534 65.0098
11.5983 63.5885
11.6431 62.9646
11.688 62.1092
11.7328 61.9019
11.7777 62.2118
11.8225 62.1908
11.8674 61.8821
11.9122 62.005
11.9571 62.2367
12.002 63.7689
12.0468 68.224
12.0917 77.6839
12.1366 102.791
12.1814 160.222
12.2263 216.437
12.2712 165.351
12.3161 87.4894
12.3609 66.3746
12.4058 63.4627
12.4507 63.4523
12.4956 64.1346
12.5405 64.1495
12.5853 64.6746
12.6302 67.6201
12.6751 70.3337
12.72 67.3593
12.7649 67.0888
12.8098 67.9234
12.8547 69.3346
12.8996 70.6898
12.9445 72.2544
12.9894 73.7122
13.0343 75.1742
13.0792 79.3634
13.1242 91.7197
13.1691 111.094
13.214 148.828
13.2589 248.462
13.3038 393.207
13.3487 413.393
13.3937 235.328
13.4386 118.031
13.4835 105.86
13.5285 120.079
13.5734 161.265
13.6183 258.194
13.6633 364.021
13.7082 328.353
13.7531 169.677
13.7981 92.731
13.843 80.5253
13.888 78.823
13.9329 76.3274
13.9779 75.0711
14.0228 73.5758
14.0678 72.2581
14.1127 71.7955
14.1577 71.2162
14.2027 70.3581
14.2476 69.834
14.2926 69.4426
14.3376 69.5763
14.3825 69.1355
14.4275 68.2382
14.4725 68.1304
14.5175 68.2741
14.5624 68.3374
14.6074 69.0164
14.6524 69.6068
14.6974 70.0483
14.7424 73.3069
14.7874 79.1964
14.8324 88.5119
14.8774 111.624
14.9224 159.909
14.9674 218.879
15.0124 220.183
15.0574 140.586
15.1024 85.5809
15.1474 71.2487
15.1924 69.6409
15.2374 68.8015
15.2824 67.9206
15.3274 66.9359
15.3725 66.1238
15.4175 65.7146
15.4625 64.9358
15.5076 65.3477
15.5526 65.285
15.5976 65.0404
15.6426 67.3046
15.6877 72.4766
15.7327 79.3105
15.7778 95.0153
15.8228 129.509
15.8679 177.585
15.9129 197.124
15.958 146.398
16.003 88.5515
16.0481 65.5009
16.0931 62.4262
16.1382 60.89
16.1833 59.5469
16.2283 58.123
16.2734 57.5435
16.3185 57.194
16.3636 57.095
16.4086 56.2584
16.4537 55.3158
16.4988 54.7959
16.5439 54.8067
16.589 54.613
16.6341 54.272
16.6792 53.7947
16.7243 54.1588
16.7694 54.0825
16.8145 54.0199
16.8596 54.222
16.9047 55.0194
16.9498 55.2156
16.9949 54.9062
17.04 55.3707
17.0851 56.6604
17.1302 58.2625
17.1754 61.3018
17.2205 66.6501
17.2656 75.1931
17.3108 83.8518
17.3559 80.7965
17.401 68.5658
17.4462 60.6509
17.4913 58.4545
17.5365 58.6877
17.5815 58.4756
17.6268 59.1949
17.6718 59.6226
17.7171 59.9291
17.7622 60.7728
17.8074 61.9545
17.8525 64.8006
17.8977 67.8885
17.9428 73.223
17.9881 82.7989
18.0331 101.744
18.0784 125.533
18.1237 141.484
18.1688 126.759
18.214 98.6958
18.2591 84.7377
18.3044 91.0772
18.3495 102.112
18.3948 105.115
18.4399 91.984
18.4852 74.0914
18.5303 64.3118
18.5756 61.2443
18.6207 60.3969
18.666 59.6448
18.7112 58.7827
18.7565 58.2092
18.8016 58.1158
18.8469 57.489
18.892 56.9286
18.9374 56.4549
18.9825 56.226
19.0278 56.3695
19.073 56.2979
19.1183 56.6907
19.1635 56.9764
19.2088 58.5698
19.254 61.7916
19.2993 66.4805
19.3447 72.6037
19.3898 75.4183
19.4352 70.0785
19.4804 61.0941
19.5257 55.5267
19.5709 53.4246
19.6163 53.4017
19.6615 53.2836
19.7068 52.6696
19.752 52.6462
19.7974 53.3248
19.8426 53.8024
19.888 54.3348
19.9332 55.5359
19.9786 58.3972
20.0238 62.5917
20.0692 67.6002
20.1144 69.6292
20.1598 66.8478
20.205 62.3526
20.2504 61.6081
20.2957 64.0375
20.3411 65.2075
20.3863 62.6328
20.4318 56.607
20.477 52.4926
20.5224 50.5258
20.5677 49.9355
20.6131 49.6147
20.6586 49.2631
20.7038 48.9806
20.7493 48.4469
20.7945 48.4655
20.84 48.1987
20.8853 48.159
20.9307 48.137
20.976 48.0836
21.0215 47.8939
21.0668 48.3873
21.1122 48.9399
21.1575 49.6387
21.203 50.4346
21.2483 51.0106
21.2938 50.8458
21.3391 49.3418
21.3846 48.2011
21.4299 47.7166
21.4754 47.8497
21.5207 48.0019
21.5662 48.3623
21.6116 48.8067
21.6571 49.5007
21.7024 50.3461
21.7479 52.3008
21.7933 55.309
21.8388 59.0356
21.8843 62.897
21.9297 64.0203
21.9752 61.9141
22.0206 57.9802
22.0661 55.7194
22.1115 55.6697
22.157 55.2616
22.2024 53.114
22.248 50.3968
22.2933 49.1111
22.3389 48.4645
22.3843 48.2744
22.4299 47.9774
22.4753 48.3311
22.5208 48.1209
22.5662 48.1224
22.6118 48.2898
22.6572 48.4887
22.7028 48.689
22.7483 49.2634
22.7939 49.9307
22.8393 51.686
22.8849 53.9804
22.9303 56.1904
22.9759 57.5153
23.0214 56.6303
23.067 53.3079
23.1126 50.1022
23.1581 48.588
23.2037 48.391
23.2492 48.4362
23.2948 48.3447
23.3403 48.633
23.3859 49.4166
23.4314 50.2467
23.477 52.3702
23.5225 54.8422
23.5682 56.8811
23.6137 57.5026
23.6593 54.3899
23.7048 50.3718
23.7505 47.3742
23.796 45.8117
23.8417 45.4835
23.8872 45.028
23.9329 44.6841
23.9784 44.3197
24.0241 44.103
24.0697 43.9571
24.1154 43.668
24.1609 43.4444
24.2066 43.2577
24.2522 43.2466
24.2979 42.8905
24.3434 42.7717
24.3892 42.5559
24.4349 42.6523
24.4805 42.4845
24.5262 42.6174
24.5718 42.3808
24.6175 42.5523
24.6631 42.3943
24.7089 41.9414
24.7545 41.8183
24.8002 41.7776
24.8458 41.8764
24.8916 41.5613
24.9372 41.6304
24.983 42.1366
25.0286 42.6199
25.0744 42.8427
25.12 43.291
25.1658 44.1409
25.2114 44.1826
25.2572 44.281
25.3029 44.5269
25.3487 44.5833
25.3943 44.0058
25.4402 42.8338
25.4858 41.74
25.5316 40.8518
25.5773 40.4915
25.6231 40.562
25.669 40.0606
25.7147 40.1457
25.7605 39.9411
25.8062 40.0452
25.8521 40.1426
25.8977 40.1131
25.9436 40.5173
25.9893 40.5709
26.0352 41.1751
26.0809 41.1665
26.1268 41.1468
26.1725 40.8266
26.2184 40.1776
26.2641 39.7738
26.31 39.5467
26.3557 39.7027
26.4017 39.6718
26.4474 39.9734
26.4933 40.3484
26.5391 40.8513
26.585 41.4371
26.6308 41.6777
26.6767 41.76
26.7225 41.4275
26.7684 40.8701
26.8142 40.2794
26.8601 40.0632
26.9059 39.4115
26.9519 39.0451
26.9979 38.7154
27.0437 38.4283
27.0896 38.3267
27.1354 38.4
27.1814 38.1528
27.2272 38.017
27.2732 38.1561
27.3191 37.9332
27.3651 38.1307
27.4109 38.1106
27.4569 38.2019
27.5027 37.973
27.5488 38.173
27.5946 38.0195
27.6407 37.6894
27.6865 37.5544
27.7326 37.3803
27.7784 37.6049
27.8245 37.3384
27.8703 37.663
27.9164 37.8487
27.9623 38.2088
28.0084 38.4696
28.0543 38.8884
28.1003 38.6813
28.1462 38.3868
28.1923 38.0029
28.2384 37.5059
28.2843 37.1387
28.3304 36.5887
28.3764 36.2435
28.4225 35.9485
28.4684 35.78
28.5145 35.5436
28.5605 35.5155
28.6066 35.3358
28.6526 35.2688
28.6987 35.2777
28.7447 35.2598
28.7908 35.0711
28.8368 35.0191
28.8829 35.0924
28.9289 35.0212
28.9751 34.77
29.0211 34.5358
29.0673 34.2005
29.1133 34.1379
29.1595 34.1183
29.2055 33.9067
29.2517 34.0287
29.2977 33.9331
29.3439 33.9626
29.3899 33.9991
29.4361 33.7493
29.4824 33.5103
29.5284 33.2518
29.5746 33.0634
29.6207 32.6969
29.6669 32.7171
29.713 32.6937
29.7593 32.5313
29.8053 32.4655
29.8516 32.4281
29.8977 32.4173
29.9439 32.2216
29.99 32.2404
30.0363 32.0528
30.0824 32.2834
30.1287 32.0434
30.1748 32.1941
30.2211 32.0662
30.2673 31.8947
30.3136 31.9378
30.3597 31.9147
30.406 31.8703
30.4522 31.7414
30.4985 31.711
30.5447 31.8347
30.591 31.9274
30.6372 31.7962
30.6835 31.8583
30.7297 31.871
30.7761 31.855
30.8224 31.682
30.8686 31.4751
30.915 31.1563
30.9612 31.0726
31.0076 30.9093
31.0538 30.8095
31.1002 30.8003
31.1464 30.66
31.1928 30.6045
31.2391 30.5727
31.2855 30.615
31.3317 30.5312
31.3781 30.6212
31.4244 30.6343
31.4708 30.5166
31.5171 30.483
31.5636 30.3944
31.6098 30.187
31.6563 30.0087
31.7026 29.8264
31.7491 29.8578
31.7953 29.8103
31.8418 29.8004
31.8881 29.8685
31.9346 29.791
31.9809 29.706
32.0275 29.626
32.074 29.5489
32.1203 29.2309
32.1668 29.1886
32.2132 29.0563
32.2597 28.9538
32.306 28.9218
32.3526 28.6941
32.399 28.6184
32.4455 28.5304
32.4919 28.3507
32.5385 28.2985
32.5848 28.1922
32.6314 28.1801
32.6778 28.0629
32.7244 27.9189
32.7708 27.9069
32.8174 27.88
32.8638 27.778
32.9104 27.8219
32.9569 27.6889
33.0035 27.5733
33.0499 27.5594
33.0966 27.5308
33.143 27.5438
33.1897 27.4922
33.2361 27.2715
33.2828 27.3445
33.3293 27.0071
33.3759 27.0693
33.4226 26.918
33.4691 26.7908
33.5158 26.7001
33.5623 26.5692
33.609 26.4436
33.6555 26.2538
33.7022 26.3185
33.7487 26.2426
33.7954 26.2423
33.842 26.087
33.8887 26.1103
33.9353 26.0344
33.982 25.8183
34.0286 25.845
34.0753 25.6614
34.1219 25.6197
34.1687 25.5948
34.2152 25.4848
34.262 25.4101
34.3086 25.2871
34.3554 25.2694
34.402 25.1028
34.4488 24.9759
34.4954 24.9297
34.5422 24.91
34.5889 24.7511
34.6357 24.6772
34.6825 24.6835
34.7292 24.6115
34.776 24.5165
34.8227 24.4486
34.8695 24.3609
34.9162 24.3183
34.9631 24.2039
35.0098 24.198
35.0566 24.083
35.1033 24.0312
35.1502 23.9892
35.1969 23.9108
35.2438 23.9407
35.2906 23.8725
35.3375 23.7956
35.3842 23.7087
35.4311 23.7254
35.4779 23.6551
35.5248 23.6517
35.5716 23.5447
35.6185 23.4496
35.6653 23.3039
35.7123 23.2885
35.759 23.2525
35.806 23.1228
35.8528 22.9855
35.8998 23.0635
35.9468 22.8977
35.9936 22.8011
36.0406 22.7372
36.0874 22.7945
36.1345 22.5934
36.1813 22.5695
36.2283 22.4469
36.2752 22.3771
36.3222 22.4336
36.3691 22.2556
36.4161 22.1923
36.463 22.1931
36.5101 22.1471
36.557 22.1146
36.6041 21.8736
36.651 21.9625
36.6981 21.8896
36.745 21.8895
36.7921 21.7435
36.839 21.6278
36.8861 21.6459
36.9331 21.5497
36.9802 21.4499
37.0272 21.3395
37.0743 21.207
37.1213 21.1966
37.1684 21.1536
37.2154 21.067
37.2626 21.0555
37.3098 20.981
37.3568 20.9263
37.404 20.9058
37.451 20.7911
37.4982 20.7319
37.5452 20.5652
37.5924 20.6136
37.6395 20.6446
37.6867 20.493
37.7337 20.3765
37.781 20.3114
37.8281 20.2297
37.8753 20.1333
37.9224 20.1165
37.9697 20.0771
38.0168 20.0478
38.064 19.9308
38.1111 19.9088
38.1584 19.7868
38.2056 19.7435
38.2529 19.6789
38.3 19.6002
38.3473 19.6515
38.3945 19.4253
38.4418 19.4486
38.489 19.3802
38.5363 19.3071
38.5837 19.2036
38.6309 19.1961
38.6782 19.0821
38.7254 19.0914
38.7728 18.955
38.82 18.9464
38.8674 18.9058
38.9146 18.8451
38.9621 18.7793
39.0093 18.7233
39.0567 18.676
39.104 18.6749
39.1514 18.4975
39.1987 18.4846
39.2461 18.4098
39.2934 18.3349
39.3409 18.2544
39.3882 18.1746
39.4356 18.1355
39.483 18.1601
39.5304 18.0046
39.5778 18.0463
39.6253 17.9586
39.6726 17.8551
39.7201 17.8543
39.7675 17.8468
39.815 17.7862
39.8624 17.6378
39.9099 17.5947
39.9575 17.4986
40.0049 17.5117
40.0525 17.4316
40.0999 17.4037
40.1474 17.3574
40.1949 17.2949
40.2425 17.2076
40.2899 17.1955
40.3375 17.1119
40.385 17.0701
40.4326 16.9748
40.48 16.9338
40.5277 16.9306
40.5752 16.8874
40.6228 16.7239
40.6703 16.713
40.718 16.679
40.7655 16.6237
40.8132 16.5352
40.8607 16.6278
40.9084 16.4936
40.9559 16.3603
41.0036 16.3694
41.0512 16.3277
41.0989 16.3454
41.1465 16.2466
41.1942 16.1881
41.242 16.0494
41.2896 16.0111
41.3373 16.0091
41.3849 15.9525
41.4327 15.9152
41.4803 15.8551
41.5281 15.7853
41.5758 15.6924
41.6236 15.6507
41.6712 15.6288
41.7191 15.6109
41.7667 15.512
41.8146 15.478
41.8622 15.4623
41.9101 15.3808
41.9578 15.307
42.0057 15.2299
42.0534 15.2345
42.1013 15.1193
42.149 15.1192
42.1969 15.0284
42.2446 15.0033
42.2925 14.9458
42.3403 14.9143
42.3882 14.8625
42.436 14.8309
42.4839 14.7488
42.5319 14.7191
42.5797 14.6497
42.6277 14.5898
42.6755 14.5644
42.7235 14.4537
42.7713 14.4696
42.8193 14.4138
42.8671 14.3794
42.9152 14.3076
42.963 14.2627
43.0111 14.2212
43.0589 14.1566
43.107 14.0906
43.1549 14.0634
43.2029 14.0028
43.2508 13.9658
43.2989 13.9361
43.3468 13.8623
43.3949 13.838
43.4429 13.8129
43.491 13.7493
43.5389 13.7068
43.5871 13.6505
43.635 13.583
43.6832 13.5042
43.7312 13.5109
43.7793 13.4243
43.8273 13.3842
43.8755 13.3699
43.9237 13.3384
43.9717 13.263
44.0199 13.2187
44.068 13.1567
44.1162 13.0989
44.1642 13.1047
44.2125 13.006
44.2606 12.979
44.3088 12.9561
44.3569 12.9455
44.4052 12.8636
44.4533 12.7676
44.5016 12.7734
44.5497 12.7943
44.598 12.7451
44.6461 12.5895
44.6945 12.5824
44.7426 12.5785
44.791 12.5487
44.8391 12.4259
44.8875 12.4036
44.9357 12.4046
44.984 12.3374
45.0322 12.2609
45.0806 12.2237
45.1288 12.196
45.1773 12.1807
45.2257 12.1096
45.2739 12.0838
45.3224 12.0235
45.3706 12.0129
45.4191 11.9208
45.4673 11.904
45.5158 11.8428
45.5641 11.7892
45.6126 11.7803
45.6609 11.7164
45.7094 11.6884
45.7577 11.6548
45.8063 11.5846
45.8546 11.5396
45.9031 11.527
45.9515 11.495
46.0001 11.4485
46.0484 11.3749
46.097 11.3976
46.1454 11.3692
46.194 11.2943
46.2424 11.2133
46.291 11.1619
46.3395 11.1238
46.3881 11.1036
46.4365 11.0814
46.4852 11.0336
46.5337 11.0122
46.5823 10.9625
46.631 10.9303
46.6795 10.8933
46.7282 10.8652
46.7767 10.8148
46.8254 10.7719
46.8739 10.7253
46.9226 10.6946
46.9712 10.6143
47.0199 10.5663
47.0685 10.6118
47.1173 10.5393
47.1658 10.4788
47.2146 10.4173
47.2632 10.3575
47.312 10.3601
47.3606 10.3442
47.4095 10.2857
47.4581 10.2436
47.5069 10.1979
47.5556 10.1885
47.6044 10.1372
47.6531 10.075
47.702 10.0597
47.7507 10.0486
47.7996 9.97703
47.8483 9.97685
47.8972 9.89992
47.9461 9.85855
47.9948 9.8454
48.0438 9.77875
48.0925 9.77621
48.1415 9.73269
48.1902 9.6894
48.2392 9.6746
48.288 9.61446
48.337 9.60236
48.3858 9.57417
48.4348 9.53711
48.4837 9.50411
48.5327 9.47447
48.5815 9.45216
48.6306 9.37455
48.6795 9.35128
48.7285 9.31602
48.7774 9.29046
48.8265 9.28089
48.8754 9.22508
48.9245 9.18901
48.9734 9.15451
49.0226 9.14193
49.0715 9.08629
49.1206 9.0214
49.1696 9.03835
49.2188 8.97382
49.2679 8.96824
49.3169 8.89152
49.3661 8.84398
49.4151 8.84021
49.4643 8.83811
49.5134 8.82357
49.5626 8.73375
49.6117 8.69197
49.6609 8.68357
49.71 8.61295
49.7592 8.60697
49.8083 8.53011
49.8576 8.51521
49.9067 8.49526
49.956 8.45218
50.0052 8.44241
50.0545 8.37856
50.1036 8.38015
50.153 8.33442
50.2022 8.30929
50.2515 8.26384
50.3007 8.25855
50.3501 8.22015
50.3993 8.1779
50.4487 8.13177
50.498 8.15345
50.5474 8.05016
50.5966 8.04655
50.6461 8.02021
50.6955 7.99888
50.7448 7.9504
50.7943 7.9158
50.8436 7.88965
50.8931 7.89166
50.9424 7.85865
50.9919 7.82375
51.0413 7.75968
51.0908 7.7527
51.1402 7.74724
51.1897 7.66773
51.2391 7.67303
51.2887 7.61956
51.3381 7.59581
51.3877 7.54781
51.4371 7.50791
51.4867 7.49765
51.5362 7.48731
51.5858 7.45589
51.6353 7.37024
51.6849 7.35946
51.7344 7.34861
51.7841 7.33173
51.8336 7.29055
51.8833 7.26761
51.9328 7.21016
51.9826 7.16222
52.0323 7.18092
52.0818 7.16025
52.1316 7.08778
52.1812 7.10326
52.231 7.02976
52.2806 7.03069
52.3304 6.97747
52.38 6.92707
52.4298 6.90253
52.4794 6.8938
52.5293 6.86645
52.5789 6.83219
52.6288 6.81755
52.6785 6.76558
52.7284 6.80958
52.7781 6.75919
52.828 6.71001
52.8777 6.6594
52.9276 6.6268
52.9774 6.60305
53.0273 6.64309
53.0771 6.55823
53.1271 6.56929
53.1769 6.5251
53.2269 6.52347
53.2767 6.43963
53.3267 6.39791
53.3765 6.40224
53.4266 6.35367
53.4766 6.33084
53.5265 6.26389
53.5765 6.29313
53.6264 6.23165
53.6765 6.22167
53.7264 6.23899
53.7765 6.1727
53.8265 6.16697
53.8766 6.14318
53.9266 6.09985
53.9767 6.05177
54.0267 6.04334
54.0769 6.00923
54.1269 6.00919
54.1771 5.92803
54.2271 5.92798
54.2773 5.87744
54.3274 5.87621
54.3776 5.86004
54.4277 5.80501
54.478 5.77307
54.528 5.73975
54.5783 5.68132
54.6285 5.67097
54.6788 5.58019
54.7289 5.56411
54.7792 5.522
54.8296 5.46798
54.8798 5.50721
54.9301 5.4272
54.9803 5.37145
55.0307 5.41033
55.0809 5.28278
55.1314 5.31592
55.1816 5.21827
55.232 5.14923
55.2823 5.13854
55.3328 5.0935
55.383 5.07264
55.4335 4.99593
55.4838 4.94047
55.5344 4.91301
55.5847 4.88786
55.6352 4.85169
55.6856 4.77779
55.7361 4.7691