File: XRD/Ni3Fe_FD0519.xy
TT I
1.27165 7.401
1.31627 6.94532
1.36089 6.83079
1.40551 6.20893
1.45013 6.80293
1.49476 6.00843
1.53938 5.90954
1.584 5.70536
1.62863 5.19093
1.67325 4.89816
1.71787 5.13716
1.7625 4.5027
1.80712 5.24891
1.85174 4.48844
1.89636 4.75114
1.94099 4.61638
1.98562 5.21253
2.03025 4.95082
2.07487 5.00812
2.11949 5.14296
2.16411 4.6885
2.20874 15.3812
2.25338 25.9112
2.298 6.43859
2.34263 5.48497
2.38725 5.27157
2.43188 5.78523
2.4765 5.87347
2.52115 7.11078
2.56577 7.73491
2.6104 7.98739
2.65503 7.22523
2.69965 7.56874
2.7443 7.8302
2.78893 7.26747
2.83356 8.26061
2.87818 8.3698
2.92281 9.17486
2.96744 9.21629
3.01209 10.6486
3.05672 11.3744
3.10135 12.3985
3.14599 12.8017
3.19062 13.9388
3.23527 15.3635
3.2799 15.8186
3.32454 17.4046
3.36917 18.0707
3.4138 18.8704
3.45844 20.2468
3.50309 21.2563
3.54773 22.2376
3.59237 24.5804
3.637 104.236
3.68164 64.5716
3.7263 27.0303
3.77094 26.6761
3.81558 26.948
3.86022 27.7751
3.90486 29.3735
3.9495 30.3443
3.99416 30.9581
4.0388 32.3285
4.08344 33.8459
4.12809 35.3037
4.17273 37.6117
4.21738 44.2858
4.26204 281.516
4.30669 247.57
4.35133 50.1436
4.39598 45.3799
4.44063 56.074
4.4853 69.0382
4.52995 50.8408
4.5746 51.4819
4.61925 54.0094
4.6639 55.8292
4.70855 58.8941
4.75322 61.2966
4.79788 64.1395
4.84253 67.7179
4.88719 71.8531
4.93184 75.8845
4.97652 81.5624
5.02118 87.7134
5.06583 95.3934
5.11049 107.106
5.15515 185.698
5.19981 382.495
5.24449 2863.59
5.28916 11816.6
5.33382 3242.61
5.37848 204.844
5.42315 133.762
5.46783 116.171
5.5125 108.054
5.55716 103.202
5.60183 100.118
5.6465 98.3692
5.69117 95.5294
5.73586 93.6017
5.78053 92.6308
5.8252 92.1629
5.86988 92.5928
5.91455 95.4274
5.95924 103.95
6.00392 212.355
6.0486 988.972
6.09328 4136.14
6.13795 3473.21
6.18263 293.773
6.22733 97.2223
6.27201 85.3402
6.3167 108.078
6.36138 83.3266
6.40606 70.3059
6.45075 68.1322
6.49545 66.3071
6.54014 64.8762
6.58483 63.8641
6.62952 63.9113
6.67421 100.054
6.71892 159.032
6.76361 70.6691
6.8083 59.3324
6.853 58.3815
6.89769 57.8804
6.94239 57.2695
6.98711 56.985
7.03181 56.1489
7.07651 56.3959
7.12121 56.0974
7.16591 56.2401
7.21063 56.2048
7.25533 73.6265
7.30004 201.315
7.34475 98.8892
7.38945 57.7673
7.43416 55.3262
7.47889 55.2742
7.5236 55.5949
7.56831 56.1553
7.61303 58.1112
7.65774 58.8211
7.70247 57.0692
7.74719 56.8874
7.79191 57.4945
7.83663 57.1506
7.88135 58.4609
7.92607 59.3085
7.97081 60.5448
8.01553 61.4258
8.06026 62.6799
8.10498 64.7122
8.14971 75.6251
8.19446 73.6507
8.23919 70.4944
8.28392 72.4035
8.32865 74.8437
8.37339 79.0297
8.41812 86.8495
8.46288 119.139
8.50761 167.229
8.55235 389.525
8.59709 1127.28
8.64183 2125.22
8.68658 1053.88
8.73134 188.269
8.77609 101.799
8.82083 94.4599
8.86558 90.8485
8.91033 91.5285
8.9551 93.8179
8.99985 86.8385
9.04461 84.3557
9.08936 83.6069
9.13412 82.5955
9.17888 83.0449
9.22365 83.9778
9.26841 82.8981
9.31318 83.3682
9.35794 83.6178
9.4027 83.9993
9.44749 84.6716
9.49226 85.6598
9.53703 86.0695
9.5818 88.1395
9.62657 93.5814
9.67134 101.218
9.71614 94.9097
9.76091 94.8941
9.80569 97.9574
9.85047 101.414
9.89525 128.362
9.94005 142.212
9.98484 178.938
10.0296 344.163
10.0744 774.241
10.1192 1635.89
10.164 1639.98
10.2088 447.383
10.2536 134.939
10.2984 116.279
10.3432 118.458
10.388 106.527
10.4328 119.125
10.4776 160.967
10.5224 275.224
10.5672 498.078
10.612 529.128
10.6568 224.596
10.7017 100.139
10.7465 88.2145
10.7913 84.2741
10.8361 82.2813
10.8809 80.21
10.9257 79.562
10.9706 80.4564
11.0154 76.0091
11.0602 73.9494
11.105 72.7752
11.1499 77.7876
11.1947 86.7631
11.2395 76.5244
11.2844 71.471
11.3292 68.1632
11.374 67.0568
11.4189 66.298
11.4637 65.8887
11.5086 66.3996
11.5534 70.0574
11.5983 66.87
11.6431 64.6336
11.688 63.9152
11.7328 63.4977
11.7777 63.5014
11.8225 63.4032
11.8674 62.8379
11.9122 63.7163
11.9571 63.6254
12.002 64.4452
12.0468 68.125
12.0917 80.1921
12.1366 103.855
12.1814 151.619
12.2263 203.102
12.2712 174.873
12.3161 103.318
12.3609 72.9161
12.4058 65.7281
12.4507 65.1488
12.4956 65.2614
12.5405 65.2703
12.5853 66.6045
12.6302 75.1992
12.6751 81.7367
12.72 71.1562
12.7649 68.4563
12.8098 69.0931
12.8547 70.4227
12.8996 71.647
12.9445 73.0107
12.9894 75.0878
13.0343 76.4992
13.0792 79.6915
13.1242 88.6727
13.1691 113.212
13.214 149.309
13.2589 231.21
13.3038 354.174
13.3487 433.629
13.3937 286.04
13.4386 131.802
13.4835 106.982
13.5285 121.071
13.5734 157.357
13.6183 238.478
13.6633 334.774
13.7082 344.58
13.7531 202.046
13.7981 102.771
13.843 83.2554
13.888 80.7042
13.9329 78.2247
13.9779 76.6466
14.0228 75.24
14.0678 73.9782
14.1127 73.3829
14.1577 73.5905
14.2027 72.3405
14.2476 71.1652
14.2926 71.7094
14.3376 72.9188
14.3825 71.2681
14.4275 69.4794
14.4725 69.3708
14.5175 69.7239
14.5624 69.8536
14.6074 72.3202
14.6524 72.8914
14.6974 71.3339
14.7424 72.4337
14.7874 79.2667
14.8324 89.7465
14.8774 110.26
14.9224 149.53
14.9674 200.265
15.0124 217.06
15.0574 156.384
15.1024 94.8337
15.1474 73.78
15.1924 71.639
15.2374 72.4185
15.2824 71.6478
15.3274 69.1158
15.3725 67.5963
15.4175 67.2291
15.4625 66.8422
15.5076 67.0948
15.5526 67.0973
15.5976 66.3617
15.6426 67.4962
15.6877 72.6703
15.7327 80.2151
15.7778 95.1094
15.8228 123.606
15.8679 165.768
15.9129 192.125
15.958 162.529
16.003 102.949
16.0481 70.537
16.0931 66.2078
16.1382 64.0601
16.1833 61.6611
16.2283 59.7575
16.2734 59.2702
16.3185 59.7704
16.3636 60.5655
16.4086 58.8532
16.4537 57.0861
16.4988 56.309
16.5439 56.1107
16.589 55.7533
16.6341 55.6859
16.6792 55.1017
16.7243 55.4839
16.7694 55.8684
16.8145 55.5664
16.8596 56.1433
16.9047 58.0953
16.9498 58.1295
16.9949 56.5299
17.04 56.3225
17.0851 57.8774
17.1302 59.4945
17.1754 62.3064
17.2205 66.9172
17.2656 73.9205
17.3108 81.5532
17.3559 82.1764
17.401 72.6049
17.4462 63.5241
17.4913 59.8499
17.5365 59.8283
17.5815 60.1561
17.6268 60.2764
17.6718 61.1776
17.7171 61.7148
17.7622 61.7273
17.8074 62.5882
17.8525 64.6161
17.8977 68.986
17.9428 74.2821
17.9881 82.7379
18.0331 98.1088
18.0784 118.713
18.1237 137.805
18.1688 134.465
18.214 107.813
18.2591 88.4438
18.3044 90.1959
18.3495 99.2844
18.3948 106.675
18.4399 99.3469
18.4852 80.4505
18.5303 67.8308
18.5756 62.976
18.6207 61.9612
18.666 61.4143
18.7112 60.3972
18.7565 59.5098
18.8016 59.416
18.8469 58.9305
18.892 58.3743
18.9374 57.9012
18.9825 57.8319
19.0278 57.7196
19.073 57.6146
19.1183 58.0575
19.1635 59.1602
19.2088 60.3647
19.254 62.588
19.2993 66.6155
19.3447 72.5438
19.3898 76.7475
19.4352 73.8279
19.4804 64.8836
19.5257 57.8947
19.5709 54.8472
19.6163 54.422
19.6615 54.3729
19.7068 54.102
19.752 53.9407
19.7974 54.1109
19.8426 55.0066
19.888 55.636
19.9332 56.9135
19.9786 59.1384
20.0238 62.433
20.0692 66.9612
20.1144 70.4212
20.1598 69.4606
20.205 64.6871
20.2504 62.7847
20.2957 64.0941
20.3411 65.9668
20.3863 65.0998
20.4318 59.6902
20.477 54.8477
20.5224 52.6077
20.5677 51.8459
20.6131 50.8877
20.6586 50.3881
20.7038 50.0617
20.7493 49.6695
20.7945 49.5696
20.84 49.2835
20.8853 49.2421
20.9307 49.0884
20.976 49.3564
21.0215 49.1746
21.0668 49.6929
21.1122 50.0642
21.1575 50.5831
21.203 51.1164
21.2483 52.0467
21.2938 52.1887
21.3391 50.7417
21.3846 49.7152
21.4299 49.0926
21.4754 48.8967
21.5207 48.9245
21.5662 49.3661
21.6116 49.9048
21.6571 50.5379
21.7024 51.4449
21.7479 52.9758
21.7933 55.6153
21.8388 59.1124
21.8843 62.7398
21.9297 64.7398
21.9752 64.3775
22.0206 60.8264
22.0661 57.4909
22.1115 56.3206
22.157 56.7308
22.2024 55.2477
22.248 52.3528
22.2933 50.5825
22.3389 49.8419
22.3843 49.8028
22.4299 49.6399
22.4753 49.5359
22.5208 49.209
22.5662 49.0146
22.6118 49.2826
22.6572 49.4183
22.7028 49.921
22.7483 50.3709
22.7939 50.9172
22.8393 52.3208
22.8849 54.2783
22.9303 56.2769
22.9759 58.1058
23.0214 58.3604
23.067 55.5337
23.1126 52.1663
23.1581 49.9941
23.2037 49.6065
23.2492 49.4824
23.2948 49.4424
23.3403 49.9042
23.3859 50.2934
23.4314 51.4003
23.477 52.8955
23.5225 54.9686
23.5682 56.9849
23.6137 58.4562
23.6593 56.8444
23.7048 52.8684
23.7505 49.1864
23.796 47.2866
23.8417 46.7331
23.8872 46.1784
23.9329 45.8938
23.9784 45.5165
24.0241 45.1709
24.0697 45.0523
24.1154 44.6072
24.1609 44.7232
24.2066 44.4239
24.2522 44.238
24.2979 44.0521
24.3434 43.8329
24.3892 43.6711
24.4349 43.6707
24.4805 43.599
24.5262 43.6178
24.5718 43.4952
24.6175 43.4996
24.6631 43.4189
24.7089 42.9979
24.7545 43.1354
24.8002 42.8406
24.8458 42.7852
24.8916 42.6489
24.9372 42.7394
24.983 43.1421
25.0286 43.3943
25.0744 43.8161
25.12 44.2341
25.1658 44.7102
25.2114 45.13
25.2572 45.2145
25.3029 45.2949
25.3487 45.4368
25.3943 45.2711
25.4402 44.1786
25.4858 43.27
25.5316 42.0971
25.5773 41.3155
25.6231 41.3708
25.669 41.2218
25.7147 41.0519
25.7605 40.924
25.8062 41.1512
25.8521 41.2802
25.8977 41.0913
25.9436 41.2891
25.9893 41.3258
26.0352 41.9511
26.0809 41.9704
26.1268 42.3369
26.1725 41.8907
26.2184 41.3342
26.2641 40.7673
26.31 40.7492
26.3557 40.6104
26.4017 40.6643
26.4474 41.0005
26.4933 41.3034
26.5391 41.6447
26.585 42.0576
26.6308 42.4944
26.6767 42.67
26.7225 42.608
26.7684 42.0079
26.8142 41.4652
26.8601 41.1131
26.9059 40.6036
26.9519 40.0781
26.9979 39.777
27.0437 39.3957
27.0896 39.1006
27.1354 39.2449
27.1814 39.1658
27.2272 38.9901
27.2732 38.9669
27.3191 38.7437
27.3651 38.9702
27.4109 38.802
27.4569 38.9965
27.5027 39.0106
27.5488 38.9837
27.5946 38.88
27.6407 38.6586
27.6865 38.5967
27.7326 38.4271
27.7784 38.312
27.8245 38.1937
27.8703 38.4866
27.9164 38.6972
27.9623 38.7362
28.0084 39.2108
28.0543 39.4743
28.1003 39.3583
28.1462 39.2802
28.1923 38.8642
28.2384 38.3505
28.2843 38.1875
28.3304 37.6185
28.3764 37.3146
28.4225 36.8403
28.4684 36.6411
28.5145 36.515
28.5605 36.3592
28.6066 36.1485
28.6526 36.1389
28.6987 36.0598
28.7447 35.9952
28.7908 35.858
28.8368 35.9587
28.8829 35.8072
28.9289 35.6284
28.9751 35.6003
29.0211 35.3273
29.0673 35.1391
29.1133 34.9643
29.1595 34.9201
29.2055 34.7454
29.2517 34.8573
29.2977 34.6428
29.3439 34.6675
29.3899 34.5483
29.4361 34.5288
29.4824 34.3847
29.5284 34.2127
29.5746 33.8044
29.6207 33.6048
29.6669 33.5217
29.713 33.4199
29.7593 33.41
29.8053 33.2957
29.8516 33.2934
29.8977 33.265
29.9439 33.0611
29.99 33.0417
30.0363 32.8773
30.0824 32.8441
30.1287 32.8976
30.1748 32.8341
30.2211 32.8983
30.2673 32.6536
30.3136 32.8642
30.3597 32.698
30.406 32.5035
30.4522 32.5219
30.4985 32.3696
30.5447 32.6104
30.591 32.5695
30.6372 32.5856
30.6835 32.5954
30.7297 32.543
30.7761 32.5225
30.8224 32.366
30.8686 32.2952
30.915 31.9503
30.9612 31.8317
31.0076 31.6651
31.0538 31.602
31.1002 31.5766
31.1464 31.3391
31.1928 31.3764
31.2391 31.2819
31.2855 31.2658
31.3317 31.2723
31.3781 31.253
31.4244 31.2052
31.4708 31.2077
31.5171 31.188
31.5636 31.2284
31.6098 30.9015
31.6563 30.7437
31.7026 30.729
31.7491 30.4856
31.7953 30.5021
31.8418 30.4403
31.8881 30.5635
31.9346 30.5028
31.9809 30.4793
32.0275 30.2986
32.074 30.2012
32.1203 30.0697
32.1668 29.8788
32.2132 29.7618
32.2597 29.626
32.306 29.6339
32.3526 29.3897
32.399 29.3185
32.4455 29.0713
32.4919 29.182
32.5385 29.0523
32.5848 28.9406
32.6314 28.8441
32.6778 28.7524
32.7244 28.5702
32.7708 28.4911
32.8174 28.5229
32.8638 28.357
32.9104 28.5078
32.9569 28.3406
33.0035 28.2622
33.0499 28.3372
33.0966 28.1879
33.143 28.1167
33.1897 28.1023
33.2361 27.9096
33.2828 27.9336
33.3293 27.7787
33.3759 27.7239
33.4226 27.5735
33.4691 27.4631
33.5158 27.3578
33.5623 27.2526
33.609 27.1
33.6555 27.0714
33.7022 26.9479
33.7487 26.8884
33.7954 26.788
33.842 26.761
33.8887 26.5994
33.9353 26.5405
33.982 26.5122
34.0286 26.4303
34.0753 26.3028
34.1219 26.1348
34.1687 26.2771
34.2152 26.107
34.262 25.9573
34.3086 25.9337
34.3554 25.8057
34.402 25.6737
34.4488 25.6922
34.4954 25.5145
34.5422 25.5028
34.5889 25.3741
34.6357 25.2419
34.6825 25.2145
34.7292 25.0975
34.776 25.0697
34.8227 25.0859
34.8695 24.9907
34.9162 24.9501
34.9631 24.8397
35.0098 24.7949
35.0566 24.668
35.1033 24.641
35.1502 24.5276
35.1969 24.4624
35.2438 24.4158
35.2906 24.3412
35.3375 24.413
35.3842 24.2408
35.4311 24.2468
35.4779 24.2517
35.5248 24.1699
35.5716 23.9899
35.6185 24.0004
35.6653 23.9037
35.7123 23.8072
35.759 23.7387
35.806 23.6602
35.8528 23.5816
35.8998 23.5611
35.9468 23.3459
35.9936 23.3352
36.0406 23.336
36.0874 23.2194
36.1345 23.159
36.1813 23.1139
36.2283 23.0175
36.2752 22.9106
36.3222 22.8909
36.3691 22.8622
36.4161 22.8339
36.463 22.7473
36.5101 22.6844
36.557 22.7292
36.6041 22.464
36.651 22.4634
36.6981 22.3796
36.745 22.3353
36.7921 22.2586
36.839 22.2
36.8861 22.1473
36.9331 22.0527
36.9802 21.9058
37.0272 21.8506
37.0743 21.7446
37.1213 21.7615
37.1684 21.6833
37.2154 21.6191
37.2626 21.5104
37.3098 21.5305
37.3568 21.4209
37.404 21.4313
37.451 21.2583
37.4982 21.2407
37.5452 21.0626
37.5924 21.0773
37.6395 21.0861
37.6867 20.9079
37.7337 20.8175
37.781 20.7986
37.8281 20.8114
37.8753 20.6862
37.9224 20.5559
37.9697 20.5719
38.0168 20.5185
38.064 20.4375
38.1111 20.3228
38.1584 20.326
38.2056 20.2632
38.2529 20.1254
38.3 20.1444
38.3473 20.1323
38.3945 19.9583
38.4418 19.8821
38.489 19.8521
38.5363 19.7455
38.5837 19.69
38.6309 19.6987
38.6782 19.586
38.7254 19.4767
38.7728 19.4742
38.82 19.3819
38.8674 19.398
38.9146 19.3031
38.9621 19.2333
39.0093 19.1599
39.0567 19.1286
39.104 19.0413
39.1514 18.9794
39.1987 18.9321
39.2461 18.8917
39.2934 18.8433
39.3409 18.6687
39.3882 18.6531
39.4356 18.6266
39.483 18.5756
39.5304 18.4251
39.5778 18.435
39.6253 18.4077
39.6726 18.3618
39.7201 18.3017
39.7675 18.2353
39.815 18.1568
39.8624 18.1107
39.9099 18.0742
39.9575 17.999
40.0049 17.9471
40.0525 17.8851
40.0999 17.8005
40.1474 17.8384
40.1949 17.6422
40.2425 17.6419
40.2899 17.5516
40.3375 17.5376
40.385 17.4843
40.4326 17.4291
40.48 17.353
40.5277 17.4031
40.5752 17.2574
40.6228 17.1689
40.6703 17.1591
40.718 17.0697
40.7655 17.0416
40.8132 16.9786
40.8607 16.9534
40.9084 16.9175
40.9559 16.8318
41.0036 16.8095
41.0512 16.7008
41.0989 16.6601
41.1465 16.6064
41.1942 16.5432
41.242 16.4948
41.2896 16.4367
41.3373 16.3354
41.3849 16.3149
41.4327 16.2943
41.4803 16.2189
41.5281 16.164
41.5758 16.1139
41.6236 16.018
41.6712 15.9823
41.7191 15.9351
41.7667 15.8582
41.8146 15.9472
41.8622 15.8252
41.9101 15.791
41.9578 15.6832
42.0057 15.6056
42.0534 15.6105
42.1013 15.5412
42.149 15.4502
42.1969 15.4543
42.2446 15.339
42.2925 15.3849
42.3403 15.274
42.3882 15.2567
42.436 15.1821
42.4839 15.1502
42.5319 15.1109
42.5797 15.0598
42.6277 14.9333
42.6755 14.9349
42.7235 14.8606
42.7713 14.8765
42.8193 14.724
42.8671 14.7224
42.9152 14.6186
42.963 14.5651
43.0111 14.5709
43.0589 14.5076
43.107 14.4357
43.1549 14.3811
43.2029 14.3227
43.2508 14.3244
43.2989 14.2657
43.3468 14.1673
43.3949 14.1882
43.4429 14.1323
43.491 14.0826
43.5389 14.012
43.5871 13.9656
43.635 13.8909
43.6832 13.8709
43.7312 13.7954
43.7793 13.764
43.8273 13.6875
43.8755 13.6807
43.9237 13.6782
43.9717 13.6155
44.0199 13.5107
44.068 13.5654
44.1162 13.452
44.1642 13.4507
44.2125 13.3846
44.2606 13.2713
44.3088 13.285
44.3569 13.1968
44.4052 13.1791
44.4533 13.1588
44.5016 13.0709
44.5497 13.0342
44.598 12.9626
44.6461 12.9405
44.6945 12.9548
44.7426 12.8625
44.791 12.8569
44.8391 12.7819
44.8875 12.7261
44.9357 12.7044
44.984 12.6218
45.0322 12.5651
45.0806 12.5404
45.1288 12.5154
45.1773 12.4314
45.2257 12.3986
45.2739 12.3366
45.3224 12.3863
45.3706 12.2815
45.4191 12.2342
45.4673 12.1398
45.5158 12.1893
45.5641 12.0977
45.6126 12.0597
45.6609 12.0235
45.7094 11.9461
45.7577 11.9145
45.8063 11.8534
45.8546 11.8975
45.9031 11.8003
45.9515 11.7498
46.0001 11.6988
46.0484 11.6194
46.097 11.6401
46.1454 11.6325
46.194 11.5584
46.2424 11.4965
46.291 11.4554
46.3395 11.4093
46.3881 11.3378
46.4365 11.3601
46.4852 11.3213
46.5337 11.2324
46.5823 11.232
46.631 11.1452
46.6795 11.1655
46.7282 11.1081
46.7767 11.0745
46.8254 10.9956
46.8739 11.0029
46.9226 10.9418
46.9712 10.8857
47.0199 10.8697
47.0685 10.8229
47.1173 10.7649
47.1658 10.7039
47.2146 10.6675
47.2632 10.632
47.312 10.5857
47.3606 10.5565
47.4095 10.536
47.4581 10.4986
47.5069 10.4676
47.5556 10.427
47.6044 10.3213
47.6531 10.3382
47.702 10.2509
47.7507 10.2849
47.7996 10.2172
47.8483 10.1992
47.8972 10.1197
47.9461 10.1287
47.9948 10.0668
48.0438 10.0462
48.0925 10.0052
48.1415 9.97912
48.1902 9.92438
48.2392 9.8925
48.288 9.86526
48.337 9.83114
48.3858 9.81268
48.4348 9.75941
48.4837 9.73706
48.5327 9.70822
48.5815 9.67567
48.6306 9.62477
48.6795 9.59321
48.7285 9.5342
48.7774 9.54672
48.8265 9.45633
48.8754 9.40508
48.9245 9.41401
48.9734 9.33373
49.0226 9.36403
49.0715 9.32327
49.1206 9.25029
49.1696 9.23531
49.2188 9.19047
49.2679 9.16058
49.3169 9.13912
49.3661 9.12409
49.4151 9.05386
49.4643 9.0279
49.5134 9.01304
49.5626 8.91974
49.6117 8.8971
49.6609 8.91011
49.71 8.85051
49.7592 8.78687
49.8083 8.79164
49.8576 8.74327
49.9067 8.71414
49.956 8.70172
50.0052 8.62468
50.0545 8.62589
50.1036 8.58723
50.153 8.55577
50.2022 8.57117
50.2515 8.46249
50.3007 8.43622
50.3501 8.43263
50.3993 8.40346
50.4487 8.35071
50.498 8.34471
50.5474 8.29472
50.5966 8.26382
50.6461 8.23318
50.6955 8.17769
50.7448 8.18069
50.7943 8.10807
50.8436 8.08602
50.8931 8.08271
50.9424 8.04511
50.9919 7.99345
51.0413 7.99376
51.0908 7.92287
51.1402 7.89369
51.1897 7.87752
51.2391 7.80929
51.2887 7.81499
51.3381 7.80816
51.3877 7.75741
51.4371 7.70891
51.4867 7.67456
51.5362 7.6632
51.5858 7.61104
51.6353 7.56925
51.6849 7.53092
51.7344 7.55109
51.7841 7.53476
51.8336 7.48203
51.8833 7.42409
51.9328 7.38537
51.9826 7.34998
52.0323 7.32144
52.0818 7.31063
52.1316 7.26757
52.1812 7.25054
52.231 7.23216
52.2806 7.2129
52.3304 7.12867
52.38 7.10921
52.4298 7.12298
52.4794 7.01834
52.5293 7.03536
52.5789 7.02038
52.6288 6.9902
52.6785 6.93227
52.7284 6.92483
52.7781 6.8843
52.828 6.81662
52.8777 6.79655
52.9276 6.80548
52.9774 6.78016
53.0273 6.72234
53.0771 6.7004
53.1271 6.72843
53.1769 6.64442
53.2269 6.66258
53.2767 6.62822
53.3267 6.60252
53.3765 6.53195
53.4266 6.53252
53.4766 6.48383
53.5265 6.50594
53.5765 6.4422
53.6264 6.41532
53.6765 6.37915
53.7264 6.35494
53.7765 6.32641
53.8265 6.27733
53.8766 6.24659
53.9266 6.23493
53.9767 6.21061
54.0267 6.19824
54.0769 6.13499
54.1269 6.13755
54.1771 6.0972
54.2271 6.04665
54.2773 6.01971
54.3274 6.01766
54.3776 5.98492
54.4277 5.92634
54.478 5.92613
54.528 5.85621
54.5783 5.83577
54.6285 5.79766
54.6788 5.77781
54.7289 5.69317
54.7792 5.6486
54.8296 5.62568
54.8798 5.578
54.9301 5.55268
54.9803 5.55262
55.0307 5.522
55.0809 5.44726
55.1314 5.42679
55.1816 5.35478
55.232 5.30882
55.2823 5.29682
55.3328 5.23626
55.383 5.15902
55.4335 5.12989
55.4838 5.0619
55.5344 5.00329
55.5847 4.97274
55.6352 5.02256
55.6856 4.89282
55.7361 4.82202