File: XRD/Ni3Fe_FD0245.xy
TT I
1.27165 8.40485
1.31627 7.48445
1.36089 6.74284
1.40551 6.56609
1.45013 6.45773
1.49476 6.49056
1.53938 6.01049
1.584 6.16122
1.62863 5.27052
1.67325 5.20004
1.71787 5.10661
1.7625 5.06506
1.80712 5.11901
1.85174 4.83466
1.89636 4.473
1.94099 5.19907
1.98562 4.97364
2.03025 4.56621
2.07487 4.4423
2.11949 5.07775
2.16411 4.99891
2.20874 4.98225
2.25338 4.32866
2.298 4.21906
2.34263 4.06522
2.38725 5.495
2.43188 4.85278
2.4765 4.89963
2.52115 5.32158
2.56577 5.25939
2.6104 6.31755
2.65503 5.95629
2.69965 6.73961
2.7443 6.1736
2.78893 7.3444
2.83356 7.37662
2.87818 8.23319
2.92281 8.74475
2.96744 9.4794
3.01209 10.1722
3.05672 11.1459
3.10135 12.1103
3.14599 12.8132
3.19062 13.8512
3.23527 15.1107
3.2799 15.7932
3.32454 16.9535
3.36917 17.6964
3.4138 19.0219
3.45844 19.8303
3.50309 20.6966
3.54773 21.3842
3.59237 22.3951
3.637 23.6354
3.68164 23.7159
3.7263 24.9677
3.77094 26.028
3.81558 26.5891
3.86022 27.6409
3.90486 29.0716
3.9495 30.4384
3.99416 31.1059
4.0388 32.5785
4.08344 33.7893
4.12809 34.6573
4.17273 36.2811
4.21738 37.9632
4.26204 39.0916
4.30669 40.3621
4.35133 43.0724
4.39598 44.9677
4.44063 46.4317
4.4853 48.3641
4.52995 53.2291
4.5746 54.4267
4.61925 55.5427
4.6639 58.0098
4.70855 61.2953
4.75322 64.4904
4.79788 68.59
4.84253 71.5723
4.88719 77.0701
4.93184 81.5685
4.97652 87.7188
5.02118 96.2085
5.06583 106.78
5.11049 123.092
5.15515 168.65
5.19981 894.276
5.24449 3968.24
5.28916 10556.3
5.33382 4020.11
5.37848 265.65
5.42315 151.515
5.46783 129.109
5.5125 117.852
5.55716 111.632
5.60183 106.229
5.6465 104.129
5.69117 102.896
5.73586 100.937
5.78053 101.769
5.8252 102.597
5.86988 104.4
5.91455 109.674
5.95924 132.468
6.00392 447.498
6.0486 1426.57
6.09328 3733.58
6.13795 3635.4
6.18263 344.541
6.22733 108.047
6.27201 88.3122
6.3167 80.7272
6.36138 75.9651
6.40606 72.5288
6.45075 70.9603
6.49545 68.6168
6.54014 66.205
6.58483 64.9817
6.62952 64.1356
6.67421 62.5069
6.71892 61.8751
6.76361 60.4106
6.8083 60.075
6.853 59.6085
6.89769 58.6036
6.94239 58.2911
6.98711 57.5811
7.03181 57.0007
7.07651 56.6547
7.12121 56.2269
7.16591 56.6057
7.21063 56.1233
7.25533 55.5182
7.30004 55.9717
7.34475 55.5728
7.38945 56.0153
7.43416 55.3095
7.47889 55.5561
7.5236 55.9058
7.56831 57.1546
7.61303 57.065
7.65774 57.4573
7.70247 57.9958
7.74719 58.0938
7.79191 58.689
7.83663 59.0986
7.88135 60.364
7.92607 61.4196
7.97081 62.5078
8.01553 63.7422
8.06026 65.1181
8.10498 66.8443
8.14971 69.2557
8.19446 70.6346
8.23919 72.9803
8.28392 76.4184
8.32865 79.1759
8.37339 84.2005
8.41812 90.4951
8.46288 111.649
8.50761 292.445
8.55235 579.344
8.59709 1084.36
8.64183 2008.88
8.68658 1167.16
8.73134 214.899
8.77609 109.924
8.82083 100.088
8.86558 96.2137
8.91033 93.4902
8.9551 90.8162
8.99985 89.1772
9.04461 88.3783
9.08936 87.9938
9.13412 87.2282
9.17888 86.2609
9.22365 86.5826
9.26841 86.7093
9.31318 87.9114
9.35794 88.6021
9.4027 88.3474
9.44749 89.123
9.49226 89.6431
9.53703 90.5292
9.5818 92.7941
9.62657 94.5691
9.67134 95.7537
9.71614 97.5776
9.76091 99.9569
9.80569 102.849
9.85047 106.673
9.89525 112.149
9.94005 138.224
9.98484 304.941
10.0296 512.701
10.0744 808.861
10.1192 1472.78
10.164 1698.05
10.2088 532.437
10.2536 146.765
10.2984 117.352
10.3432 112.489
10.388 115.128
10.4328 158.866
10.4776 210.621
10.5224 285.157
10.5672 451.895
10.612 537.147
10.6568 246.208
10.7017 106.715
10.7465 92.2673
10.7913 87.9144
10.8361 85.303
10.8809 83.1177
10.9257 80.7771
10.9706 79.4361
11.0154 77.5649
11.0602 75.9868
11.105 74.5309
11.1499 73.1003
11.1947 72.041
11.2395 71.2002
11.2844 70.6457
11.3292 69.989
11.374 69.0919
11.4189 68.3015
11.4637 67.7664
11.5086 66.8452
11.5534 66.4236
11.5983 66.1643
11.6431 66.1169
11.688 65.6448
11.7328 65.8155
11.7777 65.5168
11.8225 65.0505
11.8674 65.3647
11.9122 65.8999
11.9571 66.0694
12.002 68.5965
12.0468 80.1099
12.0917 93.7282
12.1366 109.781
12.1814 141.914
12.2263 194.034
12.2712 181.8
12.3161 101.619
12.3609 69.776
12.4058 67.0322
12.4507 66.909
12.4956 67.0177
12.5405 67.2376
12.5853 67.6617
12.6302 68.2384
12.6751 68.874
12.72 69.4136
12.7649 70.6162
12.8098 71.7249
12.8547 73.0149
12.8996 74.6418
12.9445 76.315
12.9894 78.3924
13.0343 80.7042
13.0792 86.6557
13.1242 111.331
13.1691 145.843
13.214 174.781
13.2589 232.144
13.3038 327.724
13.3487 423.856
13.3937 303.128
13.4386 147.546
13.4835 133.263
13.5285 152.042
13.5734 175.468
13.6183 228.775
13.6633 316.194
13.7082 360.256
13.7531 222.357
13.7981 109.039
13.843 86.7369
13.888 83.8567
13.9329 81.1354
13.9779 79.8575
14.0228 77.9915
14.0678 76.8792
14.1127 75.9137
14.1577 75.1874
14.2027 74.4514
14.2476 73.8508
14.2926 73.3776
14.3376 72.9006
14.3825 72.5896
14.4275 72.1568
14.4725 72.3159
14.5175 72.4142
14.5624 72.2819
14.6074 72.5866
14.6524 73.2978
14.6974 74.7311
14.7424 81.5374
14.7874 94.9969
14.8324 105.911
14.8774 120.213
14.9224 146.548
14.9674 189.431
15.0124 221.791
15.0574 167.372
15.1024 99.9563
15.1474 76.8297
15.1924 73.4201
15.2374 72.1668
15.2824 71.5722
15.3274 70.3974
15.3725 69.971
15.4175 69.8577
15.4625 69.3505
15.5076 69.0294
15.5526 69.3574
15.5976 69.6943
15.6426 75.3914
15.6877 86.0758
15.7327 94.2229
15.7778 103.918
15.8228 122.731
15.8679 153.389
15.9129 190.58
15.958 170.814
16.003 109.297
16.0481 72.084
16.0931 65.5188
16.1382 63.7593
16.1833 62.9959
16.2283 61.6046
16.2734 60.9598
16.3185 60.1481
16.3636 59.4054
16.4086 58.5806
16.4537 58.3662
16.4988 57.9634
16.5439 57.746
16.589 57.4324
16.6341 57.2656
16.6792 56.792
16.7243 57.2615
16.7694 57.1887
16.8145 56.975
16.8596 57.4363
16.9047 57.5937
16.9498 57.7113
16.9949 57.9113
17.04 59.1817
17.0851 61.5471
17.1302 63.5521
17.1754 65.6533
17.2205 69.0084
17.2656 74.3002
17.3108 82.5445
17.3559 85.1294
17.401 76.7643
17.4462 66.4249
17.4913 62.3507
17.5365 61.9132
17.5815 62.1116
17.6268 62.6044
17.6718 62.919
17.7171 63.3118
17.7622 64.2937
17.8074 66.4521
17.8525 72.1211
17.8977 78.0254
17.9428 82.4163
17.9881 88.3409
18.0331 99.4863
18.0784 116.157
18.1237 139.547
18.1688 143.143
18.214 116.658
18.2591 93.3092
18.3044 90.2899
18.3495 97.2345
18.3948 106.657
18.4399 100.946
18.4852 82.8361
18.5303 69.5589
18.5756 65.2106
18.6207 64.2472
18.666 63.3642
18.7112 62.4729
18.7565 61.6409
18.8016 61.3924
18.8469 60.7524
18.892 60.4917
18.9374 59.8126
18.9825 59.692
19.0278 59.7596
19.073 60.3084
19.1183 61.2599
19.1635 61.801
19.2088 62.8355
19.254 64.6601
19.2993 67.0396
19.3447 71.4796
19.3898 76.7143
19.4352 75.7565
19.4804 68.0675
19.5257 59.9194
19.5709 56.7904
19.6163 56.2507
19.6615 56.2766
19.7068 55.9998
19.752 55.8692
19.7974 57.0157
19.8426 58.0084
19.888 58.8303
19.9332 59.3793
19.9786 61.2885
20.0238 64.2672
20.0692 68.4887
20.1144 72.6699
20.1598 72.7838
20.205 67.6448
20.2504 64.2524
20.2957 64.5668
20.3411 66.7612
20.3863 67.2322
20.4318 62.1373
20.477 56.3698
20.5224 53.4838
20.5677 52.9193
20.6131 52.6054
20.6586 51.8305
20.7038 51.7999
20.7493 51.3526
20.7945 51.2095
20.84 51.2151
20.8853 51.0198
20.9307 51.0533
20.976 51.3296
21.0215 51.1027
21.0668 51.4995
21.1122 51.7563
21.1575 51.9657
21.203 52.5365
21.2483 53.2746
21.2938 53.8446
21.3391 52.6935
21.3846 51.5489
21.4299 50.8874
21.4754 50.7284
21.5207 51.0979
21.5662 51.7474
21.6116 52.6302
21.6571 53.3468
21.7024 54.2851
21.7479 55.5146
21.7933 57.7528
21.8388 60.2344
21.8843 63.6864
21.9297 66.7292
21.9752 67.0268
22.0206 63.2124
22.0661 58.5733
22.1115 57.6303
22.157 58.3263
22.2024 57.2934
22.248 54.3441
22.2933 52.3866
22.3389 51.383
22.3843 50.9463
22.4299 50.8324
22.4753 50.7671
22.5208 50.8745
22.5662 50.8123
22.6118 51.4094
22.6572 51.7423
22.7028 52.2666
22.7483 52.606
22.7939 53.048
22.8393 54.2156
22.8849 55.316
22.9303 57.0317
22.9759 59.1293
23.0214 59.9843
23.067 57.7461
23.1126 54.1324
23.1581 51.9685
23.2037 51.4594
23.2492 51.7467
23.2948 51.9518
23.3403 52.2009
23.3859 52.5055
23.4314 53.071
23.477 54.1241
23.5225 55.5569
23.5682 57.5615
23.6137 59.7255
23.6593 58.4502
23.7048 54.8728
23.7505 50.9208
23.796 48.8941
23.8417 48.2861
23.8872 47.6951
23.9329 47.2552
23.9784 46.7194
24.0241 46.686
24.0697 46.5954
24.1154 46.0097
24.1609 45.9712
24.2066 45.6536
24.2522 45.6401
24.2979 45.3703
24.3434 45.2483
24.3892 45.0916
24.4349 44.9912
24.4805 44.7823
24.5262 44.8754
24.5718 44.7239
24.6175 44.8592
24.6631 44.7418
24.7089 44.46
24.7545 44.3026
24.8002 44.2619
24.8458 44.3218
24.8916 44.1578
24.9372 44.2907
24.983 44.6366
25.0286 44.9462
25.0744 45.1966
25.12 45.5776
25.1658 46.3836
25.2114 46.4644
25.2572 46.3355
25.3029 46.4261
25.3487 46.4966
25.3943 46.6241
25.4402 45.7834
25.4858 44.4643
25.5316 43.4767
25.5773 42.8667
25.6231 42.7928
25.669 42.3811
25.7147 42.5314
25.7605 42.479
25.8062 42.3717
25.8521 42.4044
25.8977 42.3573
25.9436 42.5373
25.9893 42.6394
26.0352 43.0135
26.0809 43.1339
26.1268 43.5074
26.1725 43.2253
26.2184 42.8197
26.2641 42.3964
26.31 41.9924
26.3557 42.1342
26.4017 42.0703
26.4474 42.3137
26.4933 42.4174
26.5391 42.8228
26.585 43.2148
26.6308 43.56
26.6767 43.851
26.7225 43.8988
26.7684 43.3826
26.8142 42.5964
26.8601 42.2071
26.9059 41.8863
26.9519 41.3969
26.9979 41.0717
27.0437 40.6974
27.0896 40.5218
27.1354 40.4089
27.1814 40.3451
27.2272 40.1979
27.2732 40.3794
27.3191 40.1472
27.3651 40.1975
27.4109 40.0613
27.4569 40.1376
27.5027 40.2195
27.5488 40.2412
27.5946 40.1431
27.6407 39.9883
27.6865 39.9634
27.7326 39.5801
27.7784 39.6002
27.8245 39.5539
27.8703 39.67
27.9164 39.8853
27.9623 39.938
28.0084 40.3093
28.0543 40.669
28.1003 40.5594
28.1462 40.468
28.1923 40.3164
28.2384 39.4929
28.2843 39.3364
28.3304 38.8112
28.3764 38.6047
28.4225 38.0743
28.4684 37.868
28.5145 37.471
28.5605 37.3491
28.6066 37.1741
28.6526 37.1825
28.6987 37.1755
28.7447 37.0191
28.7908 36.7978
28.8368 36.7618
28.8829 36.8056
28.9289 36.7692
28.9751 36.7176
29.0211 36.4667
29.0673 36.2299
29.1133 36.1716
29.1595 35.9189
29.2055 35.7711
29.2517 35.6532
29.2977 35.7152
29.3439 35.6335
29.3899 35.6443
29.4361 35.6428
29.4824 35.4115
29.5284 35.2677
29.5746 34.874
29.6207 34.6123
29.6669 34.5097
29.713 34.4323
29.7593 34.3603
29.8053 34.2774
29.8516 34.1342
29.8977 34.2632
29.9439 34.1435
29.99 34.0022
30.0363 33.8038
30.0824 33.9259
30.1287 33.7765
30.1748 33.8163
30.2211 33.7255
30.2673 33.6941
30.3136 33.8887
30.3597 33.7161
30.406 33.6143
30.4522 33.4932
30.4985 33.4518
30.5447 33.5981
30.591 33.4016
30.6372 33.3722
30.6835 33.475
30.7297 33.6062
30.7761 33.5757
30.8224 33.3445
30.8686 33.2557
30.915 33.0127
30.9612 32.965
31.0076 32.7336
31.0538 32.4522
31.1002 32.5944
31.1464 32.3374
31.1928 32.2877
31.2391 32.257
31.2855 32.2089
31.3317 32.2038
31.3781 32.176
31.4244 32.1802
31.4708 32.0558
31.5171 32.1171
31.5636 32.2093
31.6098 31.8673
31.6563 31.7927
31.7026 31.5852
31.7491 31.5447
31.7953 31.4847
31.8418 31.48
31.8881 31.3845
31.9346 31.3979
31.9809 31.3672
32.0275 31.1626
32.074 31.1194
32.1203 30.929
32.1668 30.7778
32.2132 30.6977
32.2597 30.5121
32.306 30.3967
32.3526 30.2416
32.399 30.1658
32.4455 30.0951
32.4919 29.9919
32.5385 29.8856
32.5848 29.7244
32.6314 29.7902
32.6778 29.645
32.7244 29.581
32.7708 29.3454
32.8174 29.433
32.8638 29.287
32.9104 29.2911
32.9569 29.2415
33.0035 29.0789
33.0499 28.9896
33.0966 28.9608
33.143 29.0226
33.1897 28.8754
33.2361 28.8004
33.2828 28.8139
33.3293 28.6224
33.3759 28.6227
33.4226 28.4297
33.4691 28.2035
33.5158 28.227
33.5623 28.0867
33.609 27.9282
33.6555 27.8181
33.7022 27.7825
33.7487 27.6623
33.7954 27.6738
33.842 27.5786
33.8887 27.422
33.9353 27.4098
33.982 27.3088
34.0286 27.2039
34.0753 27.0985
34.1219 27.0197
34.1687 26.9148
34.2152 26.863
34.262 26.7772
34.3086 26.6208
34.3554 26.5914
34.402 26.5026
34.4488 26.3223
34.4954 26.323
34.5422 26.2539
34.5889 26.1277
34.6357 26.1068
34.6825 25.8942
34.7292 25.9629
34.776 25.7764
34.8227 25.8203
34.8695 25.7196
34.9162 25.682
34.9631 25.4606
35.0098 25.6017
35.0566 25.43
35.1033 25.3851
35.1502 25.3865
35.1969 25.2673
35.2438 25.2803
35.2906 25.0345
35.3375 25.071
35.3842 25.0087
35.4311 24.9791
35.4779 24.8825
35.5248 24.8697
35.5716 24.8018
35.6185 24.7286
35.6653 24.556
35.7123 24.4847
35.759 24.5574
35.806 24.3842
35.8528 24.1955
35.8998 24.2585
35.9468 24.1281
35.9936 24.0319
36.0406 23.9651
36.0874 23.989
36.1345 23.9069
36.1813 23.8292
36.2283 23.7174
36.2752 23.6451
36.3222 23.6533
36.3691 23.5687
36.4161 23.3867
36.463 23.3765
36.5101 23.4074
36.557 23.2472
36.6041 23.1279
36.651 23.125
36.6981 23.0439
36.745 22.9614
36.7921 22.9397
36.839 22.8647
36.8861 22.7271
36.9331 22.7152
36.9802 22.5443
37.0272 22.5779
37.0743 22.4656
37.1213 22.3876
37.1684 22.3446
37.2154 22.2893
37.2626 22.176
37.3098 22.1286
37.3568 22.0876
37.404 22.0315
37.451 21.8806
37.4982 21.8761
37.5452 21.794
37.5924 21.7003
37.6395 21.7175
37.6867 21.5342
37.7337 21.5263
37.781 21.469
37.8281 21.3796
37.8753 21.3161
37.9224 21.152
37.9697 21.1585
38.0168 21.0976
38.064 21.0353
38.1111 20.9669
38.1584 20.8758
38.2056 20.7967
38.2529 20.7958
38.3 20.7358
38.3473 20.648
38.3945 20.5409
38.4418 20.537
38.489 20.4258
38.5363 20.3005
38.5837 20.2968
38.6309 20.2787
38.6782 20.1482
38.7254 20.0814
38.7728 20.0629
38.82 19.934
38.8674 19.8996
38.9146 19.8976
38.9621 19.838
39.0093 19.78
39.0567 19.7047
39.104 19.5769
39.1514 19.4691
39.1987 19.4915
39.2461 19.4021
39.2934 19.3127
39.3409 19.2395
39.3882 19.1642
39.4356 19.1082
39.483 19.0695
39.5304 19.0531
39.5778 18.9605
39.6253 18.9125
39.6726 18.8912
39.7201 18.802
39.7675 18.7652
39.815 18.7155
39.8624 18.5981
39.9099 18.6308
39.9575 18.4876
40.0049 18.4527
40.0525 18.4211
40.0999 18.3108
40.1474 18.3267
40.1949 18.2171
40.2425 18.1801
40.2899 18.0741
40.3375 18.0609
40.385 18.0253
40.4326 17.9389
40.48 17.8536
40.5277 17.9082
40.5752 17.7814
40.6228 17.6394
40.6703 17.6601
40.718 17.5697
40.7655 17.583
40.8132 17.4828
40.8607 17.495
40.9084 17.4085
40.9559 17.3175
41.0036 17.2864
41.0512 17.2278
41.0989 17.2129
41.1465 17.0819
41.1942 17.0696
41.242 16.9155
41.2896 16.9089
41.3373 16.8517
41.3849 16.8041
41.4327 16.7359
41.4803 16.6564
41.5281 16.6384
41.5758 16.5721
41.6236 16.4695
41.6712 16.5119
41.7191 16.4056
41.7667 16.3554
41.8146 16.2998
41.8622 16.2555
41.9101 16.2189
41.9578 16.1117
42.0057 16.0833
42.0534 16.0025
42.1013 15.9727
42.149 15.8981
42.1969 15.8581
42.2446 15.8084
42.2925 15.7515
42.3403 15.7032
42.3882 15.6394
42.436 15.5808
42.4839 15.4992
42.5319 15.5053
42.5797 15.4227
42.6277 15.3714
42.6755 15.3386
42.7235 15.2861
42.7713 15.2876
42.8193 15.1803
42.8671 15.1306
42.9152 15.0998
42.963 15.0213
43.0111 14.9597
43.0589 14.961
43.107 14.8769
43.1549 14.8409
43.2029 14.7963
43.2508 14.7085
43.2989 14.6816
43.3468 14.6287
43.3949 14.5567
43.4429 14.5322
43.491 14.4711
43.5389 14.4368
43.5871 14.3761
43.635 14.3057
43.6832 14.3157
43.7312 14.2034
43.7793 14.1501
43.8273 14.1452
43.8755 14.0823
43.9237 14.038
43.9717 13.9993
44.0199 13.9314
44.068 13.9121
44.1162 13.8447
44.1642 13.7795
44.2125 13.7198
44.2606 13.6678
44.3088 13.6169
44.3569 13.5776
44.4052 13.5405
44.4533 13.4661
44.5016 13.4081
44.5497 13.3852
44.598 13.363
44.6461 13.3057
44.6945 13.2554
44.7426 13.1915
44.791 13.1482
44.8391 13.149
44.8875 13.0509
44.9357 13.0607
44.984 12.9742
45.0322 12.8884
45.0806 12.8583
45.1288 12.8518
45.1773 12.8039
45.2257 12.7475
45.2739 12.7085
45.3224 12.7015
45.3706 12.5674
45.4191 12.5155
45.4673 12.5522
45.5158 12.4475
45.5641 12.435
45.6126 12.3826
45.6609 12.3141
45.7094 12.2835
45.7577 12.2578
45.8063 12.1787
45.8546 12.1682
45.9031 12.0892
45.9515 12.0519
46.0001 12.0397
46.0484 12.0082
46.097 11.9486
46.1454 11.8914
46.194 11.8829
46.2424 11.8016
46.291 11.783
46.3395 11.7277
46.3881 11.6983
46.4365 11.7052
46.4852 11.6287
46.5337 11.5553
46.5823 11.5792
46.631 11.5013
46.6795 11.4183
46.7282 11.3462
46.7767 11.3449
46.8254 11.2754
46.8739 11.2641
46.9226 11.2179
46.9712 11.1861
47.0199 11.1461
47.0685 11.1175
47.1173 11.0754
47.1658 11.0335
47.2146 10.9676
47.2632 10.9232
47.312 10.9201
47.3606 10.8505
47.4095 10.8002
47.4581 10.7701
47.5069 10.7557
47.5556 10.716
47.6044 10.5956
47.6531 10.6186
47.702 10.5728
47.7507 10.5613
47.7996 10.4933
47.8483 10.4772
47.8972 10.4337
47.9461 10.4059
47.9948 10.3314
48.0438 10.3163
48.0925 10.2746
48.1415 10.2359
48.1902 10.2025
48.2392 10.2123
48.288 10.1598
48.337 10.0798
48.3858 10.0644
48.4348 10.0366
48.4837 10.0262
48.5327 9.95239
48.5815 9.90726
48.6306 9.8986
48.6795 9.87126
48.7285 9.78668
48.7774 9.7689
48.8265 9.78158
48.8754 9.659
48.9245 9.64603
48.9734 9.62518
49.0226 9.59508
49.0715 9.54324
49.1206 9.48247
49.1696 9.48681
49.2188 9.46065
49.2679 9.42935
49.3169 9.39687
49.3661 9.30206
49.4151 9.28915
49.4643 9.26136
49.5134 9.21757
49.5626 9.16902
49.6117 9.1531
49.6609 9.10974
49.71 9.0745
49.7592 9.03608
49.8083 9.00386
49.8576 8.99211
49.9067 8.95353
49.956 8.92897
50.0052 8.87942
50.0545 8.85141
50.1036 8.80286
50.153 8.75608
50.2022 8.73018
50.2515 8.70361
50.3007 8.62629
50.3501 8.61975
50.3993 8.62222
50.4487 8.57308
50.498 8.51591
50.5474 8.47937
50.5966 8.46798
50.6461 8.44718
50.6955 8.39685
50.7448 8.33571
50.7943 8.35427
50.8436 8.3153
50.8931 8.23967
50.9424 8.24298
50.9919 8.18921
51.0413 8.18225
51.0908 8.1593
51.1402 8.13082
51.1897 8.03721
51.2391 8.02982
51.2887 8.01953
51.3381 7.97778
51.3877 7.93484
51.4371 7.91934
51.4867 7.85783
51.5362 7.81671
51.5858 7.85534
51.6353 7.76151
51.6849 7.76059
51.7344 7.76486
51.7841 7.70298
51.8336 7.65424
51.8833 7.64023
51.9328 7.56629
51.9826 7.55162
52.0323 7.50542
52.0818 7.51231
52.1316 7.43402
52.1812 7.43013
52.231 7.45276
52.2806 7.36543
52.3304 7.36352
52.38 7.3201
52.4298 7.27469
52.4794 7.22491
52.5293 7.22362
52.5789 7.2054
52.6288 7.14415
52.6785 7.10525
52.7284 7.11724
52.7781 7.08716
52.828 7.06161
52.8777 6.99572
52.9276 7.0329
52.9774 6.95855
53.0273 6.94793
53.0771 6.89472
53.1271 6.89666
53.1769 6.82029
53.2269 6.79277
53.2767 6.80706
53.3267 6.71208
53.3765 6.71564
53.4266 6.7144
53.4766 6.67392
53.5265 6.60768
53.5765 6.63479
53.6264 6.58738
53.6765 6.55517
53.7264 6.49684
53.7765 6.48567
53.8265 6.42857
53.8766 6.42376
53.9266 6.43075
53.9767 6.36666
54.0267 6.3668
54.0769 6.32584
54.1269 6.29842
54.1771 6.31495
54.2271 6.23921
54.2773 6.18876
54.3274 6.17235
54.3776 6.12206
54.4277 6.1243
54.478 6.08548
54.528 6.02297
54.5783 5.95849
54.6285 5.93241
54.6788 5.89966
54.7289 5.81498
54.7792 5.80619
54.8296 5.68783
54.8798 5.72234
54.9301 5.6673
54.9803 5.61613
55.0307 5.62784
55.0809 5.58526
55.1314 5.55429
55.1816 5.45113
55.232 5.40205
55.2823 5.43257
55.3328 5.30398
55.383 5.22974
55.4335 5.18277
55.4838 5.13827
55.5344 5.13408
55.5847 5.04747
55.6352 5.04637
55.6856 4.98646
55.7361 4.98065