File: XRD/Ni3Fe_FD0570.xy
TT I
1.27165 7.90059
1.31627 6.50273
1.36089 6.87606
1.40551 6.352
1.45013 6.03942
1.49476 6.71842
1.53938 5.7249
1.584 5.26441
1.62863 5.32274
1.67325 5.07046
1.71787 5.47714
1.7625 5.02624
1.80712 4.96792
1.85174 4.67688
1.89636 4.55412
1.94099 4.57744
1.98562 5.61688
2.03025 4.1114
2.07487 4.57236
2.11949 5.04188
2.16411 4.72667
2.20874 10.0488
2.25338 14.7162
2.298 5.47016
2.34263 5.16144
2.38725 5.85786
2.43188 5.62123
2.4765 6.35994
2.52115 7.04556
2.56577 7.01318
2.6104 7.46562
2.65503 8.0946
2.69965 7.74637
2.7443 8.36497
2.78893 8.1291
2.83356 8.40441
2.87818 9.15248
2.92281 8.70932
2.96744 9.93425
3.01209 10.5471
3.05672 11.4871
3.10135 12.1299
3.14599 12.9515
3.19062 14.0115
3.23527 15.0662
3.2799 15.8031
3.32454 16.6793
3.36917 17.8708
3.4138 19.6883
3.45844 19.5818
3.50309 20.8169
3.54773 21.6678
3.59237 23.5777
3.637 62.5752
3.68164 43.3098
3.7263 25.7289
3.77094 25.8356
3.81558 26.6739
3.86022 27.459
3.90486 28.6535
3.9495 30.1478
3.99416 30.7678
4.0388 31.5571
4.08344 33.6998
4.12809 34.5006
4.17273 36.5645
4.21738 40.6727
4.26204 160.469
4.30669 136.649
4.35133 45.6364
4.39598 43.7547
4.44063 50.5092
4.4853 58.1676
4.52995 51.9792
4.5746 53.1511
4.61925 53.8074
4.6639 55.9148
4.70855 58.8639
4.75322 61.5747
4.79788 65.5386
4.84253 67.9905
4.88719 72.852
4.93184 76.6506
4.97652 82.288
5.02118 88.7116
5.06583 96.7876
5.11049 108.851
5.15515 164.734
5.19981 453.155
5.24449 3207.01
5.28916 12279.8
5.33382 2826.41
5.37848 197.745
5.42315 130.949
5.46783 116.137
5.5125 108.454
5.55716 103.509
5.60183 99.0144
5.6465 97.3803
5.69117 95.4163
5.73586 93.8169
5.78053 94.3502
5.8252 94.3841
5.86988 95.8752
5.91455 97.1551
5.95924 108.623
6.00392 262.653
6.0486 1110.88
6.09328 4485.78
6.13795 3386.55
6.18263 249.187
6.22733 93.9941
6.27201 82.5341
6.3167 90.6476
6.36138 77.2364
6.40606 69.3907
6.45075 68.1163
6.49545 65.647
6.54014 63.9491
6.58483 62.779
6.62952 62.7105
6.67421 80.5892
6.71892 107.542
6.76361 64.3917
6.8083 59.0676
6.853 58.2692
6.89769 56.8287
6.94239 56.5709
6.98711 55.8374
7.03181 55.724
7.07651 55.6108
7.12121 54.96
7.16591 55.5512
7.21063 55.4429
7.25533 64.2424
7.30004 126.569
7.34475 75.7713
7.38945 55.6795
7.43416 54.6016
7.47889 54.2875
7.5236 54.5566
7.56831 55.5013
7.61303 56.5255
7.65774 56.6606
7.70247 56.4153
7.74719 56.6297
7.79191 56.6952
7.83663 57.0699
7.88135 57.931
7.92607 59.0171
7.97081 60.2275
8.01553 60.937
8.06026 62.6433
8.10498 64.2407
8.14971 70.8608
8.19446 70.8114
8.23919 69.9868
8.28392 72.547
8.32865 74.8941
8.37339 79.472
8.41812 85.4732
8.46288 108.89
8.50761 191.697
8.55235 437.58
8.59709 1229.62
8.64183 2174.71
8.68658 944.84
8.73134 159.841
8.77609 99.5739
8.82083 93.3518
8.86558 91.0642
8.91033 90.4971
8.9551 89.7961
8.99985 85.545
9.04461 84.1814
9.08936 83.9339
9.13412 82.9435
9.17888 82.6422
9.22365 83.3787
9.26841 83.0215
9.31318 83.6883
9.35794 84.4971
9.4027 84.6975
9.44749 85.0577
9.49226 85.0027
9.53703 86.1831
9.5818 88.7114
9.62657 92.2046
9.67134 96.6546
9.71614 93.7586
9.76091 95.0049
9.80569 98.3222
9.85047 101.126
9.89525 116.773
9.94005 132.874
9.98484 205.849
10.0296 380.989
10.0744 855.759
10.1192 1704.69
10.164 1510.42
10.2088 371.185
10.2536 125.441
10.2984 111.359
10.3432 111.174
10.388 106.199
10.4328 126.565
10.4776 170.908
10.5224 297.808
10.5672 523.255
10.612 503.565
10.6568 192.46
10.7017 95.7298
10.7465 86.798
10.7913 83.1559
10.8361 81.4982
10.8809 79.3954
10.9257 78.2059
10.9706 77.9863
11.0154 75.1679
11.0602 72.9301
11.105 72.0867
11.1499 73.9442
11.1947 77.7072
11.2395 72.2474
11.2844 69.4926
11.3292 67.2988
11.374 66.4717
11.4189 65.824
11.4637 65.0536
11.5086 65.3993
11.5534 66.749
11.5983 64.8607
11.6431 64.0803
11.688 63.2189
11.7328 63.2737
11.7777 63.125
11.8225 62.7467
11.8674 62.7507
11.9122 63.1751
11.9571 63.7458
12.002 64.7997
12.0468 70.4305
12.0917 82.2763
12.1366 106.576
12.1814 155.856
12.2263 201.927
12.2712 160.088
12.3161 90.0738
12.3609 68.3893
12.4058 64.5288
12.4507 64.5696
12.4956 64.5668
12.5405 64.7759
12.5853 65.718
12.6302 70.2124
12.6751 73.5273
12.72 68.9742
12.7649 68.278
12.8098 68.8239
12.8547 70.3076
12.8996 71.4964
12.9445 73.1195
12.9894 74.946
13.0343 76.5873
13.0792 80.6951
13.1242 93.8939
13.1691 117.828
13.214 157.832
13.2589 250.784
13.3038 374.103
13.3487 422.523
13.3937 252.751
13.4386 121.618
13.4835 110.455
13.5285 126.409
13.5734 167.762
13.6183 256.54
13.6633 352.81
13.7082 334.8
13.7531 181.211
13.7981 96.7002
13.843 82.0112
13.888 80.074
13.9329 77.7197
13.9779 76.3547
14.0228 75.0433
14.0678 73.7163
14.1127 72.8903
14.1577 72.5595
14.2027 71.7717
14.2476 70.8411
14.2926 70.7069
14.3376 71.3306
14.3825 70.2795
14.4275 69.0825
14.4725 69.1398
14.5175 69.566
14.5624 69.4092
14.6074 70.8426
14.6524 71.5356
14.6974 71.2201
14.7424 74.2421
14.7874 81.891
14.8324 92.6295
14.8774 115.972
14.9224 158.008
14.9674 210.103
15.0124 217.442
15.0574 144.584
15.1024 88.7368
15.1474 72.7692
15.1924 70.7044
15.2374 70.4195
15.2824 69.7516
15.3274 68.266
15.3725 67.3712
15.4175 66.7643
15.4625 66.3838
15.5076 66.5128
15.5526 66.4804
15.5976 66.4172
15.6426 68.5854
15.6877 75.1247
15.7327 82.5486
15.7778 99.258
15.8228 130.876
15.8679 172.06
15.9129 194.274
15.958 151.535
16.003 94.4726
16.0481 67.037
16.0931 63.9722
16.1382 62.3803
16.1833 60.81
16.2283 59.1708
16.2734 58.72
16.3185 58.4196
16.3636 58.7729
16.4086 57.4592
16.4537 56.3711
16.4988 55.8578
16.5439 55.6819
16.589 55.4656
16.6341 55.2198
16.6792 54.9508
16.7243 55.077
16.7694 55.1171
16.8145 55.087
16.8596 55.6788
16.9047 56.3911
16.9498 56.5655
16.9949 55.7167
17.04 56.1898
17.0851 57.7626
17.1302 59.4698
17.1754 62.6829
17.2205 67.6816
17.2656 75.1967
17.3108 82.9456
17.3559 82.0009
17.401 70.8771
17.4462 62.3139
17.4913 59.5595
17.5365 59.333
17.5815 59.5365
17.6268 60.0798
17.6718 60.6851
17.7171 61.2595
17.7622 61.8279
17.8074 63.048
17.8525 66.1509
17.8977 69.8584
17.9428 75.6859
17.9881 85.1707
18.0331 102.715
18.0784 123.59
18.1237 141.825
18.1688 132.881
18.214 103.113
18.2591 87.2644
18.3044 91.8205
18.3495 101.108
18.3948 106.239
18.4399 95.4165
18.4852 76.9925
18.5303 66.0139
18.5756 62.6171
18.6207 61.6143
18.666 60.8368
18.7112 59.98
18.7565 59.4872
18.8016 59.115
18.8469 58.4842
18.892 58.0644
18.9374 57.6462
18.9825 57.4697
19.0278 57.2142
19.073 57.5217
19.1183 58.0113
19.1635 58.6782
19.2088 60.1793
19.254 63.0131
19.2993 67.5284
19.3447 72.903
19.3898 76.1777
19.4352 72.0526
19.4804 63.1557
19.5257 56.8861
19.5709 54.71
19.6163 54.2573
19.6615 54.176
19.7068 53.6569
19.752 53.8928
19.7974 54.2661
19.8426 55.07
19.888 55.5866
19.9332 56.9182
19.9786 59.8139
20.0238 63.2626
20.0692 68.0544
20.1144 70.3707
20.1598 68.3016
20.205 63.8792
20.2504 62.5449
20.2957 64.2655
20.3411 65.8749
20.3863 63.9697
20.4318 58.2314
20.477 53.5341
20.5224 51.7334
20.5677 51.1437
20.6131 50.5633
20.6586 49.7484
20.7038 49.906
20.7493 49.4273
20.7945 49.3825
20.84 49.2389
20.8853 49.0367
20.9307 49.0912
20.976 49.1151
21.0215 49.0041
21.0668 49.34
21.1122 49.8499
21.1575 50.48
21.203 51.2122
21.2483 51.5527
21.2938 51.7244
21.3391 50.4157
21.3846 49.3058
21.4299 48.7627
21.4754 48.6088
21.5207 48.9423
21.5662 49.3521
21.6116 49.8383
21.6571 50.5605
21.7024 51.4536
21.7479 53.5216
21.7933 56.2535
21.8388 59.4722
21.8843 63.372
21.9297 65.1716
21.9752 63.5044
22.0206 59.7889
22.0661 56.7429
22.1115 56.2487
22.157 56.2804
22.2024 54.3647
22.248 51.5639
22.2933 50.08
22.3389 49.4762
22.3843 49.2885
22.4299 48.9806
22.4753 49.051
22.5208 48.9284
22.5662 48.9069
22.6118 49.1545
22.6572 49.4161
22.7028 49.6912
22.7483 50.1661
22.7939 51.0863
22.8393 52.5569
22.8849 54.6518
22.9303 56.6686
22.9759 58.2019
23.0214 57.333
23.067 54.7371
23.1126 51.295
23.1581 49.388
23.2037 49.1426
23.2492 49.2747
23.2948 49.3077
23.3403 49.6123
23.3859 50.3768
23.4314 51.3238
23.477 53.3121
23.5225 55.44
23.5682 57.2488
23.6137 57.9948
23.6593 55.7133
23.7048 51.544
23.7505 48.4179
23.796 46.6973
23.8417 46.2681
23.8872 45.7586
23.9329 45.4421
23.9784 44.9708
24.0241 44.8063
24.0697 44.64
24.1154 44.3981
24.1609 44.2875
24.2066 44.0454
24.2522 43.9239
24.2979 43.6937
24.3434 43.6373
24.3892 43.418
24.4349 43.3315
24.4805 43.1417
24.5262 43.3744
24.5718 43.1702
24.6175 43.262
24.6631 43.1735
24.7089 42.7408
24.7545 42.5312
24.8002 42.5994
24.8458 42.5561
24.8916 42.5111
24.9372 42.4619
24.983 42.8336
25.0286 43.294
25.0744 43.7158
25.12 44.0523
25.1658 44.6453
25.2114 44.9399
25.2572 45.1997
25.3029 45.1038
25.3487 45.2462
25.3943 44.8071
25.4402 43.6996
25.4858 42.662
25.5316 41.689
25.5773 41.1955
25.6231 41.113
25.669 40.9431
25.7147 40.7387
25.7605 40.7153
25.8062 40.7355
25.8521 40.8218
25.8977 41.0314
25.9436 41.1254
25.9893 41.255
26.0352 41.7152
26.0809 41.9664
26.1268 42.029
26.1725 41.5503
26.2184 41.1282
26.2641 40.5091
26.31 40.3263
26.3557 40.286
26.4017 40.3576
26.4474 40.7135
26.4933 41.0892
26.5391 41.623
26.585 42.0149
26.6308 42.3726
26.6767 42.3366
26.7225 42.1392
26.7684 41.5457
26.8142 41.0263
26.8601 40.6643
26.9059 40.2539
26.9519 39.7445
26.9979 39.4304
27.0437 39.1781
27.0896 38.9752
27.1354 39.1064
27.1814 38.9386
27.2272 38.7854
27.2732 38.8342
27.3191 38.5603
27.3651 38.8047
27.4109 38.5859
27.4569 38.7655
27.5027 38.8714
27.5488 38.8402
27.5946 38.5909
27.6407 38.5072
27.6865 38.3295
27.7326 38.0135
27.7784 37.9863
27.8245 38.118
27.8703 38.255
27.9164 38.6831
27.9623 38.706
28.0084 38.9088
28.0543 39.4992
28.1003 39.247
28.1462 39.0441
28.1923 38.6809
28.2384 38.1042
28.2843 37.8695
28.3304 37.3806
28.3764 36.7933
28.4225 36.6124
28.4684 36.508
28.5145 36.1161
28.5605 36.069
28.6066 35.8758
28.6526 35.8481
28.6987 35.8983
28.7447 35.7864
28.7908 35.6352
28.8368 35.7999
28.8829 35.689
28.9289 35.5901
28.9751 35.3264
29.0211 35.2342
29.0673 34.8676
29.1133 34.7397
29.1595 34.7203
29.2055 34.5658
29.2517 34.5639
29.2977 34.4594
29.3439 34.5666
29.3899 34.4475
29.4361 34.2896
29.4824 34.1457
29.5284 33.9915
29.5746 33.6165
29.6207 33.3442
29.6669 33.3276
29.713 33.129
29.7593 33.1171
29.8053 32.9486
29.8516 33.0715
29.8977 32.9161
29.9439 32.8469
29.99 32.7047
30.0363 32.7182
30.0824 32.7707
30.1287 32.6037
30.1748 32.5729
30.2211 32.6314
30.2673 32.465
30.3136 32.5692
30.3597 32.5024
30.406 32.393
30.4522 32.2837
30.4985 32.3029
30.5447 32.3489
30.591 32.2924
30.6372 32.3181
30.6835 32.5194
30.7297 32.408
30.7761 32.3347
30.8224 32.1607
30.8686 32.0523
30.915 31.8164
30.9612 31.6584
31.0076 31.5882
31.0538 31.3115
31.1002 31.3055
31.1464 31.1343
31.1928 31.0748
31.2391 31.0963
31.2855 31.1538
31.3317 31.1417
31.3781 31.2217
31.4244 31.0778
31.4708 31.1313
31.5171 31.0017
31.5636 30.9512
31.6098 30.671
31.6563 30.568
31.7026 30.4022
31.7491 30.2838
31.7953 30.3158
31.8418 30.2682
31.8881 30.3472
31.9346 30.2599
31.9809 30.3007
32.0275 30.1673
32.074 30.1667
32.1203 29.8136
32.1668 29.6473
32.2132 29.5323
32.2597 29.5086
32.306 29.4171
32.3526 29.0726
32.399 29.0892
32.4455 28.9923
32.4919 28.8839
32.5385 28.8391
32.5848 28.585
32.6314 28.6868
32.6778 28.6099
32.7244 28.4825
32.7708 28.2971
32.8174 28.3323
32.8638 28.2159
32.9104 28.2527
32.9569 28.1988
33.0035 28.13
33.0499 28.1081
33.0966 27.9137
33.143 27.9459
33.1897 27.8507
33.2361 27.7336
33.2828 27.7251
33.3293 27.6161
33.3759 27.5793
33.4226 27.471
33.4691 27.2557
33.5158 27.1717
33.5623 26.9928
33.609 26.9126
33.6555 26.8861
33.7022 26.8139
33.7487 26.6431
33.7954 26.6852
33.842 26.5209
33.8887 26.5502
33.9353 26.4083
33.982 26.293
34.0286 26.2822
34.0753 26.1049
34.1219 26.0372
34.1687 26.0206
34.2152 25.9767
34.262 25.828
34.3086 25.718
34.3554 25.7088
34.402 25.5376
34.4488 25.4703
34.4954 25.4167
34.5422 25.3419
34.5889 25.1926
34.6357 25.1388
34.6825 25.0834
34.7292 24.9936
34.776 24.89
34.8227 24.8441
34.8695 24.7619
34.9162 24.7848
34.9631 24.6768
35.0098 24.6248
35.0566 24.4972
35.1033 24.4656
35.1502 24.4028
35.1969 24.3333
35.2438 24.2665
35.2906 24.2799
35.3375 24.274
35.3842 24.039
35.4311 24.0651
35.4779 24.1
35.5248 24.0492
35.5716 23.9305
35.6185 23.8698
35.6653 23.8065
35.7123 23.7005
35.759 23.519
35.806 23.4413
35.8528 23.3391
35.8998 23.3579
35.9468 23.275
35.9936 23.2429
36.0406 23.1296
36.0874 23.1398
36.1345 23.0554
36.1813 22.915
36.2283 22.7896
36.2752 22.8229
36.3222 22.8393
36.3691 22.6488
36.4161 22.5683
36.463 22.6449
36.5101 22.6055
36.557 22.476
36.6041 22.3056
36.651 22.3163
36.6981 22.2129
36.745 22.2037
36.7921 22.1874
36.839 21.9791
36.8861 21.9774
36.9331 21.931
36.9802 21.8178
37.0272 21.6852
37.0743 21.6372
37.1213 21.5814
37.1684 21.6212
37.2154 21.4605
37.2626 21.4179
37.3098 21.3346
37.3568 21.3108
37.404 21.2581
37.451 21.1528
37.4982 21.0711
37.5452 20.9987
37.5924 20.9255
37.6395 20.9627
37.6867 20.9272
37.7337 20.7264
37.781 20.6784
37.8281 20.554
37.8753 20.5202
37.9224 20.4393
37.9697 20.3924
38.0168 20.3129
38.064 20.2996
38.1111 20.2406
38.1584 20.1102
38.2056 20.0556
38.2529 19.9779
38.3 19.887
38.3473 19.9559
38.3945 19.8149
38.4418 19.7726
38.489 19.6514
38.5363 19.593
38.5837 19.5618
38.6309 19.4739
38.6782 19.4388
38.7254 19.3834
38.7728 19.2905
38.82 19.2263
38.8674 19.1703
38.9146 19.1123
38.9621 19.0538
39.0093 19.0862
39.0567 18.9834
39.104 18.8595
39.1514 18.798
39.1987 18.7645
39.2461 18.7596
39.2934 18.6692
39.3409 18.5979
39.3882 18.5508
39.4356 18.4951
39.483 18.4255
39.5304 18.3535
39.5778 18.3398
39.6253 18.29
39.6726 18.1385
39.7201 18.1737
39.7675 18.0834
39.815 18.0336
39.8624 17.9938
39.9099 17.9782
39.9575 17.8735
40.0049 17.8174
40.0525 17.7124
40.0999 17.7046
40.1474 17.6572
40.1949 17.574
40.2425 17.4614
40.2899 17.4989
40.3375 17.401
40.385 17.3244
40.4326 17.3014
40.48 17.2132
40.5277 17.1653
40.5752 17.145
40.6228 17.0574
40.6703 17.0073
40.718 16.9265
40.7655 16.9066
40.8132 16.8469
40.8607 16.8254
40.9084 16.7854
40.9559 16.6809
41.0036 16.6609
41.0512 16.5796
41.0989 16.6143
41.1465 16.4534
41.1942 16.521
41.242 16.3493
41.2896 16.3439
41.3373 16.2579
41.3849 16.1907
41.4327 16.185
41.4803 16.0945
41.5281 16.0391
41.5758 15.9827
41.6236 15.9563
41.6712 15.8453
41.7191 15.8222
41.7667 15.7779
41.8146 15.7214
41.8622 15.6917
41.9101 15.6109
41.9578 15.5243
42.0057 15.499
42.0534 15.5158
42.1013 15.3909
42.149 15.3311
42.1969 15.3208
42.2446 15.2596
42.2925 15.2006
42.3403 15.1545
42.3882 15.1284
42.436 15.0153
42.4839 14.9767
42.5319 14.9618
42.5797 14.9159
42.6277 14.861
42.6755 14.8654
42.7235 14.738
42.7713 14.7641
42.8193 14.6471
42.8671 14.6252
42.9152 14.5643
42.963 14.5087
43.0111 14.4473
43.0589 14.376
43.107 14.3238
43.1549 14.3058
43.2029 14.2835
43.2508 14.2314
43.2989 14.1708
43.3468 14.0689
43.3949 14.0421
43.4429 14.007
43.491 13.9261
43.5389 13.9112
43.5871 13.8825
43.635 13.7625
43.6832 13.7676
43.7312 13.7015
43.7793 13.6275
43.8273 13.6083
43.8755 13.5412
43.9237 13.5425
43.9717 13.482
44.0199 13.42
44.068 13.3943
44.1162 13.3289
44.1642 13.3285
44.2125 13.2732
44.2606 13.1995
44.3088 13.1871
44.3569 13.1626
44.4052 13.0239
44.4533 13.0336
44.5016 12.9545
44.5497 12.9259
44.598 12.9084
44.6461 12.829
44.6945 12.7414
44.7426 12.7116
44.791 12.6696
44.8391 12.7164
44.8875 12.6342
44.9357 12.5915
44.984 12.519
45.0322 12.4722
45.0806 12.4055
45.1288 12.4503
45.1773 12.3312
45.2257 12.2606
45.2739 12.2466
45.3224 12.2506
45.3706 12.194
45.4191 12.1238
45.4673 12.1053
45.5158 12.0765
45.5641 11.9888
45.6126 12.0377
45.6609 11.925
45.7094 11.8926
45.7577 11.8455
45.8063 11.7877
45.8546 11.7736
45.9031 11.7426
45.9515 11.6727
46.0001 11.6337
46.0484 11.6287
46.097 11.5607
46.1454 11.4754
46.194 11.499
46.2424 11.417
46.291 11.4082
46.3395 11.3134
46.3881 11.2451
46.4365 11.293
46.4852 11.2063
46.5337 11.1709
46.5823 11.1445
46.631 11.0786
46.6795 11.0716
46.7282 11.0166
46.7767 10.9967
46.8254 10.9121
46.8739 10.9049
46.9226 10.8422
46.9712 10.801
47.0199 10.7674
47.0685 10.7249
47.1173 10.6814
47.1658 10.7084
47.2146 10.5666
47.2632 10.567
47.312 10.5726
47.3606 10.4699
47.4095 10.453
47.4581 10.4293
47.5069 10.3687
47.5556 10.3349
47.6044 10.2989
47.6531 10.2387
47.702 10.2135
47.7507 10.1645
47.7996 10.1486
47.8483 10.1174
47.8972 10.0934
47.9461 10.0497
47.9948 9.97483
48.0438 9.92571
48.0925 9.95116
48.1415 9.88657
48.1902 9.84619
48.2392 9.85017
48.288 9.81275
48.337 9.77516
48.3858 9.70948
48.4348 9.67297
48.4837 9.68157
48.5327 9.63292
48.5815 9.56712
48.6306 9.53851
48.6795 9.53539
48.7285 9.47916
48.7774 9.41924
48.8265 9.41236
48.8754 9.35913
48.9245 9.3495
48.9734 9.31633
49.0226 9.30064
49.0715 9.20003
49.1206 9.16105
49.1696 9.16634
49.2188 9.13854
49.2679 9.08166
49.3169 9.06434
49.3661 9.00437
49.4151 8.9685
49.4643 8.97154
49.5134 8.92244
49.5626 8.88074
49.6117 8.87314
49.6609 8.78197
49.71 8.76284
49.7592 8.71244
49.8083 8.70799
49.8576 8.68285
49.9067 8.60938
49.956 8.57992
50.0052 8.56258
50.0545 8.55926
50.1036 8.50029
50.153 8.45862
50.2022 8.4684
50.2515 8.40916
50.3007 8.37558
50.3501 8.31441
50.3993 8.31152
50.4487 8.26295
50.498 8.24143
50.5474 8.23243
50.5966 8.18468
50.6461 8.17424
50.6955 8.14613
50.7448 8.07346
50.7943 8.05941
50.8436 8.03509
50.8931 8.00906
50.9424 7.99136
50.9919 7.91693
51.0413 7.92943
51.0908 7.88758
51.1402 7.84957
51.1897 7.81692
51.2391 7.81157
51.2887 7.74122
51.3381 7.70116
51.3877 7.68774
51.4371 7.6546
51.4867 7.62616
51.5362 7.61255
51.5858 7.56736
51.6353 7.52901
51.6849 7.50869
51.7344 7.47496
51.7841 7.44831
51.8336 7.39423
51.8833 7.3545
51.9328 7.34134
51.9826 7.31429
52.0323 7.27157
52.0818 7.24239
52.1316 7.21318
52.1812 7.20059
52.231 7.15592
52.2806 7.17392
52.3304 7.10546
52.38 7.12546
52.4298 7.03216
52.4794 6.99745
52.5293 6.99861
52.5789 6.93601
52.6288 6.98362
52.6785 6.904
52.7284 6.84016
52.7781 6.83354
52.828 6.78958
52.8777 6.77563
52.9276 6.73252
52.9774 6.72634
53.0273 6.74567
53.0771 6.67578
53.1271 6.69198
53.1769 6.6276
53.2269 6.56779
53.2767 6.55129
53.3267 6.50805
53.3765 6.46562
53.4266 6.4842
53.4766 6.46693
53.5265 6.41562
53.5765 6.38561
53.6264 6.3694
53.6765 6.36422
53.7264 6.28824
53.7765 6.27399
53.8265 6.23351
53.8766 6.22134
53.9266 6.19985
53.9767 6.16145
54.0267 6.13158
54.0769 6.1534
54.1269 6.06877
54.1771 6.0533
54.2271 6.06254
54.2773 5.99124
54.3274 5.97386
54.3776 5.91032
54.4277 5.92367
54.478 5.87549
54.528 5.84186
54.5783 5.76462
54.6285 5.74014
54.6788 5.7442
54.7289 5.70652
54.7792 5.65415
54.8296 5.60633
54.8798 5.53163
54.9301 5.55461
54.9803 5.5073
55.0307 5.45472
55.0809 5.45664
55.1314 5.41195
55.1816 5.29065
55.232 5.29216
55.2823 5.24287
55.3328 5.21702
55.383 5.12723
55.4335 5.10695
55.4838 4.9842
55.5344 4.94304
55.5847 4.95983
55.6352 4.95365
55.6856 4.86009
55.7361 4.85382