File: XRD/Ni3Fe_FD0828.xy
TT I
1.27165 7.18212
1.31627 6.44645
1.36089 6.58568
1.40551 6.01375
1.45013 5.84417
1.49476 5.59309
1.53938 5.21227
1.584 5.37745
1.62863 5.27175
1.67325 4.93374
1.71787 5.41078
1.7625 4.56758
1.80712 4.9968
1.85174 4.72759
1.89636 4.67923
1.94099 4.75236
1.98562 4.48266
2.03025 3.9043
2.07487 3.91609
2.11949 5.06928
2.16411 4.86333
2.20874 8.18423
2.25338 9.81289
2.298 5.55783
2.34263 6.05173
2.38725 5.74735
2.43188 6.98437
2.4765 6.78532
2.52115 7.84828
2.56577 7.79503
2.6104 8.51868
2.65503 8.47893
2.69965 8.35702
2.7443 8.88746
2.78893 8.30375
2.83356 8.71334
2.87818 8.98747
2.92281 8.86305
2.96744 9.86559
3.01209 10.0767
3.05672 11.6745
3.10135 12.2028
3.14599 12.8507
3.19062 14.2277
3.23527 14.7123
3.2799 15.9683
3.32454 16.0813
3.36917 17.6556
3.4138 18.6179
3.45844 19.2832
3.50309 20.0506
3.54773 21.6441
3.59237 22.7394
3.637 44.938
3.68164 34.5647
3.7263 25.2568
3.77094 25.87
3.81558 26.1553
3.86022 27.4338
3.90486 28.292
3.9495 29.4263
3.99416 30.607
4.0388 31.6015
4.08344 32.8828
4.12809 33.8427
4.17273 35.2057
4.21738 38.7091
4.26204 106.274
4.30669 94.6863
4.35133 43.5754
4.39598 43.0553
4.44063 47.6547
4.4853 52.356
4.52995 58.3055
4.5746 59.1788
4.61925 53.6185
4.6639 55.2827
4.70855 58.142
4.75322 61.8501
4.79788 68.8471
4.84253 67.9232
4.88719 75.6796
4.93184 76.8598
4.97652 80.6519
5.02118 86.8754
5.06583 94.0629
5.11049 106.157
5.15515 155.015
5.19981 406.528
5.24449 2888.73
5.28916 12427.8
5.33382 2447.19
5.37848 195.092
5.42315 130.028
5.46783 120.141
5.5125 113.232
5.55716 101.578
5.60183 97.4235
5.6465 95.6705
5.69117 93.6443
5.73586 92.3531
5.78053 98.8721
5.8252 99.4517
5.86988 102.167
5.91455 95.1367
5.95924 103.678
6.00392 242.608
6.0486 979.33
6.09328 4576.74
6.13795 2963.49
6.18263 197.228
6.22733 88.6876
6.27201 79.0669
6.3167 82.0724
6.36138 73.5238
6.40606 69.6906
6.45075 70.2053
6.49545 64.8067
6.54014 63.0404
6.58483 62.467
6.62952 62.6694
6.67421 70.1167
6.71892 83.2133
6.76361 60.938
6.8083 59.4582
6.853 60.3712
6.89769 56.4251
6.94239 55.3513
6.98711 55.0574
7.03181 55.4846
7.07651 54.575
7.12121 54.2347
7.16591 56.0696
7.21063 55.2188
7.25533 59.4156
7.30004 90.4357
7.34475 64.4089
7.38945 53.8049
7.43416 53.1932
7.47889 52.9516
7.5236 53.9217
7.56831 54.5852
7.61303 54.6457
7.65774 55.5389
7.70247 56.7663
7.74719 55.7822
7.79191 56.0259
7.83663 56.2327
7.88135 57.2036
7.92607 58.0469
7.97081 59.2406
8.01553 60.2758
8.06026 62.4418
8.10498 63.3221
8.14971 71.0371
8.19446 70.646
8.23919 68.8662
8.28392 71.3648
8.32865 73.6919
8.37339 78.2513
8.41812 83.2293
8.46288 101.468
8.50761 178.815
8.55235 383.223
8.59709 1218.89
8.64183 2169.4
8.68658 831.289
8.73134 147.196
8.77609 96.9763
8.82083 91.6544
8.86558 92.8834
8.91033 92.3957
8.9551 88.7307
8.99985 84.8593
9.04461 83.4586
9.08936 84.1508
9.13412 82.9292
9.17888 81.8756
9.22365 81.5046
9.26841 81.7454
9.31318 84.8232
9.35794 87.1159
9.4027 86.047
9.44749 84.954
9.49226 84.4606
9.53703 85.1858
9.5818 89.1844
9.62657 94.8028
9.67134 94.8886
9.71614 92.1316
9.76091 94.2871
9.80569 98.7842
9.85047 100.501
9.89525 110.12
9.94005 125.327
9.98484 191.193
10.0296 343.49
10.0744 841.126
10.1192 1835.35
10.164 1512.6
10.2088 350.991
10.2536 120.252
10.2984 108.3
10.3432 106.758
10.388 104.435
10.4328 121.832
10.4776 163.446
10.5224 298.024
10.5672 538.16
10.612 492.209
10.6568 183.211
10.7017 93.2363
10.7465 85.5398
10.7913 82.2589
10.8361 80.4697
10.8809 78.3065
10.9257 77.2632
10.9706 77.4283
11.0154 75.0739
11.0602 72.3223
11.105 70.6752
11.1499 71.2841
11.1947 72.4061
11.2395 69.2267
11.2844 67.6578
11.3292 66.1972
11.374 65.6441
11.4189 65.1664
11.4637 64.0558
11.5086 63.9967
11.5534 64.6869
11.5983 63.5132
11.6431 62.7231
11.688 62.2676
11.7328 62.2497
11.7777 62.084
11.8225 62.1544
11.8674 61.8517
11.9122 62.0034
11.9571 62.5809
12.002 64.1862
12.0468 68.4932
12.0917 78.1939
12.1366 103.245
12.1814 161.941
12.2263 215.363
12.2712 161.736
12.3161 85.8783
12.3609 65.6774
12.4058 63.1963
12.4507 63.7019
12.4956 64.1487
12.5405 64.5273
12.5853 64.7228
12.6302 67.0996
12.6751 69.5708
12.72 67.2048
12.7649 66.9037
12.8098 67.6876
12.8547 69.3618
12.8996 71.0104
12.9445 72.5524
12.9894 74.2213
13.0343 75.8768
13.0792 79.7319
13.1242 92.4546
13.1691 111.733
13.214 149.864
13.2589 250.34
13.3038 392.306
13.3487 411.834
13.3937 233.012
13.4386 117.319
13.4835 106.089
13.5285 120.394
13.5734 161.971
13.6183 259.65
13.6633 364.044
13.7082 327.298
13.7531 168.904
13.7981 93.1968
13.843 80.7471
13.888 78.8086
13.9329 76.4995
13.9779 75.2
14.0228 73.8683
14.0678 72.0916
14.1127 71.6125
14.1577 71.2937
14.2027 70.5534
14.2476 69.6989
14.2926 69.0467
14.3376 69.4037
14.3825 69.1388
14.4275 68.1884
14.4725 67.892
14.5175 68.0387
14.5624 68.2238
14.6074 69.1501
14.6524 69.4788
14.6974 70.0435
14.7424 73.4304
14.7874 79.0641
14.8324 88.6642
14.8774 112.115
14.9224 160.245
14.9674 217.71
15.0124 218.683
15.0574 140.208
15.1024 85.448
15.1474 70.9695
15.1924 69.3437
15.2374 68.8912
15.2824 67.8085
15.3274 66.7735
15.3725 66.0921
15.4175 65.9292
15.4625 65.2564
15.5076 64.9791
15.5526 65.144
15.5976 65.2436
15.6426 67.7159
15.6877 72.6056
15.7327 79.4998
15.7778 95.708
15.8228 129.771
15.8679 176.862
15.9129 195.826
15.958 146.013
16.003 88.9044
16.0481 65.518
16.0931 62.042
16.1382 60.911
16.1833 59.4644
16.2283 58.0723
16.2734 57.5949
16.3185 57.0472
16.3636 56.8502
16.4086 56.0059
16.4537 55.3347
16.4988 54.7078
16.5439 54.7547
16.589 54.4769
16.6341 54.1641
16.6792 53.8271
16.7243 54.0922
16.7694 54.1063
16.8145 54.1713
16.8596 54.3399
16.9047 54.9099
16.9498 55.0058
16.9949 54.6643
17.04 55.5907
17.0851 56.6193
17.1302 58.0733
17.1754 61.0944
17.2205 66.5683
17.2656 75.0748
17.3108 84.2157
17.3559 80.8464
17.401 68.669
17.4462 60.6105
17.4913 58.5355
17.5365 58.5427
17.5815 58.6346
17.6268 59.0505
17.6718 59.5668
17.7171 59.9354
17.7622 60.8339
17.8074 61.8135
17.8525 64.6197
17.8977 67.9919
17.9428 73.1775
17.9881 83.0502
18.0331 101.702
18.0784 125.44
18.1237 141.267
18.1688 126.591
18.214 98.5649
18.2591 84.9358
18.3044 91.3632
18.3495 101.561
18.3948 104.933
18.4399 91.2583
18.4852 73.6103
18.5303 64.0756
18.5756 61.2107
18.6207 60.5597
18.666 59.7017
18.7112 58.9605
18.7565 58.5514
18.8016 58.1062
18.8469 57.3012
18.892 57.0628
18.9374 56.6991
18.9825 56.4045
19.0278 56.2199
19.073 56.2774
19.1183 56.7501
19.1635 57.1542
19.2088 58.6423
19.254 61.5965
19.2993 66.613
19.3447 72.525
19.3898 75.6694
19.4352 69.8164
19.4804 60.7417
19.5257 55.1931
19.5709 53.4768
19.6163 53.3549
19.6615 53.3945
19.7068 52.7979
19.752 52.6922
19.7974 53.1439
19.8426 53.8707
19.888 54.2497
19.9332 55.7046
19.9786 58.5503
20.0238 62.6837
20.0692 67.8674
20.1144 69.6186
20.1598 66.9346
20.205 62.169
20.2504 61.8094
20.2957 63.9674
20.3411 65.2064
20.3863 62.4989
20.4318 56.6019
20.477 52.3522
20.5224 50.5542
20.5677 50.0208
20.6131 49.6338
20.6586 49.1495
20.7038 49.0485
20.7493 48.6
20.7945 48.4767
20.84 48.4044
20.8853 48.1109
20.9307 48.0423
20.976 48.1969
21.0215 47.9607
21.0668 48.4436
21.1122 48.8983
21.1575 49.6248
21.203 50.5693
21.2483 51.061
21.2938 51.0308
21.3391 49.464
21.3846 48.2924
21.4299 47.9944
21.4754 47.887
21.5207 47.9272
21.5662 48.3958
21.6116 49.0219
21.6571 49.4433
21.7024 50.3839
21.7479 52.3236
21.7933 55.3992
21.8388 59.0011
21.8843 62.8789
21.9297 63.9644
21.9752 61.7176
22.0206 57.756
22.0661 55.6265
22.1115 55.7327
22.157 55.1614
22.2024 53.0733
22.248 50.4119
22.2933 48.924
22.3389 48.4802
22.3843 48.3062
22.4299 48.1612
22.4753 48.1942
22.5208 48.0897
22.5662 47.8593
22.6118 48.1995
22.6572 48.3979
22.7028 48.7809
22.7483 49.1522
22.7939 49.9253
22.8393 51.6182
22.8849 54.0325
22.9303 56.2431
22.9759 57.4761
23.0214 56.2944
23.067 53.261
23.1126 50.1383
23.1581 48.5247
23.2037 48.2277
23.2492 48.4397
23.2948 48.3385
23.3403 48.6757
23.3859 49.2654
23.4314 50.4974
23.477 52.5053
23.5225 54.7233
23.5682 57.0257
23.6137 57.3879
23.6593 54.3076
23.7048 50.1159
23.7505 47.3913
23.796 45.9051
23.8417 45.2979
23.8872 45.0174
23.9329 44.7138
23.9784 44.3394
24.0241 44.1397
24.0697 43.9238
24.1154 43.6446
24.1609 43.399
24.2066 43.3171
24.2522 43.2804
24.2979 42.7424
24.3434 42.7223
24.3892 42.8379
24.4349 42.6867
24.4805 42.4996
24.5262 42.6437
24.5718 42.4166
24.6175 42.3366
24.6631 42.2037
24.7089 42.0687
24.7545 41.9243
24.8002 41.6794
24.8458 41.6864
24.8916 41.4586
24.9372 41.893
24.983 42.1459
25.0286 42.3204
25.0744 42.8286
25.12 43.3155
25.1658 44.0885
25.2114 44.1413
25.2572 44.283
25.3029 44.4374
25.3487 44.3536
25.3943 44.0042
25.4402 42.727
25.4858 41.7365
25.5316 40.8974
25.5773 40.4064
25.6231 40.4988
25.669 39.9498
25.7147 40.1405
25.7605 39.8571
25.8062 39.9607
25.8521 40.1595
25.8977 40.127
25.9436 40.4321
25.9893 40.5899
26.0352 41.0559
26.0809 41.2048
26.1268 41.2324
26.1725 41.0149
26.2184 40.2787
26.2641 39.7385
26.31 39.6639
26.3557 39.5764
26.4017 39.7334
26.4474 40.0219
26.4933 40.2854
26.5391 40.8521
26.585 41.3093
26.6308 41.7979
26.6767 41.758
26.7225 41.4466
26.7684 40.7955
26.8142 40.3436
26.8601 39.8954
26.9059 39.4584
26.9519 39.0017
26.9979 38.6659
27.0437 38.3318
27.0896 38.2734
27.1354 38.3437
27.1814 38.219
27.2272 38.0741
27.2732 38.1019
27.3191 37.9111
27.3651 37.9929
27.4109 38.1243
27.4569 38.1475
27.5027 38.1916
27.5488 38.1322
27.5946 38.0405
27.6407 37.8324
27.6865 37.6142
27.7326 37.3978
27.7784 37.3938
27.8245 37.5813
27.8703 37.6727
27.9164 37.8316
27.9623 38.1439
28.0084 38.3918
28.0543 38.7924
28.1003 38.6571
28.1462 38.2564
28.1923 37.9652
28.2384 37.3971
28.2843 36.9788
28.3304 36.6008
28.3764 36.2235
28.4225 35.9437
28.4684 35.8573
28.5145 35.5279
28.5605 35.3803
28.6066 35.2828
28.6526 35.1412
28.6987 35.1553
28.7447 35.1198
28.7908 34.9409
28.8368 35.1216
28.8829 35.0703
28.9289 34.8938
28.9751 34.7466
29.0211 34.5222
29.0673 34.2862
29.1133 33.996
29.1595 34.0081
29.2055 33.9696
29.2517 33.9675
29.2977 33.8292
29.3439 33.854
29.3899 33.8907
29.4361 33.7454
29.4824 33.6246
29.5284 33.3178
29.5746 32.9618
29.6207 32.7067
29.6669 32.6693
29.713 32.5752
29.7593 32.446
29.8053 32.4453
29.8516 32.3962
29.8977 32.4356
29.9439 32.102
29.99 32.146
30.0363 32.0296
30.0824 32.2249
30.1287 32.0514
30.1748 32.0701
30.2211 32.0604
30.2673 31.8961
30.3136 31.9652
30.3597 31.8364
30.406 31.7665
30.4522 31.6925
30.4985 31.6754
30.5447 31.8271
30.591 31.72
30.6372 31.8471
30.6835 31.8102
30.7297 31.8942
30.7761 31.7848
30.8224 31.5968
30.8686 31.4534
30.915 31.1646
30.9612 31.081
31.0076 30.9601
31.0538 30.7477
31.1002 30.779
31.1464 30.6005
31.1928 30.5774
31.2391 30.5904
31.2855 30.5449
31.3317 30.5135
31.3781 30.5023
31.4244 30.5238
31.4708 30.4692
31.5171 30.4777
31.5636 30.3937
31.6098 30.1458
31.6563 29.9186
31.7026 29.7413
31.7491 29.7804
31.7953 29.8584
31.8418 29.868
31.8881 29.8703
31.9346 29.706
31.9809 29.6885
32.0275 29.6046
32.074 29.4329
32.1203 29.2369
32.1668 29.1471
32.2132 28.953
32.2597 28.8507
32.306 28.8146
32.3526 28.5944
32.399 28.5785
32.4455 28.4402
32.4919 28.3945
32.5385 28.3346
32.5848 28.2002
32.6314 28.0858
32.6778 28.1974
32.7244 27.9246
32.7708 27.7837
32.8174 27.7829
32.8638 27.5807
32.9104 27.7063
32.9569 27.733
33.0035 27.4904
33.0499 27.5041
33.0966 27.5169
33.143 27.5136
33.1897 27.4461
33.2361 27.321
33.2828 27.3172
33.3293 27.0602
33.3759 27.0666
33.4226 26.947
33.4691 26.6844
33.5158 26.7229
33.5623 26.5541
33.609 26.4524
33.6555 26.4036
33.7022 26.2677
33.7487 26.1916
33.7954 26.1739
33.842 26.086
33.8887 26.0547
33.9353 26.016
33.982 25.8322
34.0286 25.6872
34.0753 25.6513
34.1219 25.5697
34.1687 25.5922
34.2152 25.5145
34.262 25.4082
34.3086 25.2945
34.3554 25.2604
34.402 25.071
34.4488 24.9361
34.4954 24.9234
34.5422 24.8744
34.5889 24.7876
34.6357 24.7161
34.6825 24.5486
34.7292 24.5443
34.776 24.4757
34.8227 24.3862
34.8695 24.3472
34.9162 24.2725
34.9631 24.2372
35.0098 24.1977
35.0566 24.0826
35.1033 24.0628
35.1502 23.9813
35.1969 23.9602
35.2438 23.8713
35.2906 23.7869
35.3375 23.8341
35.3842 23.7199
35.4311 23.7196
35.4779 23.6835
35.5248 23.6175
35.5716 23.5091
35.6185 23.4894
35.6653 23.3391
35.7123 23.1926
35.759 23.2171
35.806 23.1188
35.8528 22.8844
35.8998 22.8824
35.9468 22.8894
35.9936 22.8719
36.0406 22.7214
36.0874 22.7746
36.1345 22.6535
36.1813 22.5299
36.2283 22.4897
36.2752 22.4055
36.3222 22.4249
36.3691 22.2801
36.4161 22.1355
36.463 22.209
36.5101 22.1977
36.557 22.0779
36.6041 21.9339
36.651 21.9539
36.6981 21.9317
36.745 21.862
36.7921 21.7301
36.839 21.5399
36.8861 21.5225
36.9331 21.5191
36.9802 21.4799
37.0272 21.3276
37.0743 21.2138
37.1213 21.2283
37.1684 21.1497
37.2154 21.0957
37.2626 20.9953
37.3098 20.957
37.3568 20.8989
37.404 20.8048
37.451 20.7079
37.4982 20.71
37.5452 20.5472
37.5924 20.5175
37.6395 20.6097
37.6867 20.5016
37.7337 20.3852
37.781 20.2346
37.8281 20.2471
37.8753 20.1858
37.9224 20.0983
37.9697 20.1039
38.0168 19.9759
38.064 19.9545
38.1111 19.8478
38.1584 19.7998
38.2056 19.8181
38.2529 19.6357
38.3 19.5499
38.3473 19.5669
38.3945 19.4763
38.4418 19.4023
38.489 19.3292
38.5363 19.2686
38.5837 19.1801
38.6309 19.1794
38.6782 19.1212
38.7254 19.0214
38.7728 18.9677
38.82 18.9122
38.8674 18.9469
38.9146 18.7743
38.9621 18.7383
39.0093 18.7055
39.0567 18.6282
39.104 18.5295
39.1514 18.4802
39.1987 18.4322
39.2461 18.4333
39.2934 18.3972
39.3409 18.209
39.3882 18.2043
39.4356 18.1582
39.483 18.0755
39.5304 18.0168
39.5778 18.0234
39.6253 17.9385
39.6726 17.8479
39.7201 17.8645
39.7675 17.6916
39.815 17.6982
39.8624 17.6442
39.9099 17.6331
39.9575 17.5268
40.0049 17.5397
40.0525 17.3985
40.0999 17.4161
40.1474 17.3782
40.1949 17.2362
40.2425 17.1815
40.2899 17.1505
40.3375 17.0943
40.385 17.0622
40.4326 17.0003
40.48 16.902
40.5277 16.9487
40.5752 16.8261
40.6228 16.7259
40.6703 16.7486
40.718 16.6605
40.7655 16.6304
40.8132 16.5312
40.8607 16.5257
40.9084 16.4636
40.9559 16.4243
41.0036 16.3193
41.0512 16.2667
41.0989 16.2697
41.1465 16.1952
41.1942 16.2023
41.242 16.0778
41.2896 16.0502
41.3373 15.9406
41.3849 15.9305
41.4327 15.8418
41.4803 15.8391
41.5281 15.7767
41.5758 15.7023
41.6236 15.6694
41.6712 15.6189
41.7191 15.5709
41.7667 15.5655
41.8146 15.4265
41.8622 15.3455
41.9101 15.3574
41.9578 15.2181
42.0057 15.2514
42.0534 15.1497
42.1013 15.1542
42.149 15.0924
42.1969 15.0343
42.2446 14.9619
42.2925 14.9471
42.3403 14.9225
42.3882 14.8562
42.436 14.7667
42.4839 14.6652
42.5319 14.7608
42.5797 14.6818
42.6277 14.5816
42.6755 14.5435
42.7235 14.4426
42.7713 14.4545
42.8193 14.4192
42.8671 14.3209
42.9152 14.2872
42.963 14.2375
43.0111 14.2033
43.0589 14.0787
43.107 14.0794
43.1549 14.0985
43.2029 14.0002
43.2508 13.9467
43.2989 13.9442
43.3468 13.8561
43.3949 13.8357
43.4429 13.7921
43.491 13.7077
43.5389 13.7108
43.5871 13.6549
43.635 13.566
43.6832 13.5606
43.7312 13.4062
43.7793 13.3644
43.8273 13.3946
43.8755 13.3178
43.9237 13.3027
43.9717 13.2558
44.0199 13.1917
44.068 13.1673
44.1162 13.1113
44.1642 13.1761
44.2125 13.0586
44.2606 12.987
44.3088 12.9038
44.3569 12.8963
44.4052 12.8558
44.4533 12.8253
44.5016 12.7598
44.5497 12.7076
44.598 12.6944
44.6461 12.6449
44.6945 12.5491
44.7426 12.5348
44.791 12.4615
44.8391 12.4469
44.8875 12.3894
44.9357 12.3574
44.984 12.3008
45.0322 12.2569
45.0806 12.2673
45.1288 12.1858
45.1773 12.1337
45.2257 12.11
45.2739 12.0259
45.3224 12.0111
45.3706 11.9939
45.4191 11.9255
45.4673 11.8976
45.5158 11.843
45.5641 11.8197
45.6126 11.7504
45.6609 11.7162
45.7094 11.667
45.7577 11.6213
45.8063 11.57
45.8546 11.5636
45.9031 11.4673
45.9515 11.4472
46.0001 11.4411
46.0484 11.3799
46.097 11.3476
46.1454 11.339
46.194 11.2816
46.2424 11.2129
46.291 11.1782
46.3395 11.1536
46.3881 11.1015
46.4365 11.0886
46.4852 11.0387
46.5337 10.9752
46.5823 10.9968
46.631 10.8667
46.6795 10.8681
46.7282 10.8032
46.7767 10.7429
46.8254 10.7455
46.8739 10.6714
46.9226 10.6358
46.9712 10.6292
47.0199 10.5509
47.0685 10.5688
47.1173 10.4836
47.1658 10.4534
47.2146 10.401
47.2632 10.3976
47.312 10.3597
47.3606 10.2785
47.4095 10.2266
47.4581 10.2269
47.5069 10.2193
47.5556 10.1394
47.6044 10.1007
47.6531 10.0755
47.702 10.0128
47.7507 9.99075
47.7996 9.91498
47.8483 9.9188
47.8972 9.90521
47.9461 9.84085
47.9948 9.79437
48.0438 9.80568
48.0925 9.78078
48.1415 9.73812
48.1902 9.67393
48.2392 9.65417
48.288 9.63856
48.337 9.58182
48.3858 9.53085
48.4348 9.49235
48.4837 9.49949
48.5327 9.49394
48.5815 9.39953
48.6306 9.42575
48.6795 9.36605
48.7285 9.29083
48.7774 9.27643
48.8265 9.24556
48.8754 9.19341
48.9245 9.13469
48.9734 9.17234
49.0226 9.11047
49.0715 9.08758
49.1206 9.03953
49.1696 8.98325
49.2188 9.00836
49.2679 8.9359
49.3169 8.90661
49.3661 8.88585
49.4151 8.86256
49.4643 8.80624
49.5134 8.74245
49.5626 8.67588
49.6117 8.67543
49.6609 8.68594
49.71 8.64179
49.7592 8.63341
49.8083 8.51564
49.8576 8.56187
49.9067 8.45935
49.956 8.47109
50.0052 8.45109
50.0545 8.40516
50.1036 8.36399
50.153 8.3346
50.2022 8.30333
50.2515 8.25062
50.3007 8.211
50.3501 8.19174
50.3993 8.18131
50.4487 8.12218
50.498 8.08642
50.5474 8.07733
50.5966 8.01163
50.6461 8.01412
50.6955 7.95493
50.7448 7.95757
50.7943 7.92584
50.8436 7.91756
50.8931 7.85857
50.9424 7.81335
50.9919 7.78351
51.0413 7.7772
51.0908 7.76168
51.1402 7.70339
51.1897 7.69278
51.2391 7.65469
51.2887 7.589
51.3381 7.60823
51.3877 7.54961
51.4371 7.50662
51.4867 7.4768
51.5362 7.45877
51.5858 7.4479
51.6353 7.38379
51.6849 7.35696
51.7344 7.37353
51.7841 7.31995
51.8336 7.25396
51.8833 7.28695
51.9328 7.22288
51.9826 7.16897
52.0323 7.15903
52.0818 7.12387
52.1316 7.0841
52.1812 7.09066
52.231 6.99343
52.2806 7.00194
52.3304 6.99275
52.38 6.95716
52.4298 6.90687
52.4794 6.88104
52.5293 6.85601
52.5789 6.82855
52.6288 6.81687
52.6785 6.75773
52.7284 6.75212
52.7781 6.73186
52.828 6.67743
52.8777 6.6901
52.9276 6.60056
52.9774 6.62078
53.0273 6.59366
53.0771 6.56137
53.1271 6.54049
53.1769 6.46229
53.2269 6.5268
53.2767 6.45107
53.3267 6.42734
53.3765 6.40247
53.4266 6.35519
53.4766 6.31785
53.5265 6.28623
53.5765 6.26477
53.6264 6.25084
53.6765 6.19741
53.7264 6.20367
53.7765 6.14861
53.8265 6.13783
53.8766 6.09434
53.9266 6.08073
53.9767 6.06064
54.0267 6.07647
54.0769 5.99835
54.1269 5.99111
54.1771 5.93119
54.2271 5.95052
54.2773 5.84354
54.3274 5.80638
54.3776 5.82467
54.4277 5.81472
54.478 5.79395
54.528 5.75482
54.5783 5.6912
54.6285 5.62214
54.6788 5.6343
54.7289 5.57665
54.7792 5.50993
54.8296 5.47075
54.8798 5.43473
54.9301 5.41245
54.9803 5.35073
55.0307 5.38434
55.0809 5.30259
55.1314 5.32993
55.1816 5.19335
55.232 5.17064
55.2823 5.12588
55.3328 5.0934
55.383 5.04164
55.4335 4.99586
55.4838 4.97484
55.5344 4.92961
55.5847 4.82697
55.6352 4.86668
55.6856 4.81609
55.7361 4.75513