File: XRD/Ni3Fe_FD1020.xy
TT I
1.27165 6.89653
1.31627 7.05741
1.36089 6.41165
1.40551 6.40422
1.45013 5.62734
1.49476 5.39938
1.53938 5.14189
1.584 4.90856
1.62863 4.91641
1.67325 4.54411
1.71787 4.75061
1.7625 4.30472
1.80712 4.35458
1.85174 3.82963
1.89636 4.29356
1.94099 4.32786
1.98562 4.69522
2.03025 4.20318
2.07487 4.52954
2.11949 4.79017
2.16411 4.58039
2.20874 4.87128
2.25338 6.63755
2.298 5.36494
2.34263 5.59377
2.38725 5.43462
2.43188 5.38463
2.4765 7.18248
2.52115 7.41922
2.56577 8.04279
2.6104 9.19856
2.65503 8.3695
2.69965 8.64398
2.7443 9.0543
2.78893 8.65091
2.83356 8.72133
2.87818 9.01155
2.92281 9.1438
2.96744 9.77798
3.01209 10.4233
3.05672 10.9593
3.10135 11.8386
3.14599 13.2992
3.19062 14.6103
3.23527 14.7217
3.2799 15.3777
3.32454 16.4701
3.36917 17.3546
3.4138 17.8847
3.45844 18.7345
3.50309 19.8565
3.54773 20.5839
3.59237 21.5821
3.637 28.0366
3.68164 27.1345
3.7263 23.9939
3.77094 24.5723
3.81558 25.1745
3.86022 26.027
3.90486 27.4322
3.9495 27.8834
3.99416 28.9052
4.0388 30.3467
4.08344 31.5052
4.12809 31.7912
4.17273 33.6238
4.21738 35.7193
4.26204 53.2748
4.30669 58.0941
4.35133 40.6293
4.39598 40.7902
4.44063 43.3145
4.4853 45.8398
4.52995 46.2431
4.5746 48.747
4.61925 50.3769
4.6639 52.7605
4.70855 54.8794
4.75322 57.5611
4.79788 60.1128
4.84253 63.1863
4.88719 67.4601
4.93184 71.1141
4.97652 76.1481
5.02118 81.9697
5.06583 88.5444
5.11049 96.6096
5.15515 117.154
5.19981 227.034
5.24449 2335.82
5.28916 13362.1
5.33382 3438.79
5.37848 233.946
5.42315 125.681
5.46783 108.102
5.5125 100.388
5.55716 96.7574
5.60183 92.7039
5.6465 90.5773
5.69117 89.1793
5.73586 87.3725
5.78053 85.876
5.8252 85.4605
5.86988 85.6234
5.91455 88.0194
5.95924 93.5943
6.00392 157.447
6.0486 817.43
6.09328 4334.56
6.13795 3499.41
6.18263 246.89
6.22733 86.8539
6.27201 75.5602
6.3167 72.5159
6.36138 68.1675
6.40606 64.1482
6.45075 63.1852
6.49545 61.2859
6.54014 59.5799
6.58483 58.7392
6.62952 57.6131
6.67421 58.5181
6.71892 64.6632
6.76361 56.5986
6.8083 54.1224
6.853 53.3465
6.89769 52.9745
6.94239 52.8992
6.98711 51.8408
7.03181 51.9198
7.07651 51.4023
7.12121 51.4324
7.16591 51.223
7.21063 50.8321
7.25533 51.6245
7.30004 61.865
7.34475 56.3131
7.38945 51.714
7.43416 50.8935
7.47889 51.7572
7.5236 61.9332
7.56831 82.9763
7.61303 58.7907
7.65774 52.708
7.70247 52.5816
7.74719 52.9293
7.79191 53.4546
7.83663 53.7567
7.88135 54.698
7.92607 54.951
7.97081 56.3546
8.01553 57.1699
8.06026 58.3643
8.10498 59.5613
8.14971 61.8959
8.19446 63.5066
8.23919 65.3557
8.28392 67.341
8.32865 69.4699
8.37339 73.3502
8.41812 77.1054
8.46288 85.6488
8.50761 124.827
8.55235 341.287
8.59709 1054.7
8.64183 2288.15
8.68658 1106.42
8.73134 182.149
8.77609 94.9746
8.82083 87.769
8.86558 84.7636
8.91033 83.1854
8.9551 81.8761
8.99985 80.3254
9.04461 79.5836
9.08936 78.9219
9.13412 78.4685
9.17888 79.3159
9.22365 96.6372
9.26841 128.784
9.31318 94.0267
9.35794 79.9796
9.4027 79.4275
9.44749 80.0204
9.49226 80.2868
9.53703 80.9525
9.5818 82.4561
9.62657 83.2603
9.67134 85.7845
9.71614 86.8225
9.76091 88.3878
9.80569 90.4876
9.85047 92.7288
9.89525 97.6683
9.94005 105.067
9.98484 142.579
10.0296 322.021
10.0744 731.461
10.1192 1731.11
10.164 1699.27
10.2088 450.936
10.2536 126.623
10.2984 102.294
10.3432 100.345
10.388 96.8437
10.4328 105.925
10.4776 152.738
10.5224 257.741
10.5672 490.62
10.612 526.961
10.6568 222.632
10.7017 108.502
10.7465 87.4419
10.7913 79.3962
10.8361 76.7565
10.8809 74.7389
10.9257 72.6327
10.9706 71.9821
11.0154 69.8425
11.0602 68.2608
11.105 67.4553
11.1499 66.6939
11.1947 66.7405
11.2395 65.3374
11.2844 64.2564
11.3292 63.3953
11.374 62.4725
11.4189 61.9556
11.4637 61.1984
11.5086 60.442
11.5534 60.4043
11.5983 60.2136
11.6431 59.8029
11.688 59.7181
11.7328 59.2507
11.7777 59.3221
11.8225 59.3446
11.8674 59.3605
11.9122 62.5048
11.9571 71.3343
12.002 68.6917
12.0468 63.896
12.0917 74.5341
12.1366 95.1829
12.1814 142.955
12.2263 199.796
12.2712 170.703
12.3161 94.19
12.3609 63.8327
12.4058 60.8197
12.4507 60.6152
12.4956 60.6702
12.5405 60.8595
12.5853 61.5514
12.6302 62.01
12.6751 63.3476
12.72 63.1264
12.7649 64.1171
12.8098 64.3912
12.8547 65.7585
12.8996 66.9466
12.9445 68.1016
12.9894 69.9786
13.0343 72.0193
13.0792 76.1811
13.1242 82.0324
13.1691 103.891
13.214 139.905
13.2589 219.431
13.3038 358.656
13.3487 440.896
13.3937 278.976
13.4386 126.751
13.4835 97.5082
13.5285 115.136
13.5734 149.13
13.6183 229.546
13.6633 354.438
13.7082 361.904
13.7531 204.984
13.7981 99.5585
13.843 78.8206
13.888 76.2689
13.9329 73.8105
13.9779 72.7039
14.0228 71.3889
14.0678 70.3763
14.1127 72.0748
14.1577 77.4315
14.2027 75.0279
14.2476 69.246
14.2926 66.9018
14.3376 66.6293
14.3825 66.1714
14.4275 65.5933
14.4725 65.6328
14.5175 65.6228
14.5624 65.6636
14.6074 65.8484
14.6524 66.5508
14.6974 66.7017
14.7424 67.8651
14.7874 73.1669
14.8324 85.8663
14.8774 105.495
14.9224 143.789
14.9674 205.192
15.0124 224.939
15.0574 157.78
15.1024 93.8035
15.1474 70.7195
15.1924 67.2344
15.2374 65.7925
15.2824 64.8399
15.3274 63.9196
15.3725 63.5759
15.4175 63.2808
15.4625 62.6346
15.5076 62.6577
15.5526 62.5915
15.5976 62.7247
15.6426 63.1562
15.6877 67.0915
15.7327 76.6477
15.7778 90.6023
15.8228 118.45
15.8679 166.788
15.9129 202.071
15.958 167.796
16.003 102.897
16.0481 69.4718
16.0931 63.2897
16.1382 59.7699
16.1833 57.8222
16.2283 56.2186
16.2734 55.6429
16.3185 55.1661
16.3636 54.515
16.4086 54.226
16.4537 53.2806
16.4988 52.9963
16.5439 52.8899
16.589 52.4366
16.6341 52.1725
16.6792 52.089
16.7243 52.0734
16.7694 51.9866
16.8145 52.0808
16.8596 52.4489
16.9047 53.1324
16.9498 53.8918
16.9949 53.7241
17.04 53.2416
17.0851 54.0905
17.1302 56.0076
17.1754 58.909
17.2205 63.4658
17.2656 71.341
17.3108 81.1054
17.3559 81.655
17.401 70.8411
17.4462 60.9097
17.4913 56.8208
17.5365 56.5246
17.5815 56.5541
17.6268 57.0008
17.6718 57.4232
17.7171 58.1802
17.7622 59.7223
17.8074 60.1607
17.8525 61.0536
17.8977 65.0828
17.9428 71.1683
17.9881 79.2753
18.0331 94.7576
18.0784 118.833
18.1237 140.545
18.1688 137.005
18.214 108.446
18.2591 86.9215
18.3044 87.3213
18.3495 98.0131
18.3948 105.758
18.4399 97.7903
18.4852 78.3715
18.5303 65.2804
18.5756 60.9857
18.6207 59.5813
18.666 58.3331
18.7112 57.4582
18.7565 56.7158
18.8016 56.3887
18.8469 55.984
18.892 55.584
18.9374 55.0092
18.9825 54.7215
19.0278 54.4212
19.073 54.3505
19.1183 54.622
19.1635 55.4158
19.2088 56.9855
19.254 59.5044
19.2993 64.7789
19.3447 71.6938
19.3898 75.8677
19.4352 71.7634
19.4804 63.0099
19.5257 55.5558
19.5709 52.3606
19.6163 51.8867
19.6615 51.7612
19.7068 51.2629
19.752 51.2344
19.7974 51.2169
19.8426 52.1087
19.888 52.8627
19.9332 54.163
19.9786 56.5448
20.0238 59.9716
20.0692 65.602
20.1144 69.6276
20.1598 68.4651
20.205 63.2523
20.2504 60.8564
20.2957 62.5225
20.3411 64.7698
20.3863 63.8213
20.4318 58.0041
20.477 52.464
20.5224 49.408
20.5677 48.6804
20.6131 48.2489
20.6586 47.7161
20.7038 47.7346
20.7493 47.5766
20.7945 47.7025
20.84 47.6357
20.8853 47.0283
20.9307 46.8082
20.976 46.7878
21.0215 46.8197
21.0668 47.0751
21.1122 47.4464
21.1575 48.2772
21.203 48.9055
21.2483 49.8459
21.2938 50.0596
21.3391 48.6877
21.3846 47.4872
21.4299 46.7517
21.4754 46.8172
21.5207 46.8103
21.5662 47.0644
21.6116 47.2607
21.6571 48.0612
21.7024 49.1651
21.7479 50.911
21.7933 53.3232
21.8388 57.2697
21.8843 61.74
21.9297 64.7479
21.9752 63.5609
22.0206 59.3059
22.0661 55.6719
22.1115 55.4105
22.157 55.6128
22.2024 54.0223
22.248 50.5924
22.2933 48.476
22.3389 47.5378
22.3843 47.2435
22.4299 47.1053
22.4753 47.0122
22.5208 46.8164
22.5662 47.015
22.6118 46.9343
22.6572 47.0812
22.7028 47.6464
22.7483 48.3675
22.7939 48.9728
22.8393 50.3207
22.8849 52.6261
22.9303 55.0703
22.9759 57.2547
23.0214 57.008
23.067 54.2911
23.1126 50.4384
23.1581 48.0985
23.2037 47.3334
23.2492 47.2983
23.2948 47.2953
23.3403 47.8447
23.3859 48.6736
23.4314 49.7322
23.477 51.5045
23.5225 53.8487
23.5682 56.5583
23.6137 57.9997
23.6593 56.0013
23.7048 51.6932
23.7505 47.8388
23.796 45.4892
23.8417 44.7665
23.8872 44.1844
23.9329 43.6538
23.9784 43.4021
24.0241 43.2607
24.0697 43.0862
24.1154 42.7648
24.1609 42.492
24.2066 42.2418
24.2522 42.2952
24.2979 42.0753
24.3434 41.9079
24.3892 41.662
24.4349 41.8037
24.4805 41.6098
24.5262 41.6777
24.5718 41.5896
24.6175 41.7918
24.6631 41.6352
24.7089 41.1647
24.7545 41.1162
24.8002 40.7886
24.8458 40.7886
24.8916 40.7414
24.9372 40.9316
24.983 41.1093
25.0286 41.5247
25.0744 42.0385
25.12 42.7443
25.1658 43.3989
25.2114 43.7693
25.2572 43.8828
25.3029 44.0936
25.3487 44.0461
25.3943 43.9653
25.4402 42.7387
25.4858 41.5437
25.5316 40.6007
25.5773 39.6184
25.6231 39.6689
25.669 39.1038
25.7147 39.2654
25.7605 39.2457
25.8062 39.2709
25.8521 39.4889
25.8977 39.4056
25.9436 39.6886
25.9893 39.7891
26.0352 40.2937
26.0809 40.5951
26.1268 40.9299
26.1725 40.4369
26.2184 39.9027
26.2641 39.4587
26.31 38.9605
26.3557 38.9899
26.4017 38.9295
26.4474 39.1847
26.4933 39.5795
26.5391 40.1567
26.585 40.8451
26.6308 41.1781
26.6767 41.5272
26.7225 41.2972
26.7684 40.8578
26.8142 40.194
26.8601 39.6307
26.9059 39.2962
26.9519 38.6268
26.9979 38.3606
27.0437 37.8869
27.0896 37.6546
27.1354 37.7746
27.1814 37.4654
27.2272 37.3295
27.2732 37.5605
27.3191 37.2988
27.3651 37.37
27.4109 37.2515
27.4569 37.532
27.5027 37.5308
27.5488 37.6155
27.5946 37.5096
27.6407 37.3817
27.6865 37.1407
27.7326 36.972
27.7784 36.947
27.8245 36.8494
27.8703 36.9935
27.9164 37.2276
27.9623 37.4447
28.0084 38.0679
28.0543 38.4514
28.1003 38.492
28.1462 38.2813
28.1923 37.8949
28.2384 37.4171
28.2843 37.0055
28.3304 36.4146
28.3764 35.9662
28.4225 35.601
28.4684 35.2749
28.5145 35.0041
28.5605 34.948
28.6066 34.7824
28.6526 34.6354
28.6987 34.6384
28.7447 34.5266
28.7908 34.456
28.8368 34.5174
28.8829 34.4578
28.9289 34.3878
28.9751 34.2275
29.0211 33.9638
29.0673 33.8341
29.1133 33.6717
29.1595 33.4398
29.2055 33.3888
29.2517 33.4101
29.2977 33.3609
29.3439 33.2857
29.3899 33.3337
29.4361 33.4004
29.4824 33.0824
29.5284 32.8499
29.5746 32.459
29.6207 32.2708
29.6669 32.2275
29.713 32.0481
29.7593 31.9554
29.8053 31.8401
29.8516 31.8397
29.8977 31.7869
29.9439 31.6564
29.99 31.6693
30.0363 31.526
30.0824 31.5674
30.1287 31.5029
30.1748 31.5758
30.2211 31.5329
30.2673 31.49
30.3136 31.4466
30.3597 31.3792
30.406 31.2768
30.4522 31.176
30.4985 31.091
30.5447 31.2777
30.591 31.2353
30.6372 31.4398
30.6835 31.4736
30.7297 31.4396
30.7761 31.5387
30.8224 31.3161
30.8686 31.0908
30.915 30.8223
30.9612 30.687
31.0076 30.5939
31.0538 30.3805
31.1002 30.4004
31.1464 30.1443
31.1928 30.2721
31.2391 30.1095
31.2855 29.9955
31.3317 30.0599
31.3781 30.1744
31.4244 30.1214
31.4708 30.1849
31.5171 30.0177
31.5636 30.0795
31.6098 29.8944
31.6563 29.6544
31.7026 29.5024
31.7491 29.3496
31.7953 29.4866
31.8418 29.3909
31.8881 29.4867
31.9346 29.5178
31.9809 29.3638
32.0275 29.3158
32.074 29.1565
32.1203 28.9563
32.1668 28.813
32.2132 28.6201
32.2597 28.4904
32.306 28.4385
32.3526 28.2653
32.399 28.2105
32.4455 28.0273
32.4919 28.0072
32.5385 27.8253
32.5848 27.8232
32.6314 27.7358
32.6778 27.7112
32.7244 27.5996
32.7708 27.5169
32.8174 27.4021
32.8638 27.3426
32.9104 27.3412
32.9569 27.2706
33.0035 27.276
33.0499 27.0808
33.0966 27.1287
33.143 27.1382
33.1897 26.949
33.2361 26.9639
33.2828 26.947
33.3293 26.766
33.3759 26.6746
33.4226 26.5578
33.4691 26.4859
33.5158 26.3244
33.5623 26.16
33.609 26.0804
33.6555 25.9577
33.7022 25.9028
33.7487 25.8223
33.7954 25.7681
33.842 25.7773
33.8887 25.6561
33.9353 25.6505
33.982 25.4679
34.0286 25.3437
34.0753 25.2633
34.1219 25.2232
34.1687 25.1391
34.2152 25.0864
34.262 25.0159
34.3086 24.9269
34.3554 24.8787
34.402 24.7246
34.4488 24.7005
34.4954 24.5996
34.5422 24.5092
34.5889 24.4432
34.6357 24.3189
34.6825 24.2433
34.7292 24.1648
34.776 24.0783
34.8227 24.0576
34.8695 23.9217
34.9162 23.8996
34.9631 23.9361
35.0098 23.8033
35.0566 23.8439
35.1033 23.6761
35.1502 23.6096
35.1969 23.5931
35.2438 23.5705
35.2906 23.4185
35.3375 23.4016
35.3842 23.4884
35.4311 23.3678
35.4779 23.4361
35.5248 23.2527
35.5716 23.2094
35.6185 23.1458
35.6653 23.0893
35.7123 23.0097
35.759 22.8592
35.806 22.8651
35.8528 22.6867
35.8998 22.5802
35.9468 22.454
35.9936 22.5251
36.0406 22.4704
36.0874 22.4724
36.1345 22.3948
36.1813 22.2302
36.2283 22.1352
36.2752 22.1222
36.3222 22.0368
36.3691 21.9473
36.4161 21.8876
36.463 21.8899
36.5101 21.8582
36.557 21.7912
36.6041 21.66
36.651 21.6293
36.6981 21.5824
36.745 21.4886
36.7921 21.4208
36.839 21.3382
36.8861 21.256
36.9331 21.208
36.9802 21.1442
37.0272 21.0425
37.0743 20.9607
37.1213 20.9193
37.1684 20.845
37.2154 20.795
37.2626 20.7109
37.3098 20.5773
37.3568 20.6344
37.404 20.5512
37.451 20.4701
37.4982 20.3278
37.5452 20.3283
37.5924 20.2367
37.6395 20.3389
37.6867 20.2278
37.7337 20.0435
37.781 20.0025
37.8281 20.0081
37.8753 19.7821
37.9224 19.8262
37.9697 19.7803
38.0168 19.7068
38.064 19.6557
38.1111 19.5726
38.1584 19.5763
38.2056 19.4063
38.2529 19.3748
38.3 19.3378
38.3473 19.3021
38.3945 19.1477
38.4418 19.1629
38.489 19.1016
38.5363 19.0173
38.5837 18.9369
38.6309 18.869
38.6782 18.9155
38.7254 18.7429
38.7728 18.709
38.82 18.599
38.8674 18.5268
38.9146 18.5581
38.9621 18.4565
39.0093 18.4056
39.0567 18.3578
39.104 18.3144
39.1514 18.2454
39.1987 18.1705
39.2461 18.1546
39.2934 18.1165
39.3409 18.0238
39.3882 17.9416
39.4356 17.8702
39.483 17.8973
39.5304 17.7897
39.5778 17.7462
39.6253 17.6754
39.6726 17.6408
39.7201 17.6044
39.7675 17.551
39.815 17.5288
39.8624 17.3766
39.9099 17.412
39.9575 17.2778
40.0049 17.2331
40.0525 17.17
40.0999 17.0684
40.1474 17.0481
40.1949 17.0271
40.2425 16.9547
40.2899 16.9372
40.3375 16.8701
40.385 16.8399
40.4326 16.7131
40.48 16.6655
40.5277 16.6523
40.5752 16.5847
40.6228 16.5045
40.6703 16.5083
40.718 16.4345
40.7655 16.4244
40.8132 16.3108
40.8607 16.2731
40.9084 16.2494
40.9559 16.1921
41.0036 16.2063
41.0512 16.1045
41.0989 16.0589
41.1465 15.9658
41.1942 15.9317
41.242 15.8197
41.2896 15.7777
41.3373 15.7816
41.3849 15.7705
41.4327 15.661
41.4803 15.557
41.5281 15.5314
41.5758 15.5122
41.6236 15.4348
41.6712 15.4243
41.7191 15.3735
41.7667 15.282
41.8146 15.2685
41.8622 15.1409
41.9101 15.1584
41.9578 15.0736
42.0057 15.0412
42.0534 15.0312
42.1013 14.9523
42.149 14.9072
42.1969 14.8122
42.2446 14.8181
42.2925 14.7616
42.3403 14.6806
42.3882 14.6574
42.436 14.643
42.4839 14.5251
42.5319 14.4691
42.5797 14.4237
42.6277 14.4282
42.6755 14.3381
42.7235 14.2334
42.7713 14.2612
42.8193 14.1781
42.8671 14.1298
42.9152 14.1275
42.963 14.0038
43.0111 13.9867
43.0589 13.9093
43.107 13.8957
43.1549 13.8733
43.2029 13.7939
43.2508 13.7594
43.2989 13.6778
43.3468 13.6394
43.3949 13.6313
43.4429 13.5422
43.491 13.551
43.5389 13.5314
43.5871 13.4189
43.635 13.4194
43.6832 13.378
43.7312 13.2703
43.7793 13.2604
43.8273 13.1801
43.8755 13.162
43.9237 13.1319
43.9717 13.0959
44.0199 13.0357
44.068 13.0078
44.1162 12.9154
44.1642 12.8957
44.2125 12.8552
44.2606 12.8188
44.3088 12.7482
44.3569 12.6809
44.4052 12.6961
44.4533 12.5749
44.5016 12.5411
44.5497 12.5622
44.598 12.4948
44.6461 12.4475
44.6945 12.4358
44.7426 12.3442
44.791 12.3265
44.8391 12.277
44.8875 12.2097
44.9357 12.1702
44.984 12.1445
45.0322 12.0868
45.0806 12.0395
45.1288 12.0224
45.1773 11.9489
45.2257 11.9437
45.2739 11.8962
45.3224 11.8214
45.3706 11.8126
45.4191 11.7147
45.4673 11.6594
45.5158 11.6689
45.5641 11.6463
45.6126 11.6173
45.6609 11.5728
45.7094 11.4946
45.7577 11.4856
45.8063 11.3986
45.8546 11.4338
45.9031 11.3237
45.9515 11.3395
46.0001 11.2876
46.0484 11.255
46.097 11.1529
46.1454 11.1755
46.194 11.1379
46.2424 11.0905
46.291 11.0023
46.3395 10.9965
46.3881 10.893
46.4365 10.9811
46.4852 10.8572
46.5337 10.7961
46.5823 10.8237
46.631 10.734
46.6795 10.7897
46.7282 10.6756
46.7767 10.6496
46.8254 10.5799
46.8739 10.5722
46.9226 10.5376
46.9712 10.48
47.0199 10.437
47.0685 10.3883
47.1173 10.3669
47.1658 10.3127
47.2146 10.284
47.2632 10.2805
47.312 10.234
47.3606 10.1706
47.4095 10.095
47.4581 10.1325
47.5069 10.0175
47.5556 10.056
47.6044 9.98775
47.6531 9.92319
47.702 9.8926
47.7507 9.89254
47.7996 9.86246
47.8483 9.76705
47.8972 9.76051
47.9461 9.73733
47.9948 9.70076
48.0438 9.66456
48.0925 9.62286
48.1415 9.58035
48.1902 9.55405
48.2392 9.55213
48.288 9.51742
48.337 9.47273
48.3858 9.4431
48.4348 9.38687
48.4837 9.35318
48.5327 9.32749
48.5815 9.27818
48.6306 9.24353
48.6795 9.19707
48.7285 9.19769
48.7774 9.1835
48.8265 9.10961
48.8754 9.07817
48.9245 9.08597
48.9734 9.01932
49.0226 9.00299
49.0715 8.94612
49.1206 8.91691
49.1696 8.85434
49.2188 8.84973
49.2679 8.79107
49.3169 8.79135
49.3661 8.75492
49.4151 8.71681
49.4643 8.68834
49.5134 8.6265
49.5626 8.59744
49.6117 8.56318
49.6609 8.53878
49.71 8.51081
49.7592 8.44239
49.8083 8.40694
49.8576 8.42302
49.9067 8.37007
49.956 8.3449
50.0052 8.30541
50.0545 8.30434
50.1036 8.28748
50.153 8.18611
50.2022 8.17755
50.2515 8.15792
50.3007 8.11965
50.3501 8.07636
50.3993 8.04704
50.4487 8.02719
50.498 7.99281
50.5474 7.97592
50.5966 7.97766
50.6461 7.91176
50.6955 7.86312
50.7448 7.85411
50.7943 7.81276
50.8436 7.79914
50.8931 7.73807
50.9424 7.73964
50.9919 7.68816
51.0413 7.68462
51.0908 7.6214
51.1402 7.61582
51.1897 7.60777
51.2391 7.54405
51.2887 7.50598
51.3381 7.46139
51.3877 7.43538
51.4371 7.39123
51.4867 7.39406
51.5362 7.33862
51.5858 7.34364
51.6353 7.27142
51.6849 7.28329
51.7344 7.23213
51.7841 7.23404
51.8336 7.1752
51.8833 7.18042
51.9328 7.12112
51.9826 7.06963
52.0323 7.06899
52.0818 7.01506
52.1316 6.98982
52.1812 6.9702
52.231 6.95539
52.2806 6.91542
52.3304 6.87272
52.38 6.85316
52.4298 6.82945
52.4794 6.79369
52.5293 6.78641
52.5789 6.75152
52.6288 6.71527
52.6785 6.6708
52.7284 6.68949
52.7781 6.66128
52.828 6.61034
52.8777 6.59745
52.9276 6.57474
52.9774 6.55736
53.0273 6.51937
53.0771 6.46579
53.1271 6.44557
53.1769 6.41181
53.2269 6.37173
53.2767 6.32804
53.3267 6.31185
53.3765 6.34307
53.4266 6.27788
53.4766 6.26194
53.5265 6.24494
53.5765 6.19783
53.6264 6.13289
53.6765 6.13251
53.7264 6.09658
53.7765 6.04506
53.8265 6.06389
53.8766 6.0264
53.9266 5.99641
53.9767 6.01844
54.0267 5.95849
54.0769 5.92852
54.1269 5.91632
54.1771 5.86505
54.2271 5.87433
54.2773 5.78728
54.3274 5.81007
54.3776 5.74833
54.4277 5.76516
54.478 5.66091
54.528 5.62295
54.5783 5.63537
54.6285 5.56941
54.6788 5.54961
54.7289 5.49832
54.7792 5.44943
54.8296 5.39429
54.8798 5.34012
54.9301 5.33033
54.9803 5.36326
55.0307 5.31321
55.0809 5.20986
55.1314 5.21413
55.1816 5.13797
55.232 5.09334
55.2823 5.0244
55.3328 5.0042
55.383 4.92385
55.4335 4.93897
55.4838 4.9142
55.5344 4.8719
55.5847 4.76998
55.6352 4.78409
55.6856 4.70245
55.7361 4.73616