File: XRD/Ni3Fe_FD0709.xy
TT I
1.27165 7.28966
1.31627 6.53136
1.36089 6.40473
1.40551 5.66976
1.45013 6.56241
1.49476 5.58415
1.53938 5.72274
1.584 5.35483
1.62863 5.80464
1.67325 4.77231
1.71787 5.65364
1.7625 4.93053
1.80712 4.80949
1.85174 4.70284
1.89636 4.58064
1.94099 4.7168
1.98562 4.1536
2.03025 4.21531
2.07487 4.23006
2.11949 4.84893
2.16411 4.41601
2.20874 8.83288
2.25338 11.5429
2.298 4.92354
2.34263 5.23366
2.38725 6.07078
2.43188 6.57877
2.4765 7.18212
2.52115 6.84375
2.56577 7.1526
2.6104 7.89626
2.65503 7.47379
2.69965 8.24357
2.7443 7.60081
2.78893 8.20177
2.83356 8.17906
2.87818 8.79335
2.92281 8.93982
2.96744 9.0262
3.01209 10.455
3.05672 11.4537
3.10135 11.9577
3.14599 12.4529
3.19062 13.7979
3.23527 14.8512
3.2799 15.3491
3.32454 16.6411
3.36917 17.2716
3.4138 18.4217
3.45844 19.7403
3.50309 20.3693
3.54773 21.6463
3.59237 23.3624
3.637 49.5434
3.68164 36.5397
3.7263 25.2233
3.77094 25.6396
3.81558 26.4101
3.86022 27.2355
3.90486 28.5472
3.9495 29.4009
3.99416 30.2597
4.0388 31.4935
4.08344 33.059
4.12809 33.7799
4.17273 36.1601
4.21738 39.1564
4.26204 118.565
4.30669 102.863
4.35133 43.9784
4.39598 43.6036
4.44063 48.5905
4.4853 53.2063
4.52995 56.4739
4.5746 57.097
4.61925 53.689
4.6639 55.6039
4.70855 58.5515
4.75322 62.4494
4.79788 68.2359
4.84253 68.2038
4.88719 75.2229
4.93184 76.5013
4.97652 81.186
5.02118 87.904
5.06583 95.6249
5.11049 107.686
5.15515 158.336
5.19981 434.717
5.24449 3078.38
5.28916 12682.5
5.33382 2630.21
5.37848 196.434
5.42315 131.618
5.46783 120.168
5.5125 112.537
5.55716 102.791
5.60183 98.2092
5.6465 96.5634
5.69117 94.8884
5.73586 93.5398
5.78053 98.2941
5.8252 98.1684
5.86988 100.879
5.91455 96.4579
5.95924 106.494
6.00392 258.16
6.0486 1048.63
6.09328 4630.53
6.13795 3080.36
6.18263 219.836
6.22733 91.1747
6.27201 80.5452
6.3167 84.4577
6.36138 74.0778
6.40606 69.7736
6.45075 69.646
6.49545 65.4349
6.54014 63.4527
6.58483 62.7301
6.62952 62.9069
6.67421 73.1642
6.71892 90.0511
6.76361 61.8698
6.8083 59.4584
6.853 59.4488
6.89769 56.7579
6.94239 56.2807
6.98711 55.3123
7.03181 55.6163
7.07651 54.8091
7.12121 54.7881
7.16591 55.599
7.21063 55.209
7.25533 60.6137
7.30004 98.8525
7.34475 67.7532
7.38945 54.3899
7.43416 53.7096
7.47889 54.03
7.5236 54.0512
7.56831 54.8653
7.61303 55.2352
7.65774 55.8947
7.70247 56.5827
7.74719 56.3855
7.79191 56.6913
7.83663 56.8854
7.88135 57.4742
7.92607 58.5085
7.97081 59.6671
8.01553 60.9047
8.06026 62.7046
8.10498 64.1818
8.14971 70.829
8.19446 70.8729
8.23919 69.211
8.28392 72.0736
8.32865 74.4412
8.37339 78.8333
8.41812 84.0911
8.46288 104.691
8.50761 189.887
8.55235 413.183
8.59709 1260.17
8.64183 2174.91
8.68658 840.704
8.73134 148.489
8.77609 97.9554
8.82083 92.7258
8.86558 92.4474
8.91033 92.0551
8.9551 89.3803
8.99985 85.5093
9.04461 84.1927
9.08936 84.329
9.13412 83.0403
9.17888 82.4066
9.22365 82.392
9.26841 82.2451
9.31318 84.7583
9.35794 86.5295
9.4027 86.2625
9.44749 85.6233
9.49226 84.8077
9.53703 85.9446
9.5818 89.7485
9.62657 94.2679
9.67134 95.393
9.71614 93.0855
9.76091 95.204
9.80569 99.3511
9.85047 101.852
9.89525 112.913
9.94005 129.754
9.98484 200.588
10.0296 367.872
10.0744 860.277
10.1192 1804.18
10.164 1528.61
10.2088 354.37
10.2536 122.03
10.2984 109.49
10.3432 108.533
10.388 105.924
10.4328 125.081
10.4776 167.11
10.5224 295.928
10.5672 520.388
10.612 494.007
10.6568 190.601
10.7017 94.1434
10.7465 86.5212
10.7913 83.2277
10.8361 80.9307
10.8809 78.9041
10.9257 78.0175
10.9706 77.9724
11.0154 75.3372
11.0602 72.7193
11.105 71.3305
11.1499 72.2304
11.1947 74.0536
11.2395 70.2443
11.2844 68.5471
11.3292 66.8541
11.374 66.1454
11.4189 65.5109
11.4637 64.4753
11.5086 64.6072
11.5534 65.4136
11.5983 63.8834
11.6431 63.5665
11.688 62.8719
11.7328 62.9966
11.7777 62.8128
11.8225 62.5931
11.8674 62.6429
11.9122 62.541
11.9571 63.1865
12.002 64.6122
12.0468 69.6986
12.0917 79.4838
12.1366 105.778
12.1814 156.724
12.2263 204.634
12.2712 155.569
12.3161 86.9954
12.3609 67.0752
12.4058 63.8452
12.4507 64.0735
12.4956 64.8615
12.5405 64.8025
12.5853 65.2142
12.6302 68.1
12.6751 70.6848
12.72 68.0876
12.7649 67.7309
12.8098 68.5371
12.8547 70.0877
12.8996 71.4025
12.9445 72.9303
12.9894 74.8689
13.0343 76.2903
13.0792 80.838
13.1242 94.1386
13.1691 114.242
13.214 154.434
13.2589 251.432
13.3038 381.704
13.3487 414.035
13.3937 245.486
13.4386 120.482
13.4835 108.638
13.5285 123.479
13.5734 165.961
13.6183 260.724
13.6633 359.771
13.7082 326.973
13.7531 172.459
13.7981 93.8675
13.843 81.5548
13.888 79.434
13.9329 77.2432
13.9779 75.8881
14.0228 74.4635
14.0678 73.0049
14.1127 72.3757
14.1577 71.9294
14.2027 71.1036
14.2476 70.2419
14.2926 70.0792
14.3376 70.2788
14.3825 69.5399
14.4275 69.0301
14.4725 68.9309
14.5175 68.8295
14.5624 68.8886
14.6074 69.9219
14.6524 70.3222
14.6974 70.7888
14.7424 74.5993
14.7874 80.5952
14.8324 90.8115
14.8774 114.777
14.9224 160.451
14.9674 213.872
15.0124 214.244
15.0574 138.729
15.1024 86.1678
15.1474 71.5684
15.1924 70.1437
15.2374 69.5455
15.2824 68.6077
15.3274 67.3688
15.3725 66.8358
15.4175 66.4033
15.4625 65.8982
15.5076 65.8347
15.5526 65.8893
15.5976 65.8541
15.6426 68.6074
15.6877 73.6698
15.7327 81.2738
15.7778 97.5383
15.8228 131.073
15.8679 175.086
15.9129 194.435
15.958 147.867
16.003 90.9702
16.0481 66.34
16.0931 62.8792
16.1382 61.3096
16.1833 60.1757
16.2283 58.5712
16.2734 57.9863
16.3185 57.8133
16.3636 57.5334
16.4086 56.5943
16.4537 55.8458
16.4988 55.2202
16.5439 55.2759
16.589 54.9759
16.6341 54.8583
16.6792 54.3445
16.7243 54.664
16.7694 54.6318
16.8145 54.4183
16.8596 54.705
16.9047 55.624
16.9498 55.7882
16.9949 55.2211
17.04 56.0914
17.0851 57.3794
17.1302 58.7189
17.1754 61.9693
17.2205 67.6178
17.2656 75.1681
17.3108 83.4871
17.3559 81.1188
17.401 69.3345
17.4462 61.2979
17.4913 59.2646
17.5365 59.2263
17.5815 59.2138
17.6268 59.7782
17.6718 60.2218
17.7171 60.7045
17.7622 61.1611
17.8074 62.7083
17.8525 65.7099
17.8977 68.963
17.9428 74.34
17.9881 84.3277
18.0331 102.83
18.0784 125.78
18.1237 141.675
18.1688 129.61
18.214 100.315
18.2591 85.9596
18.3044 91.6268
18.3495 101.256
18.3948 105.786
18.4399 92.9998
18.4852 74.5551
18.5303 65.0015
18.5756 61.8713
18.6207 60.9173
18.666 60.1639
18.7112 59.6769
18.7565 58.9293
18.8016 58.4674
18.8469 57.9265
18.892 57.5899
18.9374 57.1959
18.9825 56.8842
19.0278 56.6291
19.073 57.0719
19.1183 57.294
19.1635 57.8249
19.2088 59.3121
19.254 62.5229
19.2993 67.3207
19.3447 73.1327
19.3898 76.0354
19.4352 70.7145
19.4804 61.7108
19.5257 56.0755
19.5709 53.8169
19.6163 53.7173
19.6615 53.6031
19.7068 53.3369
19.752 53.2933
19.7974 53.8124
19.8426 54.4248
19.888 54.9394
19.9332 56.3246
19.9786 59.1556
20.0238 63.216
20.0692 67.5184
20.1144 69.7078
20.1598 67.509
20.205 62.9369
20.2504 62.1331
20.2957 64.1089
20.3411 65.486
20.3863 63.1294
20.4318 57.3046
20.477 52.8652
20.5224 51.0387
20.5677 50.4108
20.6131 49.9685
20.6586 49.5538
20.7038 49.4406
20.7493 48.876
20.7945 48.8331
20.84 48.6875
20.8853 48.527
20.9307 48.7057
20.976 48.7248
21.0215 48.4618
21.0668 49.0459
21.1122 49.5154
21.1575 50.2142
21.203 50.9503
21.2483 51.5864
21.2938 51.3728
21.3391 49.6704
21.3846 48.8277
21.4299 48.287
21.4754 48.3605
21.5207 48.6967
21.5662 49.1504
21.6116 49.4612
21.6571 50.0029
21.7024 50.9548
21.7479 52.988
21.7933 55.881
21.8388 59.4284
21.8843 63.0996
21.9297 64.817
21.9752 62.5993
22.0206 58.7088
22.0661 56.0874
22.1115 55.9735
22.157 55.7149
22.2024 53.7025
22.248 51.1563
22.2933 49.5915
22.3389 48.9604
22.3843 48.8621
22.4299 48.5227
22.4753 48.4842
22.5208 48.4688
22.5662 48.4503
22.6118 48.691
22.6572 48.898
22.7028 49.3459
22.7483 49.8269
22.7939 50.4343
22.8393 52.2029
22.8849 54.3906
22.9303 56.452
22.9759 57.8805
23.0214 57.0984
23.067 53.9363
23.1126 50.7327
23.1581 49.0962
23.2037 48.7334
23.2492 48.7229
23.2948 48.8049
23.3403 49.1352
23.3859 49.7884
23.4314 50.9429
23.477 52.8875
23.5225 55.2135
23.5682 57.1971
23.6137 57.7687
23.6593 54.8545
23.7048 50.7553
23.7505 47.7288
23.796 46.4264
23.8417 45.7599
23.8872 45.3975
23.9329 45.1515
23.9784 44.8246
24.0241 44.4483
24.0697 44.3505
24.1154 43.8895
24.1609 43.9523
24.2066 43.6365
24.2522 43.6058
24.2979 43.3738
24.3434 43.2042
24.3892 43.2731
24.4349 43.0671
24.4805 42.9677
24.5262 42.9776
24.5718 43.0356
24.6175 42.8378
24.6631 42.7845
24.7089 42.3311
24.7545 42.1678
24.8002 42.0458
24.8458 42.2442
24.8916 42.1069
24.9372 42.275
24.983 42.6079
25.0286 42.8781
25.0744 43.3814
25.12 43.6947
25.1658 44.3475
25.2114 44.7059
25.2572 44.6266
25.3029 44.7889
25.3487 44.9414
25.3943 44.3463
25.4402 43.2746
25.4858 41.904
25.5316 41.3529
25.5773 40.8477
25.6231 40.7878
25.669 40.4847
25.7147 40.5008
25.7605 40.3502
25.8062 40.3744
25.8521 40.5612
25.8977 40.5533
25.9436 40.7565
25.9893 40.8745
26.0352 41.4179
26.0809 41.5793
26.1268 41.6501
26.1725 41.0608
26.2184 40.6841
26.2641 40.2118
26.31 39.9512
26.3557 40.1609
26.4017 40.1095
26.4474 40.3839
26.4933 40.7572
26.5391 41.1833
26.585 41.7624
26.6308 41.9545
26.6767 42.1005
26.7225 41.7496
26.7684 41.226
26.8142 40.6513
26.8601 40.2035
26.9059 39.8297
26.9519 39.3775
26.9979 39.0628
27.0437 38.8171
27.0896 38.6746
27.1354 38.7066
27.1814 38.6816
27.2272 38.5152
27.2732 38.5527
27.3191 38.2641
27.3651 38.4341
27.4109 38.3587
27.4569 38.4316
27.5027 38.4835
27.5488 38.6312
27.5946 38.2948
27.6407 38.0182
27.6865 37.9678
27.7326 37.8048
27.7784 37.9344
27.8245 37.6414
27.8703 37.9432
27.9164 38.2261
27.9623 38.364
28.0084 38.6822
28.0543 38.9775
28.1003 39.0284
28.1462 38.7024
28.1923 38.2841
28.2384 37.7864
28.2843 37.6438
28.3304 37.0532
28.3764 36.4185
28.4225 36.2598
28.4684 36.1137
28.5145 35.7809
28.5605 35.8529
28.6066 35.5755
28.6526 35.5537
28.6987 35.4421
28.7447 35.56
28.7908 35.4142
28.8368 35.2494
28.8829 35.3985
28.9289 35.305
28.9751 35.0891
29.0211 34.8193
29.0673 34.6175
29.1133 34.5022
29.1595 34.3512
29.2055 34.2621
29.2517 34.3228
29.2977 34.1786
29.3439 34.2593
29.3899 34.2241
29.4361 34.1261
29.4824 33.8708
29.5284 33.6355
29.5746 33.3232
29.6207 33.0026
29.6669 33.0412
29.713 32.9052
29.7593 32.7823
29.8053 32.7735
29.8516 32.7701
29.8977 32.7462
29.9439 32.454
29.99 32.5614
30.0363 32.4043
30.0824 32.4025
30.1287 32.3738
30.1748 32.3335
30.2211 32.4649
30.2673 32.2482
30.3136 32.3022
30.3597 32.1677
30.406 32.1487
30.4522 31.9988
30.4985 32.0316
30.5447 32.1257
30.591 32.0529
30.6372 32.0502
30.6835 32.1667
30.7297 32.2268
30.7761 32.0657
30.8224 31.9375
30.8686 31.8211
30.915 31.4987
30.9612 31.4474
31.0076 31.1899
31.0538 31.1791
31.1002 31.1231
31.1464 30.845
31.1928 30.9015
31.2391 30.9483
31.2855 30.761
31.3317 30.8128
31.3781 30.9613
31.4244 30.8025
31.4708 30.8173
31.5171 30.7163
31.5636 30.5877
31.6098 30.4091
31.6563 30.2832
31.7026 30.0912
31.7491 30.0764
31.7953 30.1539
31.8418 30.1311
31.8881 30.139
31.9346 30.0492
31.9809 30.0432
32.0275 29.849
32.074 29.7063
32.1203 29.6296
32.1668 29.4523
32.2132 29.3604
32.2597 29.1601
32.306 29.0495
32.3526 28.8546
32.399 28.9276
32.4455 28.791
32.4919 28.7181
32.5385 28.5803
32.5848 28.4094
32.6314 28.4342
32.6778 28.3928
32.7244 28.2038
32.7708 28.2002
32.8174 28.131
32.8638 27.9317
32.9104 28.0454
32.9569 28.0128
33.0035 27.7869
33.0499 27.82
33.0966 27.7476
33.143 27.8386
33.1897 27.6386
33.2361 27.4458
33.2828 27.528
33.3293 27.342
33.3759 27.3089
33.4226 27.1657
33.4691 27.0071
33.5158 26.9654
33.5623 26.8698
33.609 26.6856
33.6555 26.5769
33.7022 26.5072
33.7487 26.4525
33.7954 26.4599
33.842 26.2525
33.8887 26.2374
33.9353 26.1301
33.982 26.1111
34.0286 25.9953
34.0753 25.9653
34.1219 25.8916
34.1687 25.8184
34.2152 25.7096
34.262 25.5945
34.3086 25.4172
34.3554 25.4467
34.402 25.343
34.4488 25.286
34.4954 25.2259
34.5422 25.0759
34.5889 25.0066
34.6357 24.9686
34.6825 24.833
34.7292 24.8182
34.776 24.6746
34.8227 24.6531
34.8695 24.5441
34.9162 24.5514
34.9631 24.4082
35.0098 24.4294
35.0566 24.254
35.1033 24.2387
35.1502 24.2325
35.1969 24.1211
35.2438 24.16
35.2906 24.0629
35.3375 24.0125
35.3842 23.9502
35.4311 23.9556
35.4779 23.8942
35.5248 23.863
35.5716 23.7774
35.6185 23.6729
35.6653 23.5829
35.7123 23.5457
35.759 23.4465
35.806 23.2597
35.8528 23.1337
35.8998 23.1352
35.9468 23.08
35.9936 23.0494
36.0406 22.9367
36.0874 22.9405
36.1345 22.8624
36.1813 22.714
36.2283 22.657
36.2752 22.6484
36.3222 22.5343
36.3691 22.4899
36.4161 22.3324
36.463 22.3683
36.5101 22.4439
36.557 22.3078
36.6041 22.1687
36.651 22.0985
36.6981 22.0737
36.745 22.0209
36.7921 21.9407
36.839 21.8121
36.8861 21.745
36.9331 21.7549
36.9802 21.5812
37.0272 21.5024
37.0743 21.4786
37.1213 21.4452
37.1684 21.3289
37.2154 21.2793
37.2626 21.1934
37.3098 21.1131
37.3568 21.0567
37.404 21.0565
37.451 21.0043
37.4982 20.934
37.5452 20.8192
37.5924 20.7185
37.6395 20.7725
37.6867 20.6375
37.7337 20.5314
37.781 20.4809
37.8281 20.4582
37.8753 20.4121
37.9224 20.3
37.9697 20.2769
38.0168 20.125
38.064 20.1321
38.1111 20.0278
38.1584 19.937
38.2056 19.9809
38.2529 19.875
38.3 19.7642
38.3473 19.8511
38.3945 19.6404
38.4418 19.5775
38.489 19.5213
38.5363 19.3964
38.5837 19.3604
38.6309 19.3493
38.6782 19.2784
38.7254 19.2086
38.7728 19.1272
38.82 19.0545
38.8674 19.0155
38.9146 18.9984
38.9621 18.8955
39.0093 18.895
39.0567 18.7877
39.104 18.7498
39.1514 18.6667
39.1987 18.6581
39.2461 18.5496
39.2934 18.5194
39.3409 18.4072
39.3882 18.3029
39.4356 18.3751
39.483 18.2121
39.5304 18.1272
39.5778 18.2146
39.6253 18.107
39.6726 18.0617
39.7201 17.9886
39.7675 17.9624
39.815 17.899
39.8624 17.8099
39.9099 17.8303
39.9575 17.6659
40.0049 17.5385
40.0525 17.6071
40.0999 17.5159
40.1474 17.4969
40.1949 17.4578
40.2425 17.3287
40.2899 17.3337
40.3375 17.2459
40.385 17.1739
40.4326 17.1743
40.48 17.0579
40.5277 17.0385
40.5752 16.9926
40.6228 16.8725
40.6703 16.9235
40.718 16.8144
40.7655 16.7337
40.8132 16.7227
40.8607 16.6543
40.9084 16.6098
40.9559 16.5035
41.0036 16.4897
41.0512 16.4689
41.0989 16.4232
41.1465 16.332
41.1942 16.2186
41.242 16.2007
41.2896 16.1844
41.3373 16.1375
41.3849 16.1032
41.4327 16.0167
41.4803 15.9055
41.5281 15.931
41.5758 15.8274
41.6236 15.7742
41.6712 15.7357
41.7191 15.6462
41.7667 15.6643
41.8146 15.5879
41.8622 15.5236
41.9101 15.5046
41.9578 15.3948
42.0057 15.3691
42.0534 15.3194
42.1013 15.2372
42.149 15.2706
42.1969 15.1794
42.2446 15.1405
42.2925 15.0538
42.3403 15.0316
42.3882 14.9992
42.436 14.8861
42.4839 14.8304
42.5319 14.7915
42.5797 14.8156
42.6277 14.7246
42.6755 14.6735
42.7235 14.5698
42.7713 14.5852
42.8193 14.5479
42.8671 14.4596
42.9152 14.4045
42.963 14.4308
43.0111 14.2897
43.0589 14.249
43.107 14.2289
43.1549 14.1472
43.2029 14.1078
43.2508 14.1083
43.2989 14.0275
43.3468 13.978
43.3949 13.9355
43.4429 13.8296
43.491 13.8263
43.5389 13.8276
43.5871 13.784
43.635 13.6718
43.6832 13.662
43.7312 13.5758
43.7793 13.529
43.8273 13.5419
43.8755 13.4737
43.9237 13.4433
43.9717 13.3597
44.0199 13.3075
44.068 13.3076
44.1162 13.2071
44.1642 13.2297
44.2125 13.142
44.2606 13.1117
44.3088 13.0584
44.3569 13.0002
44.4052 12.9521
44.4533 12.9057
44.5016 12.845
44.5497 12.8013
44.598 12.8176
44.6461 12.7265
44.6945 12.7243
44.7426 12.6996
44.791 12.6075
44.8391 12.5239
44.8875 12.4873
44.9357 12.4716
44.984 12.4606
45.0322 12.383
45.0806 12.3305
45.1288 12.3126
45.1773 12.2259
45.2257 12.1854
45.2739 12.1365
45.3224 12.1041
45.3706 12.067
45.4191 11.9856
45.4673 12.0326
45.5158 11.9545
45.5641 11.9279
45.6126 11.8604
45.6609 11.8507
45.7094 11.7615
45.7577 11.7671
45.8063 11.6537
45.8546 11.6782
45.9031 11.5669
45.9515 11.5616
46.0001 11.5176
46.0484 11.5212
46.097 11.4689
46.1454 11.4333
46.194 11.4105
46.2424 11.3192
46.291 11.2582
46.3395 11.2609
46.3881 11.1643
46.4365 11.1616
46.4852 11.1313
46.5337 11.1191
46.5823 11.0284
46.631 10.9735
46.6795 10.9798
46.7282 10.9565
46.7767 10.862
46.8254 10.8335
46.8739 10.8191
46.9226 10.7539
46.9712 10.7234
47.0199 10.6762
47.0685 10.6273
47.1173 10.6331
47.1658 10.5503
47.2146 10.4993
47.2632 10.4867
47.312 10.4588
47.3606 10.3807
47.4095 10.3789
47.4581 10.323
47.5069 10.2725
47.5556 10.2305
47.6044 10.2291
47.6531 10.1732
47.702 10.1065
47.7507 10.086
47.7996 10.0019
47.8483 10.0477
47.8972 9.992
47.9461 9.96961
47.9948 9.90936
48.0438 9.85904
48.0925 9.86165
48.1415 9.79773
48.1902 9.76182
48.2392 9.7508
48.288 9.70383
48.337 9.67968
48.3858 9.6096
48.4348 9.6196
48.4837 9.59166
48.5327 9.57563
48.5815 9.51017
48.6306 9.45975
48.6795 9.42713
48.7285 9.38053
48.7774 9.32131
48.8265 9.34952
48.8754 9.31848
48.9245 9.25579
48.9734 9.23013
49.0226 9.17825
49.0715 9.14176
49.1206 9.1195
49.1696 9.09905
49.2188 9.06487
49.2679 9.02578
49.3169 8.97536
49.3661 8.94894
49.4151 8.89888
49.4643 8.88396
49.5134 8.83645
49.5626 8.79843
49.6117 8.822
49.6609 8.72972
49.71 8.70222
49.7592 8.65811
49.8083 8.61226
49.8576 8.61369
49.9067 8.54408
49.956 8.53643
50.0052 8.51677
50.0545 8.49589
50.1036 8.44403
50.153 8.39652
50.2022 8.40148
50.2515 8.33244
50.3007 8.27869
50.3501 8.25039
50.3993 8.26499
50.4487 8.23101
50.498 8.15341
50.5474 8.15888
50.5966 8.09603
50.6461 8.08344
50.6955 8.05972
50.7448 8.02052
50.7943 8.00271
50.8436 7.98586
50.8931 7.95379
50.9424 7.92518
50.9919 7.86936
51.0413 7.82374
51.0908 7.84169
51.1402 7.8025
51.1897 7.73626
51.2391 7.7464
51.2887 7.69637
51.3381 7.66627
51.3877 7.61666
51.4371 7.58377
51.4867 7.55383
51.5362 7.53496
51.5858 7.51948
51.6353 7.45497
51.6849 7.42559
51.7344 7.41291
51.7841 7.36701
51.8336 7.33443
51.8833 7.33431
51.9328 7.29618
51.9826 7.27922
52.0323 7.21531
52.0818 7.19418
52.1316 7.14954
52.1812 7.14892
52.231 7.10368
52.2806 7.05371
52.3304 7.04298
52.38 7.03419
52.4298 6.99184
52.4794 6.93828
52.5293 6.92025
52.5789 6.90939
52.6288 6.87499
52.6785 6.8408
52.7284 6.83694
52.7781 6.79262
52.828 6.74978
52.8777 6.68807
52.9276 6.67354
52.9774 6.68624
53.0273 6.65775
53.0771 6.6174
53.1271 6.5862
53.1769 6.58352
53.2269 6.53617
53.2767 6.47812
53.3267 6.45675
53.3765 6.46943
53.4266 6.43473
53.4766 6.4085
53.5265 6.39829
53.5765 6.31491
53.6264 6.28947
53.6765 6.30385
53.7264 6.28434
53.7765 6.24066
53.8265 6.24193
53.8766 6.17149
53.9266 6.16508
53.9767 6.12191
54.0267 6.07701
54.0769 6.06915
54.1269 6.04092
54.1771 6.03543
54.2271 5.99906
54.2773 5.96767
54.3274 5.93382
54.3776 5.87424
54.4277 5.86405
54.478 5.82543
54.528 5.83793
54.5783 5.71866
54.6285 5.66201
54.6788 5.64632
54.7289 5.61198
54.7792 5.56943
54.8296 5.51974
54.8798 5.47759
54.9301 5.46324
54.9803 5.40804
55.0307 5.35411
55.0809 5.30327
55.1314 5.34796
55.1816 5.26343
55.232 5.24318
55.2823 5.25057
55.3328 5.11904
55.383 5.11201
55.4335 5.06497
55.4838 4.95804
55.5344 4.90771
55.5847 4.94174
55.6352 4.87278
55.6856 4.83657
55.7361 4.79517