File: XRD/Ni3Fe_FD0835.xy
TT I
1.27165 7.1015
1.31627 6.34841
1.36089 6.47552
1.40551 5.43236
1.45013 5.9848
1.49476 6.30205
1.53938 6.10761
1.584 5.01725
1.62863 5.3879
1.67325 5.21973
1.71787 5.2142
1.7625 4.39174
1.80712 4.58001
1.85174 4.74985
1.89636 4.08275
1.94099 5.13385
1.98562 4.81421
2.03025 4.37416
2.07487 4.32195
2.11949 4.83959
2.16411 4.81609
2.20874 10.2182
2.25338 14.5262
2.298 6.1231
2.34263 5.37482
2.38725 6.10897
2.43188 5.39743
2.4765 7.60525
2.52115 7.14288
2.56577 8.33429
2.6104 8.20463
2.65503 8.22085
2.69965 8.4869
2.7443 8.69009
2.78893 8.61432
2.83356 8.66769
2.87818 8.81445
2.92281 9.59532
2.96744 9.82883
3.01209 10.4823
3.05672 11.1222
3.10135 12.2161
3.14599 13.1399
3.19062 14.4151
3.23527 15.2509
3.2799 15.9805
3.32454 16.9315
3.36917 17.4149
3.4138 18.6038
3.45844 19.7419
3.50309 20.5878
3.54773 21.1449
3.59237 23.3128
3.637 61.6578
3.68164 43.1557
3.7263 25.5802
3.77094 25.6136
3.81558 26.2443
3.86022 27.3383
3.90486 28.3736
3.9495 29.675
3.99416 30.3324
4.0388 31.9266
4.08344 33.4668
4.12809 34.6587
4.17273 36.4964
4.21738 40.8272
4.26204 160.069
4.30669 137.479
4.35133 46.0292
4.39598 44.4021
4.44063 50.057
4.4853 57.4023
4.52995 53.6035
4.5746 54.1074
4.61925 53.3599
4.6639 55.6288
4.70855 57.7007
4.75322 61.0816
4.79788 65.7522
4.84253 67.3582
4.88719 73.1688
4.93184 75.4431
4.97652 80.2838
5.02118 87.2935
5.06583 94.2877
5.11049 105.406
5.15515 156.47
5.19981 336.518
5.24449 2747.37
5.28916 12340.7
5.33382 2721.62
5.37848 187.034
5.42315 127.878
5.46783 116.01
5.5125 108.66
5.55716 101.851
5.60183 97.2383
5.6465 95.6293
5.69117 93.9192
5.73586 91.859
5.78053 94.0747
5.8252 94.2806
5.86988 95.887
5.91455 93.5458
5.95924 101.351
6.00392 207.017
6.0486 935.472
6.09328 4343.6
6.13795 3096.94
6.18263 224.117
6.22733 90.0611
6.27201 80.7844
6.3167 88.8625
6.36138 75.3237
6.40606 68.646
6.45075 68.3415
6.49545 64.9865
6.54014 63.3728
6.58483 62.1287
6.62952 62.405
6.67421 80.1819
6.71892 104.101
6.76361 63.8874
6.8083 58.5994
6.853 58.5459
6.89769 56.2953
6.94239 55.7564
6.98711 55.5513
7.03181 55.0657
7.07651 54.9448
7.12121 54.9435
7.16591 55.5567
7.21063 54.9484
7.25533 64.4228
7.30004 121.906
7.34475 74.2476
7.38945 55.301
7.43416 53.5932
7.47889 53.5092
7.5236 54.0804
7.56831 55.0646
7.61303 55.4673
7.65774 55.8551
7.70247 56.1145
7.74719 55.8661
7.79191 56.2272
7.83663 56.463
7.88135 57.3256
7.92607 58.0603
7.97081 59.2276
8.01553 60.2281
8.06026 62.2545
8.10498 63.0167
8.14971 70.8002
8.19446 70.4372
8.23919 68.9376
8.28392 71.0482
8.32865 73.3162
8.37339 77.6625
8.41812 83.6722
8.46288 103.318
8.50761 160.579
8.55235 376.247
8.59709 1187.24
8.64183 2149.0
8.68658 911.696
8.73134 158.893
8.77609 97.745
8.82083 91.5275
8.86558 90.3772
8.91033 90.0191
8.9551 89.3053
8.99985 83.9451
9.04461 83.0171
9.08936 83.1861
9.13412 82.1953
9.17888 81.4138
9.22365 81.6763
9.26841 81.4397
9.31318 82.7686
9.35794 84.1597
9.4027 83.9005
9.44749 84.0548
9.49226 84.142
9.53703 85.3124
9.5818 87.5686
9.62657 92.0844
9.67134 95.4906
9.71614 92.1011
9.76091 93.6554
9.80569 97.0652
9.85047 100.072
9.89525 114.616
9.94005 124.996
9.98484 174.098
10.0296 337.267
10.0744 828.656
10.1192 1742.96
10.164 1537.17
10.2088 399.483
10.2536 124.379
10.2984 109.875
10.3432 109.612
10.388 102.81
10.4328 117.494
10.4776 160.243
10.5224 292.512
10.5672 524.283
10.612 487.358
10.6568 197.277
10.7017 95.8477
10.7465 85.5123
10.7913 82.5371
10.8361 80.6848
10.8809 78.1933
10.9257 77.4864
10.9706 77.6113
11.0154 74.3886
11.0602 72.0459
11.105 70.9807
11.1499 72.9358
11.1947 76.2517
11.2395 70.7729
11.2844 68.5396
11.3292 66.4632
11.374 65.3355
11.4189 64.8804
11.4637 64.2205
11.5086 64.3249
11.5534 65.8967
11.5983 64.0203
11.6431 62.8916
11.688 62.2854
11.7328 62.5438
11.7777 62.1984
11.8225 62.1087
11.8674 61.7124
11.9122 62.1832
11.9571 62.2391
12.002 63.144
12.0468 67.2425
12.0917 77.3635
12.1366 102.126
12.1814 156.313
12.2263 208.394
12.2712 170.235
12.3161 92.3537
12.3609 67.6467
12.4058 63.7569
12.4507 63.54
12.4956 64.0146
12.5405 64.0276
12.5853 64.5357
12.6302 69.0429
12.6751 72.216
12.72 68.007
12.7649 67.0693
12.8098 67.7981
12.8547 69.1631
12.8996 70.4423
12.9445 71.8849
12.9894 73.4408
13.0343 75.0504
13.0792 78.4874
13.1242 88.4508
13.1691 109.625
13.214 147.816
13.2589 245.244
13.3038 381.493
13.3487 410.717
13.3937 252.941
13.4386 122.552
13.4835 104.285
13.5285 118.25
13.5734 158.701
13.6183 252.199
13.6633 356.617
13.7082 332.162
13.7531 182.062
13.7981 96.3464
13.843 81.1338
13.888 79.2918
13.9329 76.4828
13.9779 75.218
14.0228 73.7197
14.0678 72.2543
14.1127 71.9059
14.1577 71.4067
14.2027 70.6864
14.2476 69.4395
14.2926 69.5882
14.3376 69.9956
14.3825 69.3247
14.4275 67.9677
14.4725 68.1316
14.5175 68.2663
14.5624 68.2597
14.6074 69.4877
14.6524 70.1076
14.6974 69.5989
14.7424 71.8581
14.7874 77.999
14.8324 87.8881
14.8774 110.957
14.9224 157.422
14.9674 212.006
15.0124 214.033
15.0574 145.27
15.1024 89.7172
15.1474 71.5725
15.1924 69.846
15.2374 69.2151
15.2824 68.5739
15.3274 67.0093
15.3725 66.2284
15.4175 65.846
15.4625 65.5366
15.5076 65.2562
15.5526 65.4756
15.5976 65.0937
15.6426 66.4874
15.6877 71.6347
15.7327 78.9347
15.7778 95.1703
15.8228 128.455
15.8679 172.1
15.9129 189.481
15.958 150.85
16.003 93.961
16.0481 66.7572
16.0931 63.1611
16.1382 61.2279
16.1833 59.8053
16.2283 58.2874
16.2734 57.7471
16.3185 57.3332
16.3636 57.6998
16.4086 56.4173
16.4537 55.5634
16.4988 54.8944
16.5439 54.8629
16.589 54.6291
16.6341 54.351
16.6792 53.9803
16.7243 54.3236
16.7694 54.2214
16.8145 54.2988
16.8596 54.5133
16.9047 55.3473
16.9498 55.4316
16.9949 55.008
17.04 55.382
17.0851 56.5595
17.1302 58.0673
17.1754 61.1427
17.2205 66.6263
17.2656 74.4574
17.3108 81.7923
17.3559 80.5263
17.401 69.7184
17.4462 61.4486
17.4913 58.6889
17.5365 58.7302
17.5815 58.6925
17.6268 58.9332
17.6718 59.6218
17.7171 60.0983
17.7622 60.8069
17.8074 61.5714
17.8525 63.7984
17.8977 67.5618
17.9428 72.9796
17.9881 82.4444
18.0331 100.928
18.0784 122.651
18.1237 137.691
18.1688 127.516
18.214 102.066
18.2591 86.3285
18.3044 91.0694
18.3495 100.159
18.3948 104.074
18.4399 93.0303
18.4852 75.948
18.5303 65.1598
18.5756 61.4125
18.6207 60.8385
18.666 59.6936
18.7112 59.0474
18.7565 58.329
18.8016 58.0828
18.8469 57.4063
18.892 57.0785
18.9374 56.8014
18.9825 56.4545
19.0278 55.9931
19.073 56.2673
19.1183 56.79
19.1635 57.2477
19.2088 58.7907
19.254 61.7803
19.2993 66.4573
19.3447 71.6675
19.3898 74.4775
19.4352 70.485
19.4804 61.9694
19.5257 55.9729
19.5709 53.6201
19.6163 53.479
19.6615 53.0289
19.7068 52.9442
19.752 52.7077
19.7974 53.1354
19.8426 53.8943
19.888 54.4483
19.9332 55.7855
19.9786 58.4999
20.0238 62.3927
20.0692 67.1066
20.1144 69.2043
20.1598 67.4353
20.205 63.0049
20.2504 61.9897
20.2957 63.7256
20.3411 64.7676
20.3863 62.9215
20.4318 57.4102
20.477 53.091
20.5224 50.8666
20.5677 50.2474
20.6131 49.6789
20.6586 49.1751
20.7038 48.9861
20.7493 48.4496
20.7945 48.4682
20.84 48.3064
20.8853 48.2141
20.9307 48.0857
20.976 48.1186
21.0215 47.9183
21.0668 48.4707
21.1122 48.968
21.1575 49.6746
21.203 50.4573
21.2483 50.8102
21.2938 50.8151
21.3391 49.5058
21.3846 48.4349
21.4299 47.9791
21.4754 47.8255
21.5207 48.1278
21.5662 48.4455
21.6116 48.7285
21.6571 49.3416
21.7024 50.3077
21.7479 52.1266
21.7933 55.0325
21.8388 58.9092
21.8843 62.4315
21.9297 63.6583
21.9752 62.2282
22.0206 58.4914
22.0661 56.1674
22.1115 55.4713
22.157 55.1365
22.2024 53.3838
22.248 50.9095
22.2933 49.3493
22.3389 48.5134
22.3843 48.4184
22.4299 48.2184
22.4753 48.1721
22.5208 48.0842
22.5662 48.0278
22.6118 48.2664
22.6572 48.3697
22.7028 48.5347
22.7483 49.233
22.7939 50.1146
22.8393 51.5981
22.8849 53.9602
22.9303 55.8421
22.9759 56.9827
23.0214 56.506
23.067 53.6657
23.1126 50.6978
23.1581 48.6983
23.2037 48.2816
23.2492 48.3381
23.2948 48.4545
23.3403 48.6037
23.3859 49.207
23.4314 50.4703
23.477 52.4501
23.5225 54.5849
23.5682 56.5783
23.6137 57.1296
23.6593 54.6897
23.7048 50.9596
23.7505 47.7842
23.796 46.1314
23.8417 45.5989
23.8872 45.082
23.9329 44.875
23.9784 44.4715
24.0241 44.093
24.0697 44.0246
24.1154 43.6635
24.1609 43.4541
24.2066 43.3992
24.2522 43.3338
24.2979 42.9077
24.3434 42.855
24.3892 42.6778
24.4349 42.7054
24.4805 42.4387
24.5262 42.6789
24.5718 42.5404
24.6175 42.5533
24.6631 42.4136
24.7089 42.0313
24.7545 41.914
24.8002 41.9392
24.8458 41.7167
24.8916 41.6226
24.9372 41.7033
24.983 42.2245
25.0286 42.6758
25.0744 42.866
25.12 43.427
25.1658 43.8113
25.2114 44.071
25.2572 44.4099
25.3029 44.3955
25.3487 44.5655
25.3943 44.0485
25.4402 42.9739
25.4858 41.9437
25.5316 41.0518
25.5773 40.5632
25.6231 40.3308
25.669 39.979
25.7147 40.1731
25.7605 39.9997
25.8062 40.0049
25.8521 40.2178
25.8977 40.119
25.9436 40.3545
25.9893 40.5739
26.0352 41.1502
26.0809 41.1927
26.1268 41.2485
26.1725 40.9346
26.2184 40.2988
26.2641 39.967
26.31 39.6874
26.3557 39.6339
26.4017 39.6852
26.4474 40.1364
26.4933 40.3805
26.5391 40.9315
26.585 41.4811
26.6308 41.5322
26.6767 41.6588
26.7225 41.3135
26.7684 40.8396
26.8142 40.4826
26.8601 39.9103
26.9059 39.5809
26.9519 39.0036
26.9979 38.7376
27.0437 38.4705
27.0896 38.466
27.1354 38.4098
27.1814 38.2083
27.2272 38.1804
27.2732 38.2415
27.3191 38.0138
27.3651 38.1343
27.4109 37.9661
27.4569 38.1294
27.5027 38.0991
27.5488 38.2382
27.5946 38.0103
27.6407 37.7882
27.6865 37.643
27.7326 37.4058
27.7784 37.4749
27.8245 37.4037
27.8703 37.7017
27.9164 37.7693
27.9623 38.0566
28.0084 38.4541
28.0543 38.7831
28.1003 38.6706
28.1462 38.4752
28.1923 38.1814
28.2384 37.5708
28.2843 37.2495
28.3304 36.7748
28.3764 36.3312
28.4225 36.0275
28.4684 35.7748
28.5145 35.6997
28.5605 35.5979
28.6066 35.276
28.6526 35.3548
28.6987 35.3502
28.7447 35.0744
28.7908 35.1703
28.8368 35.0282
28.8829 34.9361
28.9289 35.0004
28.9751 34.8749
29.0211 34.4395
29.0673 34.3184
29.1133 34.216
29.1595 34.0246
29.2055 33.9194
29.2517 34.0378
29.2977 33.9246
29.3439 33.9004
29.3899 33.9333
29.4361 33.8646
29.4824 33.6101
29.5284 33.403
29.5746 33.0793
29.6207 32.8114
29.6669 32.7794
29.713 32.592
29.7593 32.5332
29.8053 32.5088
29.8516 32.4339
29.8977 32.3925
29.9439 32.3244
29.99 32.2116
30.0363 32.1528
30.0824 32.2906
30.1287 32.1
30.1748 32.141
30.2211 32.0805
30.2673 31.8736
30.3136 31.9793
30.3597 31.9447
30.406 31.8014
30.4522 31.6672
30.4985 31.7835
30.5447 31.8822
30.591 31.8278
30.6372 31.8782
30.6835 31.92
30.7297 31.9521
30.7761 31.8187
30.8224 31.7215
30.8686 31.5793
30.915 31.3252
30.9612 31.17
31.0076 31.0412
31.0538 30.8941
31.1002 30.7712
31.1464 30.5889
31.1928 30.6133
31.2391 30.6983
31.2855 30.5601
31.3317 30.5728
31.3781 30.5343
31.4244 30.464
31.4708 30.5215
31.5171 30.4814
31.5636 30.4581
31.6098 30.2152
31.6563 30.0653
31.7026 29.9239
31.7491 29.8284
31.7953 29.812
31.8418 29.824
31.8881 29.9388
31.9346 29.797
31.9809 29.6978
32.0275 29.6235
32.074 29.5018
32.1203 29.3189
32.1668 29.1397
32.2132 29.1045
32.2597 29.0222
32.306 28.856
32.3526 28.7166
32.399 28.6453
32.4455 28.5085
32.4919 28.4634
32.5385 28.3587
32.5848 28.0954
32.6314 28.1595
32.6778 28.2083
32.7244 28.0168
32.7708 27.8311
32.8174 27.8444
32.8638 27.7018
32.9104 27.8405
32.9569 27.8056
33.0035 27.4957
33.0499 27.6733
33.0966 27.4717
33.143 27.5509
33.1897 27.3476
33.2361 27.267
33.2828 27.3015
33.3293 27.0642
33.3759 27.1202
33.4226 26.8976
33.4691 26.8421
33.5158 26.7177
33.5623 26.6258
33.609 26.4379
33.6555 26.409
33.7022 26.2847
33.7487 26.3193
33.7954 26.1841
33.842 26.1152
33.8887 25.9675
33.9353 25.98
33.982 25.8531
34.0286 25.7954
34.0753 25.7112
34.1219 25.6487
34.1687 25.4951
34.2152 25.5857
34.262 25.3739
34.3086 25.375
34.3554 25.3046
34.402 25.0717
34.4488 25.0257
34.4954 25.0033
34.5422 24.8695
34.5889 24.8647
34.6357 24.7578
34.6825 24.6585
34.7292 24.5185
34.776 24.4824
34.8227 24.4741
34.8695 24.3932
34.9162 24.3491
34.9631 24.2148
35.0098 24.1591
35.0566 24.1711
35.1033 24.0268
35.1502 23.9628
35.1969 24.0176
35.2438 23.9714
35.2906 23.8374
35.3375 23.7882
35.3842 23.7636
35.4311 23.7481
35.4779 23.6231
35.5248 23.6038
35.5716 23.5424
35.6185 23.5211
35.6653 23.3778
35.7123 23.3285
35.759 23.2329
35.806 23.0432
35.8528 22.9992
35.8998 22.9786
35.9468 22.9058
35.9936 22.9088
36.0406 22.8439
36.0874 22.8128
36.1345 22.6205
36.1813 22.5533
36.2283 22.4963
36.2752 22.3677
36.3222 22.4636
36.3691 22.3141
36.4161 22.1863
36.463 22.2453
36.5101 22.1862
36.557 22.0794
36.6041 21.9735
36.651 21.9338
36.6981 21.8425
36.745 21.8144
36.7921 21.7412
36.839 21.6021
36.8861 21.5755
36.9331 21.5666
36.9802 21.4211
37.0272 21.3472
37.0743 21.2071
37.1213 21.2065
37.1684 21.1876
37.2154 21.0867
37.2626 21.0276
37.3098 20.9739
37.3568 20.9142
37.404 20.9043
37.451 20.7388
37.4982 20.7125
37.5452 20.6361
37.5924 20.5336
37.6395 20.6001
37.6867 20.5564
37.7337 20.399
37.781 20.2838
37.8281 20.277
37.8753 20.1521
37.9224 20.1711
37.9697 20.0634
38.0168 19.9885
38.064 19.9593
38.1111 19.8913
38.1584 19.8364
38.2056 19.7108
38.2529 19.6853
38.3 19.6112
38.3473 19.6459
38.3945 19.5138
38.4418 19.4459
38.489 19.4339
38.5363 19.3523
38.5837 19.2679
38.6309 19.1792
38.6782 19.1804
38.7254 19.0692
38.7728 18.9864
38.82 18.9423
38.8674 18.9499
38.9146 18.8395
38.9621 18.7579
39.0093 18.7693
39.0567 18.6456
39.104 18.5579
39.1514 18.5471
39.1987 18.5039
39.2461 18.4175
39.2934 18.393
39.3409 18.2486
39.3882 18.2003
39.4356 18.1971
39.483 18.1205
39.5304 18.0827
39.5778 18.0145
39.6253 17.9901
39.6726 17.856
39.7201 17.8498
39.7675 17.8038
39.815 17.8201
39.8624 17.7213
39.9099 17.6852
39.9575 17.5242
40.0049 17.5088
40.0525 17.4995
40.0999 17.3551
40.1474 17.376
40.1949 17.2697
40.2425 17.2053
40.2899 17.184
40.3375 17.1038
40.385 17.0727
40.4326 16.9863
40.48 16.9277
40.5277 16.9345
40.5752 16.8894
40.6228 16.7548
40.6703 16.7536
40.718 16.7285
40.7655 16.6754
40.8132 16.5491
40.8607 16.5401
40.9084 16.5155
40.9559 16.4633
41.0036 16.4044
41.0512 16.3036
41.0989 16.3423
41.1465 16.244
41.1942 16.1922
41.242 16.0683
41.2896 16.0402
41.3373 15.9667
41.3849 15.91
41.4327 15.9029
41.4803 15.8157
41.5281 15.7776
41.5758 15.7247
41.6236 15.6518
41.6712 15.5917
41.7191 15.5313
41.7667 15.5255
41.8146 15.497
41.8622 15.4121
41.9101 15.3827
41.9578 15.2746
42.0057 15.2564
42.0534 15.2325
42.1013 15.1294
42.149 15.085
42.1969 15.0674
42.2446 15.0024
42.2925 14.9794
42.3403 14.899
42.3882 14.8794
42.436 14.8032
42.4839 14.772
42.5319 14.7225
42.5797 14.6615
42.6277 14.6346
42.6755 14.5859
42.7235 14.5087
42.7713 14.4784
42.8193 14.3758
42.8671 14.3607
42.9152 14.3308
42.963 14.2839
43.0111 14.1719
43.0589 14.1976
43.107 14.1248
43.1549 14.0812
43.2029 13.9984
43.2508 14.0248
43.2989 13.9215
43.3468 13.8616
43.3949 13.8182
43.4429 13.8234
43.491 13.7093
43.5389 13.7025
43.5871 13.6558
43.635 13.6106
43.6832 13.5748
43.7312 13.4633
43.7793 13.4368
43.8273 13.4146
43.8755 13.3488
43.9237 13.2897
43.9717 13.2922
44.0199 13.181
44.068 13.1825
44.1162 13.1398
44.1642 13.137
44.2125 13.0515
44.2606 12.9834
44.3088 12.9698
44.3569 12.9403
44.4052 12.8875
44.4533 12.7951
44.5016 12.7653
44.5497 12.6972
44.598 12.7426
44.6461 12.6927
44.6945 12.6074
44.7426 12.5471
44.791 12.5094
44.8391 12.4687
44.8875 12.4395
44.9357 12.3647
44.984 12.3158
45.0322 12.2702
45.0806 12.2453
45.1288 12.2402
45.1773 12.1619
45.2257 12.1251
45.2739 12.0397
45.3224 11.9827
45.3706 11.985
45.4191 11.9481
45.4673 11.972
45.5158 11.8908
45.5641 11.8105
45.6126 11.7672
45.6609 11.7143
45.7094 11.7084
45.7577 11.7168
45.8063 11.5975
45.8546 11.578
45.9031 11.4791
45.9515 11.4962
46.0001 11.4767
46.0484 11.4136
46.097 11.3784
46.1454 11.3191
46.194 11.2978
46.2424 11.2168
46.291 11.2115
46.3395 11.1693
46.3881 11.1352
46.4365 11.0906
46.4852 11.0211
46.5337 10.9592
46.5823 10.9487
46.631 10.9492
46.6795 10.8717
46.7282 10.8553
46.7767 10.8539
46.8254 10.7547
46.8739 10.7412
46.9226 10.6938
46.9712 10.64
47.0199 10.6271
47.0685 10.5281
47.1173 10.5299
47.1658 10.4599
47.2146 10.4724
47.2632 10.3767
47.312 10.3342
47.3606 10.3514
47.4095 10.3061
47.4581 10.2329
47.5069 10.2344
47.5556 10.1384
47.6044 10.1261
47.6531 10.0829
47.702 10.0434
47.7507 10.0112
47.7996 9.97642
47.8483 9.95753
47.8972 9.93947
47.9461 9.91296
47.9948 9.85864
48.0438 9.8199
48.0925 9.81892
48.1415 9.74563
48.1902 9.69423
48.2392 9.68151
48.288 9.63603
48.337 9.59362
48.3858 9.5946
48.4348 9.52351
48.4837 9.51354
48.5327 9.48454
48.5815 9.43831
48.6306 9.38184
48.6795 9.36903
48.7285 9.34947
48.7774 9.29797
48.8265 9.25697
48.8754 9.20531
48.9245 9.19241
48.9734 9.14717
49.0226 9.14406
49.0715 9.0855
49.1206 9.02234
49.1696 8.97453
49.2188 8.97394
49.2679 8.93669
49.3169 8.86618
49.3661 8.89434
49.4151 8.81684
49.4643 8.84848
49.5134 8.77208
49.5626 8.68088
49.6117 8.73847
49.6609 8.68852
49.71 8.62016
49.7592 8.59387
49.8083 8.52549
49.8576 8.54182
49.9067 8.49828
49.956 8.49665
50.0052 8.42165
50.0545 8.42936
50.1036 8.40366
50.153 8.32733
50.2022 8.33323
50.2515 8.31626
50.3007 8.27874
50.3501 8.20134
50.3993 8.22889
50.4487 8.1407
50.498 8.15697
50.5474 8.09304
50.5966 8.06519
50.6461 8.01773
50.6955 8.02311
50.7448 7.98394
50.7943 7.91272
50.8436 7.92545
50.8931 7.89977
50.9424 7.8444
50.9919 7.83028
51.0413 7.78471
51.0908 7.76073
51.1402 7.71758
51.1897 7.69124
51.2391 7.67468
51.2887 7.64324
51.3381 7.57681
51.3877 7.58728
51.4371 7.51362
51.4867 7.48451
51.5362 7.48226
51.5858 7.41331
51.6353 7.35741
51.6849 7.41329
51.7344 7.3473
51.7841 7.32905
51.8336 7.27145
51.8833 7.25304
51.9328 7.19953
51.9826 7.19808
52.0323 7.19374
52.0818 7.13839
52.1316 7.09167
52.1812 7.10044
52.231 7.00939
52.2806 7.01382
52.3304 6.96883
52.38 6.98448
52.4298 6.92826
52.4794 6.9137
52.5293 6.86813
52.5789 6.8202
52.6288 6.82129
52.6785 6.78808
52.7284 6.74948
52.7781 6.71381
52.828 6.692
52.8777 6.69544
52.9276 6.6239
52.9774 6.61552
53.0273 6.59867
53.0771 6.58481
53.1271 6.53569
53.1769 6.49379
53.2269 6.48019
53.2767 6.44697
53.3267 6.45152
53.3765 6.42672
53.4266 6.37689
53.4766 6.36214
53.5265 6.34292
53.5765 6.25123
53.6264 6.27056
53.6765 6.25562
53.7264 6.1594
53.7765 6.19878
53.8265 6.18451
53.8766 6.10512
53.9266 6.09868
53.9767 6.0479
54.0267 6.05429
54.0769 6.00584
54.1269 5.99249
54.1771 5.99877
54.2271 5.93935
54.2773 5.9125
54.3274 5.88848
54.3776 5.83127
54.4277 5.79339
54.478 5.76726
54.528 5.69618
54.5783 5.75387
54.6285 5.69439
54.6788 5.62005
54.7289 5.55043
54.7792 5.52843
54.8296 5.49951
54.8798 5.4242
54.9301 5.42499
54.9803 5.44265
55.0307 5.38705
55.0809 5.29411
55.1314 5.30057
55.1816 5.25775
55.232 5.15656
55.2823 5.13921
55.3328 5.08954
55.383 5.02015
55.4335 5.03425
55.4838 4.97305
55.5344 4.91506
55.5847 4.90088
55.6352 4.85186
55.6856 4.79176
55.7361 4.74657