File: XRD/Ni3Fe_FD0778.xy
TT I
1.27165 7.11134
1.31627 6.77287
1.36089 6.33303
1.40551 5.82326
1.45013 5.95024
1.49476 5.92158
1.53938 5.70482
1.584 5.81485
1.62863 5.86822
1.67325 5.59672
1.71787 4.74239
1.7625 5.08221
1.80712 5.05716
1.85174 4.76993
1.89636 4.37752
1.94099 5.30244
1.98562 5.2588
2.03025 4.41152
2.07487 4.47048
2.11949 4.81729
2.16411 4.99244
2.20874 13.602
2.25338 21.7741
2.298 5.68312
2.34263 5.40742
2.38725 5.69037
2.43188 5.87673
2.4765 6.27267
2.52115 6.93822
2.56577 7.60118
2.6104 8.20938
2.65503 8.39132
2.69965 8.4016
2.7443 8.14948
2.78893 7.82279
2.83356 8.66351
2.87818 8.99622
2.92281 8.82375
2.96744 9.13929
3.01209 10.2269
3.05672 11.3293
3.10135 12.2265
3.14599 12.5625
3.19062 14.1674
3.23527 14.8836
3.2799 15.8186
3.32454 16.7145
3.36917 17.9439
3.4138 19.0957
3.45844 19.5839
3.50309 20.5364
3.54773 21.6268
3.59237 23.9117
3.637 86.2577
3.68164 54.9862
3.7263 26.3759
3.77094 26.0246
3.81558 26.5894
3.86022 27.3838
3.90486 28.3813
3.9495 29.4912
3.99416 30.888
4.0388 32.062
4.08344 33.5011
4.12809 35.048
4.17273 36.8707
4.21738 41.746
4.26204 224.823
4.30669 197.33
4.35133 47.2729
4.39598 44.0911
4.44063 52.746
4.4853 63.248
4.52995 49.6574
4.5746 50.8556
4.61925 53.1147
4.6639 54.7011
4.70855 57.3485
4.75322 60.6951
4.79788 63.2669
4.84253 66.6793
4.88719 70.6488
4.93184 74.6061
4.97652 80.0819
5.02118 85.6886
5.06583 93.2453
5.11049 104.617
5.15515 166.879
5.19981 317.679
5.24449 2684.07
5.28916 13063.9
5.33382 2711.72
5.37848 177.663
5.42315 125.444
5.46783 110.978
5.5125 104.119
5.55716 100.575
5.60183 96.8775
5.6465 95.254
5.69117 93.0016
5.73586 90.9394
5.78053 89.7367
5.8252 89.6097
5.86988 90.048
5.91455 92.9132
5.95924 100.67
6.00392 193.516
6.0486 913.621
6.09328 4432.05
6.13795 3080.67
6.18263 209.596
6.22733 89.7882
6.27201 80.9483
6.3167 97.7407
6.36138 78.3194
6.40606 67.977
6.45075 66.335
6.49545 64.6221
6.54014 63.2432
6.58483 62.4304
6.62952 62.0181
6.67421 89.9197
6.71892 134.301
6.76361 67.1624
6.8083 57.9682
6.853 56.9724
6.89769 55.9961
6.94239 56.1748
6.98711 54.9326
7.03181 55.0135
7.07651 54.7548
7.12121 54.4677
7.16591 54.5479
7.21063 54.859
7.25533 68.7012
7.30004 164.098
7.34475 86.9783
7.38945 55.4694
7.43416 54.1343
7.47889 53.9342
7.5236 54.2088
7.56831 55.0021
7.61303 55.9212
7.65774 56.5474
7.70247 55.7266
7.74719 55.539
7.79191 56.1234
7.83663 56.4056
7.88135 57.3449
7.92607 58.152
7.97081 59.042
8.01553 60.4158
8.06026 61.3908
8.10498 62.8167
8.14971 71.4479
8.19446 70.9975
8.23919 68.5566
8.28392 71.0116
8.32865 73.3161
8.37339 77.3748
8.41812 84.1753
8.46288 110.025
8.50761 156.766
8.55235 363.596
8.59709 1182.29
8.64183 2236.96
8.68658 869.59
8.73134 148.783
8.77609 96.8851
8.82083 91.1715
8.86558 88.1522
8.91033 88.3393
8.9551 90.1224
8.99985 84.2954
9.04461 82.243
9.08936 81.7139
9.13412 81.1273
9.17888 81.0508
9.22365 81.6006
9.26841 80.7639
9.31318 81.4749
9.35794 81.8909
9.4027 82.2514
9.44749 83.2195
9.49226 83.8721
9.53703 84.7483
9.5818 86.2008
9.62657 90.523
9.67134 96.4492
9.71614 92.3061
9.76091 92.7015
9.80569 94.8438
9.85047 98.6958
9.89525 120.635
9.94005 132.885
9.98484 166.539
10.0296 323.242
10.0744 796.006
10.1192 1795.2
10.164 1536.07
10.2088 352.295
10.2536 121.266
10.2984 111.168
10.3432 112.152
10.388 102.985
10.4328 114.732
10.4776 154.614
10.5224 280.085
10.5672 535.611
10.612 491.292
10.6568 196.074
10.7017 93.7723
10.7465 85.6504
10.7913 82.2251
10.8361 80.1468
10.8809 77.7573
10.9257 76.9364
10.9706 77.6891
11.0154 73.9434
11.0602 71.8742
11.105 70.8845
11.1499 74.8522
11.1947 81.3802
11.2395 73.1749
11.2844 69.1373
11.3292 66.2717
11.374 65.4412
11.4189 64.6786
11.4637 64.3007
11.5086 64.5914
11.5534 66.9038
11.5983 64.5832
11.6431 63.0696
11.688 62.3791
11.7328 62.2244
11.7777 62.2341
11.8225 61.9619
11.8674 61.509
11.9122 62.2854
11.9571 61.9709
12.002 62.7895
12.0468 66.2122
12.0917 76.9552
12.1366 100.557
12.1814 157.232
12.2263 215.254
12.2712 168.337
12.3161 91.0229
12.3609 68.966
12.4058 63.9294
12.4507 63.3785
12.4956 63.4069
12.5405 63.5835
12.5853 64.8546
12.6302 71.645
12.6751 76.7245
12.72 69.0277
12.7649 66.8216
12.8098 67.4379
12.8547 68.8542
12.8996 70.1521
12.9445 71.4195
12.9894 73.1358
13.0343 75.0636
13.0792 78.0627
13.1242 86.0788
13.1691 108.672
13.214 144.447
13.2589 237.746
13.3038 385.573
13.3487 428.915
13.3937 249.153
13.4386 117.805
13.4835 102.409
13.5285 116.794
13.5734 154.476
13.6183 251.07
13.6633 358.75
13.7082 337.898
13.7531 174.062
13.7981 93.1702
13.843 80.4562
13.888 78.3026
13.9329 75.9299
13.9779 74.8959
14.0228 73.5866
14.0678 72.2166
14.1127 71.6159
14.1577 71.3864
14.2027 70.4521
14.2476 69.5327
14.2926 69.7959
14.3376 70.5623
14.3825 69.329
14.4275 68.0754
14.4725 67.6525
14.5175 67.9972
14.5624 68.4284
14.6074 70.088
14.6524 70.6731
14.6974 69.7398
14.7424 70.8195
14.7874 77.0201
14.8324 87.032
14.8774 108.588
14.9224 154.768
14.9674 215.477
15.0124 218.981
15.0574 144.294
15.1024 87.9181
15.1474 71.3221
15.1924 69.6707
15.2374 69.9558
15.2824 69.1219
15.3274 67.3084
15.3725 66.0726
15.4175 65.6405
15.4625 65.1519
15.5076 65.4854
15.5526 65.3336
15.5976 64.8691
15.6426 65.6972
15.6877 70.6878
15.7327 78.181
15.7778 92.6092
15.8228 125.652
15.8679 174.71
15.9129 197.498
15.958 150.872
16.003 91.3399
16.0481 66.251
16.0931 63.7314
16.1382 61.9358
16.1833 59.7049
16.2283 58.1596
16.2734 57.6619
16.3185 58.0356
16.3636 58.5582
16.4086 57.1021
16.4537 55.5229
16.4988 54.9415
16.5439 54.8622
16.589 54.5323
16.6341 54.197
16.6792 53.8068
16.7243 54.1474
16.7694 54.3045
16.8145 54.1006
16.8596 54.5724
16.9047 56.0499
16.9498 56.2081
16.9949 54.9161
17.04 55.093
17.0851 56.24
17.1302 57.953
17.1754 60.9508
17.2205 66.1802
17.2656 74.9375
17.3108 83.2893
17.3559 81.3173
17.401 68.5034
17.4462 60.6172
17.4913 58.3424
17.5365 58.5203
17.5815 58.7557
17.6268 58.931
17.6718 59.651
17.7171 60.3044
17.7622 60.8481
17.8074 61.3763
17.8525 63.1456
17.8977 67.1664
17.9428 72.5668
17.9881 81.1691
18.0331 99.6585
18.0784 124.052
18.1237 142.009
18.1688 127.613
18.214 99.5207
18.2591 84.2352
18.3044 90.0093
18.3495 101.896
18.3948 106.556
18.4399 93.4811
18.4852 75.0193
18.5303 64.681
18.5756 61.3547
18.6207 60.5614
18.666 59.5795
18.7112 59.009
18.7565 58.1878
18.8016 57.8318
18.8469 57.3248
18.892 57.0422
18.9374 56.4284
18.9825 56.4908
19.0278 56.1368
19.073 56.1757
19.1183 56.6452
19.1635 57.5055
19.2088 58.7911
19.254 61.3273
19.2993 66.193
19.3447 72.938
19.3898 76.4418
19.4352 70.9734
19.4804 61.7807
19.5257 56.04
19.5709 53.3185
19.6163 53.2085
19.6615 53.2089
19.7068 52.707
19.752 52.7703
19.7974 52.8932
19.8426 53.6933
19.888 54.2558
19.9332 55.6874
19.9786 58.0416
20.0238 62.1664
20.0692 67.3552
20.1144 69.6401
20.1598 66.8685
20.205 62.383
20.2504 61.3153
20.2957 63.951
20.3411 65.6701
20.3863 63.3481
20.4318 56.9399
20.477 52.7493
20.5224 50.9153
20.5677 50.4756
20.6131 49.661
20.6586 48.9739
20.7038 48.9529
20.7493 48.4987
20.7945 48.2799
20.84 48.308
20.8853 48.2499
20.9307 47.8833
20.976 48.1376
21.0215 48.0765
21.0668 48.5265
21.1122 48.7727
21.1575 49.7021
21.203 50.4261
21.2483 51.0893
21.2938 50.9186
21.3391 49.4098
21.3846 48.4441
21.4299 47.7254
21.4754 47.9156
21.5207 48.0961
21.5662 48.2447
21.6116 48.7028
21.6571 49.1388
21.7024 50.3384
21.7479 51.942
21.7933 54.719
21.8388 58.679
21.8843 62.761
21.9297 64.2047
21.9752 61.9646
22.0206 58.2523
22.0661 55.8799
22.1115 55.7137
22.157 55.4603
22.2024 53.378
22.248 50.5368
22.2933 49.1811
22.3389 48.5223
22.3843 48.4091
22.4299 48.2419
22.4753 48.1834
22.5208 48.0655
22.5662 47.9111
22.6118 48.0422
22.6572 48.3556
22.7028 48.6544
22.7483 49.0404
22.7939 49.7548
22.8393 51.4268
22.8849 53.7899
22.9303 56.0894
22.9759 57.5948
23.0214 56.7642
23.067 53.7345
23.1126 50.3058
23.1581 48.4446
23.2037 48.2052
23.2492 48.3208
23.2948 48.2092
23.3403 48.6001
23.3859 49.2276
23.4314 50.3869
23.477 52.2056
23.5225 54.6688
23.5682 56.9106
23.6137 57.6395
23.6593 54.632
23.7048 50.4283
23.7505 47.5194
23.796 45.9795
23.8417 45.3933
23.8872 45.0097
23.9329 44.7735
23.9784 44.2824
24.0241 44.1269
24.0697 43.9053
24.1154 43.6281
24.1609 43.6304
24.2066 43.3516
24.2522 43.3592
24.2979 42.9527
24.3434 42.7225
24.3892 42.5878
24.4349 42.5359
24.4805 42.4077
24.5262 42.6463
24.5718 42.4308
24.6175 42.4159
24.6631 42.2578
24.7089 41.9964
24.7545 42.0815
24.8002 41.7632
24.8458 41.707
24.8916 41.6004
24.9372 41.7397
24.983 42.0542
25.0286 42.418
25.0744 42.9254
25.12 43.4336
25.1658 43.8095
25.2114 44.2564
25.2572 44.38
25.3029 44.3909
25.3487 44.5971
25.3943 44.2104
25.4402 42.9687
25.4858 41.8881
25.5316 40.9725
25.5773 40.4928
25.6231 40.564
25.669 40.0847
25.7147 40.119
25.7605 39.9596
25.8062 40.0436
25.8521 40.1539
25.8977 40.1562
25.9436 40.4974
25.9893 40.5772
26.0352 41.2017
26.0809 41.1092
26.1268 41.2946
26.1725 40.8253
26.2184 40.3136
26.2641 39.6904
26.31 39.5508
26.3557 39.7354
26.4017 39.5534
26.4474 40.0949
26.4933 40.3669
26.5391 40.8142
26.585 41.3364
26.6308 41.7777
26.6767 41.7538
26.7225 41.5199
26.7684 40.9249
26.8142 40.3603
26.8601 39.9296
26.9059 39.5307
26.9519 38.949
26.9979 38.7951
27.0437 38.4613
27.0896 38.2753
27.1354 38.2216
27.1814 38.3128
27.2272 38.174
27.2732 38.1784
27.3191 37.8658
27.3651 37.9734
27.4109 38.0328
27.4569 38.1649
27.5027 38.169
27.5488 38.2174
27.5946 38.0402
27.6407 37.6557
27.6865 37.7045
27.7326 37.465
27.7784 37.5128
27.8245 37.4049
27.8703 37.5644
27.9164 38.0247
27.9623 38.0482
28.0084 38.5084
28.0543 38.8194
28.1003 38.7414
28.1462 38.3625
28.1923 38.0014
28.2384 37.595
28.2843 37.2078
28.3304 36.6816
28.3764 36.2546
28.4225 35.9246
28.4684 35.8581
28.5145 35.4746
28.5605 35.5342
28.6066 35.254
28.6526 35.3643
28.6987 35.2254
28.7447 35.1808
28.7908 35.0875
28.8368 35.101
28.8829 35.0242
28.9289 34.963
28.9751 34.8606
29.0211 34.4275
29.0673 34.2838
29.1133 34.2144
29.1595 34.0034
29.2055 34.0431
29.2517 33.9554
29.2977 33.9552
29.3439 34.0397
29.3899 33.9607
29.4361 33.6801
29.4824 33.5316
29.5284 33.372
29.5746 32.9971
29.6207 32.9142
29.6669 32.7992
29.713 32.6379
29.7593 32.4748
29.8053 32.4686
29.8516 32.4524
29.8977 32.3969
29.9439 32.3504
29.99 32.2398
30.0363 32.1313
30.0824 32.2692
30.1287 32.2024
30.1748 32.2074
30.2211 32.1102
30.2673 31.9091
30.3136 32.0491
30.3597 31.866
30.406 31.7856
30.4522 31.7526
30.4985 31.7908
30.5447 31.8036
30.591 31.8725
30.6372 31.9553
30.6835 31.9688
30.7297 31.8941
30.7761 31.8061
30.8224 31.7112
30.8686 31.4587
30.915 31.3105
30.9612 31.2193
31.0076 31.0637
31.0538 30.7575
31.1002 30.7697
31.1464 30.6004
31.1928 30.624
31.2391 30.6966
31.2855 30.5657
31.3317 30.4953
31.3781 30.6533
31.4244 30.606
31.4708 30.4651
31.5171 30.5234
31.5636 30.5238
31.6098 30.226
31.6563 29.9135
31.7026 29.9184
31.7491 29.7038
31.7953 29.7861
31.8418 29.8952
31.8881 29.9149
31.9346 29.936
31.9809 29.7481
32.0275 29.5802
32.074 29.6235
32.1203 29.3366
32.1668 29.2151
32.2132 29.1385
32.2597 28.9973
32.306 28.9199
32.3526 28.6387
32.399 28.6478
32.4455 28.5056
32.4919 28.4163
32.5385 28.2481
32.5848 28.1686
32.6314 28.2584
32.6778 28.1469
32.7244 27.9814
32.7708 27.854
32.8174 27.9009
32.8638 27.7654
32.9104 27.8115
32.9569 27.8311
33.0035 27.5611
33.0499 27.5661
33.0966 27.5483
33.143 27.488
33.1897 27.3063
33.2361 27.3051
33.2828 27.3184
33.3293 27.2375
33.3759 27.0596
33.4226 26.9717
33.4691 26.7904
33.5158 26.7152
33.5623 26.6084
33.609 26.5338
33.6555 26.4445
33.7022 26.2478
33.7487 26.3003
33.7954 26.2336
33.842 26.1691
33.8887 26.2012
33.9353 26.0172
33.982 25.8572
34.0286 25.7897
34.0753 25.6599
34.1219 25.6432
34.1687 25.537
34.2152 25.4865
34.262 25.3727
34.3086 25.3566
34.3554 25.2679
34.402 25.1548
34.4488 25.0386
34.4954 24.9654
34.5422 24.9228
34.5889 24.8383
34.6357 24.6901
34.6825 24.6651
34.7292 24.6204
34.776 24.5047
34.8227 24.4233
34.8695 24.3742
34.9162 24.384
34.9631 24.2347
35.0098 24.2114
35.0566 24.0991
35.1033 24.0402
35.1502 24.0576
35.1969 24.0003
35.2438 23.8319
35.2906 23.9168
35.3375 23.8655
35.3842 23.7254
35.4311 23.7372
35.4779 23.6597
35.5248 23.6786
35.5716 23.5219
35.6185 23.4437
35.6653 23.4132
35.7123 23.3531
35.759 23.2171
35.806 23.1432
35.8528 23.0523
35.8998 22.8899
35.9468 22.9181
35.9936 22.8709
36.0406 22.7191
36.0874 22.7764
36.1345 22.6766
36.1813 22.5732
36.2283 22.4868
36.2752 22.4093
36.3222 22.4178
36.3691 22.3426
36.4161 22.2213
36.463 22.2053
36.5101 22.1441
36.557 22.065
36.6041 21.9404
36.651 21.9856
36.6981 21.9221
36.745 21.854
36.7921 21.7418
36.839 21.641
36.8861 21.5692
36.9331 21.444
36.9802 21.4265
37.0272 21.3843
37.0743 21.3079
37.1213 21.2239
37.1684 21.2169
37.2154 21.0907
37.2626 21.027
37.3098 21.0215
37.3568 20.9365
37.404 20.9062
37.451 20.7862
37.4982 20.6862
37.5452 20.6658
37.5924 20.581
37.6395 20.5928
37.6867 20.4959
37.7337 20.4399
37.781 20.3286
37.8281 20.2719
37.8753 20.1597
37.9224 20.1194
37.9697 20.0503
38.0168 20.0364
38.064 19.8897
38.1111 19.9372
38.1584 19.7591
38.2056 19.8085
38.2529 19.7057
38.3 19.6091
38.3473 19.5881
38.3945 19.4489
38.4418 19.4848
38.489 19.4071
38.5363 19.3328
38.5837 19.3119
38.6309 19.2499
38.6782 19.0997
38.7254 19.0605
38.7728 19.046
38.82 18.926
38.8674 18.935
38.9146 18.8907
38.9621 18.7599
39.0093 18.684
39.0567 18.6237
39.104 18.5706
39.1514 18.5021
39.1987 18.4977
39.2461 18.4826
39.2934 18.3578
39.3409 18.3012
39.3882 18.1459
39.4356 18.2167
39.483 18.0857
39.5304 18.0435
39.5778 18.0402
39.6253 17.9861
39.6726 17.9405
39.7201 17.8794
39.7675 17.7925
39.815 17.8058
39.8624 17.6746
39.9099 17.6935
39.9575 17.5223
40.0049 17.5245
40.0525 17.4734
40.0999 17.4041
40.1474 17.4034
40.1949 17.3085
40.2425 17.227
40.2899 17.1769
40.3375 17.1658
40.385 17.0706
40.4326 16.9814
40.48 16.9203
40.5277 16.9766
40.5752 16.8084
40.6228 16.7979
40.6703 16.7146
40.718 16.7075
40.7655 16.6528
40.8132 16.5576
40.8607 16.551
40.9084 16.4749
40.9559 16.4528
41.0036 16.4728
41.0512 16.3642
41.0989 16.2885
41.1465 16.1935
41.1942 16.1416
41.242 16.1321
41.2896 16.0858
41.3373 16.0092
41.3849 15.9191
41.4327 15.9002
41.4803 15.8437
41.5281 15.8076
41.5758 15.7723
41.6236 15.6723
41.6712 15.6523
41.7191 15.5789
41.7667 15.5357
41.8146 15.5041
41.8622 15.3889
41.9101 15.395
41.9578 15.2644
42.0057 15.2395
42.0534 15.2382
42.1013 15.1311
42.149 15.16
42.1969 15.0727
42.2446 15.0506
42.2925 14.9908
42.3403 14.9022
42.3882 14.8875
42.436 14.8604
42.4839 14.7903
42.5319 14.7046
42.5797 14.6324
42.6277 14.6403
42.6755 14.6103
42.7235 14.5159
42.7713 14.4523
42.8193 14.3904
42.8671 14.3973
42.9152 14.2815
42.963 14.2925
43.0111 14.218
43.0589 14.148
43.107 14.1576
43.1549 14.1073
43.2029 13.9863
43.2508 13.9946
43.2989 13.9324
43.3468 13.8864
43.3949 13.8616
43.4429 13.8566
43.491 13.7543
43.5389 13.7028
43.5871 13.6733
43.635 13.6309
43.6832 13.5476
43.7312 13.5001
43.7793 13.3903
43.8273 13.469
43.8755 13.3654
43.9237 13.3189
43.9717 13.2843
44.0199 13.248
44.068 13.1822
44.1162 13.1337
44.1642 13.1292
44.2125 13.0842
44.2606 13.0064
44.3088 12.9463
44.3569 12.8747
44.4052 12.8751
44.4533 12.851
44.5016 12.7431
44.5497 12.758
44.598 12.7264
44.6461 12.6428
44.6945 12.6034
44.7426 12.552
44.791 12.4761
44.8391 12.4937
44.8875 12.4345
44.9357 12.3868
44.984 12.3156
45.0322 12.2661
45.0806 12.2473
45.1288 12.2212
45.1773 12.2148
45.2257 12.1632
45.2739 12.0522
45.3224 12.0411
45.3706 12.0268
45.4191 11.9262
45.4673 11.941
45.5158 11.8859
45.5641 11.831
45.6126 11.8129
45.6609 11.7242
45.7094 11.6813
45.7577 11.6579
45.8063 11.6154
45.8546 11.577
45.9031 11.5771
45.9515 11.5316
46.0001 11.4529
46.0484 11.3973
46.097 11.3582
46.1454 11.3337
46.194 11.3066
46.2424 11.2805
46.291 11.2073
46.3395 11.1982
46.3881 11.1188
46.4365 11.1056
46.4852 11.0532
46.5337 10.9968
46.5823 10.9589
46.631 10.9327
46.6795 10.8685
46.7282 10.8643
46.7767 10.8553
46.8254 10.782
46.8739 10.7235
46.9226 10.7129
46.9712 10.5917
47.0199 10.6271
47.0685 10.5835
47.1173 10.5065
47.1658 10.4665
47.2146 10.496
47.2632 10.3879
47.312 10.4107
47.3606 10.3569
47.4095 10.2859
47.4581 10.3285
47.5069 10.2067
47.5556 10.1674
47.6044 10.1467
47.6531 10.0742
47.702 10.0554
47.7507 10.0678
47.7996 9.99634
47.8483 9.99814
47.8972 9.93793
47.9461 9.86677
47.9948 9.83356
48.0438 9.79334
48.0925 9.80691
48.1415 9.76067
48.1902 9.6657
48.2392 9.71133
48.288 9.68847
48.337 9.59034
48.3858 9.59115
48.4348 9.5104
48.4837 9.518
48.5327 9.49612
48.5815 9.45756
48.6306 9.40041
48.6795 9.37252
48.7285 9.32766
48.7774 9.26388
48.8265 9.27705
48.8754 9.24076
48.9245 9.22212
48.9734 9.14421
49.0226 9.13019
49.0715 9.06298
49.1206 9.0654
49.1696 9.03487
49.2188 8.96218
49.2679 8.95499
49.3169 8.9259
49.3661 8.88682
49.4151 8.84765
49.4643 8.8201
49.5134 8.83451
49.5626 8.71321
49.6117 8.70283
49.6609 8.69655
49.71 8.63099
49.7592 8.62063
49.8083 8.57103
49.8576 8.56223
49.9067 8.49655
49.956 8.48911
50.0052 8.44748
50.0545 8.46013
50.1036 8.39608
50.153 8.36138
50.2022 8.33279
50.2515 8.29023
50.3007 8.22923
50.3501 8.19264
50.3993 8.18113
50.4487 8.18188
50.498 8.15521
50.5474 8.11499
50.5966 8.08693
50.6461 8.03968
50.6955 8.01085
50.7448 7.95709
50.7943 7.94469
50.8436 7.90489
50.8931 7.89266
50.9424 7.8511
50.9919 7.81328
51.0413 7.80766
51.0908 7.76209
51.1402 7.73512
51.1897 7.68478
51.2391 7.67059
51.2887 7.62873
51.3381 7.58896
51.3877 7.60309
51.4371 7.52189
51.4867 7.477
51.5362 7.49486
51.5858 7.43453
51.6353 7.42955
51.6849 7.39435
51.7344 7.35384
51.7841 7.32162
51.8336 7.30016
51.8833 7.26221
51.9328 7.2634
51.9826 7.1811
52.0323 7.1851
52.0818 7.16605
52.1316 7.11172
52.1812 7.11921
52.231 7.05343
52.2806 7.01562
52.3304 7.00191
52.38 6.96195
52.4298 6.97741
52.4794 6.91591
52.5293 6.91257
52.5789 6.83583
52.6288 6.84716
52.6785 6.78102
52.7284 6.77092
52.7781 6.78167
52.828 6.70818
52.8777 6.68706
52.9276 6.64286
52.9774 6.61462
53.0273 6.59555
53.0771 6.59429
53.1271 6.58361
53.1769 6.4893
53.2269 6.52459
53.2767 6.47857
53.3267 6.43539
53.3765 6.38012
53.4266 6.38421
53.4766 6.38301
53.5265 6.31159
53.5765 6.34065
53.6264 6.22588
53.6765 6.23839
53.7264 6.23177
53.7765 6.21137
53.8265 6.18642
53.8766 6.13814
53.9266 6.12663
53.9767 6.09383
54.0267 6.08633
54.0769 6.04906
54.1269 6.01403
54.1771 5.97755
54.2271 5.94107
54.2773 5.90647
54.3274 5.89717
54.3776 5.84017
54.4277 5.81683
54.478 5.7706
54.528 5.73898
54.5783 5.69532
54.6285 5.68815
54.6788 5.63877
54.7289 5.55984
54.7792 5.55219
54.8296 5.48947
54.8798 5.45795
54.9301 5.43678
54.9803 5.40624
55.0307 5.38231
55.0809 5.31053
55.1314 5.32267
55.1816 5.21205
55.232 5.18898
55.2823 5.18263
55.3328 5.0703
55.383 5.04215
55.4335 5.00354
55.4838 4.94273
55.5344 4.89702
55.5847 4.86919
55.6352 4.83161
55.6856 4.81007
55.7361 4.78979