File: XRD/Ni3Fe_FD0316.xy
TT I
1.27165 7.57486
1.31627 6.8023
1.36089 6.83382
1.40551 6.67344
1.45013 6.12116
1.49476 6.18938
1.53938 5.62459
1.584 5.5631
1.62863 5.44251
1.67325 5.23818
1.71787 5.42697
1.7625 5.03983
1.80712 4.96585
1.85174 4.96632
1.89636 4.75661
1.94099 4.85209
1.98562 4.85143
2.03025 4.91806
2.07487 4.34963
2.11949 5.17771
2.16411 5.25087
2.20874 15.9113
2.25338 24.2851
2.298 6.12897
2.34263 4.66239
2.38725 4.47271
2.43188 5.34114
2.4765 5.71525
2.52115 5.883
2.56577 5.96332
2.6104 7.50923
2.65503 6.75554
2.69965 7.26541
2.7443 6.77275
2.78893 7.44754
2.83356 7.99719
2.87818 7.85029
2.92281 8.71958
2.96744 9.88831
3.01209 10.6577
3.05672 11.6388
3.10135 12.4493
3.14599 12.9653
3.19062 13.8535
3.23527 15.4524
3.2799 15.9677
3.32454 17.3744
3.36917 18.2744
3.4138 18.6912
3.45844 20.1842
3.50309 21.4777
3.54773 22.3911
3.59237 24.6566
3.637 101.592
3.68164 63.7796
3.7263 26.9818
3.77094 26.3865
3.81558 27.4301
3.86022 27.8611
3.90486 29.461
3.9495 30.4064
3.99416 31.4782
4.0388 32.9967
4.08344 34.532
4.12809 35.9888
4.17273 38.3924
4.21738 44.4733
4.26204 277.746
4.30669 240.694
4.35133 50.8561
4.39598 45.7091
4.44063 56.0851
4.4853 68.9207
4.52995 52.6413
4.5746 53.2618
4.61925 55.1334
4.6639 57.0847
4.70855 59.6953
4.75322 62.8693
4.79788 65.874
4.84253 69.3134
4.88719 74.0826
4.93184 77.9037
4.97652 83.9089
5.02118 91.463
5.06583 99.9741
5.11049 114.869
5.15515 200.837
5.19981 510.067
5.24449 3243.72
5.28916 11357.1
5.33382 3807.39
5.37848 233.969
5.42315 141.276
5.46783 121.1
5.5125 111.225
5.55716 106.239
5.60183 102.757
5.6465 100.497
5.69117 98.2708
5.73586 96.0965
5.78053 96.2522
5.8252 96.4456
5.86988 97.4678
5.91455 100.432
5.95924 112.473
6.00392 265.823
6.0486 1114.39
6.09328 3911.04
6.13795 3620.39
6.18263 312.937
6.22733 102.781
6.27201 87.6803
6.3167 108.707
6.36138 84.6089
6.40606 71.852
6.45075 69.8292
6.49545 67.5645
6.54014 66.2015
6.58483 65.1645
6.62952 65.1705
6.67421 99.7375
6.71892 156.88
6.76361 71.9413
6.8083 61.1534
6.853 59.3032
6.89769 58.9201
6.94239 58.2383
6.98711 57.9102
7.03181 57.0474
7.07651 56.7883
7.12121 56.7295
7.16591 57.3098
7.21063 57.6152
7.25533 74.0282
7.30004 198.05
7.34475 98.3311
7.38945 58.6024
7.43416 56.4209
7.47889 55.6477
7.5236 56.4812
7.56831 56.9986
7.61303 59.2875
7.65774 59.4519
7.70247 57.8045
7.74719 58.0274
7.79191 58.3925
7.83663 58.7165
7.88135 59.426
7.92607 60.6885
7.97081 62.1275
8.01553 62.4936
8.06026 64.2823
8.10498 65.6085
8.14971 76.9587
8.19446 75.4305
8.23919 71.8786
8.28392 74.167
8.32865 76.7806
8.37339 81.2125
8.41812 89.4235
8.46288 123.838
8.50761 193.954
8.55235 443.184
8.59709 1097.26
8.64183 2107.93
8.68658 1141.29
8.73134 195.637
8.77609 105.907
8.82083 96.6932
8.86558 92.781
8.91033 93.1185
8.9551 95.3784
8.99985 87.9082
9.04461 85.6833
9.08936 85.5206
9.13412 84.3673
9.17888 84.1016
9.22365 85.4052
9.26841 84.3182
9.31318 85.6123
9.35794 85.3506
9.4027 85.8704
9.44749 86.8488
9.49226 87.0621
9.53703 88.0778
9.5818 90.3286
9.62657 95.5686
9.67134 102.764
9.71614 97.0672
9.76091 97.2882
9.80569 99.8962
9.85047 103.557
9.89525 130.901
9.94005 147.017
9.98484 202.986
10.0296 391.19
10.0744 786.196
10.1192 1593.93
10.164 1748.72
10.2088 508.913
10.2536 141.872
10.2984 119.2
10.3432 120.428
10.388 109.201
10.4328 127.702
10.4776 174.442
10.5224 275.355
10.5672 475.427
10.612 535.403
10.6568 230.491
10.7017 102.003
10.7465 89.9738
10.7913 86.056
10.8361 83.6853
10.8809 81.541
10.9257 81.096
10.9706 81.9721
11.0154 77.4933
11.0602 74.9877
11.105 74.3978
11.1499 78.9957
11.1947 87.6165
11.2395 77.5264
11.2844 72.9794
11.3292 69.4395
11.374 68.2589
11.4189 67.7442
11.4637 67.0367
11.5086 67.5138
11.5534 70.8615
11.5983 67.743
11.6431 65.3733
11.688 64.8151
11.7328 64.7827
11.7777 64.6518
11.8225 64.5023
11.8674 64.1846
11.9122 64.7518
11.9571 65.0414
12.002 66.0704
12.0468 71.6472
12.0917 84.0503
12.1366 104.927
12.1814 146.052
12.2263 203.725
12.2712 183.126
12.3161 105.157
12.3609 74.0871
12.4058 67.0112
12.4507 66.5705
12.4956 66.4687
12.5405 66.6811
12.5853 67.8534
12.6302 76.445
12.6751 82.6751
12.72 72.7835
12.7649 69.9191
12.8098 70.4081
12.8547 72.0311
12.8996 73.2816
12.9445 74.7297
12.9894 76.5811
13.0343 78.2389
13.0792 81.8787
13.1242 93.4129
13.1691 121.574
13.214 157.493
13.2589 230.066
13.3038 346.537
13.3487 438.144
13.3937 297.986
13.4386 137.419
13.4835 113.285
13.5285 129.763
13.5734 162.66
13.6183 232.112
13.6633 327.205
13.7082 356.235
13.7531 214.76
13.7981 105.682
13.843 84.8908
13.888 82.4084
13.9329 79.6117
13.9779 78.3198
14.0228 76.687
14.0678 75.3476
14.1127 75.0526
14.1577 74.676
14.2027 74.0436
14.2476 72.7602
14.2926 72.9054
14.3376 74.3418
14.3825 72.6145
14.4275 71.0942
14.4725 70.5929
14.5175 70.977
14.5624 71.3241
14.6074 73.7815
14.6524 74.2921
14.6974 72.899
14.7424 75.0942
14.7874 83.3921
14.8324 94.5285
14.8774 113.211
14.9224 147.469
14.9674 196.901
15.0124 224.215
15.0574 161.121
15.1024 97.415
15.1474 74.8511
15.1924 72.8762
15.2374 73.5592
15.2824 72.8036
15.3274 70.3541
15.3725 69.0816
15.4175 68.6385
15.4625 68.3559
15.5076 68.6305
15.5526 68.4846
15.5976 67.9879
15.6426 69.3707
15.6877 76.2161
15.7327 84.5793
15.7778 97.805
15.8228 122.99
15.8679 161.652
15.9129 196.779
15.958 171.846
16.003 107.23
16.0481 71.6116
16.0931 67.5914
16.1382 65.1017
16.1833 62.8894
16.2283 60.9138
16.2734 60.4698
16.3185 60.8772
16.3636 61.6762
16.4086 59.7779
16.4537 58.0555
16.4988 57.3929
16.5439 57.1349
16.589 57.0605
16.6341 56.6344
16.6792 56.4994
16.7243 56.4819
16.7694 57.0072
16.8145 56.7444
16.8596 57.2012
16.9047 58.6342
16.9498 59.0303
16.9949 57.5587
17.04 57.9357
17.0851 59.4116
17.1302 61.1815
17.1754 64.044
17.2205 68.0473
17.2656 74.208
17.3108 82.876
17.3559 84.6895
17.401 75.0268
17.4462 64.7801
17.4913 61.0425
17.5365 61.0318
17.5815 60.9266
17.6268 61.6078
17.6718 62.3036
17.7171 62.9139
17.7622 63.3029
17.8074 63.8946
17.8525 66.8679
17.8977 71.5286
17.9428 77.5857
17.9881 84.9632
18.0331 98.6949
18.0784 117.464
18.1237 140.051
18.1688 139.318
18.214 112.489
18.2591 90.6671
18.3044 90.5245
18.3495 98.9302
18.3948 108.086
18.4399 101.306
18.4852 82.0512
18.5303 68.7917
18.5756 64.3973
18.6207 63.4872
18.666 62.3407
18.7112 61.6787
18.7565 61.0351
18.8016 60.4997
18.8469 60.0293
18.892 59.7164
18.9374 59.0924
18.9825 59.1804
19.0278 58.8942
19.073 58.8923
19.1183 59.5632
19.1635 60.59
19.2088 61.6847
19.254 63.6847
19.2993 67.0308
19.3447 73.0415
19.3898 78.3295
19.4352 76.08
19.4804 66.8042
19.5257 59.0714
19.5709 56.0942
19.6163 55.6119
19.6615 55.4498
19.7068 55.038
19.752 54.9728
19.7974 55.5288
19.8426 56.4396
19.888 57.1631
19.9332 58.1546
19.9786 60.2168
20.0238 63.3003
20.0692 67.8025
20.1144 71.6109
20.1598 71.4357
20.205 66.1345
20.2504 63.523
20.2957 64.4153
20.3411 66.9697
20.3863 66.7762
20.4318 61.2176
20.477 55.8829
20.5224 53.3395
20.5677 52.8604
20.6131 51.8594
20.6586 51.2774
20.7038 51.2685
20.7493 50.7655
20.7945 50.5717
20.84 50.5187
20.8853 50.3407
20.9307 50.2589
20.976 50.3539
21.0215 50.4061
21.0668 50.5509
21.1122 51.1
21.1575 51.5319
21.203 52.1374
21.2483 52.9795
21.2938 53.3489
21.3391 52.0273
21.3846 50.7739
21.4299 50.0134
21.4754 50.1142
21.5207 50.1262
21.5662 50.4254
21.6116 50.8465
21.6571 51.8613
21.7024 52.7883
21.7479 54.3802
21.7933 56.6349
21.8388 59.6528
21.8843 63.1755
21.9297 66.2221
21.9752 66.1624
22.0206 62.2764
22.0661 58.1255
22.1115 57.5246
22.157 57.8243
22.2024 56.5052
22.248 53.5137
22.2933 51.7665
22.3389 50.8461
22.3843 50.9079
22.4299 50.6538
22.4753 50.547
22.5208 50.3631
22.5662 50.1576
22.6118 50.1563
22.6572 50.5155
22.7028 51.039
22.7483 51.5489
22.7939 52.1503
22.8393 53.3337
22.8849 54.9843
22.9303 56.9994
22.9759 59.0121
23.0214 59.4722
23.067 56.9711
23.1126 53.2027
23.1581 51.0593
23.2037 50.5425
23.2492 50.5244
23.2948 50.6084
23.3403 50.7506
23.3859 51.46
23.4314 52.2192
23.477 53.6859
23.5225 55.4966
23.5682 57.6346
23.6137 59.3929
23.6593 58.0066
23.7048 54.1806
23.7505 50.2213
23.796 48.2313
23.8417 47.531
23.8872 47.0892
23.9329 46.7238
23.9784 46.309
24.0241 46.0718
24.0697 46.0069
24.1154 45.5499
24.1609 45.4564
24.2066 45.3737
24.2522 45.2776
24.2979 44.9634
24.3434 44.7031
24.3892 44.6291
24.4349 44.5045
24.4805 44.2788
24.5262 44.3884
24.5718 44.3119
24.6175 44.3257
24.6631 44.3229
24.7089 44.0408
24.7545 43.8197
24.8002 43.6788
24.8458 43.6871
24.8916 43.5268
24.9372 43.695
24.983 43.9548
25.0286 44.09
25.0744 44.6631
25.12 44.9713
25.1658 45.6703
25.2114 46.1386
25.2572 46.1173
25.3029 46.0475
25.3487 46.2141
25.3943 46.2456
25.4402 45.2617
25.4858 44.045
25.5316 42.9613
25.5773 42.5639
25.6231 42.357
25.669 41.8352
25.7147 41.8699
25.7605 41.843
25.8062 41.91
25.8521 42.0728
25.8977 41.8524
25.9436 42.0952
25.9893 42.2052
26.0352 42.6316
26.0809 42.7238
26.1268 43.0481
26.1725 42.8301
26.2184 42.3144
26.2641 41.8515
26.31 41.5225
26.3557 41.5678
26.4017 41.5527
26.4474 41.7708
26.4933 42.0093
26.5391 42.5303
26.585 42.8106
26.6308 43.1593
26.6767 43.5606
26.7225 43.4226
26.7684 42.9625
26.8142 42.2147
26.8601 41.7941
26.9059 41.4707
26.9519 40.8874
26.9979 40.4847
27.0437 40.1855
27.0896 39.9032
27.1354 39.99
27.1814 39.8074
27.2272 39.7918
27.2732 39.7822
27.3191 39.6466
27.3651 39.8691
27.4109 39.5925
27.4569 39.644
27.5027 39.6502
27.5488 39.8595
27.5946 39.7254
27.6407 39.4528
27.6865 39.3501
27.7326 39.1058
27.7784 39.1974
27.8245 38.942
27.8703 39.2471
27.9164 39.4899
27.9623 39.5094
28.0084 39.8745
28.0543 40.192
28.1003 40.3941
28.1462 40.1431
28.1923 39.6625
28.2384 39.1996
28.2843 38.92
28.3304 38.3901
28.3764 37.9829
28.4225 37.5844
28.4684 37.4883
28.5145 37.0909
28.5605 37.0769
28.6066 36.7858
28.6526 36.7438
28.6987 36.8357
28.7447 36.7037
28.7908 36.6158
28.8368 36.5742
28.8829 36.4453
28.9289 36.5428
28.9751 36.2882
29.0211 36.179
29.0673 35.8549
29.1133 35.6733
29.1595 35.5116
29.2055 35.4618
29.2517 35.4565
29.2977 35.2191
29.3439 35.3683
29.3899 35.3049
29.4361 35.297
29.4824 35.1028
29.5284 34.8198
29.5746 34.5462
29.6207 34.2405
29.6669 34.1063
29.713 33.9977
29.7593 34.0421
29.8053 33.9959
29.8516 33.9672
29.8977 33.805
29.9439 33.7148
29.99 33.78
30.0363 33.4834
30.0824 33.6531
30.1287 33.4077
30.1748 33.4014
30.2211 33.549
30.2673 33.3745
30.3136 33.4324
30.3597 33.3268
30.406 33.2874
30.4522 33.2312
30.4985 33.1539
30.5447 33.1774
30.591 33.1841
30.6372 33.1772
30.6835 33.2108
30.7297 33.2024
30.7761 33.2362
30.8224 32.9824
30.8686 32.8376
30.915 32.6657
30.9612 32.5358
31.0076 32.372
31.0538 32.1608
31.1002 32.246
31.1464 31.9746
31.1928 31.8981
31.2391 31.9463
31.2855 31.8506
31.3317 31.9015
31.3781 31.8798
31.4244 31.8199
31.4708 31.7423
31.5171 31.7763
31.5636 31.8913
31.6098 31.4521
31.6563 31.3032
31.7026 31.2375
31.7491 31.1091
31.7953 31.1561
31.8418 31.1374
31.8881 31.1015
31.9346 30.9695
31.9809 30.9977
32.0275 30.9172
32.074 30.7139
32.1203 30.5901
32.1668 30.5748
32.2132 30.3526
32.2597 30.139
32.306 30.1594
32.3526 29.9437
32.399 29.8624
32.4455 29.6988
32.4919 29.6812
32.5385 29.5609
32.5848 29.3556
32.6314 29.4243
32.6778 29.2478
32.7244 29.2077
32.7708 29.0433
32.8174 29.0964
32.8638 28.8937
32.9104 28.8948
32.9569 28.8698
33.0035 28.7188
33.0499 28.6648
33.0966 28.6725
33.143 28.7441
33.1897 28.6304
33.2361 28.4967
33.2828 28.4587
33.3293 28.2921
33.3759 28.1529
33.4226 28.0799
33.4691 27.967
33.5158 27.9004
33.5623 27.7258
33.609 27.6698
33.6555 27.5636
33.7022 27.4485
33.7487 27.3626
33.7954 27.3001
33.842 27.2544
33.8887 27.1307
33.9353 27.1024
33.982 27.0226
34.0286 27.0215
34.0753 26.7852
34.1219 26.7121
34.1687 26.6445
34.2152 26.6281
34.262 26.4727
34.3086 26.3482
34.3554 26.3232
34.402 26.2599
34.4488 26.1296
34.4954 26.0941
34.5422 25.9967
34.5889 25.9119
34.6357 25.755
34.6825 25.7326
34.7292 25.7006
34.776 25.5258
34.8227 25.4872
34.8695 25.427
34.9162 25.3444
34.9631 25.2697
35.0098 25.2562
35.0566 25.108
35.1033 25.0461
35.1502 25.0345
35.1969 24.965
35.2438 25.0098
35.2906 24.9218
35.3375 24.8454
35.3842 24.7366
35.4311 24.8017
35.4779 24.7503
35.5248 24.6055
35.5716 24.4706
35.6185 24.441
35.6653 24.3215
35.7123 24.1987
35.759 24.3035
35.806 24.1154
35.8528 23.9976
35.8998 23.955
35.9468 23.8347
35.9936 23.816
36.0406 23.6671
36.0874 23.6982
36.1345 23.6681
36.1813 23.5924
36.2283 23.4613
36.2752 23.4109
36.3222 23.4158
36.3691 23.3187
36.4161 23.1147
36.463 23.1243
36.5101 23.1249
36.557 23.0663
36.6041 22.9264
36.651 22.8398
36.6981 22.8769
36.745 22.7645
36.7921 22.666
36.839 22.5652
36.8861 22.4828
36.9331 22.3878
36.9802 22.3375
37.0272 22.3218
37.0743 22.1889
37.1213 22.1438
37.1684 22.0615
37.2154 22.0134
37.2626 21.9866
37.3098 21.9561
37.3568 21.8179
37.404 21.7895
37.451 21.648
37.4982 21.5854
37.5452 21.4486
37.5924 21.4261
37.6395 21.5278
37.6867 21.3623
37.7337 21.3257
37.781 21.2569
37.8281 21.2225
37.8753 21.0269
37.9224 20.9927
37.9697 20.9256
38.0168 20.8198
38.064 20.8505
38.1111 20.801
38.1584 20.7193
38.2056 20.5788
38.2529 20.5133
38.3 20.4367
38.3473 20.4399
38.3945 20.3325
38.4418 20.2971
38.489 20.1917
38.5363 20.1231
38.5837 20.0312
38.6309 20.0056
38.6782 19.9572
38.7254 19.8827
38.7728 19.7693
38.82 19.7407
38.8674 19.7006
38.9146 19.6378
38.9621 19.569
39.0093 19.4929
39.0567 19.4715
39.104 19.4238
39.1514 19.3059
39.1987 19.2465
39.2461 19.2534
39.2934 19.2246
39.3409 19.0916
39.3882 18.9255
39.4356 18.9462
39.483 18.8559
39.5304 18.7722
39.5778 18.8516
39.6253 18.7307
39.6726 18.6684
39.7201 18.6177
39.7675 18.5997
39.815 18.5233
39.8624 18.3768
39.9099 18.4287
39.9575 18.3448
40.0049 18.301
40.0525 18.1962
40.0999 18.1384
40.1474 18.149
40.1949 17.9941
40.2425 17.9392
40.2899 17.879
40.3375 17.8449
40.385 17.7822
40.4326 17.7078
40.48 17.6539
40.5277 17.6613
40.5752 17.5763
40.6228 17.5518
40.6703 17.4657
40.718 17.3872
40.7655 17.3784
40.8132 17.3153
40.8607 17.3316
40.9084 17.2371
40.9559 17.2317
41.0036 17.1085
41.0512 17.0076
41.0989 16.9619
41.1465 16.892
41.1942 16.8903
41.242 16.7737
41.2896 16.6808
41.3373 16.5649
41.3849 16.6248
41.4327 16.6194
41.4803 16.5164
41.5281 16.4843
41.5758 16.408
41.6236 16.3852
41.6712 16.2539
41.7191 16.2276
41.7667 16.158
41.8146 16.1459
41.8622 16.054
41.9101 16.0378
41.9578 15.9595
42.0057 15.9277
42.0534 15.8502
42.1013 15.7945
42.149 15.762
42.1969 15.7095
42.2446 15.7038
42.2925 15.6156
42.3403 15.5694
42.3882 15.5097
42.436 15.4486
42.4839 15.3879
42.5319 15.3803
42.5797 15.2855
42.6277 15.2807
42.6755 15.2299
42.7235 15.1461
42.7713 15.1325
42.8193 15.0133
42.8671 15.014
42.9152 14.9442
42.963 14.9129
43.0111 14.8124
43.0589 14.7962
43.107 14.6762
43.1549 14.6519
43.2029 14.606
43.2508 14.5765
43.2989 14.5176
43.3468 14.4669
43.3949 14.3913
43.4429 14.3658
43.491 14.3127
43.5389 14.2527
43.5871 14.2121
43.635 14.139
43.6832 14.1498
43.7312 14.0662
43.7793 14.015
43.8273 13.9518
43.8755 13.9567
43.9237 13.8719
43.9717 13.8692
44.0199 13.7612
44.068 13.7493
44.1162 13.6984
44.1642 13.6918
44.2125 13.5999
44.2606 13.5413
44.3088 13.4816
44.3569 13.4684
44.4052 13.4436
44.4533 13.3549
44.5016 13.3182
44.5497 13.3276
44.598 13.2589
44.6461 13.19
44.6945 13.1434
44.7426 13.0947
44.791 13.0293
44.8391 13.0037
44.8875 12.9936
44.9357 12.9071
44.984 12.8451
45.0322 12.7961
45.0806 12.7804
45.1288 12.7044
45.1773 12.6979
45.2257 12.6231
45.2739 12.5413
45.3224 12.5297
45.3706 12.4881
45.4191 12.4704
45.4673 12.4276
45.5158 12.3478
45.5641 12.2876
45.6126 12.2494
45.6609 12.2386
45.7094 12.1604
45.7577 12.1663
45.8063 12.0556
45.8546 12.0587
45.9031 12.0394
45.9515 11.9931
46.0001 11.9681
46.0484 11.876
46.097 11.8537
46.1454 11.8333
46.194 11.7959
46.2424 11.7232
46.291 11.6876
46.3395 11.6505
46.3881 11.5644
46.4365 11.5917
46.4852 11.5198
46.5337 11.4758
46.5823 11.4315
46.631 11.354
46.6795 11.367
46.7282 11.3499
46.7767 11.3119
46.8254 11.2111
46.8739 11.1698
46.9226 11.1242
46.9712 11.1006
47.0199 11.0413
47.0685 11.0106
47.1173 10.9675
47.1658 10.9069
47.2146 10.8917
47.2632 10.8326
47.312 10.7961
47.3606 10.7494
47.4095 10.7302
47.4581 10.6928
47.5069 10.6576
47.5556 10.6103
47.6044 10.5494
47.6531 10.4914
47.702 10.4661
47.7507 10.432
47.7996 10.4224
47.8483 10.3435
47.8972 10.3546
47.9461 10.312
47.9948 10.2338
48.0438 10.195
48.0925 10.1916
48.1415 10.137
48.1902 10.0811
48.2392 10.1035
48.288 10.0466
48.337 10.0096
48.3858 9.96983
48.4348 9.96023
48.4837 9.93143
48.5327 9.89151
48.5815 9.81628
48.6306 9.82409
48.6795 9.74397
48.7285 9.69755
48.7774 9.70628
48.8265 9.67078
48.8754 9.60924
48.9245 9.58935
48.9734 9.54116
49.0226 9.53089
49.0715 9.50672
49.1206 9.43837
49.1696 9.40394
49.2188 9.34258
49.2679 9.31485
49.3169 9.31301
49.3661 9.24795
49.4151 9.18461
49.4643 9.21321
49.5134 9.168
49.5626 9.0634
49.6117 9.08601
49.6609 9.02549
49.71 8.98542
49.7592 9.01782
49.8083 8.90537
49.8576 8.91734
49.9067 8.85163
49.956 8.8735
50.0052 8.79961
50.0545 8.80406
50.1036 8.72537
50.153 8.71824
50.2022 8.6902
50.2515 8.63811
50.3007 8.60636
50.3501 8.54956
50.3993 8.56076
50.4487 8.49692
50.498 8.48949
50.5474 8.42052
50.5966 8.3708
50.6461 8.35715
50.6955 8.32697
50.7448 8.3069
50.7943 8.28481
50.8436 8.26132
50.8931 8.22577
50.9424 8.17748
50.9919 8.14721
51.0413 8.09686
51.0908 8.08635
51.1402 8.09234
51.1897 8.03371
51.2391 8.00783
51.2887 7.96115
51.3381 7.90383
51.3877 7.89785
51.4371 7.85271
51.4867 7.80633
51.5362 7.75639
51.5858 7.76576
51.6353 7.6913
51.6849 7.70247
51.7344 7.68635
51.7841 7.64562
51.8336 7.62532
51.8833 7.53885
51.9328 7.49227
51.9826 7.46821
52.0323 7.44099
52.0818 7.42112
52.1316 7.39429
52.1812 7.37307
52.231 7.33698
52.2806 7.30131
52.3304 7.26921
52.38 7.2489
52.4298 7.1738
52.4794 7.17597
52.5293 7.18732
52.5789 7.14412
52.6288 7.11639
52.6785 7.02112
52.7284 7.06817
52.7781 7.03779
52.828 6.99994
52.8777 6.96811
52.9276 6.91949
52.9774 6.86819
53.0273 6.87039
53.0771 6.84991
53.1271 6.833
53.1769 6.81176
53.2269 6.75409
53.2767 6.68352
53.3267 6.71106
53.3765 6.70478
53.4266 6.60327
53.4766 6.58008
53.5265 6.57514
53.5765 6.57788
53.6264 6.52314
53.6765 6.49018
53.7264 6.4855
53.7765 6.45416
53.8265 6.40132
53.8766 6.40976
53.9266 6.37763
53.9767 6.34358
54.0267 6.32107
54.0769 6.32033
54.1269 6.25915
54.1771 6.22506
54.2271 6.17672
54.2773 6.14846
54.3274 6.11811
54.3776 6.0464
54.4277 6.02728
54.478 6.01681
54.528 5.99412
54.5783 5.94443
54.6285 5.90403
54.6788 5.86655
54.7289 5.81358
54.7792 5.7864
54.8296 5.75391
54.8798 5.68184
54.9301 5.64902
54.9803 5.64895
55.0307 5.607
55.0809 5.50446
55.1314 5.53868
55.1816 5.48105
55.232 5.43695
55.2823 5.30953
55.3328 5.34386
55.383 5.26599
55.4335 5.20485
55.4838 5.16179
55.5344 5.08165
55.5847 5.1077
55.6352 5.02076
55.6856 4.99241
55.7361 5.01994