File: XRD/Ni3Fe_FD0459.xy
TT I
1.27165 7.68909
1.31627 6.83568
1.36089 6.96774
1.40551 6.18056
1.45013 6.15854
1.49476 6.54998
1.53938 6.31996
1.584 5.31027
1.62863 5.19084
1.67325 5.39139
1.71787 4.82117
1.7625 4.77856
1.80712 4.69894
1.85174 4.84129
1.89636 4.40214
1.94099 4.42201
1.98562 5.18433
2.03025 4.68295
2.07487 4.39006
2.11949 4.57959
2.16411 5.13536
2.20874 10.3696
2.25338 15.289
2.298 5.67963
2.34263 5.42449
2.38725 5.80537
2.43188 5.57292
2.4765 5.55483
2.52115 6.87819
2.56577 6.82572
2.6104 7.92356
2.65503 7.71731
2.69965 7.64433
2.7443 7.31296
2.78893 7.93586
2.83356 7.86589
2.87818 8.22459
2.92281 9.06255
2.96744 10.109
3.01209 10.3052
3.05672 11.075
3.10135 11.4159
3.14599 12.6635
3.19062 14.3781
3.23527 15.122
3.2799 15.8845
3.32454 16.7113
3.36917 17.3498
3.4138 18.6721
3.45844 20.1061
3.50309 21.1303
3.54773 21.8608
3.59237 23.9603
3.637 61.7642
3.68164 43.01
3.7263 25.9279
3.77094 25.9036
3.81558 26.7893
3.86022 27.4505
3.90486 28.7026
3.9495 29.9534
3.99416 31.2786
4.0388 32.5075
4.08344 33.4557
4.12809 34.4622
4.17273 36.8403
4.21738 40.6024
4.26204 159.371
4.30669 136.053
4.35133 46.0182
4.39598 44.5402
4.44063 50.3999
4.4853 57.6177
4.52995 51.953
4.5746 53.1225
4.61925 54.146
4.6639 56.4801
4.70855 59.4431
4.75322 62.2071
4.79788 65.8134
4.84253 69.0291
4.88719 73.666
4.93184 77.0047
4.97652 83.2907
5.02118 90.4298
5.06583 98.6854
5.11049 111.551
5.15515 167.153
5.19981 519.934
5.24449 3478.99
5.28916 11832.4
5.33382 2984.11
5.37848 205.847
5.42315 134.754
5.46783 118.38
5.5125 109.713
5.55716 104.82
5.60183 100.052
5.6465 98.6207
5.69117 96.4589
5.73586 94.7214
5.78053 95.2049
5.8252 95.3185
5.86988 97.0535
5.91455 98.8301
5.95924 111.643
6.00392 288.21
6.0486 1184.83
6.09328 4192.05
6.13795 3329.7
6.18263 262.279
6.22733 96.5741
6.27201 83.7069
6.3167 91.3969
6.36138 77.4601
6.40606 70.2026
6.45075 68.9105
6.49545 66.2588
6.54014 64.4184
6.58483 63.803
6.62952 63.1976
6.67421 79.5473
6.71892 106.893
6.76361 64.5939
6.8083 58.9609
6.853 58.4545
6.89769 57.5266
6.94239 57.2034
6.98711 56.182
7.03181 56.1575
7.07651 55.703
7.12121 55.5593
7.16591 56.0642
7.21063 55.5421
7.25533 63.2249
7.30004 122.17
7.34475 75.4622
7.38945 56.1482
7.43416 54.7407
7.47889 54.9535
7.5236 55.2304
7.56831 55.7642
7.61303 56.7753
7.65774 57.2142
7.70247 56.853
7.74719 56.9987
7.79191 57.3408
7.83663 57.8792
7.88135 58.6383
7.92607 59.6876
7.97081 60.7607
8.01553 62.0218
8.06026 63.3964
8.10498 64.7697
8.14971 71.8033
8.19446 71.3791
8.23919 70.497
8.28392 73.2396
8.32865 75.7995
8.37339 80.5284
8.41812 86.8537
8.46288 110.869
8.50761 207.647
8.55235 464.024
8.59709 1223.23
8.64183 2129.58
8.68658 994.446
8.73134 170.455
8.77609 101.722
8.82083 94.1932
8.86558 91.4432
8.91033 90.7816
8.9551 90.3184
8.99985 86.1551
9.04461 85.0052
9.08936 84.6094
9.13412 83.4267
9.17888 83.4939
9.22365 83.5244
9.26841 83.6136
9.31318 84.8991
9.35794 84.9307
9.4027 84.8915
9.44749 85.9125
9.49226 86.0478
9.53703 87.0591
9.5818 89.5691
9.62657 92.549
9.67134 97.0866
9.71614 94.5575
9.76091 96.1211
9.80569 98.7687
9.85047 102.297
9.89525 117.755
9.94005 135.831
9.98484 218.992
10.0296 408.818
10.0744 876.224
10.1192 1692.38
10.164 1617.74
10.2088 410.206
10.2536 129.989
10.2984 113.307
10.3432 112.691
10.388 108.186
10.4328 131.214
10.4776 178.545
10.5224 298.392
10.5672 492.119
10.612 497.731
10.6568 204.315
10.7017 97.6637
10.7465 88.1966
10.7913 84.25
10.8361 82.3909
10.8809 80.0954
10.9257 78.9237
10.9706 78.8031
11.0154 76.0798
11.0602 73.8622
11.105 72.5626
11.1499 74.4786
11.1947 77.9503
11.2395 72.5403
11.2844 70.3643
11.3292 68.0768
11.374 67.2693
11.4189 66.6387
11.4637 65.8529
11.5086 65.7844
11.5534 67.2628
11.5983 65.5528
11.6431 64.3232
11.688 63.8731
11.7328 63.5659
11.7777 63.5466
11.8225 63.6989
11.8674 63.4354
11.9122 63.7507
11.9571 64.0694
12.002 65.4738
12.0468 72.0773
12.0917 84.2622
12.1366 109.46
12.1814 154.889
12.2263 202.879
12.2712 171.603
12.3161 93.0223
12.3609 69.4353
12.4058 65.4221
12.4507 65.2194
12.4956 65.3837
12.5405 65.4025
12.5853 66.2249
12.6302 70.8254
12.6751 74.2221
12.72 69.5001
12.7649 68.9128
12.8098 69.5402
12.8547 71.1132
12.8996 72.3345
12.9445 74.0042
12.9894 75.6149
13.0343 77.412
13.0792 81.9035
13.1242 96.7512
13.1691 122.34
13.214 162.758
13.2589 250.816
13.3038 364.536
13.3487 418.233
13.3937 262.315
13.4386 124.756
13.4835 113.738
13.5285 130.641
13.5734 171.069
13.6183 253.27
13.6633 338.821
13.7082 339.834
13.7531 189.075
13.7981 97.63
13.843 83.0568
13.888 80.9042
13.9329 78.4897
13.9779 77.2686
14.0228 75.7864
14.0678 74.3342
14.1127 73.8944
14.1577 73.5361
14.2027 72.7932
14.2476 71.7083
14.2926 71.3421
14.3376 71.909
14.3825 70.9491
14.4275 69.9626
14.4725 70.0932
14.5175 69.9891
14.5624 70.4026
14.6074 71.7116
14.6524 72.2591
14.6974 72.0581
14.7424 75.6119
14.7874 83.7381
14.8324 95.1405
14.8774 117.96
14.9224 157.332
14.9674 203.949
15.0124 215.736
15.0574 148.119
15.1024 90.5548
15.1474 73.1901
15.1924 71.1304
15.2374 71.243
15.2824 70.3742
15.3274 68.8544
15.3725 68.0017
15.4175 67.5042
15.4625 67.1734
15.5076 67.2815
15.5526 67.2633
15.5976 67.3864
15.6426 69.8693
15.6877 76.7391
15.7327 84.8513
15.7778 101.209
15.8228 130.65
15.8679 168.066
15.9129 191.207
15.958 155.761
16.003 96.1501
16.0481 68.4331
16.0931 64.3633
16.1382 62.9125
16.1833 61.48
16.2283 59.793
16.2734 59.1136
16.3185 59.0149
16.3636 59.1153
16.4086 58.0577
16.4537 56.9229
16.4988 56.3924
16.5439 56.3774
16.589 56.2073
16.6341 55.6803
16.6792 55.3738
16.7243 55.6998
16.7694 55.6389
16.8145 55.5876
16.8596 55.8377
16.9047 56.8409
16.9498 56.969
16.9949 56.5953
17.04 56.9961
17.0851 58.8045
17.1302 60.5321
17.1754 63.5318
17.2205 68.7604
17.2656 75.2197
17.3108 81.9858
17.3559 82.5423
17.401 71.7646
17.4462 62.8566
17.4913 60.1977
17.5365 60.4245
17.5815 60.349
17.6268 60.6196
17.6718 61.3535
17.7171 61.9697
17.7622 62.5178
17.8074 63.5897
17.8525 67.2523
17.8977 71.3296
17.9428 77.3407
17.9881 86.7166
18.0331 102.598
18.0784 121.847
18.1237 139.707
18.1688 132.925
18.214 105.518
18.2591 88.7822
18.3044 91.9788
18.3495 100.341
18.3948 106.549
18.4399 97.3294
18.4852 78.2469
18.5303 66.65
18.5756 63.1232
18.6207 62.3326
18.666 61.2887
18.7112 60.6622
18.7565 59.9474
18.8016 59.4857
18.8469 59.0236
18.892 58.6815
18.9374 58.1873
18.9825 58.0828
19.0278 57.7841
19.073 58.3058
19.1183 58.7841
19.1635 59.4496
19.2088 60.9969
19.254 63.5393
19.2993 67.6889
19.3447 72.7847
19.3898 76.8017
19.4352 73.0714
19.4804 64.2089
19.5257 57.5123
19.5709 54.8527
19.6163 54.6867
19.6615 54.9236
19.7068 54.1861
19.752 54.3282
19.7974 54.8985
19.8426 55.5886
19.888 56.2947
19.9332 57.5344
19.9786 60.371
20.0238 63.5048
20.0692 68.0291
20.1144 70.5309
20.1598 69.282
20.205 64.6198
20.2504 62.9574
20.2957 64.4027
20.3411 66.3248
20.3863 64.858
20.4318 59.0523
20.477 54.1869
20.5224 52.1365
20.5677 51.6598
20.6131 50.8798
20.6586 50.5761
20.7038 50.2917
20.7493 49.9529
20.7945 49.5864
20.84 49.5891
20.8853 49.6407
20.9307 49.5077
20.976 49.6627
21.0215 49.3883
21.0668 49.9
21.1122 50.3015
21.1575 51.0007
21.203 51.4668
21.2483 52.1221
21.2938 52.3313
21.3391 50.8752
21.3846 49.7084
21.4299 49.3121
21.4754 49.2229
21.5207 49.5011
21.5662 50.0073
21.6116 50.4145
21.6571 51.178
21.7024 52.1472
21.7479 54.0102
21.7933 56.6332
21.8388 59.8303
21.8843 63.3167
21.9297 65.2648
21.9752 64.2671
22.0206 60.2837
22.0661 57.0657
22.1115 56.5341
22.157 56.7096
22.2024 55.1016
22.248 52.4049
22.2933 50.6506
22.3389 49.8653
22.3843 49.6324
22.4299 49.2819
22.4753 49.5879
22.5208 49.3385
22.5662 49.3318
22.6118 49.6066
22.6572 49.9129
22.7028 50.3437
22.7483 50.7948
22.7939 51.5589
22.8393 53.1311
22.8849 54.9003
22.9303 56.6603
22.9759 58.3125
23.0214 58.0556
23.067 55.2238
23.1126 52.0183
23.1581 49.972
23.2037 49.696
23.2492 49.9074
23.2948 49.9581
23.3403 50.2086
23.3859 50.7341
23.4314 52.0307
23.477 53.5579
23.5225 55.4746
23.5682 57.4357
23.6137 58.3815
23.6593 56.1749
23.7048 52.5095
23.7505 48.8645
23.796 47.1988
23.8417 46.7786
23.8872 46.3813
23.9329 45.8904
23.9784 45.5649
24.0241 45.3185
24.0697 45.1849
24.1154 44.7818
24.1609 44.5843
24.2066 44.5296
24.2522 44.4466
24.2979 44.1918
24.3434 43.9872
24.3892 43.8809
24.4349 43.827
24.4805 43.6631
24.5262 43.8082
24.5718 43.5866
24.6175 43.5736
24.6631 43.3918
24.7089 43.1304
24.7545 43.0105
24.8002 43.0777
24.8458 42.9789
24.8916 42.8655
24.9372 43.0888
24.983 43.3833
25.0286 43.6829
25.0744 43.9567
25.12 44.5687
25.1658 45.1317
25.2114 45.3557
25.2572 45.4127
25.3029 45.3319
25.3487 45.445
25.3943 45.2327
25.4402 44.0647
25.4858 43.0648
25.5316 42.0907
25.5773 41.6243
25.6231 41.6999
25.669 41.2127
25.7147 41.1587
25.7605 41.1307
25.8062 41.188
25.8521 41.3507
25.8977 41.2855
25.9436 41.5608
25.9893 41.6177
26.0352 42.1083
26.0809 42.1905
26.1268 42.3823
26.1725 42.0138
26.2184 41.3974
26.2641 41.0539
26.31 40.7119
26.3557 40.8739
26.4017 40.7326
26.4474 41.3016
26.4933 41.4619
26.5391 41.9939
26.585 42.2984
26.6308 42.7175
26.6767 42.8315
26.7225 42.6194
26.7684 42.0899
26.8142 41.5381
26.8601 41.0332
26.9059 40.5932
26.9519 40.1615
26.9979 39.8786
27.0437 39.5697
27.0896 39.3936
27.1354 39.4033
27.1814 39.2308
27.2272 39.107
27.2732 39.105
27.3191 39.0415
27.3651 39.0747
27.4109 39.0475
27.4569 39.0975
27.5027 39.1472
27.5488 39.2792
27.5946 38.9915
27.6407 38.898
27.6865 38.7688
27.7326 38.5261
27.7784 38.5476
27.8245 38.5196
27.8703 38.7009
27.9164 38.9851
27.9623 39.0873
28.0084 39.3231
28.0543 39.74
28.1003 39.5863
28.1462 39.4696
28.1923 38.9289
28.2384 38.4646
28.2843 38.2137
28.3304 37.8028
28.3764 37.3117
28.4225 37.02
28.4684 36.7804
28.5145 36.599
28.5605 36.4857
28.6066 36.3176
28.6526 36.2892
28.6987 36.2325
28.7447 36.1412
28.7908 36.0365
28.8368 36.0789
28.8829 35.8288
28.9289 35.8605
28.9751 35.7591
29.0211 35.43
29.0673 35.2482
29.1133 35.1589
29.1595 34.9262
29.2055 34.797
29.2517 34.9049
29.2977 34.8822
29.3439 34.7422
29.3899 34.7965
29.4361 34.6916
29.4824 34.4091
29.5284 34.2797
29.5746 33.8677
29.6207 33.7378
29.6669 33.5499
29.713 33.4204
29.7593 33.4518
29.8053 33.3822
29.8516 33.2906
29.8977 33.2433
29.9439 33.1153
29.99 33.1774
30.0363 33.0958
30.0824 32.9897
30.1287 32.9647
30.1748 32.8838
30.2211 32.8376
30.2673 32.7881
30.3136 32.9537
30.3597 32.7534
30.406 32.6834
30.4522 32.7185
30.4985 32.4643
30.5447 32.7823
30.591 32.6621
30.6372 32.7272
30.6835 32.6543
30.7297 32.7974
30.7761 32.7091
30.8224 32.5614
30.8686 32.2309
30.915 32.0789
30.9612 32.0906
31.0076 31.8336
31.0538 31.6756
31.1002 31.6489
31.1464 31.4858
31.1928 31.4442
31.2391 31.5606
31.2855 31.404
31.3317 31.408
31.3781 31.4841
31.4244 31.4243
31.4708 31.3648
31.5171 31.2716
31.5636 31.2306
31.6098 31.1187
31.6563 30.8412
31.7026 30.7591
31.7491 30.5161
31.7953 30.6803
31.8418 30.6475
31.8881 30.6118
31.9346 30.6347
31.9809 30.5161
32.0275 30.4511
32.074 30.2687
32.1203 30.0627
32.1668 30.0222
32.2132 29.8011
32.2597 29.6514
32.306 29.5972
32.3526 29.4595
32.399 29.3369
32.4455 29.2549
32.4919 29.1318
32.5385 29.0623
32.5848 28.9881
32.6314 28.9715
32.6778 28.919
32.7244 28.7128
32.7708 28.5521
32.8174 28.6102
32.8638 28.5224
32.9104 28.5366
32.9569 28.4737
33.0035 28.3226
33.0499 28.203
33.0966 28.1916
33.143 28.3662
33.1897 28.0582
33.2361 28.0623
33.2828 27.9621
33.3293 27.8342
33.3759 27.7721
33.4226 27.6687
33.4691 27.5752
33.5158 27.5295
33.5623 27.306
33.609 27.208
33.6555 27.0527
33.7022 27.075
33.7487 26.8914
33.7954 26.907
33.842 26.8057
33.8887 26.7089
33.9353 26.7022
33.982 26.5115
34.0286 26.5117
34.0753 26.3142
34.1219 26.3292
34.1687 26.1629
34.2152 26.2188
34.262 25.9435
34.3086 25.9403
34.3554 25.9193
34.402 25.8026
34.4488 25.6921
34.4954 25.5904
34.5422 25.5889
34.5889 25.4362
34.6357 25.3517
34.6825 25.3074
34.7292 25.2261
34.776 25.1821
34.8227 25.0708
34.8695 25.0589
34.9162 24.9526
34.9631 24.9192
35.0098 24.8919
35.0566 24.7155
35.1033 24.68
35.1502 24.6961
35.1969 24.5693
35.2438 24.5094
35.2906 24.4963
35.3375 24.4105
35.3842 24.3832
35.4311 24.3711
35.4779 24.3092
35.5248 24.2282
35.5716 24.1542
35.6185 24.0867
35.6653 23.9592
35.7123 23.8975
35.759 23.8665
35.806 23.6988
35.8528 23.6002
35.8998 23.566
35.9468 23.4943
35.9936 23.4277
36.0406 23.3705
36.0874 23.4132
36.1345 23.26
36.1813 23.2111
36.2283 22.9983
36.2752 22.9183
36.3222 22.9517
36.3691 22.8908
36.4161 22.7359
36.463 22.7824
36.5101 22.8258
36.557 22.6986
36.6041 22.5303
36.651 22.5541
36.6981 22.4678
36.745 22.3628
36.7921 22.2933
36.839 22.2216
36.8861 22.0873
36.9331 22.0615
36.9802 22.0094
37.0272 21.8937
37.0743 21.7917
37.1213 21.782
37.1684 21.7582
37.2154 21.6399
37.2626 21.6559
37.3098 21.5266
37.3568 21.4964
37.404 21.3703
37.451 21.3413
37.4982 21.275
37.5452 21.122
37.5924 21.091
37.6395 21.1974
37.6867 21.0843
37.7337 20.9312
37.781 20.8458
37.8281 20.8362
37.8753 20.6545
37.9224 20.623
37.9697 20.6416
38.0168 20.5086
38.064 20.488
38.1111 20.4339
38.1584 20.2661
38.2056 20.2482
38.2529 20.2188
38.3 20.0838
38.3473 20.1203
38.3945 20.0108
38.4418 19.9407
38.489 19.9302
38.5363 19.838
38.5837 19.7174
38.6309 19.6747
38.6782 19.5739
38.7254 19.5821
38.7728 19.5196
38.82 19.3948
38.8674 19.3731
38.9146 19.3762
38.9621 19.2667
39.0093 19.1791
39.0567 19.159
39.104 19.0538
39.1514 18.9646
39.1987 18.984
39.2461 18.9818
39.2934 18.8691
39.3409 18.7217
39.3882 18.673
39.4356 18.6805
39.483 18.5352
39.5304 18.5704
39.5778 18.5493
39.6253 18.4737
39.6726 18.3177
39.7201 18.339
39.7675 18.2463
39.815 18.2068
39.8624 18.1137
39.9099 18.0971
39.9575 18.0347
40.0049 17.9553
40.0525 17.9548
40.0999 17.8505
40.1474 17.8026
40.1949 17.7116
40.2425 17.6772
40.2899 17.6091
40.3375 17.5758
40.385 17.5402
40.4326 17.4904
40.48 17.411
40.5277 17.3899
40.5752 17.2418
40.6228 17.2232
40.6703 17.1786
40.718 17.1016
40.7655 17.0934
40.8132 16.9939
40.8607 16.9882
40.9084 16.9194
40.9559 16.8909
41.0036 16.7946
41.0512 16.7621
41.0989 16.751
41.1465 16.6046
41.1942 16.559
41.242 16.5261
41.2896 16.4768
41.3373 16.3776
41.3849 16.3293
41.4327 16.3008
41.4803 16.2253
41.5281 16.1634
41.5758 16.113
41.6236 16.0357
41.6712 15.9891
41.7191 15.9609
41.7667 15.915
41.8146 15.8378
41.8622 15.8447
41.9101 15.7906
41.9578 15.6429
42.0057 15.6633
42.0534 15.6195
42.1013 15.6031
42.149 15.4508
42.1969 15.4912
42.2446 15.4395
42.2925 15.3882
42.3403 15.3222
42.3882 15.253
42.436 15.2252
42.4839 15.166
42.5319 15.1293
42.5797 15.0529
42.6277 14.9998
42.6755 14.9621
42.7235 14.8701
42.7713 14.8366
42.8193 14.8175
42.8671 14.7281
42.9152 14.7056
42.963 14.6718
43.0111 14.5455
43.0589 14.5285
43.107 14.5157
43.1549 14.4633
43.2029 14.3453
43.2508 14.3311
43.2989 14.2851
43.3468 14.1722
43.3949 14.1814
43.4429 14.1582
43.491 14.1257
43.5389 14.0624
43.5871 14.0298
43.635 13.9207
43.6832 13.902
43.7312 13.8697
43.7793 13.7591
43.8273 13.79
43.8755 13.7306
43.9237 13.6439
43.9717 13.6155
44.0199 13.545
44.068 13.5233
44.1162 13.4706
44.1642 13.4332
44.2125 13.4033
44.2606 13.3439
44.3088 13.2544
44.3569 13.2592
44.4052 13.23
44.4533 13.1334
44.5016 13.0892
44.5497 13.069
44.598 13.0078
44.6461 13.0069
44.6945 12.8852
44.7426 12.8592
44.791 12.7982
44.8391 12.8098
44.8875 12.7439
44.9357 12.6943
44.984 12.6538
45.0322 12.6045
45.0806 12.5266
45.1288 12.5246
45.1773 12.486
45.2257 12.4028
45.2739 12.3853
45.3224 12.353
45.3706 12.3066
45.4191 12.2155
45.4673 12.2412
45.5158 12.1519
45.5641 12.1158
45.6126 12.0833
45.6609 12.0752
45.7094 11.942
45.7577 11.9148
45.8063 11.8742
45.8546 11.9078
45.9031 11.8788
45.9515 11.7801
46.0001 11.7442
46.0484 11.6884
46.097 11.6474
46.1454 11.658
46.194 11.5352
46.2424 11.5112
46.291 11.462
46.3395 11.4595
46.3881 11.3977
46.4365 11.3596
46.4852 11.3252
46.5337 11.2688
46.5823 11.2673
46.631 11.212
46.6795 11.1128
46.7282 11.1297
46.7767 11.0973
46.8254 11.0196
46.8739 10.9888
46.9226 10.9311
46.9712 10.9089
47.0199 10.8618
47.0685 10.788
47.1173 10.8109
47.1658 10.7598
47.2146 10.72
47.2632 10.67
47.312 10.619
47.3606 10.5461
47.4095 10.5485
47.4581 10.501
47.5069 10.4719
47.5556 10.4379
47.6044 10.3495
47.6531 10.3649
47.702 10.2934
47.7507 10.2559
47.7996 10.2673
47.8483 10.181
47.8972 10.1989
47.9461 10.1123
47.9948 10.0816
48.0438 10.0383
48.0925 10.0109
48.1415 9.9736
48.1902 9.91833
48.2392 9.92163
48.288 9.8965
48.337 9.85428
48.3858 9.8001
48.4348 9.78178
48.4837 9.78577
48.5327 9.68909
48.5815 9.65008
48.6306 9.65549
48.6795 9.61252
48.7285 9.53389
48.7774 9.50269
48.8265 9.49779
48.8754 9.442
48.9245 9.4451
48.9734 9.37186
49.0226 9.36958
49.0715 9.30513
49.1206 9.30676
49.1696 9.23589
49.2188 9.20791
49.2679 9.16533
49.3169 9.15558
49.3661 9.08092
49.4151 9.0845
49.4643 9.0098
49.5134 9.0037
49.5626 8.94421
49.6117 8.93701
49.6609 8.8818
49.71 8.83954
49.7592 8.84006
49.8083 8.77314
49.8576 8.77755
49.9067 8.70244
49.956 8.70789
50.0052 8.65413
50.0545 8.63353
50.1036 8.61575
50.153 8.54968
50.2022 8.52464
50.2515 8.48747
50.3007 8.47441
50.3501 8.41697
50.3993 8.40498
50.4487 8.3945
50.498 8.3409
50.5474 8.30637
50.5966 8.25275
50.6461 8.21886
50.6955 8.20717
50.7448 8.16937
50.7943 8.0921
50.8436 8.06396
50.8931 8.0827
50.9424 8.05815
50.9919 8.00323
51.0413 7.96425
51.0908 7.94426
51.1402 7.94207
51.1897 7.9266
51.2391 7.84252
51.2887 7.8009
51.3381 7.77444
51.3877 7.75831
51.4371 7.69393
51.4867 7.67691
51.5362 7.66655
51.5858 7.67681
51.6353 7.59987
51.6849 7.55221
51.7344 7.53684
51.7841 7.50635
51.8336 7.48969
51.8833 7.46045
51.9328 7.38893
51.9826 7.40067
52.0323 7.33554
52.0818 7.35512
52.1316 7.24707
52.1812 7.20495
52.231 7.23447
52.2806 7.2045
52.3304 7.17696
52.38 7.14719
52.4298 7.07324
52.4794 7.06459
52.5293 7.06551
52.5789 7.03133
52.6288 7.00772
52.6785 6.9578
52.7284 6.94933
52.7781 6.9321
52.828 6.84123
52.8777 6.87661
52.9276 6.78529
52.9774 6.79216
53.0273 6.77627
53.0771 6.73303
53.1271 6.74356
53.1769 6.66025
53.2269 6.64969
53.2767 6.63071
53.3267 6.58602
53.3765 6.59461
53.4266 6.54012
53.4766 6.51306
53.5265 6.44585
53.5765 6.42127
53.6264 6.38978
53.6765 6.3821
53.7264 6.3671
53.7765 6.35055
53.8265 6.31203
53.8766 6.27948
53.9266 6.23833
53.9767 6.21298
54.0267 6.22807
54.0769 6.1836
54.1269 6.11834
54.1771 6.11881
54.2271 6.04283
54.2773 6.03215
54.3274 6.03879
54.3776 5.97697
54.4277 5.97029
54.478 5.92824
54.528 5.90956
54.5783 5.84146
54.6285 5.81402
54.6788 5.73989
54.7289 5.69831
54.7792 5.68469
54.8296 5.63483
54.8798 5.55245
54.9301 5.57915
54.9803 5.51373
55.0307 5.52903
55.0809 5.46922
55.1314 5.37703
55.1816 5.35437
55.232 5.35808
55.2823 5.2943
55.3328 5.19633
55.383 5.19189
55.4335 5.10293
55.4838 5.0494
55.5344 5.00393
55.5847 4.99026
55.6352 4.99249
55.6856 4.90268
55.7361 4.93629