File: XRD/Ni3Fe_FD0211.xy
TT I
1.27165 7.83918
1.31627 7.14382
1.36089 7.28665
1.40551 6.62133
1.45013 6.91553
1.49476 6.92244
1.53938 6.39491
1.584 6.43294
1.62863 6.03373
1.67325 5.3298
1.71787 5.82829
1.7625 5.51296
1.80712 5.41449
1.85174 5.34962
1.89636 4.76022
1.94099 5.40853
1.98562 5.05997
2.03025 4.43961
2.07487 4.65201
2.11949 4.90034
2.16411 5.25594
2.20874 4.61865
2.25338 4.58673
2.298 4.79855
2.34263 4.21869
2.38725 4.38008
2.43188 4.73945
2.4765 5.11158
2.52115 5.3314
2.56577 4.74299
2.6104 6.25175
2.65503 6.09415
2.69965 6.48924
2.7443 6.35925
2.78893 6.49144
2.83356 7.15392
2.87818 7.69283
2.92281 8.81418
2.96744 9.46291
3.01209 10.7945
3.05672 11.192
3.10135 11.8855
3.14599 12.6794
3.19062 13.8764
3.23527 15.1302
3.2799 15.7541
3.32454 17.0188
3.36917 17.8445
3.4138 18.9082
3.45844 19.8212
3.50309 20.8238
3.54773 21.8586
3.59237 22.5634
3.637 23.3288
3.68164 24.1908
3.7263 25.1434
3.77094 26.2952
3.81558 27.1199
3.86022 27.8433
3.90486 29.3451
3.9495 29.9649
3.99416 31.4758
4.0388 32.4255
4.08344 33.7757
4.12809 35.1643
4.17273 36.9113
4.21738 38.3481
4.26204 39.1814
4.30669 40.6246
4.35133 42.7549
4.39598 44.2351
4.44063 46.6558
4.4853 48.513
4.52995 51.8475
4.5746 54.0136
4.61925 55.8905
4.6639 58.1942
4.70855 61.3041
4.75322 65.0328
4.79788 68.0267
4.84253 71.9391
4.88719 77.0491
4.93184 82.2049
4.97652 88.8964
5.02118 97.2251
5.06583 108.223
5.11049 125.652
5.15515 170.561
5.19981 891.839
5.24449 3963.99
5.28916 10610.3
5.33382 4425.86
5.37848 281.568
5.42315 155.547
5.46783 130.039
5.5125 118.588
5.55716 113.252
5.60183 107.423
5.6465 105.086
5.69117 103.671
5.73586 101.629
5.78053 101.868
5.8252 102.178
5.86988 105.398
5.91455 111.146
5.95924 134.932
6.00392 447.883
6.0486 1428.13
6.09328 3564.89
6.13795 3744.46
6.18263 384.439
6.22733 111.53
6.27201 89.991
6.3167 81.4515
6.36138 76.7994
6.40606 73.5346
6.45075 71.1881
6.49545 69.1325
6.54014 66.8723
6.58483 65.8948
6.62952 64.2702
6.67421 62.743
6.71892 61.6132
6.76361 60.9936
6.8083 59.7852
6.853 59.538
6.89769 58.8316
6.94239 58.2147
6.98711 57.4664
7.03181 57.3054
7.07651 56.8078
7.12121 56.8184
7.16591 56.6635
7.21063 56.0478
7.25533 55.9111
7.30004 56.0045
7.34475 55.9714
7.38945 56.2466
7.43416 55.9237
7.47889 55.8718
7.5236 56.6329
7.56831 57.9992
7.61303 57.5608
7.65774 57.4584
7.70247 58.5805
7.74719 58.5158
7.79191 59.1936
7.83663 59.3057
7.88135 60.4838
7.92607 61.4587
7.97081 62.7262
8.01553 64.1542
8.06026 65.717
8.10498 66.7487
8.14971 68.9839
8.19446 70.9402
8.23919 73.1797
8.28392 76.5692
8.32865 79.6045
8.37339 84.814
8.41812 90.8157
8.46288 110.573
8.50761 291.963
8.55235 595.782
8.59709 1047.3
8.64183 1955.32
8.68658 1270.21
8.73134 232.545
8.77609 112.578
8.82083 101.201
8.86558 96.0409
8.91033 93.3358
8.9551 91.2424
8.99985 89.8964
9.04461 88.898
9.08936 88.1278
9.13412 87.3431
9.17888 87.0025
9.22365 87.9337
9.26841 87.9555
9.31318 88.2615
9.35794 88.5734
9.4027 88.4251
9.44749 89.373
9.49226 90.001
9.53703 91.1847
9.5818 92.9956
9.62657 94.276
9.67134 96.1043
9.71614 97.8427
9.76091 100.512
9.80569 103.713
9.85047 107.119
9.89525 113.143
9.94005 135.687
9.98484 303.952
10.0296 527.116
10.0744 790.693
10.1192 1426.07
10.164 1719.48
10.2088 594.726
10.2536 153.125
10.2984 118.855
10.3432 113.249
10.388 115.196
10.4328 159.703
10.4776 214.627
10.5224 280.026
10.5672 437.834
10.612 527.513
10.6568 259.432
10.7017 108.195
10.7465 92.8519
10.7913 88.6498
10.8361 85.7241
10.8809 83.3099
10.9257 81.0184
10.9706 79.5784
11.0154 77.8765
11.0602 76.6261
11.105 75.443
11.1499 73.688
11.1947 72.8485
11.2395 71.6468
11.2844 70.9719
11.3292 70.2072
11.374 69.4674
11.4189 68.8545
11.4637 68.256
11.5086 67.3466
11.5534 67.1584
11.5983 66.7809
11.6431 66.6146
11.688 66.1093
11.7328 66.1914
11.7777 66.0449
11.8225 65.5942
11.8674 65.7168
11.9122 66.3083
11.9571 66.843
12.002 68.8033
12.0468 80.0956
12.0917 95.2556
12.1366 108.558
12.1814 138.031
12.2263 188.617
12.2712 184.428
12.3161 105.135
12.3609 71.2606
12.4058 67.6503
12.4507 67.6792
12.4956 67.703
12.5405 67.709
12.5853 68.2506
12.6302 68.437
12.6751 69.134
12.72 69.783
12.7649 70.9617
12.8098 71.9033
12.8547 73.3747
12.8996 75.347
12.9445 76.4307
12.9894 78.9263
13.0343 81.1789
13.0792 86.5353
13.1242 110.529
13.1691 149.528
13.214 175.702
13.2589 225.743
13.3038 313.847
13.3487 419.113
13.3937 315.481
13.4386 153.226
13.4835 134.773
13.5285 155.24
13.5734 173.713
13.6183 222.013
13.6633 306.974
13.7082 361.356
13.7531 236.163
13.7981 113.832
13.843 87.9088
13.888 84.4494
13.9329 81.5209
13.9779 80.4082
14.0228 78.7383
14.0678 77.4148
14.1127 76.5725
14.1577 75.6795
14.2027 75.1361
14.2476 74.4959
14.2926 73.5507
14.3376 73.2317
14.3825 72.7787
14.4275 72.6536
14.4725 72.6685
14.5175 73.0045
14.5624 72.8674
14.6074 73.2807
14.6524 73.8219
14.6974 74.7978
14.7424 80.7113
14.7874 96.0995
14.8324 107.492
14.8774 119.391
14.9224 143.228
14.9674 183.794
15.0124 221.613
15.0574 176.853
15.1024 105.334
15.1474 77.8601
15.1924 74.4325
15.2374 72.66
15.2824 71.7373
15.3274 70.8997
15.3725 70.537
15.4175 69.9399
15.4625 69.6279
15.5076 69.4479
15.5526 69.8336
15.5976 70.0642
15.6426 74.6658
15.6877 86.8242
15.7327 95.9235
15.7778 103.769
15.8228 121.499
15.8679 151.049
15.9129 188.36
15.958 178.264
16.003 115.467
16.0481 74.2959
16.0931 66.2343
16.1382 64.2
16.1833 63.3802
16.2283 61.8626
16.2734 61.217
16.3185 60.5515
16.3636 59.8067
16.4086 59.2377
16.4537 58.8578
16.4988 58.2972
16.5439 58.0569
16.589 57.8151
16.6341 57.6766
16.6792 57.17
16.7243 57.3398
16.7694 57.454
16.8145 57.4484
16.8596 57.4828
16.9047 57.7186
16.9498 57.9875
16.9949 57.992
17.04 59.5536
17.0851 62.1187
17.1302 64.2066
17.1754 65.9569
17.2205 68.8787
17.2656 73.6598
17.3108 81.4804
17.3559 85.2036
17.401 77.9347
17.4462 67.4718
17.4913 62.7129
17.5365 62.3303
17.5815 62.4971
17.6268 62.9696
17.6718 63.1579
17.7171 63.6877
17.7622 64.8467
17.8074 66.3652
17.8525 72.3806
17.8977 78.8263
17.9428 83.0788
17.9881 88.0779
18.0331 98.6879
18.0784 113.935
18.1237 137.428
18.1688 145.469
18.214 120.938
18.2591 94.5351
18.3044 90.1208
18.3495 96.3855
18.3948 106.468
18.4399 102.933
18.4852 85.1537
18.5303 71.005
18.5756 65.846
18.6207 64.5494
18.666 63.7586
18.7112 62.8997
18.7565 62.2087
18.8016 61.8686
18.8469 61.0786
18.892 60.8366
18.9374 60.219
18.9825 59.9824
19.0278 59.9495
19.073 60.7262
19.1183 61.5898
19.1635 62.4455
19.2088 63.0862
19.254 64.6566
19.2993 67.2739
19.3447 71.1051
19.3898 76.0443
19.4352 76.6655
19.4804 69.3117
19.5257 60.9809
19.5709 57.2281
19.6163 56.8779
19.6615 56.7342
19.7068 56.1008
19.752 56.3416
19.7974 57.1637
19.8426 58.5169
19.888 59.152
19.9332 59.6254
19.9786 61.2184
20.0238 64.0694
20.0692 68.3508
20.1144 72.534
20.1598 73.3847
20.205 68.3386
20.2504 64.4931
20.2957 64.3748
20.3411 66.7829
20.3863 67.6549
20.4318 62.9409
20.477 57.1801
20.5224 54.0995
20.5677 53.3367
20.6131 52.8207
20.6586 52.3178
20.7038 52.1282
20.7493 51.6123
20.7945 51.535
20.84 51.5028
20.8853 51.2682
20.9307 51.3875
20.976 51.5695
21.0215 51.5306
21.0668 51.6793
21.1122 51.8418
21.1575 52.2291
21.203 52.5689
21.2483 53.5643
21.2938 54.2122
21.3391 53.0694
21.3846 51.7661
21.4299 51.0814
21.4754 51.1143
21.5207 51.2553
21.5662 51.818
21.6116 52.9878
21.6571 53.8708
21.7024 54.5239
21.7479 55.6316
21.7933 57.484
21.8388 60.0225
21.8843 63.3721
21.9297 66.68
21.9752 67.0781
22.0206 63.4112
22.0661 59.1162
22.1115 57.8076
22.157 58.4538
22.2024 57.7206
22.248 54.921
22.2933 52.7926
22.3389 51.6878
22.3843 51.0998
22.4299 50.9324
22.4753 51.2201
22.5208 51.0185
22.5662 51.1817
22.6118 51.6018
22.6572 52.0872
22.7028 52.7538
22.7483 52.966
22.7939 53.2172
22.8393 54.2466
22.8849 55.5114
22.9303 56.9659
22.9759 58.9944
23.0214 60.0324
23.067 58.3772
23.1126 54.6387
23.1581 52.2203
23.2037 51.6597
23.2492 52.0029
23.2948 52.2088
23.3403 52.4054
23.3859 52.8256
23.4314 53.2911
23.477 54.2819
23.5225 55.4187
23.5682 57.6023
23.6137 59.5157
23.6593 59.1807
23.7048 55.679
23.7505 51.6301
23.796 49.2537
23.8417 48.5362
23.8872 47.9879
23.9329 47.6681
23.9784 47.2091
24.0241 46.9805
24.0697 46.7248
24.1154 46.4052
24.1609 46.2607
24.2066 46.0052
24.2522 45.7795
24.2979 45.6338
24.3434 45.393
24.3892 45.2068
24.4349 45.344
24.4805 45.0317
24.5262 45.2058
24.5718 44.9537
24.6175 45.0253
24.6631 44.9511
24.7089 44.6866
24.7545 44.4366
24.8002 44.4257
24.8458 44.6171
24.8916 44.4411
24.9372 44.525
24.983 44.8384
25.0286 45.0928
25.0744 45.5195
25.12 45.7187
25.1658 46.1982
25.2114 46.7914
25.2572 46.7908
25.3029 46.5022
25.3487 46.695
25.3943 46.5973
25.4402 46.0433
25.4858 44.9165
25.5316 43.7127
25.5773 42.9979
25.6231 43.1645
25.669 42.6423
25.7147 42.7357
25.7605 42.623
25.8062 42.7269
25.8521 42.5939
25.8977 42.5256
25.9436 42.7452
25.9893 42.8089
26.0352 43.2549
26.0809 43.3581
26.1268 43.6837
26.1725 43.5416
26.2184 43.122
26.2641 42.6854
26.31 42.3111
26.3557 42.2929
26.4017 42.2452
26.4474 42.4702
26.4933 42.6216
26.5391 42.9714
26.585 43.2822
26.6308 43.805
26.6767 44.1494
26.7225 44.1109
26.7684 43.6009
26.8142 42.7674
26.8601 42.4378
26.9059 42.1109
26.9519 41.5888
26.9979 41.3542
27.0437 40.9458
27.0896 40.8808
27.1354 40.7602
27.1814 40.5917
27.2272 40.5525
27.2732 40.5653
27.3191 40.2705
27.3651 40.3508
27.4109 40.3802
27.4569 40.3121
27.5027 40.2765
27.5488 40.4068
27.5946 40.3748
27.6407 40.275
27.6865 40.2452
27.7326 39.9233
27.7784 39.8896
27.8245 39.7268
27.8703 39.9625
27.9164 39.9809
27.9623 39.9954
28.0084 40.1821
28.0543 40.6664
28.1003 40.8282
28.1462 40.7159
28.1923 40.4734
28.2384 39.8409
28.2843 39.3886
28.3304 39.0275
28.3764 38.6017
28.4225 38.2752
28.4684 38.0145
28.5145 37.7663
28.5605 37.5097
28.6066 37.4816
28.6526 37.3691
28.6987 37.3305
28.7447 37.1815
28.7908 37.2383
28.8368 37.1319
28.8829 37.097
28.9289 37.114
28.9751 36.9814
29.0211 36.8192
29.0673 36.4876
29.1133 36.267
29.1595 36.1199
29.2055 36.1511
29.2517 35.9454
29.2977 35.9273
29.3439 35.8194
29.3899 35.8761
29.4361 35.9095
29.4824 35.6752
29.5284 35.3486
29.5746 35.0511
29.6207 34.8368
29.6669 34.7328
29.713 34.6565
29.7593 34.4327
29.8053 34.531
29.8516 34.3612
29.8977 34.3637
29.9439 34.2266
29.99 34.2459
30.0363 34.0248
30.0824 34.1281
30.1287 33.9822
30.1748 34.0543
30.2211 34.0134
30.2673 33.876
30.3136 33.9265
30.3597 33.8519
30.406 33.8531
30.4522 33.6485
30.4985 33.6077
30.5447 33.7395
30.591 33.5953
30.6372 33.7531
30.6835 33.7427
30.7297 33.6307
30.7761 33.7913
30.8224 33.5187
30.8686 33.448
30.915 33.2812
30.9612 33.0743
31.0076 32.9347
31.0538 32.7581
31.1002 32.7338
31.1464 32.5975
31.1928 32.4533
31.2391 32.6178
31.2855 32.4159
31.3317 32.4052
31.3781 32.4296
31.4244 32.4528
31.4708 32.311
31.5171 32.3301
31.5636 32.2773
31.6098 32.1345
31.6563 31.9053
31.7026 31.8611
31.7491 31.5151
31.7953 31.5944
31.8418 31.5565
31.8881 31.5749
31.9346 31.5315
31.9809 31.4895
32.0275 31.3579
32.074 31.3254
32.1203 31.0982
32.1668 30.9384
32.2132 30.8463
32.2597 30.736
32.306 30.6386
32.3526 30.3543
32.399 30.3375
32.4455 30.1941
32.4919 30.1708
32.5385 30.0479
32.5848 29.8949
32.6314 29.9484
32.6778 29.8467
32.7244 29.6131
32.7708 29.5664
32.8174 29.5977
32.8638 29.4725
32.9104 29.4791
32.9569 29.3549
33.0035 29.1748
33.0499 29.1951
33.0966 29.1524
33.143 29.1205
33.1897 29.0716
33.2361 28.9591
33.2828 29.0635
33.3293 28.6925
33.3759 28.731
33.4226 28.5828
33.4691 28.5058
33.5158 28.4019
33.5623 28.2286
33.609 28.0439
33.6555 28.0341
33.7022 27.9136
33.7487 27.8194
33.7954 27.7693
33.842 27.7023
33.8887 27.6006
33.9353 27.4974
33.982 27.3989
34.0286 27.3364
34.0753 27.2764
34.1219 27.2011
34.1687 27.1813
34.2152 27.0242
34.262 26.8664
34.3086 26.8035
34.3554 26.747
34.402 26.6289
34.4488 26.5551
34.4954 26.5709
34.5422 26.3761
34.5889 26.2464
34.6357 26.1948
34.6825 26.1382
34.7292 26.0474
34.776 25.9672
34.8227 25.9173
34.8695 25.8326
34.9162 25.8215
34.9631 25.6798
35.0098 25.696
35.0566 25.4995
35.1033 25.4729
35.1502 25.4165
35.1969 25.3966
35.2438 25.3058
35.2906 25.2581
35.3375 25.2322
35.3842 25.182
35.4311 25.1281
35.4779 25.089
35.5248 25.1271
35.5716 24.994
35.6185 24.8931
35.6653 24.729
35.7123 24.6859
35.759 24.6489
35.806 24.5489
35.8528 24.4272
35.8998 24.3465
35.9468 24.2963
35.9936 24.2342
36.0406 24.2081
36.0874 24.1668
36.1345 23.9686
36.1813 23.9264
36.2283 23.8135
36.2752 23.7577
36.3222 23.7764
36.3691 23.6994
36.4161 23.5091
36.463 23.4944
36.5101 23.4872
36.557 23.4308
36.6041 23.2984
36.651 23.2149
36.6981 23.2096
36.745 23.1084
36.7921 23.0828
36.839 22.9156
36.8861 22.9155
36.9331 22.8628
36.9802 22.7191
37.0272 22.5981
37.0743 22.5265
37.1213 22.5182
37.1684 22.5126
37.2154 22.3525
37.2626 22.3201
37.3098 22.1931
37.3568 22.1852
37.404 22.1073
37.451 22.0517
37.4982 21.9226
37.5452 21.8441
37.5924 21.8995
37.6395 21.849
37.6867 21.7648
37.7337 21.5783
37.781 21.5559
37.8281 21.5242
37.8753 21.3744
37.9224 21.2804
37.9697 21.2631
38.0168 21.1645
38.064 21.191
38.1111 21.043
38.1584 20.9798
38.2056 20.9014
38.2529 20.898
38.3 20.7655
38.3473 20.785
38.3945 20.6405
38.4418 20.66
38.489 20.5278
38.5363 20.4979
38.5837 20.3788
38.6309 20.3557
38.6782 20.2693
38.7254 20.1476
38.7728 20.1849
38.82 20.0497
38.8674 20.023
38.9146 19.9974
38.9621 19.8637
39.0093 19.8665
39.0567 19.774
39.104 19.6756
39.1514 19.5753
39.1987 19.5633
39.2461 19.5615
39.2934 19.4948
39.3409 19.3884
39.3882 19.2953
39.4356 19.2706
39.483 19.254
39.5304 19.1255
39.5778 19.1131
39.6253 19.025
39.6726 19.0085
39.7201 18.8985
39.7675 18.8152
39.815 18.8088
39.8624 18.7377
39.9099 18.6908
39.9575 18.5938
40.0049 18.5401
40.0525 18.4914
40.0999 18.4611
40.1474 18.355
40.1949 18.2425
40.2425 18.2376
40.2899 18.2071
40.3375 18.1041
40.385 18.0417
40.4326 18.0054
40.48 17.9368
40.5277 17.9129
40.5752 17.9017
40.6228 17.728
40.6703 17.6914
40.718 17.666
40.7655 17.6333
40.8132 17.5423
40.8607 17.5319
40.9084 17.5111
40.9559 17.4315
41.0036 17.4136
41.0512 17.345
41.0989 17.2306
41.1465 17.1695
41.1942 17.1229
41.242 17.0097
41.2896 16.9951
41.3373 16.9658
41.3849 16.8894
41.4327 16.813
41.4803 16.7713
41.5281 16.7023
41.5758 16.6063
41.6236 16.5693
41.6712 16.5357
41.7191 16.4444
41.7667 16.4482
41.8146 16.3935
41.8622 16.2729
41.9101 16.282
41.9578 16.2065
42.0057 16.1277
42.0534 16.1194
42.1013 16.0509
42.149 16.0319
42.1969 15.9454
42.2446 15.8812
42.2925 15.8664
42.3403 15.7841
42.3882 15.764
42.436 15.7139
42.4839 15.5909
42.5319 15.6085
42.5797 15.5232
42.6277 15.4488
42.6755 15.4448
42.7235 15.3463
42.7713 15.3308
42.8193 15.2907
42.8671 15.1747
42.9152 15.1847
42.963 15.0918
43.0111 15.051
43.0589 14.9662
43.107 14.9172
43.1549 14.8923
43.2029 14.801
43.2508 14.7868
43.2989 14.7323
43.3468 14.6761
43.3949 14.6146
43.4429 14.6462
43.491 14.5536
43.5389 14.4921
43.5871 14.4321
43.635 14.3727
43.6832 14.3423
43.7312 14.2748
43.7793 14.2264
43.8273 14.1952
43.8755 14.0895
43.9237 14.085
43.9717 14.0552
44.0199 13.9689
44.068 14.0208
44.1162 13.9101
44.1642 13.8348
44.2125 13.7599
44.2606 13.8087
44.3088 13.699
44.3569 13.5992
44.4052 13.6207
44.4533 13.5167
44.5016 13.4933
44.5497 13.4832
44.598 13.4239
44.6461 13.3325
44.6945 13.3204
44.7426 13.2466
44.791 13.2287
44.8391 13.1604
44.8875 13.1236
44.9357 13.0945
44.984 13.0842
45.0322 13.0041
45.0806 12.9177
45.1288 12.9327
45.1773 12.9128
45.2257 12.7939
45.2739 12.752
45.3224 12.7091
45.3706 12.6846
45.4191 12.6219
45.4673 12.5625
45.5158 12.5382
45.5641 12.4799
45.6126 12.4486
45.6609 12.3584
45.7094 12.3541
45.7577 12.3195
45.8063 12.2557
45.8546 12.2488
45.9031 12.1519
45.9515 12.1551
46.0001 12.1049
46.0484 12.0709
46.097 12.0507
46.1454 11.9335
46.194 11.9465
46.2424 11.8478
46.291 11.8827
46.3395 11.7741
46.3881 11.7566
46.4365 11.7547
46.4852 11.6688
46.5337 11.6049
46.5823 11.6058
46.631 11.5497
46.6795 11.5178
46.7282 11.4873
46.7767 11.4693
46.8254 11.3254
46.8739 11.3067
46.9226 11.3066
46.9712 11.2241
47.0199 11.1617
47.0685 11.1469
47.1173 11.0784
47.1658 11.061
47.2146 10.9962
47.2632 10.99
47.312 10.9823
47.3606 10.909
47.4095 10.881
47.4581 10.8315
47.5069 10.8091
47.5556 10.7123
47.6044 10.7294
47.6531 10.6816
47.702 10.6077
47.7507 10.5612
47.7996 10.5708
47.8483 10.5327
47.8972 10.4958
47.9461 10.4285
47.9948 10.3934
48.0438 10.3717
48.0925 10.3512
48.1415 10.2934
48.1902 10.2594
48.2392 10.2347
48.288 10.2024
48.337 10.1853
48.3858 10.0787
48.4348 10.1253
48.4837 10.0918
48.5327 10.0145
48.5815 9.95645
48.6306 9.95549
48.6795 9.88675
48.7285 9.85039
48.7774 9.82137
48.8265 9.83208
48.8754 9.74804
48.9245 9.73266
48.9734 9.65394
49.0226 9.68266
49.0715 9.60785
49.1206 9.55507
49.1696 9.54474
49.2188 9.47785
49.2679 9.49356
49.3169 9.40981
49.3661 9.32542
49.4151 9.32377
49.4643 9.31507
49.5134 9.29038
49.5626 9.22689
49.6117 9.20685
49.6609 9.19183
49.71 9.12919
49.7592 9.13513
49.8083 9.09217
49.8576 9.05031
49.9067 8.97412
49.956 8.94992
50.0052 8.89086
50.0545 8.91287
50.1036 8.86909
50.153 8.78215
50.2022 8.80203
50.2515 8.74281
50.3007 8.7149
50.3501 8.67817
50.3993 8.66158
50.4487 8.61634
50.498 8.60049
50.5474 8.57406
50.5966 8.51695
50.6461 8.4634
50.6955 8.46775
50.7448 8.42712
50.7943 8.41002
50.8436 8.33893
50.8931 8.31303
50.9424 8.28322
50.9919 8.26446
51.0413 8.23286
51.0908 8.18742
51.1402 8.14924
51.1897 8.12479
51.2391 8.12864
51.2887 8.07661
51.3381 8.04221
51.3877 7.99496
51.4371 7.95248
51.4867 7.9317
51.5362 7.96648
51.5858 7.85943
51.6353 7.82373
51.6849 7.76276
51.7344 7.76335
51.7841 7.7504
51.8336 7.71339
51.8833 7.64591
51.9328 7.63787
51.9826 7.58242
52.0323 7.56199
52.0818 7.54333
52.1316 7.50769
52.1812 7.49121
52.231 7.43255
52.2806 7.43599
52.3304 7.41367
52.38 7.35457
52.4298 7.32866
52.4794 7.27485
52.5293 7.23952
52.5789 7.21626
52.6288 7.222
52.6785 7.16031
52.7284 7.16018
52.7781 7.14257
52.828 7.09314
52.8777 7.08766
52.9276 7.03287
52.9774 6.96373
53.0273 6.96649
53.0771 6.93595
53.1271 6.93861
53.1769 6.88186
53.2269 6.85111
53.2767 6.81094
53.3267 6.78905
53.3765 6.76123
53.4266 6.70203
53.4766 6.67382
53.5265 6.6645
53.5765 6.67938
53.6264 6.61354
53.6765 6.57894
53.7264 6.5754
53.7765 6.51081
53.8265 6.53125
53.8766 6.47305
53.9266 6.44808
53.9767 6.39871
54.0267 6.44079
54.0769 6.32967
54.1269 6.34639
54.1771 6.25373
54.2271 6.29459
54.2773 6.22366
54.3274 6.17008
54.3776 6.16376
54.4277 6.12532
54.478 6.09899
54.528 6.05993
54.5783 5.98876
54.6285 5.92918
54.6788 5.87986
54.7289 5.84789
54.7792 5.79455
54.8296 5.78314
54.8798 5.74851
54.9301 5.68191
54.9803 5.67121
55.0307 5.63169
55.0809 5.57353
55.1314 5.51857
55.1816 5.43252
55.232 5.38461
55.2823 5.34583
55.3328 5.33285
55.383 5.28468
55.4335 5.22139
55.4838 5.18791
55.5344 5.14685
55.5847 5.10009
55.6352 5.06161
55.6856 5.05082
55.7361 4.97053