File: XRD/Ni3Fe_FD0240.xy
TT I
1.27165 7.79643
1.31627 7.34038
1.36089 7.06702
1.40551 7.04925
1.45013 6.38303
1.49476 6.78458
1.53938 6.23429
1.584 6.30678
1.62863 5.95781
1.67325 5.43272
1.71787 6.04433
1.7625 5.05883
1.80712 5.18664
1.85174 5.1235
1.89636 4.82068
1.94099 5.02975
1.98562 4.67856
2.03025 4.8398
2.07487 4.92312
2.11949 4.94279
2.16411 4.69891
2.20874 4.55704
2.25338 4.87539
2.298 4.80116
2.34263 4.46961
2.38725 5.06449
2.43188 4.99368
2.4765 5.24645
2.52115 4.68509
2.56577 5.78215
2.6104 6.28621
2.65503 4.97615
2.69965 6.21537
2.7443 6.775
2.78893 6.866
2.83356 7.17939
2.87818 8.46227
2.92281 8.38018
2.96744 9.45989
3.01209 10.3871
3.05672 10.8629
3.10135 12.0509
3.14599 13.0619
3.19062 14.0908
3.23527 15.0363
3.2799 16.0798
3.32454 16.8181
3.36917 17.6579
3.4138 19.3254
3.45844 19.8794
3.50309 20.6859
3.54773 21.5493
3.59237 22.1569
3.637 23.0501
3.68164 24.0066
3.7263 25.2167
3.77094 25.8619
3.81558 26.8361
3.86022 27.4311
3.90486 29.4942
3.9495 30.0319
3.99416 31.0616
4.0388 32.3065
4.08344 34.0963
4.12809 34.9994
4.17273 36.3877
4.21738 37.9308
4.26204 39.322
4.30669 40.718
4.35133 42.3443
4.39598 44.3732
4.44063 46.3223
4.4853 48.2366
4.52995 52.4732
4.5746 54.4663
4.61925 55.8586
4.6639 58.0637
4.70855 61.0271
4.75322 64.4948
4.79788 68.7035
4.84253 71.6306
4.88719 76.6356
4.93184 81.0196
4.97652 87.8924
5.02118 96.0786
5.06583 107.08
5.11049 123.77
5.15515 168.007
5.19981 885.879
5.24449 3954.99
5.28916 10530.5
5.33382 4106.79
5.37848 270.236
5.42315 152.156
5.46783 129.318
5.5125 117.739
5.55716 111.527
5.60183 106.74
5.6465 103.493
5.69117 102.727
5.73586 100.264
5.78053 102.223
5.8252 102.289
5.86988 104.493
5.91455 109.682
5.95924 132.431
6.00392 445.524
6.0486 1428.96
6.09328 3664.64
6.13795 3662.96
6.18263 346.302
6.22733 108.321
6.27201 88.545
6.3167 80.9016
6.36138 75.7457
6.40606 72.8302
6.45075 70.7651
6.49545 67.9623
6.54014 66.3112
6.58483 65.1939
6.62952 64.1704
6.67421 62.3048
6.71892 61.0273
6.76361 60.406
6.8083 59.8592
6.853 59.2825
6.89769 58.545
6.94239 57.9251
6.98711 57.4713
7.03181 56.9974
7.07651 56.6115
7.12121 56.2342
7.16591 56.5707
7.21063 55.8425
7.25533 55.6258
7.30004 55.6371
7.34475 55.6375
7.38945 55.8667
7.43416 55.0913
7.47889 55.6148
7.5236 56.2094
7.56831 56.8406
7.61303 56.9395
7.65774 57.1737
7.70247 58.2061
7.74719 58.2634
7.79191 58.9212
7.83663 58.9011
7.88135 60.1147
7.92607 61.2047
7.97081 62.5184
8.01553 63.7056
8.06026 65.4706
8.10498 66.4212
8.14971 68.8791
8.19446 70.4005
8.23919 73.1067
8.28392 75.7756
8.32865 78.9619
8.37339 84.194
8.41812 90.1925
8.46288 110.799
8.50761 291.174
8.55235 580.946
8.59709 1077.51
8.64183 1979.75
8.68658 1190.65
8.73134 214.373
8.77609 110.211
8.82083 99.7793
8.86558 96.0341
8.91033 93.0035
8.9551 90.9289
8.99985 89.009
9.04461 88.4669
9.08936 88.0787
9.13412 86.7758
9.17888 86.5164
9.22365 86.6824
9.26841 86.2375
9.31318 88.0733
9.35794 88.428
9.4027 88.3108
9.44749 88.5627
9.49226 89.3508
9.53703 90.7434
9.5818 92.6798
9.62657 94.6957
9.67134 95.2855
9.71614 97.2992
9.76091 99.7919
9.80569 103.185
9.85047 106.436
9.89525 112.114
9.94005 137.533
9.98484 303.292
10.0296 513.299
10.0744 807.522
10.1192 1459.81
10.164 1693.3
10.2088 538.402
10.2536 146.755
10.2984 117.169
10.3432 112.465
10.388 115.18
10.4328 158.976
10.4776 211.091
10.5224 283.87
10.5672 451.228
10.612 537.803
10.6568 252.708
10.7017 107.4
10.7465 91.8982
10.7913 87.719
10.8361 84.7376
10.8809 82.7788
10.9257 80.6585
10.9706 79.2003
11.0154 77.7
11.0602 75.9547
11.105 74.8267
11.1499 73.2066
11.1947 72.107
11.2395 70.8001
11.2844 70.6014
11.3292 69.7345
11.374 69.0016
11.4189 68.6953
11.4637 67.7187
11.5086 66.9589
11.5534 66.48
11.5983 66.3646
11.6431 66.1867
11.688 65.6269
11.7328 65.5802
11.7777 65.2881
11.8225 65.2557
11.8674 65.2022
11.9122 65.7022
11.9571 66.1234
12.002 68.9179
12.0468 79.8086
12.0917 93.8758
12.1366 109.383
12.1814 141.38
12.2263 193.686
12.2712 182.613
12.3161 102.632
12.3609 69.9218
12.4058 66.9264
12.4507 67.0437
12.4956 67.3217
12.5405 67.4083
12.5853 67.7162
12.6302 67.8004
12.6751 68.8198
12.72 69.5037
12.7649 70.7135
12.8098 71.7139
12.8547 72.8785
12.8996 74.896
12.9445 76.5586
12.9894 78.507
13.0343 80.5951
13.0792 86.6626
13.1242 111.348
13.1691 146.175
13.214 174.799
13.2589 231.039
13.3038 324.735
13.3487 421.735
13.3937 306.371
13.4386 149.65
13.4835 133.243
13.5285 152.598
13.5734 175.68
13.6183 228.417
13.6633 314.152
13.7082 355.2
13.7531 223.854
13.7981 110.671
13.843 86.682
13.888 84.2059
13.9329 81.2047
13.9779 79.6544
14.0228 78.3481
14.0678 76.5445
14.1127 75.9676
14.1577 75.3177
14.2027 74.4949
14.2476 73.9949
14.2926 73.4855
14.3376 73.1586
14.3825 72.2387
14.4275 72.3111
14.4725 72.3053
14.5175 72.353
14.5624 72.6739
14.6074 72.7149
14.6524 73.5579
14.6974 74.7826
14.7424 81.2943
14.7874 94.8265
14.8324 106.308
14.8774 120.18
14.9224 146.37
14.9674 188.935
15.0124 222.771
15.0574 170.269
15.1024 101.369
15.1474 76.8694
15.1924 73.8033
15.2374 72.0979
15.2824 71.1316
15.3274 70.585
15.3725 70.1518
15.4175 69.7029
15.4625 69.2148
15.5076 68.9411
15.5526 69.1639
15.5976 69.7878
15.6426 75.1677
15.6877 86.0485
15.7327 94.6462
15.7778 103.771
15.8228 122.471
15.8679 153.42
15.9129 189.809
15.958 173.792
16.003 110.343
16.0481 72.1613
16.0931 65.7179
16.1382 63.8953
16.1833 62.9793
16.2283 61.4426
16.2734 60.9936
16.3185 60.1911
16.3636 59.5948
16.4086 58.7208
16.4537 58.2339
16.4988 57.7843
16.5439 57.9139
16.589 57.5936
16.6341 57.5916
16.6792 56.9834
16.7243 57.057
16.7694 57.1254
16.8145 57.0832
16.8596 57.2707
16.9047 57.5052
16.9498 57.4679
16.9949 57.7968
17.04 59.1552
17.0851 61.6902
17.1302 63.8964
17.1754 65.699
17.2205 69.0573
17.2656 74.0942
17.3108 82.121
17.3559 86.2955
17.401 76.9482
17.4462 66.4324
17.4913 62.303
17.5365 62.0502
17.5815 62.1428
17.6268 62.7066
17.6718 63.0241
17.7171 63.5121
17.7622 64.4315
17.8074 66.3704
17.8525 72.2606
17.8977 77.9781
17.9428 82.6155
17.9881 88.5462
18.0331 99.7235
18.0784 115.768
18.1237 139.288
18.1688 144.809
18.214 117.655
18.2591 93.4484
18.3044 90.4939
18.3495 97.3703
18.3948 106.55
18.4399 101.194
18.4852 83.4803
18.5303 69.9871
18.5756 65.3414
18.6207 64.3698
18.666 63.23
18.7112 62.5678
18.7565 61.8535
18.8016 61.4164
18.8469 60.7907
18.892 60.5596
18.9374 59.9513
18.9825 59.7614
19.0278 59.5485
19.073 60.0899
19.1183 61.2214
19.1635 61.9829
19.2088 62.9556
19.254 64.7787
19.2993 67.3428
19.3447 71.7718
19.3898 76.4008
19.4352 76.0557
19.4804 68.1528
19.5257 60.1342
19.5709 57.0354
19.6163 56.4245
19.6615 56.331
19.7068 55.7933
19.752 56.0021
19.7974 56.9876
19.8426 58.0566
19.888 58.5569
19.9332 59.3859
19.9786 61.4886
20.0238 64.0289
20.0692 68.6976
20.1144 72.6377
20.1598 73.1789
20.205 67.7665
20.2504 64.2607
20.2957 64.53
20.3411 66.8563
20.3863 67.1094
20.4318 62.0519
20.477 56.4024
20.5224 53.6865
20.5677 52.8963
20.6131 52.428
20.6586 51.7937
20.7038 51.6438
20.7493 51.346
20.7945 51.3007
20.84 51.0459
20.8853 51.0488
20.9307 51.0687
20.976 51.4055
21.0215 51.2833
21.0668 51.3359
21.1122 51.7128
21.1575 51.9733
21.203 52.6023
21.2483 53.2683
21.2938 53.8774
21.3391 52.8718
21.3846 51.657
21.4299 50.7892
21.4754 50.8918
21.5207 51.0908
21.5662 51.7988
21.6116 52.7746
21.6571 53.484
21.7024 54.2285
21.7479 55.3812
21.7933 57.3074
21.8388 59.9775
21.8843 63.6507
21.9297 66.8939
21.9752 66.7186
22.0206 63.0296
22.0661 58.7289
22.1115 57.6979
22.157 58.2062
22.2024 57.2558
22.248 54.5175
22.2933 52.4463
22.3389 51.2477
22.3843 51.0617
22.4299 50.8227
22.4753 50.8044
22.5208 50.8517
22.5662 50.8778
22.6118 51.3605
22.6572 51.7951
22.7028 52.4881
22.7483 52.8135
22.7939 53.1283
22.8393 54.2826
22.8849 55.5207
22.9303 57.1481
22.9759 59.2174
23.0214 59.9011
23.067 57.6489
23.1126 54.3051
23.1581 52.0199
23.2037 51.4135
23.2492 51.8076
23.2948 51.8978
23.3403 52.1216
23.3859 52.49
23.4314 53.2856
23.477 54.3365
23.5225 55.7259
23.5682 57.6911
23.6137 59.632
23.6593 58.6867
23.7048 55.0235
23.7505 51.0622
23.796 49.0438
23.8417 48.2877
23.8872 47.6398
23.9329 47.3675
23.9784 47.1156
24.0241 46.6122
24.0697 46.5825
24.1154 46.1459
24.1609 45.8686
24.2066 45.6971
24.2522 45.5942
24.2979 45.4934
24.3434 45.3139
24.3892 45.1488
24.4349 45.012
24.4805 44.9308
24.5262 45.015
24.5718 44.9046
24.6175 44.7572
24.6631 44.7575
24.7089 44.3681
24.7545 44.2751
24.8002 44.3412
24.8458 44.2158
24.8916 44.1215
24.9372 44.4243
24.983 44.658
25.0286 44.9929
25.0744 45.4349
25.12 45.5766
25.1658 46.0212
25.2114 46.5887
25.2572 46.4856
25.3029 46.2926
25.3487 46.5952
25.3943 46.7075
25.4402 46.0301
25.4858 44.7005
25.5316 43.6253
25.5773 42.7872
25.6231 42.8288
25.669 42.3331
25.7147 42.5131
25.7605 42.3747
25.8062 42.4479
25.8521 42.5208
25.8977 42.3093
25.9436 42.5086
25.9893 42.699
26.0352 43.1572
26.0809 43.2611
26.1268 43.5393
26.1725 43.445
26.2184 42.985
26.2641 42.3353
26.31 42.1763
26.3557 42.135
26.4017 42.1184
26.4474 42.2802
26.4933 42.6445
26.5391 42.8102
26.585 43.136
26.6308 43.804
26.6767 43.8597
26.7225 43.9582
26.7684 43.3924
26.8142 42.7671
26.8601 42.2226
26.9059 41.9648
26.9519 41.3575
26.9979 41.1344
27.0437 40.8075
27.0896 40.5691
27.1354 40.5738
27.1814 40.4049
27.2272 40.3037
27.2732 40.4434
27.3191 40.0827
27.3651 40.2244
27.4109 40.1527
27.4569 40.1778
27.5027 40.2462
27.5488 40.2524
27.5946 40.148
27.6407 40.0231
27.6865 39.9107
27.7326 39.662
27.7784 39.7259
27.8245 39.5958
27.8703 39.6896
27.9164 39.894
27.9623 40.0006
28.0084 40.2378
28.0543 40.6274
28.1003 40.5999
28.1462 40.5586
28.1923 40.0841
28.2384 39.663
28.2843 39.4084
28.3304 39.0006
28.3764 38.4185
28.4225 38.1519
28.4684 37.8777
28.5145 37.5626
28.5605 37.3905
28.6066 37.3337
28.6526 37.2913
28.6987 37.1091
28.7447 37.0372
28.7908 36.8826
28.8368 36.9317
28.8829 36.877
28.9289 36.7861
28.9751 36.7548
29.0211 36.4141
29.0673 36.3324
29.1133 36.225
29.1595 36.0974
29.2055 35.8719
29.2517 35.8186
29.2977 35.7553
29.3439 35.6065
29.3899 35.7147
29.4361 35.5852
29.4824 35.5116
29.5284 35.3033
29.5746 35.026
29.6207 34.5099
29.6669 34.6156
29.713 34.6239
29.7593 34.4832
29.8053 34.4955
29.8516 34.2744
29.8977 34.1969
29.9439 34.0934
29.99 34.0951
30.0363 33.8763
30.0824 33.8621
30.1287 33.8292
30.1748 33.7552
30.2211 33.8094
30.2673 33.768
30.3136 33.8419
30.3597 33.7299
30.406 33.6455
30.4522 33.5321
30.4985 33.4856
30.5447 33.6467
30.591 33.5338
30.6372 33.4524
30.6835 33.5837
30.7297 33.6006
30.7761 33.5439
30.8224 33.4435
30.8686 33.2797
30.915 33.0438
30.9612 33.0082
31.0076 32.7736
31.0538 32.6713
31.1002 32.5621
31.1464 32.4567
31.1928 32.3514
31.2391 32.3314
31.2855 32.3031
31.3317 32.2168
31.3781 32.199
31.4244 32.2415
31.4708 32.1597
31.5171 32.1694
31.5636 32.1391
31.6098 31.9518
31.6563 31.6856
31.7026 31.6035
31.7491 31.574
31.7953 31.4622
31.8418 31.4389
31.8881 31.5049
31.9346 31.4317
31.9809 31.41
32.0275 31.1932
32.074 31.136
32.1203 30.9411
32.1668 30.8406
32.2132 30.7062
32.2597 30.6028
32.306 30.5536
32.3526 30.3987
32.399 30.2263
32.4455 30.1135
32.4919 30.0019
32.5385 29.8169
32.5848 29.7646
32.6314 29.7626
32.6778 29.6508
32.7244 29.4978
32.7708 29.415
32.8174 29.3453
32.8638 29.3302
32.9104 29.3416
32.9569 29.3449
33.0035 29.1212
33.0499 29.0163
33.0966 29.1054
33.143 28.9611
33.1897 28.9594
33.2361 28.8015
33.2828 28.836
33.3293 28.5666
33.3759 28.6049
33.4226 28.4324
33.4691 28.1956
33.5158 28.2684
33.5623 28.1235
33.609 27.9388
33.6555 27.8423
33.7022 27.7592
33.7487 27.6953
33.7954 27.58
33.842 27.6048
33.8887 27.4607
33.9353 27.4286
33.982 27.34
34.0286 27.2124
34.0753 27.1051
34.1219 27.0742
34.1687 26.9659
34.2152 26.9014
34.262 26.8164
34.3086 26.6483
34.3554 26.7155
34.402 26.5697
34.4488 26.4482
34.4954 26.3869
34.5422 26.288
34.5889 26.1252
34.6357 26.0435
34.6825 26.0275
34.7292 25.9509
34.776 25.7421
34.8227 25.7998
34.8695 25.7432
34.9162 25.654
34.9631 25.5651
35.0098 25.5483
35.0566 25.3432
35.1033 25.3612
35.1502 25.3711
35.1969 25.1883
35.2438 25.1746
35.2906 25.1299
35.3375 25.0925
35.3842 25.0434
35.4311 25.0956
35.4779 24.9941
35.5248 24.9492
35.5716 24.8423
35.6185 24.7941
35.6653 24.5605
35.7123 24.5564
35.759 24.3835
35.806 24.3617
35.8528 24.333
35.8998 24.2195
35.9468 24.1479
35.9936 24.1577
36.0406 24.0259
36.0874 23.9358
36.1345 23.9096
36.1813 23.9017
36.2283 23.6781
36.2752 23.5673
36.3222 23.7233
36.3691 23.5402
36.4161 23.5002
36.463 23.4697
36.5101 23.4113
36.557 23.2681
36.6041 23.1696
36.651 23.1564
36.6981 23.0456
36.745 22.9771
36.7921 22.9189
36.839 22.8552
36.8861 22.8337
36.9331 22.6697
36.9802 22.5897
37.0272 22.5526
37.0743 22.4796
37.1213 22.4303
37.1684 22.3334
37.2154 22.2673
37.2626 22.1531
37.3098 22.1654
37.3568 22.0935
37.404 22.014
37.451 21.9246
37.4982 21.8661
37.5452 21.7249
37.5924 21.6878
37.6395 21.8025
37.6867 21.6472
37.7337 21.4797
37.781 21.5155
37.8281 21.3595
37.8753 21.2526
37.9224 21.2131
37.9697 21.1486
38.0168 21.0439
38.064 21.0616
38.1111 20.9614
38.1584 20.8859
38.2056 20.8703
38.2529 20.789
38.3 20.7349
38.3473 20.7685
38.3945 20.5844
38.4418 20.5143
38.489 20.4608
38.5363 20.4001
38.5837 20.3038
38.6309 20.2986
38.6782 20.0977
38.7254 20.0982
38.7728 20.0582
38.82 19.9528
38.8674 19.9914
38.9146 19.8495
38.9621 19.8155
39.0093 19.7852
39.0567 19.7075
39.104 19.6145
39.1514 19.5537
39.1987 19.4945
39.2461 19.4608
39.2934 19.3666
39.3409 19.295
39.3882 19.2337
39.4356 19.2134
39.483 19.1017
39.5304 19.0923
39.5778 19.0387
39.6253 18.9331
39.6726 18.8946
39.7201 18.7827
39.7675 18.6956
39.815 18.6928
39.8624 18.6266
39.9099 18.6172
39.9575 18.4729
40.0049 18.4391
40.0525 18.3294
40.0999 18.4079
40.1474 18.3256
40.1949 18.2527
40.2425 18.1495
40.2899 18.084
40.3375 18.027
40.385 17.9787
40.4326 17.8972
40.48 17.8651
40.5277 17.786
40.5752 17.7455
40.6228 17.7089
40.6703 17.6229
40.718 17.6195
40.7655 17.5868
40.8132 17.4813
40.8607 17.4938
40.9084 17.4355
40.9559 17.3962
41.0036 17.2751
41.0512 17.2621
41.0989 17.1168
41.1465 17.1039
41.1942 17.0484
41.242 16.9648
41.2896 16.9169
41.3373 16.8754
41.3849 16.8071
41.4327 16.7736
41.4803 16.68
41.5281 16.5932
41.5758 16.6071
41.6236 16.5473
41.6712 16.4583
41.7191 16.3788
41.7667 16.4341
41.8146 16.3029
41.8622 16.2896
41.9101 16.195
41.9578 16.1165
42.0057 16.0978
42.0534 16.0361
42.1013 16.0019
42.149 15.9145
42.1969 15.885
42.2446 15.893
42.2925 15.7749
42.3403 15.7077
42.3882 15.6721
42.436 15.6656
42.4839 15.5724
42.5319 15.5644
42.5797 15.4291
42.6277 15.3798
42.6755 15.4075
42.7235 15.3038
42.7713 15.2628
42.8193 15.2017
42.8671 15.1168
42.9152 15.1038
42.963 15.0047
43.0111 15.0112
43.0589 14.9167
43.107 14.8422
43.1549 14.8516
43.2029 14.7744
43.2508 14.7666
43.2989 14.7351
43.3468 14.6221
43.3949 14.5554
43.4429 14.5597
43.491 14.4479
43.5389 14.4653
43.5871 14.3822
43.635 14.3285
43.6832 14.2845
43.7312 14.2398
43.7793 14.1596
43.8273 14.1379
43.8755 14.1237
43.9237 14.018
43.9717 13.9919
44.0199 13.9258
44.068 13.8958
44.1162 13.8169
44.1642 13.8312
44.2125 13.7734
44.2606 13.725
44.3088 13.691
44.3569 13.6174
44.4052 13.607
44.4533 13.4901
44.5016 13.4315
44.5497 13.4207
44.598 13.4038
44.6461 13.3322
44.6945 13.266
44.7426 13.2356
44.791 13.1792
44.8391 13.1426
44.8875 13.0803
44.9357 13.0641
44.984 12.9807
45.0322 12.9322
45.0806 12.8698
45.1288 12.835
45.1773 12.8057
45.2257 12.7598
45.2739 12.7054
45.3224 12.6771
45.3706 12.6138
45.4191 12.5485
45.4673 12.5588
45.5158 12.5349
45.5641 12.4307
45.6126 12.3816
45.6609 12.3153
45.7094 12.2981
45.7577 12.2444
45.8063 12.1771
45.8546 12.1737
45.9031 12.122
45.9515 12.094
46.0001 12.0519
46.0484 12.0347
46.097 11.9834
46.1454 11.9252
46.194 11.8453
46.2424 11.7878
46.291 11.75
46.3395 11.7462
46.3881 11.708
46.4365 11.6769
46.4852 11.6328
46.5337 11.5414
46.5823 11.5429
46.631 11.5581
46.6795 11.4234
46.7282 11.4224
46.7767 11.3726
46.8254 11.2894
46.8739 11.2881
46.9226 11.2323
46.9712 11.2063
47.0199 11.1404
47.0685 11.1165
47.1173 11.0343
47.1658 11.0256
47.2146 10.9827
47.2632 10.9345
47.312 10.9112
47.3606 10.8475
47.4095 10.8016
47.4581 10.7346
47.5069 10.7326
47.5556 10.6782
47.6044 10.6604
47.6531 10.641
47.702 10.564
47.7507 10.5556
47.7996 10.5273
47.8483 10.4427
47.8972 10.4343
47.9461 10.389
47.9948 10.3581
48.0438 10.3298
48.0925 10.292
48.1415 10.2232
48.1902 10.1909
48.2392 10.1946
48.288 10.1442
48.337 10.0975
48.3858 10.0616
48.4348 10.0851
48.4837 10.0814
48.5327 9.97728
48.5815 9.90763
48.6306 9.8876
48.6795 9.8637
48.7285 9.8038
48.7774 9.80269
48.8265 9.77437
48.8754 9.71219
48.9245 9.63924
48.9734 9.634
49.0226 9.62116
49.0715 9.541
49.1206 9.52088
49.1696 9.48328
49.2188 9.45667
49.2679 9.41457
49.3169 9.37838
49.3661 9.34902
49.4151 9.30071
49.4643 9.24957
49.5134 9.24717
49.5626 9.17022
49.6117 9.18361
49.6609 9.13346
49.71 9.05641
49.7592 9.03707
49.8083 8.98319
49.8576 9.00062
49.9067 8.94497
49.956 8.89336
50.0052 8.89048
50.0545 8.86852
50.1036 8.80022
50.153 8.78426
50.2022 8.71068
50.2515 8.698
50.3007 8.65584
50.3501 8.64701
50.3993 8.61535
50.4487 8.61555
50.498 8.55032
50.5474 8.51699
50.5966 8.45623
50.6461 8.46282
50.6955 8.39612
50.7448 8.40901
50.7943 8.33638
50.8436 8.31273
50.8931 8.30012
50.9424 8.26868
50.9919 8.18335
51.0413 8.20257
51.0908 8.15906
51.1402 8.13197
51.1897 8.09398
51.2391 8.04169
51.2887 8.01607
51.3381 7.96711
51.3877 7.96721
51.4371 7.91253
51.4867 7.89116
51.5362 7.88976
51.5858 7.85569
51.6353 7.76712
51.6849 7.75668
51.7344 7.71454
51.7841 7.71991
51.8336 7.65837
51.8833 7.62076
51.9328 7.58849
51.9826 7.56635
52.0323 7.52157
52.0818 7.52167
52.1316 7.45802
52.1812 7.45241
52.231 7.46538
52.2806 7.36374
52.3304 7.34505
52.38 7.31169
52.4298 7.27389
52.4794 7.2348
52.5293 7.21528
52.5789 7.21536
52.6288 7.21047
52.6785 7.10996
52.7284 7.08189
52.7781 7.08627
52.828 7.04342
52.8777 7.05033
52.9276 6.97638
52.9774 6.96668
53.0273 6.91776
53.0771 6.90588
53.1271 6.86144
53.1769 6.8357
53.2269 6.8291
53.2767 6.77286
53.3267 6.75903
53.3765 6.72663
53.4266 6.68325
53.4766 6.66572
53.5265 6.6623
53.5765 6.60377
53.6264 6.56743
53.6765 6.5545
53.7264 6.53377
53.7765 6.49928
53.8265 6.4677
53.8766 6.4712
53.9266 6.39665
53.9767 6.39573
54.0267 6.36385
54.0769 6.33932
54.1269 6.24645
54.1771 6.26748
54.2271 6.2463
54.2773 6.17162
54.3274 6.2036
54.3776 6.13184
54.4277 6.10973
54.478 6.06871
54.528 6.02045
54.5783 5.96797
54.6285 5.93864
54.6788 5.90931
54.7289 5.83385
54.7792 5.82554
54.8296 5.7171
54.8798 5.68806
54.9301 5.66555
54.9803 5.65209
55.0307 5.66002
55.0809 5.60113
55.1314 5.49355
55.1816 5.47936
55.232 5.37174
55.2823 5.38174
55.3328 5.2794
55.383 5.2549
55.4335 5.21923
55.4838 5.17803
55.5344 5.11346
55.5847 5.08492
55.6352 5.05617
55.6856 5.00365
55.7361 5.01162