File: XRD/Ni3Fe_FD0665.xy
TT I
1.27165 7.87674
1.31627 7.14616
1.36089 6.30925
1.40551 6.09251
1.45013 5.95642
1.49476 5.78929
1.53938 5.51669
1.584 4.67627
1.62863 5.26733
1.67325 4.90194
1.71787 5.24061
1.7625 4.72591
1.80712 5.06347
1.85174 4.84186
1.89636 4.66741
1.94099 4.70883
1.98562 4.04148
2.03025 4.6716
2.07487 4.8383
2.11949 4.74897
2.16411 5.22093
2.20874 12.9951
2.25338 20.0012
2.298 6.47706
2.34263 5.42634
2.38725 6.30818
2.43188 6.07128
2.4765 7.62928
2.52115 7.11721
2.56577 7.59225
2.6104 8.44128
2.65503 7.59179
2.69965 7.81233
2.7443 8.51253
2.78893 7.57574
2.83356 8.52698
2.87818 8.84944
2.92281 8.83648
2.96744 9.24145
3.01209 10.3352
3.05672 10.8871
3.10135 12.291
3.14599 12.3739
3.19062 14.3478
3.23527 14.9998
3.2799 15.4905
3.32454 16.4018
3.36917 17.6277
3.4138 19.1748
3.45844 19.7909
3.50309 20.7934
3.54773 21.366
3.59237 23.8156
3.637 82.8719
3.68164 52.9154
3.7263 26.3312
3.77094 26.2899
3.81558 26.7908
3.86022 27.7063
3.90486 28.8211
3.9495 29.79
3.99416 30.904
4.0388 32.188
4.08344 33.496
4.12809 34.7355
4.17273 36.7847
4.21738 42.4106
4.26204 219.86
4.30669 187.481
4.35133 47.4286
4.39598 44.4902
4.44063 53.1569
4.4853 62.2804
4.52995 50.1969
4.5746 50.8803
4.61925 53.2974
4.6639 55.6183
4.70855 58.012
4.75322 60.9621
4.79788 63.8574
4.84253 67.7576
4.88719 71.4885
4.93184 75.412
4.97652 81.0837
5.02118 87.2488
5.06583 94.6332
5.11049 105.974
5.15515 168.492
5.19981 355.178
5.24449 2898.74
5.28916 12597.4
5.33382 2825.06
5.37848 181.771
5.42315 127.136
5.46783 112.647
5.5125 105.177
5.55716 101.989
5.60183 98.8395
5.6465 96.8187
5.69117 93.8597
5.73586 92.4891
5.78053 91.6372
5.8252 91.2472
5.86988 91.7325
5.91455 94.2657
5.95924 103.162
6.00392 209.655
6.0486 986.134
6.09328 4513.6
6.13795 3234.3
6.18263 219.585
6.22733 92.2667
6.27201 82.2274
6.3167 97.8855
6.36138 78.8103
6.40606 68.8088
6.45075 67.3531
6.49545 65.0601
6.54014 63.4345
6.58483 62.7888
6.62952 62.2189
6.67421 89.4302
6.71892 130.269
6.76361 67.2072
6.8083 58.5803
6.853 57.1659
6.89769 57.1486
6.94239 56.5298
6.98711 55.9089
7.03181 55.4205
7.07651 55.0709
7.12121 54.9905
7.16591 55.1461
7.21063 55.4516
7.25533 68.8616
7.30004 161.054
7.34475 85.4426
7.38945 56.1064
7.43416 54.3074
7.47889 54.0974
7.5236 54.623
7.56831 55.6604
7.61303 56.6866
7.65774 57.2523
7.70247 56.1991
7.74719 55.7797
7.79191 56.3968
7.83663 57.1195
7.88135 57.9162
7.92607 58.3344
7.97081 60.2173
8.01553 60.7089
8.06026 62.1966
8.10498 63.9733
8.14971 72.2066
8.19446 71.3584
8.23919 69.5601
8.28392 71.8863
8.32865 74.4336
8.37339 78.5178
8.41812 85.2743
8.46288 111.186
8.50761 167.334
8.55235 396.309
8.59709 1205.46
8.64183 2183.11
8.68658 911.039
8.73134 154.736
8.77609 98.5978
8.82083 92.3611
8.86558 89.647
8.91033 89.0855
8.9551 90.5781
8.99985 84.8455
9.04461 83.5643
9.08936 82.8089
9.13412 82.1601
9.17888 81.8441
9.22365 82.927
9.26841 82.0185
9.31318 82.6966
9.35794 82.7316
9.4027 83.0169
9.44749 84.295
9.49226 84.412
9.53703 85.7445
9.5818 87.1853
9.62657 91.7793
9.67134 96.9651
9.71614 93.2428
9.76091 93.818
9.80569 96.2151
9.85047 99.9156
9.89525 122.189
9.94005 133.919
9.98484 178.793
10.0296 351.367
10.0744 832.183
10.1192 1786.47
10.164 1576.99
10.2088 370.851
10.2536 123.226
10.2984 112.791
10.3432 113.051
10.388 104.313
10.4328 119.116
10.4776 162.0
10.5224 286.369
10.5672 514.163
10.612 497.445
10.6568 189.656
10.7017 94.649
10.7465 86.1489
10.7913 82.8393
10.8361 81.2329
10.8809 78.7486
10.9257 78.1042
10.9706 78.1638
11.0154 74.8702
11.0602 72.8954
11.105 71.9176
11.1499 75.5579
11.1947 81.4551
11.2395 73.3671
11.2844 69.8703
11.3292 66.7876
11.374 66.0276
11.4189 65.7122
11.4637 64.9912
11.5086 65.2384
11.5534 67.6781
11.5983 65.3538
11.6431 63.6843
11.688 62.7785
11.7328 62.9426
11.7777 62.6028
11.8225 62.3811
11.8674 62.0597
11.9122 62.6851
11.9571 62.8681
12.002 63.6523
12.0468 67.8649
12.0917 79.2502
12.1366 103.46
12.1814 153.852
12.2263 206.035
12.2712 162.003
12.3161 91.7328
12.3609 69.4841
12.4058 64.4994
12.4507 64.0599
12.4956 64.3116
12.5405 64.4442
12.5853 65.4796
12.6302 72.1685
12.6751 76.7524
12.72 69.299
12.7649 67.8847
12.8098 68.3963
12.8547 69.6173
12.8996 71.0295
12.9445 72.0662
12.9894 73.9345
13.0343 75.916
13.0792 79.1897
13.1242 88.3213
13.1691 112.721
13.214 150.935
13.2589 243.829
13.3038 381.86
13.3487 425.404
13.3937 252.269
13.4386 120.791
13.4835 105.428
13.5285 121.082
13.5734 159.706
13.6183 253.139
13.6633 355.157
13.7082 331.197
13.7531 174.79
13.7981 94.6182
13.843 81.3716
13.888 79.2482
13.9329 76.8441
13.9779 75.7566
14.0228 74.2064
14.0678 72.856
14.1127 72.5614
14.1577 72.1783
14.2027 71.226
14.2476 70.2585
14.2926 70.5128
14.3376 71.2141
14.3825 69.9569
14.4275 68.7775
14.4725 68.7847
14.5175 68.9172
14.5624 69.05
14.6074 71.0665
14.6524 71.4373
14.6974 70.2807
14.7424 71.9538
14.7874 79.1774
14.8324 89.3449
14.8774 111.234
14.9224 155.75
14.9674 212.066
15.0124 216.874
15.0574 142.441
15.1024 87.4321
15.1474 71.8646
15.1924 70.0373
15.2374 70.6488
15.2824 69.6631
15.3274 67.9347
15.3725 66.6148
15.4175 66.5482
15.4625 65.7502
15.5076 66.0934
15.5526 66.1411
15.5976 65.7841
15.6426 66.6905
15.6877 72.4467
15.7327 80.1792
15.7778 95.431
15.8228 127.496
15.8679 174.748
15.9129 195.715
15.958 153.075
16.003 94.2874
16.0481 66.8923
16.0931 63.9538
16.1382 62.3493
16.1833 60.3823
16.2283 58.8182
16.2734 58.2446
16.3185 58.4209
16.3636 58.9017
16.4086 57.6482
16.4537 56.3938
16.4988 55.3252
16.5439 55.2841
16.589 54.8756
16.6341 54.7461
16.6792 54.4556
16.7243 54.7617
16.7694 54.8612
16.8145 54.7258
16.8596 55.0707
16.9047 56.5061
16.9498 56.7903
16.9949 55.5696
17.04 55.8672
17.0851 57.2409
17.1302 58.4831
17.1754 61.6653
17.2205 67.164
17.2656 74.9789
17.3108 83.6619
17.3559 82.0502
17.401 70.0498
17.4462 61.4736
17.4913 59.0086
17.5365 58.8224
17.5815 59.1377
17.6268 59.363
17.6718 60.3392
17.7171 60.907
17.7622 61.2439
17.8074 61.8199
17.8525 64.2056
17.8977 68.5022
17.9428 73.9394
17.9881 82.8971
18.0331 100.729
18.0784 123.964
18.1237 142.824
18.1688 130.009
18.214 100.799
18.2591 85.8747
18.3044 90.9592
18.3495 101.142
18.3948 106.189
18.4399 94.977
18.4852 75.8869
18.5303 65.1912
18.5756 61.9982
18.6207 61.0546
18.666 60.3374
18.7112 59.6521
18.7565 58.8358
18.8016 58.6953
18.8469 57.8858
18.892 57.6475
18.9374 57.0945
18.9825 57.0171
19.0278 56.8538
19.073 56.8722
19.1183 57.4146
19.1635 58.1685
19.2088 59.484
19.254 62.032
19.2993 66.9673
19.3447 73.7027
19.3898 77.0686
19.4352 71.8106
19.4804 62.5719
19.5257 56.251
19.5709 54.043
19.6163 53.8026
19.6615 53.5302
19.7068 53.3178
19.752 53.089
19.7974 53.5202
19.8426 54.4567
19.888 54.9923
19.9332 56.2434
19.9786 58.8939
20.0238 62.5859
20.0692 67.7523
20.1144 69.7086
20.1598 67.628
20.205 62.8811
20.2504 61.9572
20.2957 64.0402
20.3411 65.3494
20.3863 63.5811
20.4318 57.7594
20.477 53.2879
20.5224 51.2632
20.5677 50.8126
20.6131 50.1914
20.6586 49.5492
20.7038 49.5762
20.7493 49.13
20.7945 48.8254
20.84 48.58
20.8853 48.6262
20.9307 48.5316
20.976 48.5503
21.0215 48.4916
21.0668 48.8939
21.1122 49.5064
21.1575 50.0286
21.203 50.8571
21.2483 51.4564
21.2938 51.1941
21.3391 49.8614
21.3846 48.7478
21.4299 48.2354
21.4754 48.3329
21.5207 48.4222
21.5662 48.8571
21.6116 49.3133
21.6571 49.9127
21.7024 50.8919
21.7479 52.6262
21.7933 55.3104
21.8388 59.1548
21.8843 63.0616
21.9297 64.8419
21.9752 62.8383
22.0206 58.7446
22.0661 56.256
22.1115 56.1464
22.157 55.7719
22.2024 53.9568
22.248 51.1564
22.2933 49.7187
22.3389 48.9215
22.3843 49.0172
22.4299 48.5853
22.4753 48.7867
22.5208 48.5468
22.5662 48.4636
22.6118 48.5502
22.6572 49.0041
22.7028 49.3472
22.7483 49.7133
22.7939 50.5324
22.8393 52.0639
22.8849 54.2898
22.9303 56.2825
22.9759 57.9817
23.0214 57.1823
23.067 54.022
23.1126 50.9567
23.1581 49.0543
23.2037 48.6953
23.2492 48.8088
23.2948 48.6502
23.3403 49.07
23.3859 49.7909
23.4314 50.7481
23.477 52.6159
23.5225 55.008
23.5682 57.2211
23.6137 57.8151
23.6593 55.1865
23.7048 50.9904
23.7505 47.8079
23.796 46.3772
23.8417 45.9387
23.8872 45.5659
23.9329 45.0482
23.9784 44.8025
24.0241 44.5986
24.0697 44.3164
24.1154 44.0062
24.1609 43.8562
24.2066 43.6676
24.2522 43.6382
24.2979 43.4109
24.3434 43.3677
24.3892 43.1995
24.4349 42.9565
24.4805 42.881
24.5262 42.9572
24.5718 42.8908
24.6175 42.7715
24.6631 42.6422
24.7089 42.3306
24.7545 42.2091
24.8002 42.1755
24.8458 42.3059
24.8916 42.0071
24.9372 42.25
24.983 42.4991
25.0286 42.7609
25.0744 43.332
25.12 43.8065
25.1658 44.3445
25.2114 44.6001
25.2572 44.7841
25.3029 44.7481
25.3487 44.8594
25.3943 44.4858
25.4402 43.3896
25.4858 42.4273
25.5316 41.3451
25.5773 40.7914
25.6231 40.8976
25.669 40.5539
25.7147 40.5097
25.7605 40.4247
25.8062 40.4253
25.8521 40.6699
25.8977 40.5669
25.9436 40.8733
25.9893 40.8634
26.0352 41.5352
26.0809 41.5435
26.1268 41.6803
26.1725 41.2984
26.2184 40.7618
26.2641 40.2755
26.31 39.965
26.3557 40.1222
26.4017 40.032
26.4474 40.2927
26.4933 40.6561
26.5391 41.2598
26.585 41.7929
26.6308 42.1941
26.6767 42.0919
26.7225 41.8567
26.7684 41.3367
26.8142 40.7676
26.8601 40.4052
26.9059 39.9707
26.9519 39.3689
26.9979 39.1466
27.0437 38.8875
27.0896 38.7532
27.1354 38.7113
27.1814 38.487
27.2272 38.5514
27.2732 38.5354
27.3191 38.2632
27.3651 38.3956
27.4109 38.4639
27.4569 38.4184
27.5027 38.4852
27.5488 38.5929
27.5946 38.2673
27.6407 38.0632
27.6865 38.0271
27.7326 37.8872
27.7784 37.7826
27.8245 37.7872
27.8703 37.9314
27.9164 38.4321
27.9623 38.4001
28.0084 38.6435
28.0543 39.1193
28.1003 39.0608
28.1462 38.7842
28.1923 38.3135
28.2384 37.9176
28.2843 37.5867
28.3304 37.1841
28.3764 36.7118
28.4225 36.3116
28.4684 36.2293
28.5145 36.0396
28.5605 35.7314
28.6066 35.6495
28.6526 35.5762
28.6987 35.5807
28.7447 35.4235
28.7908 35.4615
28.8368 35.4593
28.8829 35.4062
28.9289 35.2517
28.9751 35.2137
29.0211 34.8696
29.0673 34.5362
29.1133 34.4825
29.1595 34.2972
29.2055 34.3073
29.2517 34.2375
29.2977 34.1657
29.3439 34.2796
29.3899 34.2532
29.4361 34.0455
29.4824 33.937
29.5284 33.6965
29.5746 33.3786
29.6207 33.1589
29.6669 32.9865
29.713 32.9764
29.7593 32.7598
29.8053 32.8353
29.8516 32.7981
29.8977 32.7179
29.9439 32.6029
29.99 32.6633
30.0363 32.4262
30.0824 32.4396
30.1287 32.3545
30.1748 32.4378
30.2211 32.4644
30.2673 32.2168
30.3136 32.2562
30.3597 32.2448
30.406 32.1378
30.4522 32.009
30.4985 31.938
30.5447 32.1816
30.591 32.0882
30.6372 32.1892
30.6835 32.1545
30.7297 32.1469
30.7761 32.1517
30.8224 32.021
30.8686 31.8321
30.915 31.5788
30.9612 31.4988
31.0076 31.2204
31.0538 31.2327
31.1002 31.1596
31.1464 30.9025
31.1928 30.8606
31.2391 30.9107
31.2855 30.9829
31.3317 30.8169
31.3781 30.8808
31.4244 30.9175
31.4708 30.7223
31.5171 30.7874
31.5636 30.751
31.6098 30.3807
31.6563 30.3765
31.7026 30.1564
31.7491 30.1419
31.7953 30.1153
31.8418 30.101
31.8881 30.1046
31.9346 30.0893
31.9809 30.0473
32.0275 29.8321
32.074 29.8082
32.1203 29.631
32.1668 29.49
32.2132 29.3236
32.2597 29.214
32.306 29.1234
32.3526 28.9055
32.399 28.9744
32.4455 28.6755
32.4919 28.7163
32.5385 28.607
32.5848 28.454
32.6314 28.582
32.6778 28.3662
32.7244 28.2794
32.7708 28.1268
32.8174 28.0995
32.8638 27.9931
32.9104 28.0464
32.9569 27.9836
33.0035 27.8167
33.0499 27.8506
33.0966 27.8015
33.143 27.8545
33.1897 27.6267
33.2361 27.6113
33.2828 27.6316
33.3293 27.4414
33.3759 27.3632
33.4226 27.2315
33.4691 27.0774
33.5158 27.0364
33.5623 26.8292
33.609 26.6796
33.6555 26.6984
33.7022 26.5777
33.7487 26.4363
33.7954 26.5105
33.842 26.3651
33.8887 26.3856
33.9353 26.2855
33.982 26.1358
34.0286 25.9992
34.0753 25.9364
34.1219 25.8586
34.1687 25.8713
34.2152 25.6993
34.262 25.6499
34.3086 25.5543
34.3554 25.5657
34.402 25.4213
34.4488 25.2899
34.4954 25.2198
34.5422 25.18
34.5889 25.0389
34.6357 24.983
34.6825 24.9926
34.7292 24.7762
34.776 24.7992
34.8227 24.7137
34.8695 24.5883
34.9162 24.5757
34.9631 24.5024
35.0098 24.4455
35.0566 24.3704
35.1033 24.2787
35.1502 24.2555
35.1969 24.2344
35.2438 24.1818
35.2906 24.1047
35.3375 24.0502
35.3842 23.9981
35.4311 23.9453
35.4779 23.8708
35.5248 23.8858
35.5716 23.7211
35.6185 23.6004
35.6653 23.6706
35.7123 23.546
35.759 23.5298
35.806 23.3934
35.8528 23.2244
35.8998 23.129
35.9468 23.0275
35.9936 23.1645
36.0406 23.0179
36.0874 22.9017
36.1345 22.8177
36.1813 22.7763
36.2283 22.6866
36.2752 22.7004
36.3222 22.6468
36.3691 22.5326
36.4161 22.5433
36.463 22.4012
36.5101 22.4032
36.557 22.3518
36.6041 22.1672
36.651 22.1786
36.6981 22.0643
36.745 22.0327
36.7921 21.957
36.839 21.8855
36.8861 21.7674
36.9331 21.7097
36.9802 21.6974
37.0272 21.5778
37.0743 21.4978
37.1213 21.4131
37.1684 21.4281
37.2154 21.3281
37.2626 21.2215
37.3098 21.1838
37.3568 21.0562
37.404 21.0635
37.451 20.9738
37.4982 20.8908
37.5452 20.7957
37.5924 20.7559
37.6395 20.7905
37.6867 20.7381
37.7337 20.5924
37.781 20.499
37.8281 20.4054
37.8753 20.432
37.9224 20.3243
37.9697 20.3121
38.0168 20.1989
38.064 20.1119
38.1111 20.0668
38.1584 19.9767
38.2056 19.954
38.2529 19.8935
38.3 19.7738
38.3473 19.7865
38.3945 19.7203
38.4418 19.5627
38.489 19.6171
38.5363 19.5073
38.5837 19.4397
38.6309 19.3618
38.6782 19.2982
38.7254 19.1801
38.7728 19.1973
38.82 19.1228
38.8674 19.025
38.9146 18.9893
38.9621 18.9012
39.0093 18.95
39.0567 18.8793
39.104 18.7567
39.1514 18.6744
39.1987 18.6742
39.2461 18.6222
39.2934 18.5396
39.3409 18.4329
39.3882 18.383
39.4356 18.3127
39.483 18.276
39.5304 18.2391
39.5778 18.151
39.6253 18.1642
39.6726 18.0331
39.7201 18.0525
39.7675 17.9668
39.815 17.8544
39.8624 17.8117
39.9099 17.8596
39.9575 17.7057
40.0049 17.706
40.0525 17.6197
40.0999 17.6083
40.1474 17.5007
40.1949 17.4072
40.2425 17.3739
40.2899 17.3214
40.3375 17.2539
40.385 17.2329
40.4326 17.126
40.48 17.0721
40.5277 17.0508
40.5752 17.0334
40.6228 16.9433
40.6703 16.8797
40.718 16.8978
40.7655 16.8514
40.8132 16.6954
40.8607 16.6665
40.9084 16.626
40.9559 16.5601
41.0036 16.549
41.0512 16.4968
41.0989 16.4683
41.1465 16.3658
41.1942 16.3346
41.242 16.3178
41.2896 16.1919
41.3373 16.1337
41.3849 16.0897
41.4327 16.0553
41.4803 15.9987
41.5281 15.93
41.5758 15.9048
41.6236 15.8215
41.6712 15.7615
41.7191 15.7538
41.7667 15.6168
41.8146 15.6208
41.8622 15.5333
41.9101 15.5349
41.9578 15.4481
42.0057 15.4119
42.0534 15.3392
42.1013 15.3366
42.149 15.275
42.1969 15.2103
42.2446 15.1536
42.2925 15.129
42.3403 15.0218
42.3882 15.0269
42.436 14.9924
42.4839 14.8495
42.5319 14.8686
42.5797 14.8507
42.6277 14.7462
42.6755 14.7289
42.7235 14.6143
42.7713 14.602
42.8193 14.5616
42.8671 14.4829
42.9152 14.4575
42.963 14.4376
43.0111 14.3601
43.0589 14.3069
43.107 14.2431
43.1549 14.2314
43.2029 14.1545
43.2508 14.1566
43.2989 14.0206
43.3468 14.0391
43.3949 13.9388
43.4429 13.9463
43.491 13.8396
43.5389 13.8688
43.5871 13.7876
43.635 13.7274
43.6832 13.6581
43.7312 13.6216
43.7793 13.609
43.8273 13.5702
43.8755 13.4723
43.9237 13.4447
43.9717 13.4063
44.0199 13.3432
44.068 13.349
44.1162 13.2344
44.1642 13.2261
44.2125 13.1327
44.2606 13.1309
44.3088 13.0665
44.3569 13.0197
44.4052 12.9846
44.4533 12.9255
44.5016 12.8707
44.5497 12.8349
44.598 12.8281
44.6461 12.7732
44.6945 12.7275
44.7426 12.7214
44.791 12.6117
44.8391 12.6233
44.8875 12.5411
44.9357 12.5205
44.984 12.4332
45.0322 12.4113
45.0806 12.342
45.1288 12.3463
45.1773 12.27
45.2257 12.2507
45.2739 12.1437
45.3224 12.1709
45.3706 12.0967
45.4191 12.0343
45.4673 12.0587
45.5158 11.9778
45.5641 11.9452
45.6126 11.864
45.6609 11.8717
45.7094 11.7881
45.7577 11.7415
45.8063 11.7278
45.8546 11.7
45.9031 11.6006
45.9515 11.6185
46.0001 11.5637
46.0484 11.5201
46.097 11.5026
46.1454 11.4458
46.194 11.381
46.2424 11.3529
46.291 11.3113
46.3395 11.2653
46.3881 11.2165
46.4365 11.2467
46.4852 11.2041
46.5337 11.1473
46.5823 11.1182
46.631 11.0134
46.6795 10.9802
46.7282 10.9523
46.7767 10.9114
46.8254 10.8357
46.8739 10.8613
46.9226 10.7519
46.9712 10.7247
47.0199 10.6923
47.0685 10.6399
47.1173 10.6311
47.1658 10.608
47.2146 10.5728
47.2632 10.5227
47.312 10.4389
47.3606 10.4027
47.4095 10.4229
47.4581 10.3603
47.5069 10.3352
47.5556 10.2483
47.6044 10.2513
47.6531 10.1809
47.702 10.1677
47.7507 10.102
47.7996 10.0979
47.8483 10.0414
47.8972 10.0049
47.9461 9.99535
47.9948 9.92041
48.0438 9.91348
48.0925 9.85925
48.1415 9.8721
48.1902 9.7838
48.2392 9.74041
48.288 9.73875
48.337 9.69143
48.3858 9.63766
48.4348 9.62146
48.4837 9.63304
48.5327 9.56979
48.5815 9.52013
48.6306 9.48016
48.6795 9.48028
48.7285 9.419
48.7774 9.38134
48.8265 9.36954
48.8754 9.28344
48.9245 9.26206
48.9734 9.25214
49.0226 9.24275
49.0715 9.15999
49.1206 9.15568
49.1696 9.05389
49.2188 9.05838
49.2679 9.03766
49.3169 8.96292
49.3661 8.94183
49.4151 8.90279
49.4643 8.88555
49.5134 8.86593
49.5626 8.79432
49.6117 8.82209
49.6609 8.76525
49.71 8.72954
49.7592 8.6925
49.8083 8.63147
49.8576 8.62983
49.9067 8.58125
49.956 8.56372
50.0052 8.48799
50.0545 8.47952
50.1036 8.46574
50.153 8.40538
50.2022 8.398
50.2515 8.33601
50.3007 8.28431
50.3501 8.28725
50.3993 8.26906
50.4487 8.22157
50.498 8.18602
50.5474 8.19017
50.5966 8.14234
50.6461 8.08139
50.6955 8.05684
50.7448 8.05229
50.7943 8.03189
50.8436 7.99597
50.8931 7.94413
50.9424 7.89853
50.9919 7.90244
51.0413 7.87366
51.0908 7.82986
51.1402 7.82873
51.1897 7.77534
51.2391 7.75105
51.2887 7.71071
51.3381 7.6757
51.3877 7.64346
51.4371 7.62288
51.4867 7.51318
51.5362 7.53491
51.5858 7.5332
51.6353 7.47496
51.6849 7.46794
51.7344 7.40549
51.7841 7.40231
51.8336 7.34783
51.8833 7.306
51.9328 7.3383
51.9826 7.25696
52.0323 7.25002
52.0818 7.24081
52.1316 7.18838
52.1812 7.16025
52.231 7.1008
52.2806 7.10233
52.3304 7.05864
52.38 6.99903
52.4298 6.98547
52.4794 6.95142
52.5293 6.94471
52.5789 6.92317
52.6288 6.86829
52.6785 6.84754
52.7284 6.82893
52.7781 6.82603
52.828 6.79439
52.8777 6.73917
52.9276 6.72362
52.9774 6.70513
53.0273 6.64779
53.0771 6.6215
53.1271 6.64604
53.1769 6.54086
53.2269 6.55612
53.2767 6.51753
53.3267 6.46927
53.3765 6.47225
53.4266 6.48624
53.4766 6.41436
53.5265 6.38167
53.5765 6.38142
53.6264 6.33544
53.6765 6.29895
53.7264 6.24113
53.7765 6.27029
53.8265 6.21842
53.8766 6.17779
53.9266 6.16239
53.9767 6.15218
54.0267 6.13514
54.0769 6.1113
54.1269 6.06693
54.1771 5.99966
54.2271 5.97907
54.2773 5.929
54.3274 5.91286
54.3776 5.86568
54.4277 5.87305
54.478 5.82842
54.528 5.79698
54.5783 5.75656
54.6285 5.71461
54.6788 5.65942
54.7289 5.62579
54.7792 5.58121
54.8296 5.51254
54.8798 5.50393
54.9301 5.47603
54.9803 5.45796
55.0307 5.41648
55.0809 5.36262
55.1314 5.34686
55.1816 5.29093
55.232 5.23528
55.2823 5.22163
55.3328 5.16582
55.383 5.11123
55.4335 5.03539
55.4838 4.91674
55.5344 4.95421
55.5847 4.92615
55.6352 4.91286
55.6856 4.85568
55.7361 4.82442