File: XRD/Ni3Fe_FD0510.xy
TT I
1.27165 7.62257
1.31627 6.72181
1.36089 6.48053
1.40551 5.9873
1.45013 5.55652
1.49476 5.71232
1.53938 6.10788
1.584 5.49715
1.62863 5.46553
1.67325 4.67824
1.71787 4.95409
1.7625 5.00127
1.80712 4.67394
1.85174 4.69362
1.89636 5.15521
1.94099 4.63009
1.98562 4.40062
2.03025 3.95194
2.07487 4.44461
2.11949 4.95352
2.16411 4.91311
2.20874 14.875
2.25338 23.7605
2.298 5.85005
2.34263 5.39809
2.38725 5.96352
2.43188 5.60319
2.4765 5.97406
2.52115 6.47322
2.56577 7.23266
2.6104 7.3981
2.65503 7.85686
2.69965 7.56498
2.7443 7.53818
2.78893 7.78192
2.83356 7.70011
2.87818 8.53911
2.92281 8.97059
2.96744 9.38516
3.01209 10.4473
3.05672 11.3284
3.10135 12.1609
3.14599 13.1624
3.19062 13.8632
3.23527 15.0193
3.2799 15.9307
3.32454 16.564
3.36917 17.8286
3.4138 19.1675
3.45844 19.7367
3.50309 20.8839
3.54773 22.0643
3.59237 24.2405
3.637 97.8746
3.68164 60.88
3.7263 26.6561
3.77094 26.7913
3.81558 27.3073
3.86022 27.8445
3.90486 29.234
3.9495 30.2217
3.99416 31.38
4.0388 32.8744
4.08344 34.0884
4.12809 35.5734
4.17273 37.42
4.21738 44.2907
4.26204 262.085
4.30669 224.323
4.35133 49.7066
4.39598 45.6839
4.44063 54.8157
4.4853 66.8172
4.52995 51.195
4.5746 51.9309
4.61925 53.7822
4.6639 56.0081
4.70855 58.4546
4.75322 61.4439
4.79788 64.4695
4.84253 67.8802
4.88719 72.5526
4.93184 76.1639
4.97652 81.4413
5.02118 88.1596
5.06583 96.1844
5.11049 107.967
5.15515 181.979
5.19981 391.386
5.24449 2977.43
5.28916 12120.3
5.33382 3244.34
5.37848 204.535
5.42315 134.565
5.46783 116.807
5.5125 108.858
5.55716 104.013
5.60183 100.454
5.6465 98.3429
5.69117 96.0173
5.73586 93.535
5.78053 93.1238
5.8252 92.69
5.86988 93.6497
5.91455 96.1791
5.95924 104.392
6.00392 218.885
6.0486 1009.99
6.09328 4094.63
6.13795 3522.14
6.18263 294.842
6.22733 97.1915
6.27201 85.0723
6.3167 105.242
6.36138 82.0025
6.40606 70.2471
6.45075 68.7125
6.49545 66.8964
6.54014 64.7965
6.58483 63.739
6.62952 64.2769
6.67421 97.6718
6.71892 149.716
6.76361 69.8662
6.8083 59.5568
6.853 58.2416
6.89769 57.7977
6.94239 57.4563
6.98711 56.5089
7.03181 56.3737
7.07651 56.1395
7.12121 56.065
7.16591 56.1279
7.21063 56.6252
7.25533 72.5373
7.30004 187.747
7.34475 93.6709
7.38945 57.6607
7.43416 55.5929
7.47889 55.0166
7.5236 55.826
7.56831 56.2423
7.61303 57.9547
7.65774 58.1528
7.70247 56.8099
7.74719 56.4811
7.79191 57.5545
7.83663 57.3469
7.88135 58.6797
7.92607 59.5627
7.97081 60.7494
8.01553 61.7572
8.06026 62.9903
8.10498 64.6469
8.14971 75.0754
8.19446 73.3272
8.23919 70.6244
8.28392 72.8539
8.32865 75.1376
8.37339 79.3614
8.41812 86.5795
8.46288 116.838
8.50761 168.765
8.55235 402.102
8.59709 1150.63
8.64183 2145.2
8.68658 1062.25
8.73134 180.255
8.77609 101.946
8.82083 94.7535
8.86558 90.9201
8.91033 91.6614
8.9551 93.1754
8.99985 86.7553
9.04461 84.7796
9.08936 83.8654
9.13412 82.7739
9.17888 83.4644
9.22365 84.1867
9.26841 82.9665
9.31318 83.803
9.35794 83.662
9.4027 84.1437
9.44749 84.8611
9.49226 85.6228
9.53703 86.5596
9.5818 88.4935
9.62657 93.548
9.67134 100.251
9.71614 94.7335
9.76091 95.3452
9.80569 97.9619
9.85047 101.497
9.89525 127.123
9.94005 139.366
9.98484 181.273
10.0296 355.954
10.0744 804.446
10.1192 1653.49
10.164 1629.9
10.2088 446.322
10.2536 134.753
10.2984 116.37
10.3432 117.664
10.388 106.343
10.4328 119.981
10.4776 162.899
10.5224 281.892
10.5672 494.396
10.612 507.374
10.6568 223.197
10.7017 99.8544
10.7465 87.9496
10.7913 84.4894
10.8361 82.2557
10.8809 79.9935
10.9257 79.8528
10.9706 80.1804
11.0154 75.9845
11.0602 74.0246
11.105 72.9684
11.1499 77.5452
11.1947 85.4327
11.2395 75.6729
11.2844 71.6943
11.3292 68.2267
11.374 67.2025
11.4189 66.345
11.4637 65.896
11.5086 66.487
11.5534 69.6068
11.5983 66.4589
11.6431 64.6713
11.688 63.6341
11.7328 63.6934
11.7777 63.8681
11.8225 63.3017
11.8674 63.2512
11.9122 63.5615
11.9571 63.6204
12.002 64.5625
12.0468 68.8427
12.0917 80.8744
12.1366 104.79
12.1814 153.807
12.2263 202.44
12.2712 171.978
12.3161 102.017
12.3609 72.2752
12.4058 65.6859
12.4507 65.4194
12.4956 65.3353
12.5405 65.4152
12.5853 66.6507
12.6302 74.8568
12.6751 80.4189
12.72 71.0765
12.7649 68.46
12.8098 69.2027
12.8547 71.0288
12.8996 71.8978
12.9445 73.1841
12.9894 74.7704
13.0343 76.6884
13.0792 80.0099
13.1242 89.2966
13.1691 114.134
13.214 151.511
13.2589 235.963
13.3038 359.174
13.3487 423.943
13.3937 278.924
13.4386 130.917
13.4835 107.844
13.5285 123.428
13.5734 160.389
13.6183 243.236
13.6633 334.473
13.7082 340.459
13.7531 200.856
13.7981 102.831
13.843 83.3063
13.888 80.5686
13.9329 78.3012
13.9779 76.9624
14.0228 75.1203
14.0678 73.8596
14.1127 73.3776
14.1577 73.7312
14.2027 72.6341
14.2476 71.5563
14.2926 71.7126
14.3376 72.7463
14.3825 71.1576
14.4275 69.826
14.4725 69.5246
14.5175 69.9942
14.5624 69.9892
14.6074 72.3292
14.6524 72.8055
14.6974 71.4857
14.7424 72.8869
14.7874 80.0503
14.8324 90.3364
14.8774 111.73
14.9224 151.893
14.9674 199.867
15.0124 216.226
15.0574 154.659
15.1024 94.8011
15.1474 73.6374
15.1924 72.0487
15.2374 72.2959
15.2824 71.4962
15.3274 69.0363
15.3725 67.8654
15.4175 67.2923
15.4625 67.0876
15.5076 67.2933
15.5526 67.2521
15.5976 66.5801
15.6426 67.6607
15.6877 73.3906
15.7327 81.1899
15.7778 95.9883
15.8228 125.413
15.8679 166.222
15.9129 191.36
15.958 159.49
16.003 102.352
16.0481 70.3861
16.0931 66.0332
16.1382 63.965
16.1833 61.6194
16.2283 59.7725
16.2734 59.2637
16.3185 59.5347
16.3636 60.337
16.4086 58.8591
16.4537 57.2981
16.4988 56.298
16.5439 56.5847
16.589 56.0056
16.6341 55.6034
16.6792 55.3662
16.7243 55.5774
16.7694 55.8475
16.8145 55.7601
16.8596 56.1017
16.9047 57.5544
16.9498 57.8821
16.9949 56.4816
17.04 56.6389
17.0851 57.8118
17.1302 59.4294
17.1754 62.3527
17.2205 67.3713
17.2656 74.3501
17.3108 81.8645
17.3559 82.4157
17.401 72.6433
17.4462 63.3452
17.4913 59.9424
17.5365 60.0549
17.5815 60.0405
17.6268 60.3637
17.6718 61.352
17.7171 61.86
17.7622 61.8477
17.8074 62.7193
17.8525 65.1049
17.8977 69.3255
17.9428 75.021
17.9881 83.1234
18.0331 99.5441
18.0784 119.505
18.1237 137.602
18.1688 133.465
18.214 107.339
18.2591 88.8524
18.3044 90.904
18.3495 99.793
18.3948 106.061
18.4399 99.4526
18.4852 80.4764
18.5303 67.6496
18.5756 63.1145
18.6207 62.1182
18.666 61.328
18.7112 60.6573
18.7565 59.8974
18.8016 59.544
18.8469 59.0122
18.892 58.432
18.9374 58.0501
18.9825 57.8462
19.0278 57.6726
19.073 57.8323
19.1183 58.1171
19.1635 59.1692
19.2088 60.3951
19.254 63.0439
19.2993 66.993
19.3447 72.8173
19.3898 76.7461
19.4352 73.4208
19.4804 65.043
19.5257 57.9399
19.5709 55.1119
19.6163 54.5882
19.6615 54.4657
19.7068 53.9584
19.752 53.9886
19.7974 54.5755
19.8426 55.2108
19.888 56.0217
19.9332 57.188
19.9786 59.1919
20.0238 62.7668
20.0692 67.2114
20.1144 70.289
20.1598 69.1415
20.205 64.7235
20.2504 62.8854
20.2957 64.1749
20.3411 65.8905
20.3863 65.0014
20.4318 59.5977
20.477 54.7575
20.5224 52.5852
20.5677 51.7214
20.6131 51.1408
20.6586 50.3267
20.7038 50.2437
20.7493 49.8701
20.7945 49.6048
20.84 49.4604
20.8853 49.2824
20.9307 49.2395
20.976 49.4873
21.0215 49.2713
21.0668 49.6857
21.1122 50.234
21.1575 50.8646
21.203 51.3432
21.2483 51.9359
21.2938 52.1087
21.3391 50.975
21.3846 49.533
21.4299 49.1726
21.4754 48.9777
21.5207 49.1233
21.5662 49.3709
21.6116 49.8849
21.6571 50.6245
21.7024 51.6158
21.7479 53.2729
21.7933 55.9442
21.8388 59.3107
21.8843 62.5612
21.9297 64.8139
21.9752 64.3947
22.0206 61.0732
22.0661 57.5401
22.1115 56.6001
22.157 56.4056
22.2024 55.2057
22.248 52.4344
22.2933 50.6771
22.3389 49.8311
22.3843 49.754
22.4299 49.5227
22.4753 49.5679
22.5208 49.1925
22.5662 49.1734
22.6118 49.4496
22.6572 49.6344
22.7028 49.7801
22.7483 50.2733
22.7939 51.1083
22.8393 52.6193
22.8849 54.3641
22.9303 56.4111
22.9759 58.1194
23.0214 58.1817
23.067 55.5577
23.1126 52.0921
23.1581 49.9685
23.2037 49.509
23.2492 49.5467
23.2948 49.4695
23.3403 49.8483
23.3859 50.4001
23.4314 51.4787
23.477 52.976
23.5225 55.0673
23.5682 57.1156
23.6137 57.9527
23.6593 56.5146
23.7048 52.7568
23.7505 49.1931
23.796 47.4216
23.8417 46.7596
23.8872 46.2775
23.9329 45.9287
23.9784 45.556
24.0241 45.2214
24.0697 44.9665
24.1154 44.7946
24.1609 44.5767
24.2066 44.3555
24.2522 44.3064
24.2979 44.0644
24.3434 43.9119
24.3892 43.77
24.4349 43.7783
24.4805 43.3536
24.5262 43.6005
24.5718 43.3864
24.6175 43.4588
24.6631 43.4628
24.7089 43.1245
24.7545 42.8251
24.8002 42.8472
24.8458 42.7568
24.8916 42.51
24.9372 42.6831
24.983 43.1592
25.0286 43.2878
25.0744 43.862
25.12 44.2105
25.1658 44.7753
25.2114 45.2435
25.2572 45.3389
25.3029 45.4302
25.3487 45.4809
25.3943 45.0296
25.4402 44.2697
25.4858 43.3151
25.5316 42.0603
25.5773 41.4604
25.6231 41.3631
25.669 41.0076
25.7147 41.1222
25.7605 40.9669
25.8062 41.0567
25.8521 41.2381
25.8977 41.2222
25.9436 41.3277
25.9893 41.3631
26.0352 41.8788
26.0809 41.916
26.1268 42.343
26.1725 41.9209
26.2184 41.3951
26.2641 40.8609
26.31 40.6883
26.3557 40.7154
26.4017 40.8305
26.4474 40.9958
26.4933 41.2932
26.5391 41.7185
26.585 42.258
26.6308 42.544
26.6767 42.7389
26.7225 42.6402
26.7684 42.1044
26.8142 41.3284
26.8601 41.1034
26.9059 40.5682
26.9519 40.0657
26.9979 39.9239
27.0437 39.3588
27.0896 39.2711
27.1354 39.289
27.1814 39.1362
27.2272 39.0913
27.2732 39.0452
27.3191 38.8321
27.3651 38.979
27.4109 38.8908
27.4569 38.9284
27.5027 39.0686
27.5488 39.0474
27.5946 38.8449
27.6407 38.5944
27.6865 38.5954
27.7326 38.2685
27.7784 38.325
27.8245 38.26
27.8703 38.5316
27.9164 38.7155
27.9623 38.8791
28.0084 39.1407
28.0543 39.5705
28.1003 39.4002
28.1462 39.3865
28.1923 38.9367
28.2384 38.4399
28.2843 38.2032
28.3304 37.6979
28.3764 37.1889
28.4225 37.0271
28.4684 36.7111
28.5145 36.388
28.5605 36.329
28.6066 36.1871
28.6526 36.1586
28.6987 36.1144
28.7447 35.9377
28.7908 35.9394
28.8368 35.8883
28.8829 35.9837
28.9289 35.8568
28.9751 35.6531
29.0211 35.4858
29.0673 35.2336
29.1133 35.1956
29.1595 34.8608
29.2055 34.8192
29.2517 34.8139
29.2977 34.6847
29.3439 34.6866
29.3899 34.6556
29.4361 34.6153
29.4824 34.4095
29.5284 34.2123
29.5746 33.8399
29.6207 33.581
29.6669 33.4607
29.713 33.4569
29.7593 33.2695
29.8053 33.3219
29.8516 33.2445
29.8977 33.2323
29.9439 33.0735
29.99 32.9391
30.0363 32.9106
30.0824 33.0176
30.1287 32.8745
30.1748 32.8665
30.2211 32.8697
30.2673 32.6661
30.3136 32.7431
30.3597 32.6664
30.406 32.7312
30.4522 32.5195
30.4985 32.562
30.5447 32.5712
30.591 32.5419
30.6372 32.6773
30.6835 32.5632
30.7297 32.5765
30.7761 32.5308
30.8224 32.4488
30.8686 32.3245
30.915 32.0615
30.9612 31.9734
31.0076 31.8017
31.0538 31.6099
31.1002 31.5288
31.1464 31.4058
31.1928 31.3971
31.2391 31.39
31.2855 31.2525
31.3317 31.2464
31.3781 31.3239
31.4244 31.2294
31.4708 31.168
31.5171 31.2526
31.5636 31.1575
31.6098 30.9024
31.6563 30.708
31.7026 30.6777
31.7491 30.4758
31.7953 30.5435
31.8418 30.5307
31.8881 30.4734
31.9346 30.5123
31.9809 30.4272
32.0275 30.3183
32.074 30.1777
32.1203 29.9876
32.1668 29.935
32.2132 29.7325
32.2597 29.5782
32.306 29.6042
32.3526 29.3497
32.399 29.3747
32.4455 29.1566
32.4919 29.1308
32.5385 28.992
32.5848 28.8201
32.6314 28.942
32.6778 28.7835
32.7244 28.5731
32.7708 28.5592
32.8174 28.6145
32.8638 28.4445
32.9104 28.4912
32.9569 28.4419
33.0035 28.3
33.0499 28.1971
33.0966 28.2311
33.143 28.2207
33.1897 28.1123
33.2361 27.9691
33.2828 27.8886
33.3293 27.8266
33.3759 27.7901
33.4226 27.5331
33.4691 27.4975
33.5158 27.4072
33.5623 27.2692
33.609 27.1531
33.6555 27.0175
33.7022 26.9918
33.7487 26.7584
33.7954 26.7768
33.842 26.7054
33.8887 26.6945
33.9353 26.6264
33.982 26.5531
34.0286 26.4653
34.0753 26.3814
34.1219 26.3003
34.1687 26.1568
34.2152 26.0796
34.262 25.9838
34.3086 25.8712
34.3554 25.8565
34.402 25.7297
34.4488 25.583
34.4954 25.5925
34.5422 25.4939
34.5889 25.3958
34.6357 25.2809
34.6825 25.2921
34.7292 25.1102
34.776 25.1041
34.8227 25.0294
34.8695 24.9702
34.9162 24.9113
34.9631 24.8147
35.0098 24.8198
35.0566 24.6049
35.1033 24.5956
35.1502 24.6786
35.1969 24.506
35.2438 24.4929
35.2906 24.368
35.3375 24.3295
35.3842 24.3091
35.4311 24.2536
35.4779 24.2202
35.5248 24.2398
35.5716 24.0932
35.6185 24.0097
35.6653 23.9275
35.7123 23.7876
35.759 23.7662
35.806 23.6251
35.8528 23.6058
35.8998 23.5079
35.9468 23.4382
35.9936 23.3808
36.0406 23.2898
36.0874 23.2782
36.1345 23.2225
36.1813 23.0783
36.2283 22.9969
36.2752 22.9071
36.3222 22.9311
36.3691 22.9117
36.4161 22.8075
36.463 22.6892
36.5101 22.7211
36.557 22.6432
36.6041 22.4867
36.651 22.4279
36.6981 22.4194
36.745 22.394
36.7921 22.2227
36.839 22.124
36.8861 22.1128
36.9331 22.0085
36.9802 21.9789
37.0272 21.8785
37.0743 21.7952
37.1213 21.7636
37.1684 21.6738
37.2154 21.6347
37.2626 21.5776
37.3098 21.4549
37.3568 21.5036
37.404 21.3396
37.451 21.2541
37.4982 21.2562
37.5452 21.0138
37.5924 21.0571
37.6395 21.1139
37.6867 21.1067
37.7337 20.9661
37.781 20.8397
37.8281 20.7951
37.8753 20.7016
37.9224 20.566
37.9697 20.5989
38.0168 20.5061
38.064 20.4595
38.1111 20.3994
38.1584 20.2768
38.2056 20.2432
38.2529 20.1425
38.3 20.0566
38.3473 20.1144
38.3945 19.9329
38.4418 19.9451
38.489 19.9019
38.5363 19.8043
38.5837 19.691
38.6309 19.6823
38.6782 19.5924
38.7254 19.4972
38.7728 19.4665
38.82 19.3984
38.8674 19.3015
38.9146 19.3557
38.9621 19.2092
39.0093 19.1515
39.0567 19.1018
39.104 19.1194
39.1514 18.9337
39.1987 18.9818
39.2461 18.8648
39.2934 18.8286
39.3409 18.6956
39.3882 18.7064
39.4356 18.6129
39.483 18.5898
39.5304 18.497
39.5778 18.4572
39.6253 18.4149
39.6726 18.3675
39.7201 18.3233
39.7675 18.2519
39.815 18.2245
39.8624 18.0869
39.9099 18.136
39.9575 17.9383
40.0049 17.9242
40.0525 17.8724
40.0999 17.8915
40.1474 17.7041
40.1949 17.6886
40.2425 17.6384
40.2899 17.5714
40.3375 17.5335
40.385 17.4795
40.4326 17.4657
40.48 17.4239
40.5277 17.3189
40.5752 17.2797
40.6228 17.2104
40.6703 17.1361
40.718 17.0755
40.7655 17.0438
40.8132 17.0018
40.8607 16.9932
40.9084 16.905
40.9559 16.9126
41.0036 16.7755
41.0512 16.7435
41.0989 16.6362
41.1465 16.6925
41.1942 16.5869
41.242 16.4855
41.2896 16.4483
41.3373 16.374
41.3849 16.3641
41.4327 16.3531
41.4803 16.1906
41.5281 16.2152
41.5758 16.1255
41.6236 16.0583
41.6712 15.9578
41.7191 15.9767
41.7667 15.8758
41.8146 15.8445
41.8622 15.7822
41.9101 15.7473
41.9578 15.6542
42.0057 15.6397
42.0534 15.6085
42.1013 15.5584
42.149 15.4893
42.1969 15.3985
42.2446 15.3849
42.2925 15.2784
42.3403 15.3015
42.3882 15.2699
42.436 15.209
42.4839 15.1189
42.5319 15.1091
42.5797 15.0417
42.6277 14.9332
42.6755 14.8584
42.7235 14.8604
42.7713 14.8304
42.8193 14.7936
42.8671 14.6466
42.9152 14.6664
42.963 14.6184
43.0111 14.5791
43.0589 14.542
43.107 14.4202
43.1549 14.4315
43.2029 14.3312
43.2508 14.3563
43.2989 14.226
43.3468 14.2431
43.3949 14.1609
43.4429 14.1495
43.491 14.0527
43.5389 14.025
43.5871 13.9806
43.635 13.9316
43.6832 13.9139
43.7312 13.821
43.7793 13.7608
43.8273 13.7428
43.8755 13.7032
43.9237 13.6475
43.9717 13.5721
44.0199 13.5452
44.068 13.5372
44.1162 13.461
44.1642 13.4445
44.2125 13.3809
44.2606 13.3138
44.3088 13.2716
44.3569 13.1983
44.4052 13.1591
44.4533 13.0976
44.5016 13.0695
44.5497 13.0491
44.598 12.9788
44.6461 12.952
44.6945 12.9158
44.7426 12.8625
44.791 12.7918
44.8391 12.8118
44.8875 12.759
44.9357 12.6848
44.984 12.6277
45.0322 12.5695
45.0806 12.501
45.1288 12.4869
45.1773 12.4645
45.2257 12.3776
45.2739 12.3714
45.3224 12.3187
45.3706 12.2737
45.4191 12.2313
45.4673 12.184
45.5158 12.1465
45.5641 12.1169
45.6126 12.0863
45.6609 12.0144
45.7094 11.9353
45.7577 11.939
45.8063 11.8399
45.8546 11.829
45.9031 11.7896
45.9515 11.7659
46.0001 11.7189
46.0484 11.66
46.097 11.6619
46.1454 11.5581
46.194 11.5762
46.2424 11.4824
46.291 11.4701
46.3395 11.4228
46.3881 11.3428
46.4365 11.356
46.4852 11.2922
46.5337 11.273
46.5823 11.2291
46.631 11.1934
46.6795 11.1389
46.7282 11.1035
46.7767 11.061
46.8254 11.015
46.8739 10.97
46.9226 10.9087
46.9712 10.9087
47.0199 10.8743
47.0685 10.8251
47.1173 10.7484
47.1658 10.7377
47.2146 10.6867
47.2632 10.6279
47.312 10.6181
47.3606 10.6225
47.4095 10.5337
47.4581 10.4896
47.5069 10.4751
47.5556 10.4431
47.6044 10.3989
47.6531 10.3559
47.702 10.3061
47.7507 10.2743
47.7996 10.2294
47.8483 10.1945
47.8972 10.1352
47.9461 10.1078
47.9948 10.0315
48.0438 10.0467
48.0925 10.0009
48.1415 10.0077
48.1902 9.9448
48.2392 9.89207
48.288 9.87456
48.337 9.86489
48.3858 9.7747
48.4348 9.76446
48.4837 9.73626
48.5327 9.70283
48.5815 9.6771
48.6306 9.668
48.6795 9.60215
48.7285 9.52931
48.7774 9.5279
48.8265 9.49436
48.8754 9.43997
48.9245 9.41589
48.9734 9.37798
49.0226 9.38453
49.0715 9.32858
49.1206 9.29068
49.1696 9.25977
49.2188 9.2083
49.2679 9.15626
49.3169 9.12343
49.3661 9.12404
49.4151 9.07349
49.4643 9.06607
49.5134 9.00715
49.5626 8.94883
49.6117 8.93127
49.6609 8.92191
49.71 8.82021
49.7592 8.82648
49.8083 8.7759
49.8576 8.75301
49.9067 8.73535
49.956 8.71016
50.0052 8.65817
50.0545 8.65789
50.1036 8.58675
50.153 8.54686
50.2022 8.52745
50.2515 8.47468
50.3007 8.44425
50.3501 8.41912
50.3993 8.43261
50.4487 8.34806
50.498 8.30553
50.5474 8.28834
50.5966 8.24953
50.6461 8.23236
50.6955 8.22101
50.7448 8.18638
50.7943 8.16069
50.8436 8.08514
50.8931 8.06847
50.9424 8.04016
50.9919 8.00906
51.0413 7.99316
51.0908 7.95319
51.1402 7.89232
51.1897 7.88402
51.2391 7.84668
51.2887 7.80086
51.3381 7.77598
51.3877 7.75092
51.4371 7.72679
51.4867 7.68303
51.5362 7.67365
51.5858 7.60341
51.6353 7.54072
51.6849 7.58159
51.7344 7.54986
51.7841 7.50123
51.8336 7.46375
51.8833 7.4657
51.9328 7.4032
51.9826 7.36181
52.0323 7.36073
52.0818 7.34139
52.1316 7.26715
52.1812 7.23862
52.231 7.21714
52.2806 7.20887
52.3304 7.19773
52.38 7.12654
52.4298 7.07709
52.4794 7.08315
52.5293 7.07493
52.5789 7.04302
52.6288 6.97362
52.6785 6.95378
52.7284 6.91862
52.7781 6.92695
52.828 6.89179
52.8777 6.82193
52.9276 6.79263
52.9774 6.80216
53.0273 6.76789
53.0771 6.73983
53.1271 6.72786
53.1769 6.68788
53.2269 6.64543
53.2767 6.60215
53.3267 6.5716
53.3765 6.52969
53.4266 6.58262
53.4766 6.49613
53.5265 6.46483
53.5765 6.43712
53.6264 6.43204
53.6765 6.43491
53.7264 6.37123
53.7765 6.3459
53.8265 6.32378
53.8766 6.2686
53.9266 6.2374
53.9767 6.23631
54.0267 6.23148
54.0769 6.14837
54.1269 6.16478
54.1771 6.14504
54.2271 6.10028
54.2773 6.03246
54.3274 6.03486
54.3776 5.96719
54.4277 5.94766
54.478 5.92557
54.528 5.87272
54.5783 5.89628
54.6285 5.76062
54.6788 5.77223
54.7289 5.71172
54.7792 5.64275
54.8296 5.6041
54.8798 5.5775
54.9301 5.57841
54.9803 5.56377
55.0307 5.50804
55.0809 5.4846
55.1314 5.42875
55.1816 5.31243
55.232 5.26019
55.2823 5.24655
55.3328 5.22763
55.383 5.18536
55.4335 5.15466
55.4838 5.11718
55.5344 5.01238
55.5847 5.02205
55.6352 4.95118
55.6856 4.93102
55.7361 4.94498