File: XRD/Ni3Fe_FD0647.xy
TT I
1.27165 7.69044
1.31627 6.92766
1.36089 6.82433
1.40551 5.75064
1.45013 6.90455
1.49476 6.43746
1.53938 5.50011
1.584 5.84256
1.62863 5.02094
1.67325 5.35211
1.71787 5.42742
1.7625 4.87677
1.80712 4.64516
1.85174 5.07663
1.89636 5.35061
1.94099 4.62827
1.98562 4.7961
2.03025 4.3967
2.07487 4.41303
2.11949 4.57643
2.16411 5.60181
2.20874 16.6344
2.25338 28.985
2.298 6.52526
2.34263 5.52287
2.38725 6.36845
2.43188 5.92056
2.4765 7.09343
2.52115 6.62867
2.56577 8.16177
2.6104 8.20109
2.65503 7.86791
2.69965 8.44054
2.7443 8.38302
2.78893 8.53327
2.83356 8.2625
2.87818 8.67757
2.92281 8.70051
2.96744 10.0661
3.01209 10.7088
3.05672 10.7734
3.10135 12.305
3.14599 13.3201
3.19062 14.5044
3.23527 14.7672
3.2799 15.7202
3.32454 17.1242
3.36917 17.7813
3.4138 19.155
3.45844 19.9048
3.50309 21.3662
3.54773 22.0035
3.59237 24.6697
3.637 113.504
3.68164 71.2474
3.7263 26.844
3.77094 26.7629
3.81558 26.5695
3.86022 28.0239
3.90486 29.1484
3.9495 29.9219
3.99416 31.6424
4.0388 32.762
4.08344 34.065
4.12809 35.0738
4.17273 37.9612
4.21738 45.2025
4.26204 309.9
4.30669 277.084
4.35133 50.6742
4.39598 45.4738
4.44063 56.4869
4.4853 71.3458
4.52995 50.827
4.5746 51.3607
4.61925 53.2372
4.6639 55.5483
4.70855 57.8063
4.75322 60.4117
4.79788 63.8603
4.84253 67.3377
4.88719 70.9828
4.93184 74.4735
4.97652 80.4302
5.02118 86.1358
5.06583 93.3689
5.11049 104.653
5.15515 185.611
5.19981 330.907
5.24449 2603.55
5.28916 12577.3
5.33382 3185.03
5.37848 197.443
5.42315 130.344
5.46783 114.042
5.5125 105.646
5.55716 102.302
5.60183 98.6987
5.6465 96.9682
5.69117 93.6315
5.73586 92.0721
5.78053 90.6102
5.8252 90.6738
5.86988 91.1854
5.91455 93.4507
5.95924 99.7703
6.00392 189.078
6.0486 901.938
6.09328 4267.84
6.13795 3486.23
6.18263 260.64
6.22733 94.6989
6.27201 84.1264
6.3167 110.727
6.36138 83.8332
6.40606 69.5596
6.45075 67.9001
6.49545 66.0784
6.54014 64.2008
6.58483 63.8078
6.62952 63.5788
6.67421 103.214
6.71892 171.764
6.76361 73.0662
6.8083 59.3129
6.853 58.0474
6.89769 57.2255
6.94239 57.3525
6.98711 56.1835
7.03181 56.1584
7.07651 56.2476
7.12121 55.5091
7.16591 56.3965
7.21063 56.4444
7.25533 74.8168
7.30004 220.634
7.34475 104.987
7.38945 57.8401
7.43416 55.1414
7.47889 54.8601
7.5236 55.3941
7.56831 55.6357
7.61303 58.0813
7.65774 58.3258
7.70247 56.5956
7.74719 56.4166
7.79191 57.0962
7.83663 57.0066
7.88135 57.9534
7.92607 58.6345
7.97081 60.0197
8.01553 61.0018
8.06026 62.4398
8.10498 64.1606
8.14971 75.7751
8.19446 74.3194
8.23919 69.6126
8.28392 71.9227
8.32865 73.8877
8.37339 77.9609
8.41812 85.3955
8.46288 119.595
8.50761 156.841
8.55235 359.837
8.59709 1092.34
8.64183 2199.66
8.68658 1041.04
8.73134 180.608
8.77609 100.512
8.82083 92.9295
8.86558 89.5636
8.91033 90.4641
8.9551 93.6306
8.99985 85.4607
9.04461 83.3234
9.08936 82.3163
9.13412 82.2073
9.17888 82.2212
9.22365 83.1571
9.26841 82.3582
9.31318 81.9425
9.35794 82.43
9.4027 82.8458
9.44749 83.6531
9.49226 84.2923
9.53703 85.1925
9.5818 87.0036
9.62657 92.4575
9.67134 101.329
9.71614 94.3342
9.76091 93.8392
9.80569 95.9776
9.85047 100.262
9.89525 129.276
9.94005 143.327
9.98484 166.439
10.0296 318.12
10.0744 752.548
10.1192 1689.8
10.164 1688.3
10.2088 444.573
10.2536 131.991
10.2984 115.742
10.3432 118.576
10.388 105.372
10.4328 114.683
10.4776 153.299
10.5224 264.307
10.5672 493.049
10.612 517.207
10.6568 215.946
10.7017 98.9393
10.7465 86.9593
10.7913 83.2924
10.8361 81.2351
10.8809 79.0402
10.9257 79.1013
10.9706 80.3644
11.0154 75.2722
11.0602 72.9318
11.105 72.0151
11.1499 78.1152
11.1947 88.5109
11.2395 76.6604
11.2844 71.6103
11.3292 67.7308
11.374 66.2909
11.4189 65.8125
11.4637 65.0054
11.5086 66.0051
11.5534 70.2251
11.5983 66.6313
11.6431 63.9479
11.688 63.1361
11.7328 62.971
11.7777 62.9896
11.8225 62.6659
11.8674 62.5141
11.9122 62.8533
11.9571 62.9236
12.002 63.8141
12.0468 66.9775
12.0917 77.881
12.1366 99.8559
12.1814 145.486
12.2263 202.714
12.2712 174.096
12.3161 103.45
12.3609 72.7244
12.4058 65.2344
12.4507 64.4214
12.4956 64.8242
12.5405 64.5593
12.5853 65.9237
12.6302 75.5494
12.6751 83.042
12.72 71.3166
12.7649 68.0249
12.8098 68.2505
12.8547 69.7219
12.8996 71.0328
12.9445 71.9818
12.9894 73.826
13.0343 75.6563
13.0792 78.6496
13.1242 85.9482
13.1691 109.272
13.214 143.753
13.2589 224.845
13.3038 355.814
13.3487 432.392
13.3937 280.269
13.4386 129.375
13.4835 104.576
13.5285 117.563
13.5734 152.163
13.6183 237.248
13.6633 341.813
13.7082 353.045
13.7531 198.25
13.7981 100.628
13.843 82.2187
13.888 80.024
13.9329 77.2157
13.9779 75.9182
14.0228 74.4235
14.0678 72.9011
14.1127 72.6946
14.1577 72.742
14.2027 71.9
14.2476 70.4218
14.2926 70.8812
14.3376 72.5364
14.3825 70.9416
14.4275 68.9183
14.4725 68.713
14.5175 68.6125
14.5624 69.0751
14.6074 71.7444
14.6524 72.365
14.6974 70.3532
14.7424 71.3776
14.7874 77.5387
14.8324 86.8758
14.8774 106.944
14.9224 147.738
14.9674 198.914
15.0124 218.378
15.0574 154.088
15.1024 93.7094
15.1474 72.9608
15.1924 70.8446
15.2374 72.1122
15.2824 71.3868
15.3274 68.6031
15.3725 66.8958
15.4175 66.2929
15.4625 66.1808
15.5076 66.5021
15.5526 66.5081
15.5976 65.8704
15.6426 66.4017
15.6877 71.0722
15.7327 78.0621
15.7778 92.3104
15.8228 121.242
15.8679 163.219
15.9129 194.239
15.958 164.398
16.003 102.264
16.0481 69.3508
16.0931 65.7929
16.1382 63.7346
16.1833 61.1206
16.2283 59.1747
16.2734 58.5621
16.3185 59.2493
16.3636 60.4841
16.4086 58.5362
16.4537 56.3097
16.4988 55.8383
16.5439 55.6136
16.589 55.3331
16.6341 55.0557
16.6792 54.8662
16.7243 54.9463
16.7694 55.3267
16.8145 55.1782
16.8596 55.5307
16.9047 57.4497
16.9498 57.8311
16.9949 56.1788
17.04 56.0128
17.0851 56.9774
17.1302 58.4084
17.1754 61.5262
17.2205 66.0874
17.2656 73.2923
17.3108 82.1653
17.3559 83.8265
17.401 72.6184
17.4462 62.8048
17.4913 59.3274
17.5365 59.1584
17.5815 59.2111
17.6268 59.4272
17.6718 60.4603
17.7171 60.9813
17.7622 61.18
17.8074 61.6355
17.8525 63.7653
17.8977 67.4929
17.9428 72.8397
17.9881 80.7173
18.0331 96.4963
18.0784 117.995
18.1237 137.799
18.1688 133.792
18.214 106.232
18.2591 86.6862
18.3044 89.1423
18.3495 99.1252
18.3948 106.478
18.4399 99.6417
18.4852 80.0648
18.5303 67.2182
18.5756 62.451
18.6207 61.4455
18.666 60.5434
18.7112 59.9779
18.7565 59.1998
18.8016 58.5694
18.8469 58.1435
18.892 57.8547
18.9374 57.0974
18.9825 57.2087
19.0278 57.0072
19.073 57.0937
19.1183 57.6343
19.1635 58.2789
19.2088 59.5617
19.254 61.8334
19.2993 65.864
19.3447 72.2288
19.3898 77.0013
19.4352 73.6032
19.4804 64.3616
19.5257 57.3999
19.5709 54.2444
19.6163 54.2504
19.6615 53.9448
19.7068 53.4778
19.752 53.5014
19.7974 53.6355
19.8426 54.6602
19.888 55.1948
19.9332 56.1182
19.9786 58.3624
20.0238 61.6926
20.0692 66.5145
20.1144 69.8511
20.1598 68.7738
20.205 64.0037
20.2504 62.0914
20.2957 63.5154
20.3411 65.8694
20.3863 64.8676
20.4318 59.312
20.477 54.2308
20.5224 52.1142
20.5677 51.2766
20.6131 50.705
20.6586 49.8759
20.7038 49.7714
20.7493 49.2629
20.7945 48.9654
20.84 48.8595
20.8853 48.8801
20.9307 48.5774
20.976 48.8199
21.0215 48.9601
21.0668 49.1583
21.1122 49.4258
21.1575 50.0685
21.203 50.746
21.2483 51.4878
21.2938 51.6932
21.3391 50.3478
21.3846 49.2009
21.4299 48.6285
21.4754 48.3832
21.5207 48.6779
21.5662 48.8852
21.6116 49.184
21.6571 49.8532
21.7024 50.8558
21.7479 52.4868
21.7933 54.8728
21.8388 58.3815
21.8843 62.2675
21.9297 64.7545
21.9752 64.0252
22.0206 60.3625
22.0661 56.6396
22.1115 56.2674
22.157 56.2322
22.2024 54.7278
22.248 51.9523
22.2933 50.1532
22.3389 49.2114
22.3843 49.2047
22.4299 49.1758
22.4753 49.0527
22.5208 48.7259
22.5662 48.6232
22.6118 48.8184
22.6572 48.9926
22.7028 49.4539
22.7483 49.6078
22.7939 50.2615
22.8393 51.8665
22.8849 53.6911
22.9303 55.8577
22.9759 57.8865
23.0214 58.0325
23.067 55.3296
23.1126 51.8652
23.1581 49.5451
23.2037 49.1601
23.2492 49.0696
23.2948 48.9571
23.3403 49.1373
23.3859 49.6117
23.4314 50.6973
23.477 52.3371
23.5225 54.5629
23.5682 56.7655
23.6137 58.2029
23.6593 56.2445
23.7048 52.2316
23.7505 48.5878
23.796 46.9192
23.8417 46.1546
23.8872 45.9429
23.9329 45.3744
23.9784 45.0664
24.0241 44.9434
24.0697 44.5978
24.1154 44.3641
24.1609 44.2199
24.2066 43.9891
24.2522 43.9222
24.2979 43.545
24.3434 43.4913
24.3892 43.23
24.4349 43.3127
24.4805 43.1354
24.5262 43.1553
24.5718 43.1449
24.6175 43.0704
24.6631 43.1083
24.7089 42.5585
24.7545 42.6028
24.8002 42.4212
24.8458 42.3207
24.8916 42.1171
24.9372 42.2963
24.983 42.4935
25.0286 42.9214
25.0744 43.2412
25.12 43.7373
25.1658 44.3335
25.2114 44.8253
25.2572 44.8899
25.3029 44.9204
25.3487 45.0508
25.3943 44.9674
25.4402 44.0137
25.4858 42.6486
25.5316 41.7356
25.5773 41.0723
25.6231 41.105
25.669 40.6902
25.7147 40.6979
25.7605 40.626
25.8062 40.6893
25.8521 40.9737
25.8977 40.7876
25.9436 41.0063
25.9893 41.0267
26.0352 41.5904
26.0809 41.642
26.1268 41.8543
26.1725 41.6034
26.2184 41.0721
26.2641 40.4946
26.31 40.3168
26.3557 40.2257
26.4017 40.2538
26.4474 40.5709
26.4933 40.7698
26.5391 41.1947
26.585 41.6445
26.6308 42.0581
26.6767 42.3902
26.7225 42.2223
26.7684 41.6399
26.8142 41.0738
26.8601 40.7758
26.9059 40.2222
26.9519 39.7899
26.9979 39.3471
27.0437 38.9853
27.0896 38.7772
27.1354 38.8779
27.1814 38.6834
27.2272 38.551
27.2732 38.7338
27.3191 38.5623
27.3651 38.6395
27.4109 38.4808
27.4569 38.6179
27.5027 38.5837
27.5488 38.6044
27.5946 38.5532
27.6407 38.3374
27.6865 38.3506
27.7326 38.0695
27.7784 38.0627
27.8245 37.9499
27.8703 38.1547
27.9164 38.406
27.9623 38.4614
28.0084 38.8285
28.0543 39.1705
28.1003 39.2331
28.1462 38.9121
28.1923 38.6879
28.2384 38.1864
28.2843 37.9339
28.3304 37.3993
28.3764 36.9081
28.4225 36.6355
28.4684 36.4298
28.5145 36.159
28.5605 36.023
28.6066 35.8659
28.6526 35.73
28.6987 35.7471
28.7447 35.6745
28.7908 35.5179
28.8368 35.6055
28.8829 35.704
28.9289 35.5461
28.9751 35.3575
29.0211 35.0225
29.0673 34.7983
29.1133 34.7137
29.1595 34.48
29.2055 34.3846
29.2517 34.4687
29.2977 34.3066
29.3439 34.3831
29.3899 34.3291
29.4361 34.2325
29.4824 34.1414
29.5284 33.9125
29.5746 33.5428
29.6207 33.244
29.6669 33.1955
29.713 33.2406
29.7593 32.9888
29.8053 33.0012
29.8516 32.9512
29.8977 33.0202
29.9439 32.8003
29.99 32.6671
30.0363 32.5689
30.0824 32.7474
30.1287 32.4554
30.1748 32.4906
30.2211 32.5625
30.2673 32.4139
30.3136 32.5257
30.3597 32.4403
30.406 32.2246
30.4522 32.2561
30.4985 32.2167
30.5447 32.2646
30.591 32.1277
30.6372 32.333
30.6835 32.3334
30.7297 32.2794
30.7761 32.2423
30.8224 32.1834
30.8686 32.014
30.915 31.701
30.9612 31.6979
31.0076 31.3854
31.0538 31.3072
31.1002 31.2643
31.1464 31.0221
31.1928 31.0454
31.2391 31.1893
31.2855 30.932
31.3317 30.9121
31.3781 31.0171
31.4244 30.9744
31.4708 30.9906
31.5171 30.8814
31.5636 30.8257
31.6098 30.6269
31.6563 30.4883
31.7026 30.3868
31.7491 30.2286
31.7953 30.1887
31.8418 30.173
31.8881 30.2282
31.9346 30.1689
31.9809 30.2411
32.0275 30.0542
32.074 29.968
32.1203 29.7347
32.1668 29.7119
32.2132 29.5075
32.2597 29.4432
32.306 29.2262
32.3526 29.1762
32.399 29.0458
32.4455 28.8947
32.4919 28.8016
32.5385 28.8236
32.5848 28.5279
32.6314 28.6066
32.6778 28.5236
32.7244 28.3932
32.7708 28.2383
32.8174 28.2578
32.8638 28.0992
32.9104 28.1958
32.9569 28.0903
33.0035 27.9669
33.0499 27.9442
33.0966 27.8836
33.143 27.9131
33.1897 27.9139
33.2361 27.7416
33.2828 27.6213
33.3293 27.53
33.3759 27.4654
33.4226 27.2917
33.4691 27.2772
33.5158 27.1196
33.5623 27.0804
33.609 26.8412
33.6555 26.7757
33.7022 26.6424
33.7487 26.6049
33.7954 26.5683
33.842 26.3778
33.8887 26.3939
33.9353 26.4276
33.982 26.225
34.0286 26.2112
34.0753 26.0815
34.1219 26.0556
34.1687 25.9505
34.2152 25.8633
34.262 25.7279
34.3086 25.6698
34.3554 25.7275
34.402 25.5006
34.4488 25.467
34.4954 25.4355
34.5422 25.2959
34.5889 25.1198
34.6357 25.0521
34.6825 24.9981
34.7292 24.9147
34.776 24.8403
34.8227 24.7385
34.8695 24.7864
34.9162 24.682
34.9631 24.5775
35.0098 24.6167
35.0566 24.408
35.1033 24.3881
35.1502 24.3964
35.1969 24.2566
35.2438 24.2616
35.2906 24.1983
35.3375 24.2059
35.3842 24.1309
35.4311 24.0926
35.4779 23.999
35.5248 23.9765
35.5716 23.9098
35.6185 23.7982
35.6653 23.7187
35.7123 23.6199
35.759 23.5465
35.806 23.4576
35.8528 23.3539
35.8998 23.3648
35.9468 23.1899
35.9936 23.1134
36.0406 23.0707
36.0874 23.0903
36.1345 23.0127
36.1813 22.8862
36.2283 22.8508
36.2752 22.6885
36.3222 22.7779
36.3691 22.613
36.4161 22.556
36.463 22.5362
36.5101 22.4803
36.557 22.4379
36.6041 22.2695
36.651 22.316
36.6981 22.2396
36.745 22.1106
36.7921 22.0638
36.839 21.9877
36.8861 21.8892
36.9331 21.8321
36.9802 21.8126
37.0272 21.644
37.0743 21.5877
37.1213 21.5364
37.1684 21.4871
37.2154 21.4461
37.2626 21.3067
37.3098 21.2732
37.3568 21.2508
37.404 21.22
37.451 21.0782
37.4982 21.051
37.5452 20.9164
37.5924 20.8872
37.6395 20.9492
37.6867 20.799
37.7337 20.637
37.781 20.5794
37.8281 20.6095
37.8753 20.4758
37.9224 20.3621
37.9697 20.3702
38.0168 20.3094
38.064 20.2546
38.1111 20.0904
38.1584 20.0839
38.2056 20.0453
38.2529 19.9444
38.3 19.9003
38.3473 19.8946
38.3945 19.7754
38.4418 19.7199
38.489 19.6588
38.5363 19.66
38.5837 19.5707
38.6309 19.5677
38.6782 19.4041
38.7254 19.3826
38.7728 19.3521
38.82 19.2294
38.8674 19.2393
38.9146 19.0957
38.9621 19.0708
39.0093 18.996
39.0567 18.9625
39.104 18.8594
39.1514 18.7929
39.1987 18.7854
39.2461 18.7221
39.2934 18.6775
39.3409 18.5858
39.3882 18.4471
39.4356 18.4773
39.483 18.3373
39.5304 18.3072
39.5778 18.3326
39.6253 18.2767
39.6726 18.1507
39.7201 18.1658
39.7675 18.1094
39.815 17.9939
39.8624 17.9589
39.9099 17.9119
39.9575 17.8205
40.0049 17.7948
40.0525 17.691
40.0999 17.6775
40.1474 17.5604
40.1949 17.5589
40.2425 17.449
40.2899 17.4321
40.3375 17.3943
40.385 17.2804
40.4326 17.2215
40.48 17.1982
40.5277 17.1663
40.5752 17.0579
40.6228 17.0759
40.6703 16.99
40.718 16.9346
40.7655 16.8589
40.8132 16.799
40.8607 16.8122
40.9084 16.7726
40.9559 16.6584
41.0036 16.6666
41.0512 16.5534
41.0989 16.5347
41.1465 16.4492
41.1942 16.4346
41.242 16.3439
41.2896 16.2965
41.3373 16.2132
41.3849 16.1962
41.4327 16.1788
41.4803 16.0836
41.5281 16.0321
41.5758 15.9551
41.6236 15.9099
41.6712 15.8007
41.7191 15.7646
41.7667 15.7544
41.8146 15.6816
41.8622 15.5967
41.9101 15.6212
41.9578 15.4899
42.0057 15.5641
42.0534 15.4415
42.1013 15.3822
42.149 15.3592
42.1969 15.2463
42.2446 15.2362
42.2925 15.2266
42.3403 15.1282
42.3882 15.1213
42.436 15.0332
42.4839 14.9557
42.5319 14.9094
42.5797 14.8559
42.6277 14.807
42.6755 14.8497
42.7235 14.7251
42.7713 14.7061
42.8193 14.6391
42.8671 14.5878
42.9152 14.5264
42.963 14.4579
43.0111 14.4345
43.0589 14.4023
43.107 14.3249
43.1549 14.289
43.2029 14.2573
43.2508 14.2131
43.2989 14.1692
43.3468 14.1361
43.3949 14.0532
43.4429 13.9669
43.491 13.9809
43.5389 13.8885
43.5871 13.8231
43.635 13.7673
43.6832 13.7879
43.7312 13.6892
43.7793 13.6442
43.8273 13.605
43.8755 13.5353
43.9237 13.5121
43.9717 13.4649
44.0199 13.4793
44.068 13.3539
44.1162 13.3313
44.1642 13.3401
44.2125 13.258
44.2606 13.2024
44.3088 13.1527
44.3569 13.0968
44.4052 13.0679
44.4533 13.0092
44.5016 12.943
44.5497 12.949
44.598 12.8936
44.6461 12.8352
44.6945 12.812
44.7426 12.7896
44.791 12.7241
44.8391 12.6468
44.8875 12.616
44.9357 12.586
44.984 12.5133
45.0322 12.4903
45.0806 12.4409
45.1288 12.4088
45.1773 12.3701
45.2257 12.3199
45.2739 12.2675
45.3224 12.2348
45.3706 12.1907
45.4191 12.141
45.4673 12.1181
45.5158 12.0701
45.5641 11.9659
45.6126 11.9681
45.6609 11.9133
45.7094 11.8627
45.7577 11.8339
45.8063 11.7424
45.8546 11.7851
45.9031 11.724
45.9515 11.6525
46.0001 11.6198
46.0484 11.5763
46.097 11.5255
46.1454 11.4837
46.194 11.4617
46.2424 11.4269
46.291 11.3845
46.3395 11.2917
46.3881 11.2916
46.4365 11.2828
46.4852 11.2531
46.5337 11.1616
46.5823 11.0705
46.631 11.0784
46.6795 11.0745
46.7282 11.0261
46.7767 10.9952
46.8254 10.9169
46.8739 10.8725
46.9226 10.8245
46.9712 10.8262
47.0199 10.7491
47.0685 10.75
47.1173 10.6804
47.1658 10.6415
47.2146 10.6386
47.2632 10.5605
47.312 10.5425
47.3606 10.4803
47.4095 10.4479
47.4581 10.4397
47.5069 10.39
47.5556 10.3244
47.6044 10.2723
47.6531 10.1982
47.702 10.2163
47.7507 10.1521
47.7996 10.1533
47.8483 10.0935
47.8972 10.0935
47.9461 10.069
47.9948 10.0076
48.0438 9.98585
48.0925 9.93082
48.1415 9.88891
48.1902 9.86305
48.2392 9.82625
48.288 9.81711
48.337 9.76588
48.3858 9.69863
48.4348 9.70088
48.4837 9.64689
48.5327 9.64303
48.5815 9.59992
48.6306 9.53552
48.6795 9.52967
48.7285 9.47528
48.7774 9.44217
48.8265 9.40371
48.8754 9.39398
48.9245 9.33616
48.9734 9.30401
49.0226 9.31333
49.0715 9.20969
49.1206 9.21067
49.1696 9.11592
49.2188 9.14305
49.2679 9.04455
49.3169 9.07782
49.3661 9.00413
49.4151 8.98223
49.4643 8.95867
49.5134 8.95123
49.5626 8.87689
49.6117 8.91502
49.6609 8.80294
49.71 8.7813
49.7592 8.74704
49.8083 8.70607
49.8576 8.69702
49.9067 8.603
49.956 8.61568
50.0052 8.59565
50.0545 8.5769
50.1036 8.52166
50.153 8.448
50.2022 8.45407
50.2515 8.39698
50.3007 8.3511
50.3501 8.33465
50.3993 8.30546
50.4487 8.27591
50.498 8.25043
50.5474 8.20281
50.5966 8.14722
50.6461 8.12656
50.6955 8.1353
50.7448 8.10454
50.7943 8.07374
50.8436 8.05888
50.8931 7.96236
50.9424 7.94957
50.9919 7.93617
51.0413 7.90858
51.0908 7.89472
51.1402 7.86811
51.1897 7.79003
51.2391 7.74935
51.2887 7.74746
51.3381 7.69948
51.3877 7.67915
51.4371 7.62667
51.4867 7.61953
51.5362 7.61181
51.5858 7.5593
51.6353 7.52013
51.6849 7.50948
51.7344 7.45262
51.7841 7.44627
51.8336 7.41986
51.8833 7.38301
51.9328 7.36118
51.9826 7.2985
52.0323 7.2816
52.0818 7.26119
52.1316 7.20843
52.1812 7.17779
52.231 7.14595
52.2806 7.16596
52.3304 7.10864
52.38 7.07652
52.4298 7.01494
52.4794 6.99095
52.5293 6.96123
52.5789 6.95924
52.6288 6.93485
52.6785 6.88637
52.7284 6.86566
52.7781 6.83685
52.828 6.81044
52.8777 6.72008
52.9276 6.77724
52.9774 6.72269
53.0273 6.67337
53.0771 6.68747
53.1271 6.68722
53.1769 6.60986
53.2269 6.56961
53.2767 6.58176
53.3267 6.55298
53.3765 6.53355
53.4266 6.49324
53.4766 6.42327
53.5265 6.39842
53.5765 6.3933
53.6264 6.38111
53.6765 6.34991
53.7264 6.35164
53.7765 6.3251
53.8265 6.24978
53.8766 6.19203
53.9266 6.21291
53.9767 6.18953
54.0267 6.15126
54.0769 6.12118
54.1269 6.08564
54.1771 6.01507
54.2271 6.03537
54.2773 6.01158
54.3274 5.98327
54.3776 5.90245
54.4277 5.89751
54.478 5.85587
54.528 5.82054
54.5783 5.79299
54.6285 5.73953
54.6788 5.70252
54.7289 5.67422
54.7792 5.63261
54.8296 5.61534
54.8798 5.54093
54.9301 5.5084
54.9803 5.45997
55.0307 5.45652
55.0809 5.40404
55.1314 5.38311
55.1816 5.32209
55.232 5.27603
55.2823 5.2529
55.3328 5.16931
55.383 5.12515
55.4335 5.08135
55.4838 5.06638
55.5344 4.96356
55.5847 4.92565
55.6352 4.89034
55.6856 4.9317
55.7361 4.83264