File: XRD/Ni3Fe_FD0716.xy
TT I
1.27165 7.15452
1.31627 6.7099
1.36089 7.47199
1.40551 6.17465
1.45013 5.5609
1.49476 6.01839
1.53938 6.01869
1.584 5.24881
1.62863 5.0455
1.67325 5.21239
1.71787 5.19579
1.7625 5.05406
1.80712 4.6983
1.85174 4.54044
1.89636 4.59437
1.94099 4.90539
1.98562 4.49413
2.03025 4.72335
2.07487 5.08682
2.11949 4.91836
2.16411 5.03409
2.20874 8.68787
2.25338 10.9975
2.298 5.14212
2.34263 5.4785
2.38725 5.7697
2.43188 6.01698
2.4765 6.70435
2.52115 6.69147
2.56577 7.47557
2.6104 8.00185
2.65503 7.64489
2.69965 8.24146
2.7443 7.91819
2.78893 8.52165
2.83356 8.0077
2.87818 8.85024
2.92281 8.90375
2.96744 9.61998
3.01209 9.91974
3.05672 10.9381
3.10135 12.0195
3.14599 12.6403
3.19062 14.2438
3.23527 15.5313
3.2799 15.4965
3.32454 16.4303
3.36917 17.1769
3.4138 18.7325
3.45844 20.133
3.50309 20.9259
3.54773 21.4475
3.59237 23.2756
3.637 49.7006
3.68164 36.1118
3.7263 25.3907
3.77094 25.815
3.81558 26.1187
3.86022 27.0397
3.90486 28.5736
3.9495 29.2337
3.99416 30.371
4.0388 31.9768
4.08344 33.6385
4.12809 34.3939
4.17273 36.2052
4.21738 39.5544
4.26204 118.929
4.30669 101.516
4.35133 44.8074
4.39598 44.0751
4.44063 48.8162
4.4853 53.9567
4.52995 55.9826
4.5746 56.6426
4.61925 53.6604
4.6639 55.8298
4.70855 58.7624
4.75322 62.0808
4.79788 67.6594
4.84253 68.8328
4.88719 75.0888
4.93184 76.8894
4.97652 81.9172
5.02118 88.5518
5.06583 96.2721
5.11049 107.28
5.15515 154.188
5.19981 399.557
5.24449 3073.78
5.28916 12552.8
5.33382 2833.31
5.37848 200.586
5.42315 131.515
5.46783 119.811
5.5125 112.856
5.55716 103.091
5.60183 98.5678
5.6465 96.8506
5.69117 95.2215
5.73586 93.4312
5.78053 97.7968
5.8252 97.6511
5.86988 100.225
5.91455 96.1408
5.95924 104.764
6.00392 240.197
6.0486 1021.27
6.09328 4519.23
6.13795 3155.59
6.18263 231.511
6.22733 91.6382
6.27201 80.9724
6.3167 84.1843
6.36138 74.5553
6.40606 69.8626
6.45075 69.6446
6.49545 65.6936
6.54014 63.5881
6.58483 62.6615
6.62952 62.6676
6.67421 73.8649
6.71892 89.2835
6.76361 61.9129
6.8083 58.9735
6.853 59.4651
6.89769 56.8787
6.94239 56.2683
6.98711 55.8494
7.03181 55.7252
7.07651 55.233
7.12121 55.0006
7.16591 56.2301
7.21063 55.2802
7.25533 61.3108
7.30004 98.3633
7.34475 66.7952
7.38945 54.9672
7.43416 53.7404
7.47889 53.5985
7.5236 54.1821
7.56831 54.9614
7.61303 55.6478
7.65774 56.0896
7.70247 56.815
7.74719 56.462
7.79191 56.704
7.83663 56.7492
7.88135 57.5358
7.92607 58.5062
7.97081 59.7014
8.01553 60.7932
8.06026 62.604
8.10498 64.0594
8.14971 70.6162
8.19446 70.453
8.23919 69.9132
8.28392 72.1211
8.32865 74.5622
8.37339 79.0389
8.41812 84.2461
8.46288 102.696
8.50761 177.516
8.55235 411.984
8.59709 1219.94
8.64183 2115.34
8.68658 899.272
8.73134 156.997
8.77609 98.5888
8.82083 93.1264
8.86558 93.1487
8.91033 91.9543
8.9551 89.3134
8.99985 85.2581
9.04461 84.0472
9.08936 84.5158
9.13412 82.8641
9.17888 82.1396
9.22365 82.5314
9.26841 82.0506
9.31318 84.7808
9.35794 86.3457
9.4027 86.071
9.44749 85.3318
9.49226 85.2244
9.53703 85.9164
9.5818 89.4035
9.62657 94.1602
9.67134 95.3272
9.71614 93.1137
9.76091 94.9192
9.80569 99.6661
9.85047 101.836
9.89525 111.935
9.94005 125.772
9.98484 191.567
10.0296 365.213
10.0744 856.061
10.1192 1755.11
10.164 1563.15
10.2088 389.898
10.2536 124.913
10.2984 110.329
10.3432 108.387
10.388 105.572
10.4328 122.506
10.4776 167.738
10.5224 297.574
10.5672 504.872
10.612 500.564
10.6568 199.438
10.7017 95.46
10.7465 86.4315
10.7913 83.1657
10.8361 81.0538
10.8809 79.0401
10.9257 78.1301
10.9706 78.0594
11.0154 75.3178
11.0602 72.89
11.105 71.4642
11.1499 72.1533
11.1947 74.1019
11.2395 70.1186
11.2844 68.4848
11.3292 66.944
11.374 65.8473
11.4189 65.7727
11.4637 64.8243
11.5086 64.8307
11.5534 65.4253
11.5983 64.1768
11.6431 63.3839
11.688 62.9438
11.7328 62.6709
11.7777 62.6775
11.8225 62.6504
11.8674 62.426
11.9122 62.865
11.9571 63.0464
12.002 64.6227
12.0468 69.1103
12.0917 79.5617
12.1366 105.524
12.1814 154.292
12.2263 201.201
12.2712 160.462
12.3161 91.4082
12.3609 67.3452
12.4058 64.3099
12.4507 64.0289
12.4956 64.6245
12.5405 65.0491
12.5853 65.2479
12.6302 68.285
12.6751 70.2689
12.72 67.871
12.7649 67.6893
12.8098 68.4469
12.8547 70.053
12.8996 71.7459
12.9445 72.9281
12.9894 74.5242
13.0343 76.22
13.0792 80.3133
13.1242 92.271
13.1691 113.213
13.214 154.722
13.2589 250.689
13.3038 375.786
13.3487 415.447
13.3937 259.403
13.4386 124.077
13.4835 107.392
13.5285 123.465
13.5734 166.301
13.6183 255.818
13.6633 353.34
13.7082 331.634
13.7531 181.378
13.7981 96.4543
13.843 81.993
13.888 79.812
13.9329 76.9476
13.9779 76.0858
14.0228 74.2519
14.0678 73.2516
14.1127 72.7137
14.1577 72.066
14.2027 71.4725
14.2476 70.2218
14.2926 70.1602
14.3376 70.3847
14.3825 69.6745
14.4275 69.1792
14.4725 68.6822
14.5175 69.1071
14.5624 69.0851
14.6074 70.1357
14.6524 70.2518
14.6974 70.6102
14.7424 73.6435
14.7874 79.6453
14.8324 90.8495
14.8774 114.837
14.9224 158.537
14.9674 208.742
15.0124 215.151
15.0574 144.715
15.1024 88.1274
15.1474 72.16
15.1924 70.005
15.2374 69.3286
15.2824 68.7181
15.3274 67.7626
15.3725 66.8885
15.4175 66.4901
15.4625 66.0215
15.5076 65.9625
15.5526 65.7684
15.5976 65.7743
15.6426 68.1622
15.6877 73.1907
15.7327 81.0157
15.7778 97.8586
15.8228 130.328
15.8679 173.563
15.9129 190.266
15.958 152.156
16.003 95.2443
16.0481 67.3849
16.0931 63.1394
16.1382 61.5343
16.1833 60.2227
16.2283 58.7693
16.2734 58.3409
16.3185 57.9743
16.3636 57.7496
16.4086 56.6324
16.4537 56.0151
16.4988 55.3367
16.5439 55.4438
16.589 55.0776
16.6341 54.7432
16.6792 54.3469
16.7243 54.7041
16.7694 54.6376
16.8145 54.6719
16.8596 54.8687
16.9047 55.5465
16.9498 55.5925
16.9949 55.3019
17.04 55.9526
17.0851 57.1229
17.1302 58.82
17.1754 62.0171
17.2205 67.4081
17.2656 74.9144
17.3108 82.4322
17.3559 81.5176
17.401 70.5349
17.4462 61.9178
17.4913 59.3365
17.5365 59.1809
17.5815 59.2812
17.6268 59.5807
17.6718 60.2424
17.7171 60.6774
17.7622 61.3256
17.8074 62.4536
17.8525 65.2407
17.8977 68.8124
17.9428 74.4179
17.9881 84.3913
18.0331 102.602
18.0784 123.269
18.1237 138.765
18.1688 130.428
18.214 103.109
18.2591 87.228
18.3044 91.6256
18.3495 100.337
18.3948 104.765
18.4399 94.319
18.4852 75.9361
18.5303 65.3385
18.5756 62.2389
18.6207 61.2289
18.666 60.2815
18.7112 59.3933
18.7565 58.9328
18.8016 58.5632
18.8469 58.0126
18.892 57.6127
18.9374 57.0091
18.9825 56.9995
19.0278 56.5831
19.073 57.0181
19.1183 57.3865
19.1635 57.8331
19.2088 59.4554
19.254 62.439
19.2993 67.2416
19.3447 72.4104
19.3898 74.9927
19.4352 70.7357
19.4804 62.6907
19.5257 56.3249
19.5709 54.0967
19.6163 53.9612
19.6615 53.6577
19.7068 53.3318
19.752 53.3007
19.7974 53.6066
19.8426 54.1772
19.888 55.0812
19.9332 56.369
19.9786 59.2456
20.0238 62.804
20.0692 67.3623
20.1144 69.4227
20.1598 67.93
20.205 63.5778
20.2504 62.442
20.2957 63.7445
20.3411 65.0986
20.3863 63.4332
20.4318 57.9067
20.477 53.1925
20.5224 51.114
20.5677 50.6269
20.6131 50.0858
20.6586 49.5636
20.7038 49.5331
20.7493 49.1334
20.7945 48.8832
20.84 48.8196
20.8853 48.6506
20.9307 48.5258
20.976 48.8034
21.0215 48.5668
21.0668 49.04
21.1122 49.5178
21.1575 50.0216
21.203 50.8254
21.2483 51.2073
21.2938 51.3849
21.3391 50.0463
21.3846 48.9614
21.4299 48.5003
21.4754 48.4566
21.5207 48.5589
21.5662 48.9175
21.6116 49.4365
21.6571 50.0821
21.7024 51.0866
21.7479 52.9382
21.7933 55.7672
21.8388 59.3653
21.8843 62.6288
21.9297 64.5683
21.9752 62.7578
22.0206 59.4071
22.0661 56.4936
22.1115 55.933
22.157 55.7919
22.2024 53.9409
22.248 51.339
22.2933 49.7378
22.3389 48.977
22.3843 48.8904
22.4299 48.6516
22.4753 48.7344
22.5208 48.4428
22.5662 48.4765
22.6118 48.7895
22.6572 48.9601
22.7028 49.4033
22.7483 49.8069
22.7939 50.5507
22.8393 52.1988
22.8849 54.5057
22.9303 56.0899
22.9759 57.6881
23.0214 57.1144
23.067 54.2255
23.1126 51.0764
23.1581 49.1041
23.2037 48.7222
23.2492 48.9274
23.2948 48.8557
23.3403 49.1
23.3859 49.853
23.4314 50.7699
23.477 52.9542
23.5225 55.187
23.5682 56.912
23.6137 57.5113
23.6593 54.9425
23.7048 51.1762
23.7505 48.0579
23.796 46.5471
23.8417 45.9158
23.8872 45.5191
23.9329 45.2313
23.9784 44.7405
24.0241 44.5414
24.0697 44.349
24.1154 44.0158
24.1609 43.9268
24.2066 43.6981
24.2522 43.7162
24.2979 43.2633
24.3434 43.1588
24.3892 43.1569
24.4349 43.0185
24.4805 42.7728
24.5262 43.0072
24.5718 42.9871
24.6175 42.9944
24.6631 42.8511
24.7089 42.43
24.7545 42.379
24.8002 42.2151
24.8458 42.2014
24.8916 42.0395
24.9372 42.1212
24.983 42.6199
25.0286 42.8528
25.0744 43.3089
25.12 43.8167
25.1658 44.4305
25.2114 44.6336
25.2572 44.657
25.3029 44.5834
25.3487 44.817
25.3943 44.3796
25.4402 43.5315
25.4858 42.2775
25.5316 41.4673
25.5773 40.7203
25.6231 40.8083
25.669 40.6522
25.7147 40.5314
25.7605 40.3185
25.8062 40.4043
25.8521 40.6201
25.8977 40.5784
25.9436 40.8136
25.9893 41.0053
26.0352 41.4665
26.0809 41.4718
26.1268 41.6393
26.1725 41.2252
26.2184 40.7359
26.2641 40.3344
26.31 40.1646
26.3557 40.1089
26.4017 40.0179
26.4474 40.4628
26.4933 40.6262
26.5391 41.2119
26.585 41.622
26.6308 42.1181
26.6767 42.1493
26.7225 41.8536
26.7684 41.4422
26.8142 40.789
26.8601 40.3171
26.9059 39.981
26.9519 39.3337
26.9979 39.1337
27.0437 38.8273
27.0896 38.8032
27.1354 38.7317
27.1814 38.5063
27.2272 38.5325
27.2732 38.5859
27.3191 38.3622
27.3651 38.4333
27.4109 38.5102
27.4569 38.5121
27.5027 38.5188
27.5488 38.4287
27.5946 38.4123
27.6407 38.209
27.6865 37.9812
27.7326 37.8224
27.7784 37.9373
27.8245 37.8071
27.8703 38.0111
27.9164 38.2619
27.9623 38.3919
28.0084 38.797
28.0543 39.0562
28.1003 38.8909
28.1462 38.7594
28.1923 38.4188
28.2384 37.8154
28.2843 37.507
28.3304 37.1062
28.3764 36.7668
28.4225 36.3856
28.4684 36.1745
28.5145 35.91
28.5605 35.7412
28.6066 35.6486
28.6526 35.6931
28.6987 35.4674
28.7447 35.4002
28.7908 35.3914
28.8368 35.4644
28.8829 35.3434
28.9289 35.2097
28.9751 35.1428
29.0211 34.8838
29.0673 34.5408
29.1133 34.5543
29.1595 34.4244
29.2055 34.314
29.2517 34.3849
29.2977 34.1729
29.3439 34.261
29.3899 34.126
29.4361 34.094
29.4824 33.9015
29.5284 33.7071
29.5746 33.3745
29.6207 33.1286
29.6669 33.0652
29.713 32.9767
29.7593 32.7692
29.8053 32.8157
29.8516 32.7065
29.8977 32.6773
29.9439 32.5019
29.99 32.5295
30.0363 32.4515
30.0824 32.4582
30.1287 32.2922
30.1748 32.3699
30.2211 32.3207
30.2673 32.1765
30.3136 32.3778
30.3597 32.1888
30.406 32.2117
30.4522 32.0695
30.4985 32.016
30.5447 32.1825
30.591 32.0345
30.6372 32.1608
30.6835 32.0886
30.7297 32.1728
30.7761 32.1372
30.8224 31.9739
30.8686 31.8175
30.915 31.5115
30.9612 31.4239
31.0076 31.2397
31.0538 31.1349
31.1002 31.0834
31.1464 30.8032
31.1928 30.8938
31.2391 30.8953
31.2855 30.8143
31.3317 30.6804
31.3781 30.7855
31.4244 30.9035
31.4708 30.7974
31.5171 30.6789
31.5636 30.6937
31.6098 30.3764
31.6563 30.3203
31.7026 30.1935
31.7491 30.0588
31.7953 30.1843
31.8418 30.158
31.8881 30.134
31.9346 29.9703
31.9809 29.9474
32.0275 29.8877
32.074 29.6853
32.1203 29.5144
32.1668 29.4642
32.2132 29.2851
32.2597 29.2673
32.306 29.1075
32.3526 28.916
32.399 28.9507
32.4455 28.6932
32.4919 28.7139
32.5385 28.6117
32.5848 28.505
32.6314 28.4749
32.6778 28.3547
32.7244 28.1501
32.7708 28.1119
32.8174 28.1338
32.8638 27.8588
32.9104 28.051
32.9569 27.8913
33.0035 27.8891
33.0499 27.8021
33.0966 27.7852
33.143 27.749
33.1897 27.7199
33.2361 27.5276
33.2828 27.5188
33.3293 27.3597
33.3759 27.414
33.4226 27.2839
33.4691 26.9744
33.5158 26.9379
33.5623 26.8434
33.609 26.6998
33.6555 26.6577
33.7022 26.4669
33.7487 26.4717
33.7954 26.4746
33.842 26.2801
33.8887 26.2689
33.9353 26.2229
33.982 26.0438
34.0286 26.019
34.0753 25.8473
34.1219 25.8814
34.1687 25.8035
34.2152 25.7249
34.262 25.5741
34.3086 25.5194
34.3554 25.4983
34.402 25.3164
34.4488 25.2251
34.4954 25.2131
34.5422 25.1082
34.5889 25.0305
34.6357 24.9671
34.6825 24.8804
34.7292 24.83
34.776 24.7355
34.8227 24.6483
34.8695 24.6278
34.9162 24.5908
34.9631 24.4941
35.0098 24.4362
35.0566 24.3222
35.1033 24.2487
35.1502 24.2157
35.1969 24.1481
35.2438 24.114
35.2906 24.093
35.3375 23.99
35.3842 23.8721
35.4311 23.9569
35.4779 23.9111
35.5248 23.7879
35.5716 23.6742
35.6185 23.5913
35.6653 23.6087
35.7123 23.4622
35.759 23.4343
35.806 23.3593
35.8528 23.2104
35.8998 23.1997
35.9468 23.0596
35.9936 23.061
36.0406 22.9973
36.0874 22.9427
36.1345 22.8773
36.1813 22.7515
36.2283 22.628
36.2752 22.5971
36.3222 22.5915
36.3691 22.5566
36.4161 22.4279
36.463 22.4568
36.5101 22.3518
36.557 22.2825
36.6041 22.131
36.651 22.1005
36.6981 22.0037
36.745 22.0748
36.7921 21.9265
36.839 21.8057
36.8861 21.7566
36.9331 21.5778
36.9802 21.6127
37.0272 21.5036
37.0743 21.4843
37.1213 21.4494
37.1684 21.3977
37.2154 21.2919
37.2626 21.1802
37.3098 21.1578
37.3568 21.0723
37.404 21.04
37.451 20.9079
37.4982 20.9296
37.5452 20.8168
37.5924 20.7802
37.6395 20.8209
37.6867 20.6595
37.7337 20.6387
37.781 20.4244
37.8281 20.4022
37.8753 20.358
37.9224 20.2358
37.9697 20.2571
38.0168 20.1823
38.064 20.1024
38.1111 20.0196
38.1584 19.9388
38.2056 19.9522
38.2529 19.8901
38.3 19.786
38.3473 19.7878
38.3945 19.6173
38.4418 19.6307
38.489 19.5585
38.5363 19.5078
38.5837 19.4037
38.6309 19.3115
38.6782 19.3389
38.7254 19.2241
38.7728 19.1202
38.82 19.048
38.8674 19.0243
38.9146 18.9778
38.9621 18.9145
39.0093 18.9026
39.0567 18.8114
39.104 18.7867
39.1514 18.6646
39.1987 18.5407
39.2461 18.6112
39.2934 18.5247
39.3409 18.3624
39.3882 18.2924
39.4356 18.3296
39.483 18.3163
39.5304 18.1671
39.5778 18.1682
39.6253 18.1064
39.6726 18.0459
39.7201 17.9908
39.7675 17.9224
39.815 17.8759
39.8624 17.8066
39.9099 17.7741
39.9575 17.6318
40.0049 17.6599
40.0525 17.6021
40.0999 17.5377
40.1474 17.5304
40.1949 17.4314
40.2425 17.3924
40.2899 17.2765
40.3375 17.3059
40.385 17.2245
40.4326 17.1526
40.48 17.0719
40.5277 17.053
40.5752 16.964
40.6228 16.9075
40.6703 16.8867
40.718 16.7607
40.7655 16.7913
40.8132 16.6404
40.8607 16.6924
40.9084 16.682
40.9559 16.5997
41.0036 16.4931
41.0512 16.4292
41.0989 16.476
41.1465 16.3198
41.1942 16.2895
41.242 16.1896
41.2896 16.1735
41.3373 16.132
41.3849 16.0418
41.4327 16.0222
41.4803 15.9874
41.5281 15.9528
41.5758 15.8417
41.6236 15.8194
41.6712 15.7146
41.7191 15.7366
41.7667 15.6359
41.8146 15.6386
41.8622 15.4773
41.9101 15.491
41.9578 15.3961
42.0057 15.4053
42.0534 15.3221
42.1013 15.2871
42.149 15.2217
42.1969 15.1926
42.2446 15.1496
42.2925 15.1041
42.3403 15.0315
42.3882 15.0091
42.436 14.98
42.4839 14.8138
42.5319 14.8115
42.5797 14.8238
42.6277 14.6875
42.6755 14.702
42.7235 14.6036
42.7713 14.6065
42.8193 14.525
42.8671 14.4878
42.9152 14.4762
42.963 14.408
43.0111 14.3177
43.0589 14.3036
43.107 14.1794
43.1549 14.1786
43.2029 14.1391
43.2508 14.1418
43.2989 13.9754
43.3468 13.9471
43.3949 13.9585
43.4429 13.9251
43.491 13.8648
43.5389 13.8238
43.5871 13.7642
43.635 13.6431
43.6832 13.6382
43.7312 13.5749
43.7793 13.5016
43.8273 13.448
43.8755 13.4616
43.9237 13.4825
43.9717 13.3741
44.0199 13.3488
44.068 13.3098
44.1162 13.2327
44.1642 13.1847
44.2125 13.1642
44.2606 13.0986
44.3088 12.9782
44.3569 12.9982
44.4052 12.9753
44.4533 12.9018
44.5016 12.8854
44.5497 12.8416
44.598 12.7812
44.6461 12.7628
44.6945 12.7487
44.7426 12.6308
44.791 12.5831
44.8391 12.5962
44.8875 12.5149
44.9357 12.4493
44.984 12.3883
45.0322 12.3584
45.0806 12.3369
45.1288 12.3453
45.1773 12.27
45.2257 12.2492
45.2739 12.1388
45.3224 12.1154
45.3706 12.1086
45.4191 12.0396
45.4673 12.0275
45.5158 11.9808
45.5641 11.9118
45.6126 11.8698
45.6609 11.8198
45.7094 11.7592
45.7577 11.7307
45.8063 11.6543
45.8546 11.6837
45.9031 11.6027
45.9515 11.5927
46.0001 11.5268
46.0484 11.4691
46.097 11.4411
46.1454 11.4194
46.194 11.4202
46.2424 11.3062
46.291 11.3105
46.3395 11.2977
46.3881 11.1993
46.4365 11.1483
46.4852 11.1252
46.5337 11.0886
46.5823 11.0433
46.631 10.9873
46.6795 10.9505
46.7282 10.955
46.7767 10.9021
46.8254 10.8569
46.8739 10.7915
46.9226 10.7384
46.9712 10.7065
47.0199 10.6837
47.0685 10.6592
47.1173 10.603
47.1658 10.5402
47.2146 10.5455
47.2632 10.4202
47.312 10.4442
47.3606 10.3595
47.4095 10.3653
47.4581 10.3559
47.5069 10.2798
47.5556 10.2484
47.6044 10.1876
47.6531 10.1857
47.702 10.1159
47.7507 10.1189
47.7996 10.0781
47.8483 10.037
47.8972 10.0065
47.9461 9.99085
47.9948 9.93634
48.0438 9.88813
48.0925 9.85619
48.1415 9.81084
48.1902 9.73197
48.2392 9.74525
48.288 9.74838
48.337 9.68857
48.3858 9.67658
48.4348 9.62223
48.4837 9.62797
48.5327 9.51216
48.5815 9.53938
48.6306 9.43744
48.6795 9.42123
48.7285 9.40332
48.7774 9.38153
48.8265 9.30784
48.8754 9.25215
48.9245 9.26953
48.9734 9.24054
49.0226 9.20254
49.0715 9.14921
49.1206 9.13719
49.1696 9.07081
49.2188 9.02817
49.2679 9.00606
49.3169 8.94538
49.3661 8.92045
49.4151 8.88019
49.4643 8.88064
49.5134 8.85435
49.5626 8.78447
49.6117 8.73669
49.6609 8.72472
49.71 8.7036
49.7592 8.65911
49.8083 8.61546
49.8576 8.62334
49.9067 8.56681
49.956 8.5811
50.0052 8.50479
50.0545 8.46823
50.1036 8.44226
50.153 8.39672
50.2022 8.39888
50.2515 8.34162
50.3007 8.28443
50.3501 8.23968
50.3993 8.23087
50.4487 8.20289
50.498 8.17078
50.5474 8.15108
50.5966 8.09025
50.6461 8.07225
50.6955 8.06115
50.7448 8.0144
50.7943 8.06711
50.8436 7.98818
50.8931 7.9483
50.9424 7.90968
50.9919 7.88846
51.0413 7.83464
51.0908 7.78355
51.1402 7.7917
51.1897 7.74417
51.2391 7.73462
51.2887 7.69865
51.3381 7.6432
51.3877 7.64004
51.4371 7.56038
51.4867 7.55431
51.5362 7.51768
51.5858 7.47938
51.6353 7.4506
51.6849 7.43399
51.7344 7.37137
51.7841 7.38819
51.8336 7.34231
51.8833 7.29926
51.9328 7.2818
51.9826 7.24145
52.0323 7.25124
52.0818 7.18173
52.1316 7.17447
52.1812 7.17097
52.231 7.10812
52.2806 7.03869
52.3304 7.05706
52.38 7.02501
52.4298 6.99545
52.4794 6.96057
52.5293 6.94426
52.5789 6.89341
52.6288 6.85624
52.6785 6.86386
52.7284 6.81453
52.7781 6.78206
52.828 6.75811
52.8777 6.69008
52.9276 6.71439
52.9774 6.69616
53.0273 6.64883
53.0771 6.63723
53.1271 6.60754
53.1769 6.58924
53.2269 6.55523
53.2767 6.50749
53.3267 6.51304
53.3765 6.44576
53.4266 6.42714
53.4766 6.32847
53.5265 6.35373
53.5765 6.33344
53.6264 6.349
53.6765 6.28808
53.7264 6.2436
53.7765 6.22296
53.8265 6.17554
53.8766 6.15853
53.9266 6.14789
53.9767 6.13201
54.0267 6.15107
54.0769 6.0503
54.1269 6.05708
54.1771 6.01235
54.2271 5.99481
54.2773 5.94747
54.3274 5.95259
54.3776 5.88991
54.4277 5.86217
54.478 5.84867
54.528 5.80175
54.5783 5.69484
54.6285 5.70343
54.6788 5.68853
54.7289 5.65947
54.7792 5.5684
54.8296 5.54353
54.8798 5.47375
54.9301 5.44136
54.9803 5.50033
55.0307 5.38425
55.0809 5.43345
55.1314 5.35166
55.1816 5.26768
55.232 5.21968
55.2823 5.20233
55.3328 5.1208
55.383 5.06629
55.4335 5.03546
55.4838 4.96631
55.5344 4.96222
55.5847 4.95678
55.6352 4.89781
55.6856 4.81011
55.7361 4.85543