File: XRD/Ni3Fe_FD0640.xy
TT I
1.27165 7.60016
1.31627 6.62864
1.36089 7.1344
1.40551 5.75299
1.45013 6.10308
1.49476 6.25623
1.53938 5.69373
1.584 5.20586
1.62863 4.72425
1.67325 5.69349
1.71787 4.81879
1.7625 4.75755
1.80712 4.7685
1.85174 4.44601
1.89636 4.38713
1.94099 5.29319
1.98562 5.02382
2.03025 4.68784
2.07487 4.46777
2.11949 5.029
2.16411 5.0162
2.20874 16.0232
2.25338 27.0495
2.298 6.40833
2.34263 5.66662
2.38725 6.18772
2.43188 6.29459
2.4765 6.6326
2.52115 7.14115
2.56577 7.74389
2.6104 8.14326
2.65503 7.56639
2.69965 8.26103
2.7443 7.89037
2.78893 8.19209
2.83356 8.10014
2.87818 8.20643
2.92281 9.20127
2.96744 9.52581
3.01209 10.6516
3.05672 11.0891
3.10135 12.0873
3.14599 12.6865
3.19062 14.4376
3.23527 15.1055
3.2799 16.0694
3.32454 16.6842
3.36917 18.0833
3.4138 19.1557
3.45844 19.9644
3.50309 21.4055
3.54773 22.3722
3.59237 24.7964
3.637 109.054
3.68164 68.623
3.7263 26.7351
3.77094 26.0174
3.81558 27.1215
3.86022 27.8739
3.90486 29.3587
3.9495 29.8412
3.99416 30.9798
4.0388 32.9957
4.08344 34.1831
4.12809 34.8868
4.17273 37.4682
4.21738 44.4899
4.26204 294.458
4.30669 260.063
4.35133 50.5553
4.39598 45.3067
4.44063 55.624
4.4853 69.7711
4.52995 51.0204
4.5746 51.3274
4.61925 53.6884
4.6639 55.455
4.70855 58.2053
4.75322 60.6913
4.79788 63.6542
4.84253 67.0465
4.88719 71.0928
4.93184 74.8417
4.97652 81.0737
5.02118 86.5516
5.06583 93.5635
5.11049 105.513
5.15515 183.396
5.19981 335.05
5.24449 2644.18
5.28916 12679.2
5.33382 3086.5
5.37848 197.059
5.42315 130.606
5.46783 113.905
5.5125 105.848
5.55716 102.723
5.60183 98.8456
5.6465 97.2512
5.69117 94.23
5.73586 91.9754
5.78053 90.7701
5.8252 91.0515
5.86988 91.3035
5.91455 93.8089
5.95924 100.578
6.00392 193.41
6.0486 916.2
6.09328 4328.99
6.13795 3504.48
6.18263 259.712
6.22733 94.9689
6.27201 84.0012
6.3167 108.934
6.36138 83.5372
6.40606 69.5044
6.45075 67.6649
6.49545 66.1811
6.54014 64.0034
6.58483 63.2531
6.62952 63.7848
6.67421 100.917
6.71892 164.941
6.76361 71.876
6.8083 59.1362
6.853 57.9703
6.89769 57.3643
6.94239 56.9705
6.98711 56.4746
7.03181 55.931
7.07651 55.9792
7.12121 55.9064
7.16591 56.1984
7.21063 56.4303
7.25533 73.5897
7.30004 210.342
7.34475 101.856
7.38945 57.8023
7.43416 55.3938
7.47889 55.218
7.5236 55.246
7.56831 55.8503
7.61303 57.7759
7.65774 58.166
7.70247 56.3243
7.74719 56.2549
7.79191 57.0814
7.83663 56.8375
7.88135 58.0921
7.92607 58.5829
7.97081 59.8399
8.01553 60.9936
8.06026 62.2464
8.10498 63.986
8.14971 75.2825
8.19446 73.5612
8.23919 69.7157
8.28392 72.0627
8.32865 73.7604
8.37339 78.4938
8.41812 85.503
8.46288 118.896
8.50761 157.353
8.55235 364.318
8.59709 1105.65
8.64183 2207.56
8.68658 1030.89
8.73134 179.197
8.77609 100.52
8.82083 92.9654
8.86558 90.0558
8.91033 90.414
8.9551 93.4529
8.99985 85.6675
9.04461 83.3348
9.08936 82.9417
9.13412 82.1069
9.17888 82.1975
9.22365 83.0132
9.26841 82.1661
9.31318 82.8126
9.35794 82.8878
9.4027 82.8171
9.44749 83.9579
9.49226 84.6168
9.53703 85.7008
9.5818 87.0606
9.62657 92.441
9.67134 101.104
9.71614 94.0547
9.76091 94.0113
9.80569 96.1055
9.85047 99.9089
9.89525 127.602
9.94005 141.327
9.98484 168.789
10.0296 325.45
10.0744 763.487
10.1192 1704.26
10.164 1661.36
10.2088 440.308
10.2536 130.683
10.2984 115.674
10.3432 118.25
10.388 105.138
10.4328 115.314
10.4776 154.084
10.5224 268.226
10.5672 498.875
10.612 520.028
10.6568 218.609
10.7017 99.376
10.7465 86.9842
10.7913 83.3797
10.8361 81.6462
10.8809 79.4656
10.9257 79.1843
10.9706 80.1094
11.0154 75.4673
11.0602 73.0935
11.105 72.3316
11.1499 77.9096
11.1947 87.4596
11.2395 76.19
11.2844 71.3591
11.3292 67.5828
11.374 66.1918
11.4189 65.6726
11.4637 64.9205
11.5086 65.9356
11.5534 69.7124
11.5983 66.5097
11.6431 64.0698
11.688 63.1928
11.7328 63.1572
11.7777 63.2008
11.8225 62.7089
11.8674 62.5349
11.9122 63.0606
11.9571 62.9475
12.002 63.505
12.0468 67.0423
12.0917 77.9932
12.1366 100.942
12.1814 148.501
12.2263 204.365
12.2712 172.865
12.3161 102.924
12.3609 72.8618
12.4058 65.2164
12.4507 64.6349
12.4956 64.7779
12.5405 64.8837
12.5853 65.9836
12.6302 75.0352
12.6751 82.2459
12.72 71.171
12.7649 67.8377
12.8098 68.6123
12.8547 69.681
12.8996 71.1356
12.9445 72.0369
12.9894 74.1087
13.0343 75.5747
13.0792 78.634
13.1242 86.6745
13.1691 109.669
13.214 143.86
13.2589 227.919
13.3038 359.478
13.3487 431.079
13.3937 278.255
13.4386 128.225
13.4835 104.875
13.5285 118.422
13.5734 153.883
13.6183 240.667
13.6633 344.769
13.7082 344.667
13.7531 195.821
13.7981 100.915
13.843 82.0849
13.888 79.8978
13.9329 77.2171
13.9779 75.8743
14.0228 74.5418
14.0678 73.3258
14.1127 72.9425
14.1577 73.0079
14.2027 71.8915
14.2476 70.616
14.2926 71.0896
14.3376 72.2531
14.3825 70.8393
14.4275 69.2846
14.4725 68.6061
14.5175 68.8892
14.5624 69.2276
14.6074 71.7971
14.6524 72.4684
14.6974 70.5018
14.7424 71.6262
14.7874 77.6059
14.8324 87.4704
14.8774 107.549
14.9224 148.993
14.9674 201.611
15.0124 217.961
15.0574 152.455
15.1024 93.3528
15.1474 72.9232
15.1924 70.9269
15.2374 71.9403
15.2824 71.1716
15.3274 68.7014
15.3725 66.893
15.4175 66.5559
15.4625 66.2213
15.5076 66.4517
15.5526 66.5664
15.5976 65.7421
15.6426 66.3664
15.6877 71.4988
15.7327 78.5394
15.7778 92.719
15.8228 122.438
15.8679 164.48
15.9129 193.288
15.958 160.797
16.003 101.473
16.0481 69.5996
16.0931 65.5795
16.1382 63.5004
16.1833 61.1868
16.2283 59.4973
16.2734 58.6551
16.3185 59.27
16.3636 60.33
16.4086 58.4744
16.4537 56.416
16.4988 55.7336
16.5439 55.7378
16.589 55.6249
16.6341 55.0647
16.6792 54.6507
16.7243 54.9659
16.7694 55.2366
16.8145 55.2427
16.8596 55.5393
16.9047 57.3983
16.9498 57.7379
16.9949 55.9662
17.04 55.8738
17.0851 56.8482
17.1302 58.6889
17.1754 61.5893
17.2205 66.5399
17.2656 73.7362
17.3108 82.6574
17.3559 83.4598
17.401 72.4167
17.4462 62.7325
17.4913 59.4127
17.5365 59.3336
17.5815 59.416
17.6268 59.5351
17.6718 60.5944
17.7171 61.2807
17.7622 61.2191
17.8074 61.8337
17.8525 63.8059
17.8977 67.7167
17.9428 73.0918
17.9881 81.0732
18.0331 97.5054
18.0784 118.776
18.1237 138.508
18.1688 132.751
18.214 106.061
18.2591 86.8037
18.3044 89.7429
18.3495 99.3206
18.3948 105.991
18.4399 98.6849
18.4852 79.4089
18.5303 66.7066
18.5756 62.5507
18.6207 61.5132
18.666 60.6136
18.7112 59.7562
18.7565 59.2425
18.8016 58.6238
18.8469 58.1562
18.892 57.8123
18.9374 57.229
18.9825 57.2618
19.0278 57.0282
19.073 57.1196
19.1183 57.6266
19.1635 58.3061
19.2088 59.6479
19.254 61.7944
19.2993 66.2607
19.3447 72.3782
19.3898 76.8047
19.4352 73.4403
19.4804 64.2094
19.5257 57.2424
19.5709 54.3949
19.6163 54.0747
19.6615 53.9395
19.7068 53.5832
19.752 53.5436
19.7974 53.6323
19.8426 54.6048
19.888 55.1542
19.9332 56.1923
19.9786 58.6324
20.0238 61.8771
20.0692 66.7545
20.1144 69.7909
20.1598 68.6515
20.205 63.8581
20.2504 61.9998
20.2957 63.651
20.3411 65.9469
20.3863 64.8775
20.4318 59.3049
20.477 54.1451
20.5224 52.1728
20.5677 51.4011
20.6131 50.4895
20.6586 49.9052
20.7038 49.8179
20.7493 49.3215
20.7945 49.196
20.84 48.8587
20.8853 48.8837
20.9307 48.5313
20.976 48.8937
21.0215 48.6112
21.0668 48.8834
21.1122 49.636
21.1575 50.0575
21.203 50.9377
21.2483 51.5183
21.2938 51.5229
21.3391 50.4411
21.3846 49.1666
21.4299 48.4736
21.4754 48.5718
21.5207 48.5351
21.5662 48.7787
21.6116 49.0755
21.6571 49.8751
21.7024 50.8823
21.7479 52.3727
21.7933 55.061
21.8388 58.6152
21.8843 62.2785
21.9297 64.7945
21.9752 63.8594
22.0206 60.2705
22.0661 56.8734
22.1115 56.0518
22.157 56.1976
22.2024 54.7609
22.248 51.8291
22.2933 50.1744
22.3389 49.3747
22.3843 49.2668
22.4299 49.1593
22.4753 49.1982
22.5208 48.7439
22.5662 48.5578
22.6118 48.719
22.6572 48.7664
22.7028 49.2357
22.7483 49.9057
22.7939 50.3022
22.8393 51.7835
22.8849 53.889
22.9303 55.9568
22.9759 57.9602
23.0214 57.5997
23.067 55.0369
23.1126 51.6928
23.1581 49.6743
23.2037 48.9684
23.2492 48.8508
23.2948 48.9259
23.3403 49.1207
23.3859 49.7107
23.4314 50.8156
23.477 52.3041
23.5225 54.5493
23.5682 56.8867
23.6137 58.1771
23.6593 56.3497
23.7048 52.2438
23.7505 48.6202
23.796 46.9278
23.8417 46.2168
23.8872 45.6681
23.9329 45.4501
23.9784 45.1198
24.0241 44.7091
24.0697 44.6959
24.1154 44.273
24.1609 44.1466
24.2066 44.059
24.2522 43.9137
24.2979 43.6868
24.3434 43.4743
24.3892 43.2549
24.4349 43.2272
24.4805 42.9443
24.5262 43.2092
24.5718 43.1201
24.6175 43.0335
24.6631 43.0128
24.7089 42.7945
24.7545 42.549
24.8002 42.4405
24.8458 42.3772
24.8916 42.136
24.9372 42.3746
24.983 42.6956
25.0286 42.8966
25.0744 43.2263
25.12 43.7619
25.1658 44.3729
25.2114 44.7758
25.2572 44.9809
25.3029 45.0758
25.3487 45.1657
25.3943 44.9129
25.4402 43.7289
25.4858 42.7405
25.5316 41.6577
25.5773 41.0327
25.6231 41.0804
25.669 40.5988
25.7147 40.7018
25.7605 40.5819
25.8062 40.6785
25.8521 40.8365
25.8977 40.6731
25.9436 40.9346
25.9893 41.144
26.0352 41.6392
26.0809 41.5694
26.1268 41.7895
26.1725 41.5902
26.2184 40.9774
26.2641 40.4513
26.31 40.3067
26.3557 40.3636
26.4017 40.1747
26.4474 40.5183
26.4933 40.8402
26.5391 41.3725
26.585 41.6983
26.6308 42.2287
26.6767 42.2286
26.7225 42.1714
26.7684 41.8176
26.8142 41.0251
26.8601 40.6352
26.9059 40.3168
26.9519 39.6218
26.9979 39.4337
27.0437 38.9786
27.0896 38.853
27.1354 38.866
27.1814 38.7212
27.2272 38.6448
27.2732 38.6542
27.3191 38.5021
27.3651 38.6375
27.4109 38.5872
27.4569 38.5724
27.5027 38.6206
27.5488 38.6901
27.5946 38.5134
27.6407 38.3828
27.6865 38.2441
27.7326 38.0075
27.7784 38.1429
27.8245 37.8826
27.8703 37.9939
27.9164 38.5057
27.9623 38.4169
28.0084 38.9477
28.0543 39.0945
28.1003 39.1987
28.1462 38.9803
28.1923 38.7428
28.2384 38.1755
28.2843 37.7351
28.3304 37.4179
28.3764 36.9233
28.4225 36.6034
28.4684 36.5212
28.5145 36.0243
28.5605 35.9246
28.6066 35.8858
28.6526 35.8917
28.6987 35.7568
28.7447 35.6994
28.7908 35.6095
28.8368 35.5686
28.8829 35.6241
28.9289 35.5334
28.9751 35.2753
29.0211 35.0245
29.0673 34.782
29.1133 34.6935
29.1595 34.5315
29.2055 34.558
29.2517 34.4779
29.2977 34.4256
29.3439 34.4362
29.3899 34.3785
29.4361 34.2434
29.4824 34.1655
29.5284 33.8482
29.5746 33.4533
29.6207 33.2562
29.6669 33.2243
29.713 33.1365
29.7593 32.9924
29.8053 33.0157
29.8516 32.9277
29.8977 32.8664
29.9439 32.7965
29.99 32.7759
30.0363 32.6331
30.0824 32.6153
30.1287 32.4842
30.1748 32.607
30.2211 32.6248
30.2673 32.375
30.3136 32.4943
30.3597 32.4135
30.406 32.3703
30.4522 32.3593
30.4985 32.1976
30.5447 32.2861
30.591 32.2081
30.6372 32.3535
30.6835 32.1647
30.7297 32.2832
30.7761 32.2571
30.8224 32.186
30.8686 31.984
30.915 31.755
30.9612 31.6268
31.0076 31.4357
31.0538 31.2128
31.1002 31.2854
31.1464 30.9303
31.1928 31.1035
31.2391 31.1599
31.2855 30.9527
31.3317 30.9146
31.3781 31.0259
31.4244 30.9769
31.4708 30.9757
31.5171 30.84
31.5636 30.8979
31.6098 30.6712
31.6563 30.474
31.7026 30.3785
31.7491 30.2632
31.7953 30.1927
31.8418 30.326
31.8881 30.228
31.9346 30.2374
31.9809 30.1718
32.0275 30.0635
32.074 30.0084
32.1203 29.8009
32.1668 29.687
32.2132 29.4973
32.2597 29.425
32.306 29.304
32.3526 29.1607
32.399 29.0165
32.4455 28.873
32.4919 28.7513
32.5385 28.7065
32.5848 28.5748
32.6314 28.6174
32.6778 28.5741
32.7244 28.4442
32.7708 28.2775
32.8174 28.2423
32.8638 28.121
32.9104 28.1744
32.9569 28.2248
33.0035 27.9552
33.0499 27.9546
33.0966 27.869
33.143 27.9191
33.1897 27.7417
33.2361 27.6618
33.2828 27.7945
33.3293 27.536
33.3759 27.5229
33.4226 27.3564
33.4691 27.2224
33.5158 27.1291
33.5623 26.9619
33.609 26.8928
33.6555 26.8001
33.7022 26.7802
33.7487 26.6647
33.7954 26.5966
33.842 26.4682
33.8887 26.488
33.9353 26.3851
33.982 26.2428
34.0286 26.2071
34.0753 26.0964
34.1219 26.0034
34.1687 25.89
34.2152 25.8816
34.262 25.8281
34.3086 25.573
34.3554 25.6986
34.402 25.4368
34.4488 25.3811
34.4954 25.3451
34.5422 25.2673
34.5889 25.1815
34.6357 25.1172
34.6825 25.0557
34.7292 24.9518
34.776 24.7897
34.8227 24.9374
34.8695 24.728
34.9162 24.6605
34.9631 24.5658
35.0098 24.5785
35.0566 24.4714
35.1033 24.3825
35.1502 24.3276
35.1969 24.2511
35.2438 24.283
35.2906 24.2073
35.3375 24.1292
35.3842 24.0754
35.4311 23.9973
35.4779 24.0469
35.5248 23.9962
35.5716 23.8707
35.6185 23.8158
35.6653 23.7214
35.7123 23.6137
35.759 23.5829
35.806 23.4191
35.8528 23.3065
35.8998 23.334
35.9468 23.1837
35.9936 23.1942
36.0406 23.1042
36.0874 23.0131
36.1345 22.9399
36.1813 22.8961
36.2283 22.8269
36.2752 22.6996
36.3222 22.7347
36.3691 22.6867
36.4161 22.54
36.463 22.5768
36.5101 22.4936
36.557 22.4656
36.6041 22.2686
36.651 22.2453
36.6981 22.191
36.745 22.0969
36.7921 22.0709
36.839 21.9364
36.8861 21.9382
36.9331 21.8397
36.9802 21.768
37.0272 21.7167
37.0743 21.5499
37.1213 21.5829
37.1684 21.5079
37.2154 21.4606
37.2626 21.3799
37.3098 21.3346
37.3568 21.175
37.404 21.2123
37.451 21.0822
37.4982 21.075
37.5452 20.9758
37.5924 20.8782
37.6395 20.9372
37.6867 20.8193
37.7337 20.7268
37.781 20.6434
37.8281 20.5463
37.8753 20.4973
37.9224 20.3379
37.9697 20.3407
38.0168 20.362
38.064 20.3182
38.1111 20.1654
38.1584 20.1273
38.2056 20.0596
38.2529 19.939
38.3 19.8657
38.3473 19.8881
38.3945 19.7368
38.4418 19.7928
38.489 19.6836
38.5363 19.6101
38.5837 19.4874
38.6309 19.4888
38.6782 19.4091
38.7254 19.4033
38.7728 19.3431
38.82 19.1486
38.8674 19.2135
38.9146 19.1667
38.9621 19.0555
39.0093 19.0456
39.0567 18.9481
39.104 18.8511
39.1514 18.7645
39.1987 18.7329
39.2461 18.7049
39.2934 18.6672
39.3409 18.5268
39.3882 18.5079
39.4356 18.4468
39.483 18.432
39.5304 18.3404
39.5778 18.3061
39.6253 18.2017
39.6726 18.1616
39.7201 18.1407
39.7675 18.0591
39.815 17.9901
39.8624 17.9354
39.9099 17.9548
39.9575 17.785
40.0049 17.7839
40.0525 17.6929
40.0999 17.6419
40.1474 17.5963
40.1949 17.5833
40.2425 17.4344
40.2899 17.4357
40.3375 17.342
40.385 17.2901
40.4326 17.2844
40.48 17.2227
40.5277 17.2337
40.5752 17.1097
40.6228 17.0353
40.6703 16.9844
40.718 16.9919
40.7655 16.9606
40.8132 16.8444
40.8607 16.7805
40.9084 16.8123
40.9559 16.6914
41.0036 16.6685
41.0512 16.5925
41.0989 16.5656
41.1465 16.4826
41.1942 16.3772
41.242 16.3356
41.2896 16.3099
41.3373 16.2215
41.3849 16.1622
41.4327 16.1168
41.4803 16.0482
41.5281 16.0112
41.5758 15.9849
41.6236 15.9012
41.6712 15.8826
41.7191 15.8234
41.7667 15.8013
41.8146 15.7487
41.8622 15.6323
41.9101 15.6051
41.9578 15.5345
42.0057 15.4763
42.0534 15.4517
42.1013 15.4251
42.149 15.4086
42.1969 15.3217
42.2446 15.248
42.2925 15.2259
42.3403 15.1001
42.3882 15.1524
42.436 15.067
42.4839 14.9727
42.5319 14.9876
42.5797 14.9071
42.6277 14.8404
42.6755 14.8028
42.7235 14.698
42.7713 14.7108
42.8193 14.6221
42.8671 14.5738
42.9152 14.5219
42.963 14.483
43.0111 14.4197
43.0589 14.4077
43.107 14.3264
43.1549 14.2964
43.2029 14.2169
43.2508 14.2426
43.2989 14.1151
43.3468 14.0698
43.3949 14.0321
43.4429 14.0188
43.491 13.8901
43.5389 13.882
43.5871 13.8519
43.635 13.8064
43.6832 13.7545
43.7312 13.691
43.7793 13.626
43.8273 13.6556
43.8755 13.5864
43.9237 13.5344
43.9717 13.4998
44.0199 13.4699
44.068 13.3991
44.1162 13.3364
44.1642 13.3144
44.2125 13.2506
44.2606 13.239
44.3088 13.1357
44.3569 13.0765
44.4052 13.1021
44.4533 13.0178
44.5016 12.9627
44.5497 12.9126
44.598 12.8898
44.6461 12.8173
44.6945 12.7877
44.7426 12.7653
44.791 12.7176
44.8391 12.6719
44.8875 12.6372
44.9357 12.6004
44.984 12.5167
45.0322 12.4567
45.0806 12.4687
45.1288 12.41
45.1773 12.3486
45.2257 12.3145
45.2739 12.231
45.3224 12.2201
45.3706 12.1809
45.4191 12.1054
45.4673 12.1105
45.5158 12.0732
45.5641 12.0079
45.6126 11.9979
45.6609 11.9082
45.7094 11.8734
45.7577 11.8236
45.8063 11.7468
45.8546 11.766
45.9031 11.6897
45.9515 11.6857
46.0001 11.6081
46.0484 11.5932
46.097 11.5701
46.1454 11.5349
46.194 11.4292
46.2424 11.4049
46.291 11.3748
46.3395 11.313
46.3881 11.3319
46.4365 11.2304
46.4852 11.2664
46.5337 11.1655
46.5823 11.1671
46.631 11.0624
46.6795 11.0598
46.7282 11.0239
46.7767 10.9794
46.8254 10.9127
46.8739 10.9022
46.9226 10.8345
46.9712 10.8025
47.0199 10.7638
47.0685 10.7017
47.1173 10.7198
47.1658 10.6194
47.2146 10.6238
47.2632 10.5712
47.312 10.5136
47.3606 10.491
47.4095 10.4414
47.4581 10.4026
47.5069 10.3608
47.5556 10.3481
47.6044 10.3172
47.6531 10.2806
47.702 10.2231
47.7507 10.1889
47.7996 10.1246
47.8483 10.0835
47.8972 10.0837
47.9461 10.0479
47.9948 9.98998
48.0438 9.96816
48.0925 9.95616
48.1415 9.87845
48.1902 9.87173
48.2392 9.85808
48.288 9.78702
48.337 9.76798
48.3858 9.70866
48.4348 9.68206
48.4837 9.68023
48.5327 9.64733
48.5815 9.56652
48.6306 9.59273
48.6795 9.47454
48.7285 9.44311
48.7774 9.43019
48.8265 9.4148
48.8754 9.37425
48.9245 9.38528
48.9734 9.26795
49.0226 9.30825
49.0715 9.21585
49.1206 9.184
49.1696 9.17106
49.2188 9.11889
49.2679 9.09688
49.3169 9.04436
49.3661 9.00823
49.4151 8.96252
49.4643 8.95744
49.5134 8.90637
49.5626 8.86165
49.6117 8.87094
49.6609 8.81637
49.71 8.7445
49.7592 8.74028
49.8083 8.72066
49.8576 8.68733
49.9067 8.68448
49.956 8.64312
50.0052 8.56908
50.0545 8.54871
50.1036 8.51565
50.153 8.49108
50.2022 8.44338
50.2515 8.43521
50.3007 8.37939
50.3501 8.3724
50.3993 8.325
50.4487 8.29611
50.498 8.24957
50.5474 8.2121
50.5966 8.17747
50.6461 8.13516
50.6955 8.09742
50.7448 8.10502
50.7943 8.06475
50.8436 8.01036
50.8931 8.03157
50.9424 7.96519
50.9919 7.91919
51.0413 7.91989
51.0908 7.85752
51.1402 7.86573
51.1897 7.83761
51.2391 7.77549
51.2887 7.75026
51.3381 7.72075
51.3877 7.73437
51.4371 7.65463
51.4867 7.61491
51.5362 7.6106
51.5858 7.59328
51.6353 7.53928
51.6849 7.4922
51.7344 7.45467
51.7841 7.43725
51.8336 7.44308
51.8833 7.37845
51.9328 7.35173
51.9826 7.30355
52.0323 7.27441
52.0818 7.22785
52.1316 7.23373
52.1812 7.19598
52.231 7.16569
52.2806 7.15547
52.3304 7.10461
52.38 7.0503
52.4298 7.03185
52.4794 6.96343
52.5293 6.99607
52.5789 6.96478
52.6288 6.96761
52.6785 6.89682
52.7284 6.89934
52.7781 6.84207
52.828 6.80969
52.8777 6.74044
52.9276 6.78262
52.9774 6.73494
53.0273 6.73257
53.0771 6.65747
53.1271 6.67517
53.1769 6.59407
53.2269 6.61492
53.2767 6.55426
53.3267 6.56327
53.3765 6.54092
53.4266 6.50574
53.4766 6.43006
53.5265 6.38791
53.5765 6.36541
53.6264 6.38139
53.6765 6.31496
53.7264 6.32173
53.7765 6.30555
53.8265 6.26101
53.8766 6.19229
53.9266 6.17789
53.9767 6.15803
54.0267 6.17924
54.0769 6.14357
54.1269 6.10004
54.1771 6.08588
54.2271 6.03486
54.2773 6.0392
54.3274 5.96923
54.3776 5.9511
54.4277 5.90304
54.478 5.91139
54.528 5.84348
54.5783 5.83528
54.6285 5.77051
54.6788 5.71989
54.7289 5.67527
54.7792 5.59802
54.8296 5.56353
54.8798 5.53454
54.9301 5.48671
54.9803 5.51128
55.0307 5.47836
55.0809 5.45262
55.1314 5.39246
55.1816 5.31082
55.232 5.33854
55.2823 5.24192
55.3328 5.22898
55.383 5.11932
55.4335 5.11771
55.4838 5.04039
55.5344 4.98847
55.5847 5.01046
55.6352 4.94119
55.6856 4.85453
55.7361 4.79987