File: XRD/Ni3Fe_FD0714.xy
TT I
1.27165 7.1171
1.31627 6.19894
1.36089 6.3339
1.40551 5.53325
1.45013 6.10628
1.49476 6.58178
1.53938 5.85888
1.584 5.43594
1.62863 5.41686
1.67325 5.00034
1.71787 5.27909
1.7625 5.09246
1.80712 4.93073
1.85174 4.75894
1.89636 4.75897
1.94099 5.0394
1.98562 4.2051
2.03025 4.03331
2.07487 4.4244
2.11949 4.81271
2.16411 4.65915
2.20874 7.79206
2.25338 10.8187
2.298 5.40063
2.34263 4.42874
2.38725 5.25851
2.43188 6.15306
2.4765 6.04146
2.52115 6.65756
2.56577 7.75348
2.6104 8.02132
2.65503 8.15766
2.69965 8.07077
2.7443 7.97169
2.78893 7.83453
2.83356 7.94264
2.87818 8.51128
2.92281 9.23564
2.96744 9.33982
3.01209 10.4102
3.05672 10.7876
3.10135 12.2422
3.14599 12.9221
3.19062 13.9161
3.23527 14.8738
3.2799 15.9496
3.32454 16.3203
3.36917 17.7521
3.4138 18.7612
3.45844 19.5379
3.50309 20.6204
3.54773 21.4917
3.59237 23.0747
3.637 47.6155
3.68164 35.469
3.7263 25.2737
3.77094 25.5609
3.81558 26.0316
3.86022 27.0577
3.90486 28.5648
3.9495 29.18
3.99416 30.566
4.0388 31.378
4.08344 33.3508
4.12809 34.2574
4.17273 35.3911
4.21738 38.9979
4.26204 113.786
4.30669 98.5362
4.35133 44.3007
4.39598 43.366
4.44063 48.3062
4.4853 53.0849
4.52995 57.3321
4.5746 57.1747
4.61925 53.9158
4.6639 55.3099
4.70855 58.0777
4.75322 62.1236
4.79788 68.5275
4.84253 68.3579
4.88719 75.3403
4.93184 76.7026
4.97652 81.1756
5.02118 87.4813
5.06583 95.6646
5.11049 107.865
5.15515 157.874
5.19981 432.916
5.24449 3077.6
5.28916 12641.9
5.33382 2615.83
5.37848 198.269
5.42315 132.041
5.46783 120.476
5.5125 112.89
5.55716 102.659
5.60183 97.8997
5.6465 96.1417
5.69117 94.5034
5.73586 93.1644
5.78053 98.8079
5.8252 98.4558
5.86988 101.566
5.91455 95.9155
5.95924 106.388
6.00392 258.755
6.0486 1038.78
6.09328 4603.35
6.13795 3060.3
6.18263 216.013
6.22733 90.846
6.27201 80.7162
6.3167 83.6434
6.36138 74.2292
6.40606 69.9003
6.45075 69.7635
6.49545 65.3584
6.54014 63.4902
6.58483 62.7217
6.62952 62.9459
6.67421 72.4954
6.71892 87.6867
6.76361 61.731
6.8083 59.2941
6.853 59.686
6.89769 56.4556
6.94239 56.0817
6.98711 55.2234
7.03181 55.7802
7.07651 55.0497
7.12121 54.688
7.16591 55.5845
7.21063 55.1396
7.25533 59.6255
7.30004 95.9319
7.34475 66.4282
7.38945 54.8732
7.43416 53.5707
7.47889 53.4802
7.5236 54.18
7.56831 54.8711
7.61303 55.5122
7.65774 56.1956
7.70247 56.7694
7.74719 56.5897
7.79191 56.4495
7.83663 56.6346
7.88135 57.9348
7.92607 58.3976
7.97081 59.579
8.01553 61.0592
8.06026 62.8677
8.10498 64.0016
8.14971 70.6116
8.19446 70.8144
8.23919 69.5628
8.28392 71.8813
8.32865 74.3086
8.37339 78.5836
8.41812 83.8045
8.46288 103.952
8.50761 188.894
8.55235 412.76
8.59709 1259.91
8.64183 2173.88
8.68658 845.098
8.73134 147.611
8.77609 98.0455
8.82083 92.2657
8.86558 92.7748
8.91033 92.1965
8.9551 89.0993
8.99985 85.3957
9.04461 83.7806
9.08936 84.3418
9.13412 82.852
9.17888 81.8102
9.22365 82.3824
9.26841 82.1134
9.31318 85.1483
9.35794 86.9935
9.4027 86.1335
9.44749 85.1402
9.49226 85.2855
9.53703 86.2109
9.5818 89.6066
9.62657 94.6138
9.67134 95.4822
9.71614 92.6076
9.76091 95.094
9.80569 99.6233
9.85047 101.879
9.89525 112.193
9.94005 128.649
9.98484 201.036
10.0296 366.051
10.0744 856.523
10.1192 1794.81
10.164 1540.07
10.2088 357.041
10.2536 121.675
10.2984 109.288
10.3432 107.603
10.388 106.127
10.4328 124.766
10.4776 166.51
10.5224 295.729
10.5672 518.801
10.612 489.384
10.6568 189.399
10.7017 94.0353
10.7465 86.2128
10.7913 83.2944
10.8361 80.832
10.8809 78.7301
10.9257 77.9478
10.9706 78.1134
11.0154 75.4566
11.0602 72.6888
11.105 71.0985
11.1499 71.973
11.1947 73.6533
11.2395 69.9951
11.2844 68.0515
11.3292 66.6449
11.374 65.9917
11.4189 65.1867
11.4637 64.5447
11.5086 64.5417
11.5534 65.1747
11.5983 64.1936
11.6431 63.425
11.688 62.5731
11.7328 62.6711
11.7777 62.4473
11.8225 62.7003
11.8674 62.587
11.9122 62.7739
11.9571 62.9799
12.002 64.6826
12.0468 69.6249
12.0917 79.3745
12.1366 105.63
12.1814 157.156
12.2263 205.59
12.2712 157.191
12.3161 87.867
12.3609 66.72
12.4058 64.048
12.4507 63.8613
12.4956 64.7037
12.5405 64.9322
12.5853 64.8777
12.6302 68.029
12.6751 70.3837
12.72 67.7473
12.7649 67.6099
12.8098 68.4459
12.8547 70.0545
12.8996 71.314
12.9445 73.1569
12.9894 74.7578
13.0343 76.3104
13.0792 81.0017
13.1242 94.3151
13.1691 114.387
13.214 153.961
13.2589 250.381
13.3038 381.311
13.3487 414.677
13.3937 244.94
13.4386 120.521
13.4835 108.566
13.5285 123.791
13.5734 165.665
13.6183 260.913
13.6633 360.363
13.7082 328.466
13.7531 172.123
13.7981 93.8631
13.843 81.5427
13.888 79.4176
13.9329 77.1813
13.9779 75.8189
14.0228 74.1402
14.0678 72.8428
14.1127 72.2735
14.1577 71.9561
14.2027 71.1766
14.2476 70.3747
14.2926 69.8348
14.3376 70.181
14.3825 69.5071
14.4275 68.7451
14.4725 68.7012
14.5175 68.6917
14.5624 68.7713
14.6074 69.7569
14.6524 70.4979
14.6974 70.529
14.7424 74.6186
14.7874 80.72
14.8324 90.9273
14.8774 114.765
14.9224 160.15
14.9674 213.158
15.0124 214.604
15.0574 138.854
15.1024 86.1252
15.1474 71.6911
15.1924 70.0079
15.2374 69.3733
15.2824 68.4062
15.3274 67.4524
15.3725 66.6801
15.4175 66.2518
15.4625 66.0237
15.5076 65.7632
15.5526 65.7487
15.5976 66.1074
15.6426 68.659
15.6877 73.7121
15.7327 81.0989
15.7778 97.5772
15.8228 131.05
15.8679 174.863
15.9129 194.184
15.958 148.522
16.003 91.3541
16.0481 66.2043
16.0931 62.5761
16.1382 61.3535
16.1833 59.9608
16.2283 58.4185
16.2734 57.896
16.3185 57.7889
16.3636 57.5523
16.4086 56.5315
16.4537 55.9229
16.4988 55.3381
16.5439 55.2123
16.589 55.0335
16.6341 54.7471
16.6792 54.3419
16.7243 54.6448
16.7694 54.3953
16.8145 54.4011
16.8596 54.8309
16.9047 55.4942
16.9498 55.6075
16.9949 55.2267
17.04 56.2544
17.0851 57.2502
17.1302 58.7556
17.1754 62.0775
17.2205 67.4385
17.2656 75.2131
17.3108 83.6455
17.3559 81.2596
17.401 69.6102
17.4462 61.4994
17.4913 59.2843
17.5365 59.0794
17.5815 59.1338
17.6268 59.5322
17.6718 60.2894
17.7171 60.5068
17.7622 61.3415
17.8074 62.7539
17.8525 65.7353
17.8977 68.8941
17.9428 74.7208
17.9881 84.3531
18.0331 102.938
18.0784 125.953
18.1237 141.819
18.1688 130.184
18.214 100.327
18.2591 86.3609
18.3044 91.6884
18.3495 101.061
18.3948 105.846
18.4399 93.0491
18.4852 74.678
18.5303 64.9195
18.5756 62.0515
18.6207 60.9525
18.666 60.143
18.7112 59.4196
18.7565 58.861
18.8016 58.5241
18.8469 58.1622
18.892 57.5883
18.9374 57.1288
18.9825 56.937
19.0278 56.802
19.073 57.0459
19.1183 57.0815
19.1635 57.7251
19.2088 59.3577
19.254 62.5607
19.2993 67.0464
19.3447 73.0446
19.3898 75.9232
19.4352 70.8428
19.4804 61.8448
19.5257 55.9396
19.5709 53.7662
19.6163 53.6923
19.6615 53.617
19.7068 53.1468
19.752 53.3921
19.7974 53.6872
19.8426 54.4878
19.888 54.8702
19.9332 56.5085
19.9786 59.2328
20.0238 63.0571
20.0692 67.7603
20.1144 69.5027
20.1598 67.6075
20.205 63.0112
20.2504 61.9814
20.2957 64.1635
20.3411 65.5278
20.3863 63.1834
20.4318 57.1398
20.477 52.7691
20.5224 50.896
20.5677 50.3261
20.6131 49.9092
20.6586 49.55
20.7038 49.4108
20.7493 48.8434
20.7945 48.7935
20.84 48.7247
20.8853 48.5521
20.9307 48.673
20.976 48.5916
21.0215 48.4073
21.0668 48.8318
21.1122 49.3037
21.1575 50.0571
21.203 50.6534
21.2483 51.5861
21.2938 51.3014
21.3391 49.7992
21.3846 48.6768
21.4299 48.3282
21.4754 48.4435
21.5207 48.5785
21.5662 48.9764
21.6116 49.4557
21.6571 49.9766
21.7024 51.0549
21.7479 52.9245
21.7933 55.8519
21.8388 59.6078
21.8843 63.2132
21.9297 64.7776
21.9752 62.6341
22.0206 58.7483
22.0661 56.2661
22.1115 55.8336
22.157 55.4754
22.2024 53.7163
22.248 50.9649
22.2933 49.6471
22.3389 48.8592
22.3843 48.722
22.4299 48.4744
22.4753 48.5687
22.5208 48.4484
22.5662 48.5058
22.6118 48.719
22.6572 48.984
22.7028 49.1583
22.7483 49.7025
22.7939 50.6037
22.8393 52.1701
22.8849 54.3608
22.9303 56.3882
22.9759 57.7621
23.0214 57.0066
23.067 53.828
23.1126 50.5454
23.1581 48.7871
23.2037 48.6463
23.2492 48.8785
23.2948 48.8929
23.3403 49.1537
23.3859 49.8063
23.4314 51.013
23.477 52.9265
23.5225 55.2049
23.5682 57.15
23.6137 57.6802
23.6593 54.8666
23.7048 50.7322
23.7505 47.8562
23.796 46.4549
23.8417 45.866
23.8872 45.279
23.9329 45.1165
23.9784 44.7494
24.0241 44.6152
24.0697 44.2896
24.1154 43.989
24.1609 43.6971
24.2066 43.7047
24.2522 43.5567
24.2979 43.3723
24.3434 43.2718
24.3892 42.9792
24.4349 43.0696
24.4805 42.8994
24.5262 43.0099
24.5718 42.8417
24.6175 42.925
24.6631 42.6264
24.7089 42.4225
24.7545 42.2243
24.8002 42.0682
24.8458 42.1683
24.8916 41.9309
24.9372 42.2815
24.983 42.5772
25.0286 42.8415
25.0744 43.337
25.12 43.7299
25.1658 44.3848
25.2114 44.8259
25.2572 44.739
25.3029 44.7728
25.3487 44.806
25.3943 44.3121
25.4402 43.0305
25.4858 42.1967
25.5316 41.2953
25.5773 40.8098
25.6231 40.7921
25.669 40.3635
25.7147 40.4998
25.7605 40.3442
25.8062 40.2922
25.8521 40.5443
25.8977 40.408
25.9436 40.787
25.9893 40.987
26.0352 41.4042
26.0809 41.4786
26.1268 41.5146
26.1725 41.2146
26.2184 40.6199
26.2641 40.2312
26.31 40.0925
26.3557 40.1288
26.4017 40.1133
26.4474 40.4234
26.4933 40.7205
26.5391 41.1208
26.585 41.6151
26.6308 42.1635
26.6767 42.1566
26.7225 41.8236
26.7684 41.1691
26.8142 40.6587
26.8601 40.2537
26.9059 39.9493
26.9519 39.402
26.9979 39.0408
27.0437 38.8885
27.0896 38.5994
27.1354 38.7135
27.1814 38.5388
27.2272 38.5182
27.2732 38.4399
27.3191 38.2896
27.3651 38.3542
27.4109 38.399
27.4569 38.538
27.5027 38.5384
27.5488 38.4967
27.5946 38.2856
27.6407 38.1406
27.6865 38.0395
27.7326 37.8139
27.7784 37.9383
27.8245 37.8201
27.8703 38.0411
27.9164 38.2795
27.9623 38.4397
28.0084 38.6675
28.0543 38.9608
28.1003 38.8979
28.1462 38.6345
28.1923 38.3044
28.2384 37.7779
28.2843 37.4939
28.3304 36.9277
28.3764 36.4863
28.4225 36.2809
28.4684 36.1116
28.5145 35.8413
28.5605 35.7203
28.6066 35.7649
28.6526 35.4939
28.6987 35.5573
28.7447 35.4682
28.7908 35.2885
28.8368 35.2863
28.8829 35.3887
28.9289 35.353
28.9751 35.0964
29.0211 34.8266
29.0673 34.5194
29.1133 34.3903
29.1595 34.3399
29.2055 34.2745
29.2517 34.2746
29.2977 34.2132
29.3439 34.2269
29.3899 34.1817
29.4361 34.0349
29.4824 33.843
29.5284 33.5875
29.5746 33.2488
29.6207 32.9992
29.6669 32.9322
29.713 32.8259
29.7593 32.7491
29.8053 32.8246
29.8516 32.739
29.8977 32.5937
29.9439 32.6721
29.99 32.5183
30.0363 32.3654
30.0824 32.4668
30.1287 32.3478
30.1748 32.2486
30.2211 32.2758
30.2673 32.1886
30.3136 32.1714
30.3597 32.1605
30.406 32.1245
30.4522 31.8286
30.4985 31.9619
30.5447 32.1952
30.591 32.1283
30.6372 32.1367
30.6835 32.2199
30.7297 32.2925
30.7761 32.1069
30.8224 31.919
30.8686 31.7162
30.915 31.4861
30.9612 31.4271
31.0076 31.3497
31.0538 31.0405
31.1002 31.0817
31.1464 30.8985
31.1928 30.8437
31.2391 30.9278
31.2855 30.869
31.3317 30.8624
31.3781 30.8796
31.4244 30.8512
31.4708 30.8005
31.5171 30.7796
31.5636 30.6594
31.6098 30.4493
31.6563 30.2282
31.7026 30.1597
31.7491 30.0414
31.7953 30.1307
31.8418 30.0827
31.8881 30.0838
31.9346 30.0378
31.9809 29.9328
32.0275 29.8649
32.074 29.7215
32.1203 29.6234
32.1668 29.4695
32.2132 29.3622
32.2597 29.0953
32.306 29.1517
32.3526 28.8918
32.399 28.8893
32.4455 28.6373
32.4919 28.648
32.5385 28.5772
32.5848 28.5025
32.6314 28.416
32.6778 28.3437
32.7244 28.1844
32.7708 28.0754
32.8174 28.0765
32.8638 27.9506
32.9104 28.0343
32.9569 27.9234
33.0035 27.8136
33.0499 27.7543
33.0966 27.725
33.143 27.6862
33.1897 27.5731
33.2361 27.5318
33.2828 27.5179
33.3293 27.3759
33.3759 27.2753
33.4226 27.1308
33.4691 27.0707
33.5158 27.0075
33.5623 26.8582
33.609 26.6136
33.6555 26.7102
33.7022 26.5149
33.7487 26.4347
33.7954 26.4633
33.842 26.3932
33.8887 26.1858
33.9353 26.1978
33.982 26.008
34.0286 25.97
34.0753 25.9477
34.1219 25.8847
34.1687 25.7586
34.2152 25.6695
34.262 25.6023
34.3086 25.4081
34.3554 25.3799
34.402 25.2955
34.4488 25.2843
34.4954 25.1332
34.5422 25.0461
34.5889 24.9699
34.6357 24.8942
34.6825 24.8885
34.7292 24.7581
34.776 24.6486
34.8227 24.6174
34.8695 24.5488
34.9162 24.5106
34.9631 24.4309
35.0098 24.4337
35.0566 24.2827
35.1033 24.1643
35.1502 24.1783
35.1969 24.2332
35.2438 24.1195
35.2906 24.0097
35.3375 24.0081
35.3842 23.9383
35.4311 23.9164
35.4779 23.9175
35.5248 23.806
35.5716 23.7545
35.6185 23.6561
35.6653 23.6135
35.7123 23.4428
35.759 23.4296
35.806 23.2805
35.8528 23.2026
35.8998 23.0963
35.9468 23.0569
35.9936 23.0026
36.0406 22.8929
36.0874 22.9432
36.1345 22.8077
36.1813 22.7454
36.2283 22.6527
36.2752 22.5215
36.3222 22.7039
36.3691 22.4174
36.4161 22.3224
36.463 22.3156
36.5101 22.3204
36.557 22.2437
36.6041 22.1426
36.651 22.1539
36.6981 22.0453
36.745 21.959
36.7921 21.9116
36.839 21.7952
36.8861 21.7334
36.9331 21.7457
36.9802 21.6354
37.0272 21.5619
37.0743 21.4815
37.1213 21.4118
37.1684 21.4253
37.2154 21.2402
37.2626 21.1889
37.3098 21.1156
37.3568 21.0056
37.404 20.9977
37.451 20.9242
37.4982 20.8764
37.5452 20.7857
37.5924 20.6918
37.6395 20.7518
37.6867 20.6668
37.7337 20.5483
37.781 20.4176
37.8281 20.4821
37.8753 20.3127
37.9224 20.2629
37.9697 20.2041
38.0168 20.1117
38.064 20.0467
38.1111 20.0005
38.1584 19.92
38.2056 19.8835
38.2529 19.8616
38.3 19.8297
38.3473 19.7557
38.3945 19.6305
38.4418 19.6645
38.489 19.5469
38.5363 19.4707
38.5837 19.4256
38.6309 19.3252
38.6782 19.2544
38.7254 19.1747
38.7728 19.1698
38.82 18.9887
38.8674 19.0524
38.9146 18.9958
38.9621 18.9263
39.0093 18.9333
39.0567 18.7601
39.104 18.7783
39.1514 18.6505
39.1987 18.7103
39.2461 18.5497
39.2934 18.5399
39.3409 18.4009
39.3882 18.3279
39.4356 18.2972
39.483 18.2365
39.5304 18.228
39.5778 18.1443
39.6253 18.0936
39.6726 17.9853
39.7201 18.0202
39.7675 17.8932
39.815 17.8547
39.8624 17.749
39.9099 17.7931
39.9575 17.734
40.0049 17.675
40.0525 17.5502
40.0999 17.4777
40.1474 17.5104
40.1949 17.401
40.2425 17.3446
40.2899 17.2935
40.3375 17.2273
40.385 17.1886
40.4326 17.1708
40.48 17.1008
40.5277 17.0735
40.5752 16.9319
40.6228 16.8966
40.6703 16.8982
40.718 16.8194
40.7655 16.8218
40.8132 16.6765
40.8607 16.6729
40.9084 16.6292
40.9559 16.5687
41.0036 16.4757
41.0512 16.4376
41.0989 16.4029
41.1465 16.3453
41.1942 16.2904
41.242 16.1908
41.2896 16.167
41.3373 16.1115
41.3849 16.1365
41.4327 16.0149
41.4803 15.8895
41.5281 15.9217
41.5758 15.8063
41.6236 15.7688
41.6712 15.7375
41.7191 15.7074
41.7667 15.6317
41.8146 15.6205
41.8622 15.5375
41.9101 15.4991
41.9578 15.3937
42.0057 15.3645
42.0534 15.3385
42.1013 15.279
42.149 15.2386
42.1969 15.1666
42.2446 15.1533
42.2925 15.1129
42.3403 15.0253
42.3882 14.9767
42.436 14.9209
42.4839 14.8135
42.5319 14.8204
42.5797 14.7738
42.6277 14.6904
42.6755 14.6562
42.7235 14.62
42.7713 14.5727
42.8193 14.5081
42.8671 14.4732
42.9152 14.4348
42.963 14.3522
43.0111 14.3235
43.0589 14.2864
43.107 14.2167
43.1549 14.2094
43.2029 14.0867
43.2508 14.0329
43.2989 14.0366
43.3468 13.9567
43.3949 13.9325
43.4429 13.8763
43.491 13.8229
43.5389 13.7873
43.5871 13.6949
43.635 13.7049
43.6832 13.6474
43.7312 13.6073
43.7793 13.5304
43.8273 13.513
43.8755 13.4727
43.9237 13.4074
43.9717 13.3848
44.0199 13.3296
44.068 13.2867
44.1162 13.2568
44.1642 13.1865
44.2125 13.1782
44.2606 13.1269
44.3088 13.0591
44.3569 13.0049
44.4052 12.9726
44.4533 12.9111
44.5016 12.8255
44.5497 12.8169
44.598 12.7319
44.6461 12.7148
44.6945 12.663
44.7426 12.6313
44.791 12.5654
44.8391 12.5677
44.8875 12.5
44.9357 12.4656
44.984 12.4244
45.0322 12.3594
45.0806 12.3263
45.1288 12.2869
45.1773 12.25
45.2257 12.2348
45.2739 12.1262
45.3224 12.1052
45.3706 12.078
45.4191 12.0033
45.4673 12.0219
45.5158 11.9174
45.5641 11.909
45.6126 11.8318
45.6609 11.8175
45.7094 11.7837
45.7577 11.7057
45.8063 11.6443
45.8546 11.6569
45.9031 11.6232
45.9515 11.5532
46.0001 11.522
46.0484 11.4751
46.097 11.4776
46.1454 11.4151
46.194 11.3411
46.2424 11.3263
46.291 11.2731
46.3395 11.1956
46.3881 11.1751
46.4365 11.1592
46.4852 11.1624
46.5337 11.0639
46.5823 11.0039
46.631 10.956
46.6795 10.9906
46.7282 10.9755
46.7767 10.9022
46.8254 10.8114
46.8739 10.7807
46.9226 10.7571
46.9712 10.7071
47.0199 10.6841
47.0685 10.5778
47.1173 10.5878
47.1658 10.5574
47.2146 10.5152
47.2632 10.4803
47.312 10.4317
47.3606 10.4221
47.4095 10.3412
47.4581 10.3465
47.5069 10.2665
47.5556 10.2202
47.6044 10.21
47.6531 10.1378
47.702 10.117
47.7507 10.1028
47.7996 10.0863
47.8483 10.0234
47.8972 9.97937
47.9461 9.9533
47.9948 9.90386
48.0438 9.87828
48.0925 9.84514
48.1415 9.8037
48.1902 9.74136
48.2392 9.71035
48.288 9.69013
48.337 9.69433
48.3858 9.64981
48.4348 9.60895
48.4837 9.58564
48.5327 9.56224
48.5815 9.47719
48.6306 9.47128
48.6795 9.45398
48.7285 9.37658
48.7774 9.34985
48.8265 9.33206
48.8754 9.31341
48.9245 9.27161
48.9734 9.23332
49.0226 9.18874
49.0715 9.15452
49.1206 9.1098
49.1696 9.04508
49.2188 9.06242
49.2679 9.01653
49.3169 8.95888
49.3661 8.92125
49.4151 8.95355
49.4643 8.86429
49.5134 8.85139
49.5626 8.80279
49.6117 8.76895
49.6609 8.71323
49.71 8.67524
49.7592 8.64919
49.8083 8.62856
49.8576 8.57947
49.9067 8.52775
49.956 8.5217
50.0052 8.50574
50.0545 8.49708
50.1036 8.44381
50.153 8.40031
50.2022 8.36419
50.2515 8.32532
50.3007 8.28261
50.3501 8.29398
50.3993 8.21131
50.4487 8.18065
50.498 8.17051
50.5474 8.15716
50.5966 8.09773
50.6461 8.09689
50.6955 8.07536
50.7448 8.01927
50.7943 7.9867
50.8436 7.96351
50.8931 7.90563
50.9424 7.92724
50.9919 7.86241
51.0413 7.83114
51.0908 7.83785
51.1402 7.81081
51.1897 7.70996
51.2391 7.70427
51.2887 7.67742
51.3381 7.63475
51.3877 7.61032
51.4371 7.59685
51.4867 7.55252
51.5362 7.53944
51.5858 7.52041
51.6353 7.43744
51.6849 7.39587
51.7344 7.40901
51.7841 7.35243
51.8336 7.36892
51.8833 7.34404
51.9328 7.25355
51.9826 7.25811
52.0323 7.19897
52.0818 7.18887
52.1316 7.14006
52.1812 7.12217
52.231 7.09123
52.2806 7.03252
52.3304 7.04798
52.38 7.03057
52.4298 6.975
52.4794 6.93708
52.5293 6.89624
52.5789 6.88256
52.6288 6.85979
52.6785 6.82229
52.7284 6.79614
52.7781 6.78537
52.828 6.74916
52.8777 6.73768
52.9276 6.72587
52.9774 6.6992
53.0273 6.6735
53.0771 6.63662
53.1271 6.61001
53.1769 6.52121
53.2269 6.54095
53.2767 6.48231
53.3267 6.45894
53.3765 6.47679
53.4266 6.4118
53.4766 6.41105
53.5265 6.3461
53.5765 6.36249
53.6264 6.33623
53.6765 6.30993
53.7264 6.25596
53.7765 6.24533
53.8265 6.21244
53.8766 6.16787
53.9266 6.16469
53.9767 6.13947
54.0267 6.10183
54.0769 6.04473
54.1269 6.03971
54.1771 5.98782
54.2271 5.94234
54.2773 5.94409
54.3274 5.91363
54.3776 5.86861
54.4277 5.84103
54.478 5.86248
54.528 5.75453
54.5783 5.7563
54.6285 5.73402
54.6788 5.68407
54.7289 5.6313
54.7792 5.6191
54.8296 5.56783
54.8798 5.51396
54.9301 5.42737
54.9803 5.44143
55.0307 5.40566
55.0809 5.3758
55.1314 5.37649
55.1816 5.2796
55.232 5.21759
55.2823 5.19392
55.3328 5.07326
55.383 5.07324
55.4335 5.02337
55.4838 4.99363
55.5344 4.90779
55.5847 4.89384
55.6352 4.85971
55.6856 4.80399
55.7361 4.84024