File: XRD/Ni3Fe_FD0783.xy
TT I
1.27165 7.79041
1.31627 6.58366
1.36089 6.67749
1.40551 5.73206
1.45013 5.90816
1.49476 5.85504
1.53938 5.49943
1.584 5.07376
1.62863 4.91935
1.67325 5.13865
1.71787 4.52001
1.7625 4.7058
1.80712 4.7318
1.85174 4.56576
1.89636 4.47738
1.94099 4.96668
1.98562 5.0175
2.03025 3.83409
2.07487 4.20523
2.11949 4.88169
2.16411 4.98761
2.20874 12.8888
2.25338 18.5327
2.298 6.62107
2.34263 5.7146
2.38725 6.29619
2.43188 6.15091
2.4765 7.24357
2.52115 7.7074
2.56577 7.44067
2.6104 8.73722
2.65503 8.44541
2.69965 8.38117
2.7443 8.05366
2.78893 8.046
2.83356 9.04804
2.87818 9.12167
2.92281 9.66476
2.96744 9.61725
3.01209 10.2436
3.05672 11.4277
3.10135 12.1405
3.14599 12.8195
3.19062 14.2084
3.23527 15.3196
3.2799 15.7632
3.32454 16.5752
3.36917 17.5007
3.4138 18.9417
3.45844 19.5391
3.50309 21.2377
3.54773 21.7658
3.59237 23.645
3.637 76.0967
3.68164 50.5956
3.7263 25.8791
3.77094 26.2534
3.81558 26.8348
3.86022 27.2243
3.90486 28.5638
3.9495 29.775
3.99416 30.7972
4.0388 32.1764
4.08344 33.424
4.12809 34.305
4.17273 36.2192
4.21738 41.7534
4.26204 199.03
4.30669 172.457
4.35133 46.7951
4.39598 43.3808
4.44063 51.6419
4.4853 60.3569
4.52995 50.1527
4.5746 51.2895
4.61925 52.8069
4.6639 54.8672
4.70855 57.4697
4.75322 60.2737
4.79788 63.0484
4.84253 66.6667
4.88719 71.0719
4.93184 74.3387
4.97652 79.788
5.02118 86.3847
5.06583 93.5081
5.11049 104.446
5.15515 160.78
5.19981 339.979
5.24449 2791.92
5.28916 12807.3
5.33382 2633.69
5.37848 176.325
5.42315 124.723
5.46783 111.505
5.5125 104.377
5.55716 101.078
5.60183 97.478
5.6465 95.2031
5.69117 93.4269
5.73586 91.3973
5.78053 90.7035
5.8252 90.0862
5.86988 90.8193
5.91455 92.8468
5.95924 101.63
6.00392 206.813
6.0486 946.813
6.09328 4537.17
6.13795 3240.18
6.18263 209.254
6.22733 89.634
6.27201 80.9371
6.3167 94.5932
6.36138 77.5964
6.40606 67.9267
6.45075 66.5216
6.49545 64.8301
6.54014 62.8436
6.58483 61.9743
6.62952 61.9107
6.67421 86.1291
6.71892 122.283
6.76361 66.0
6.8083 57.883
6.853 56.9369
6.89769 56.1946
6.94239 55.7464
6.98711 55.2006
7.03181 54.8123
7.07651 54.5305
7.12121 54.5753
7.16591 54.8999
7.21063 54.8193
7.25533 66.9975
7.30004 146.771
7.34475 81.8067
7.38945 55.3424
7.43416 53.7606
7.47889 53.9578
7.5236 53.9276
7.56831 54.7594
7.61303 55.5421
7.65774 55.9388
7.70247 55.6297
7.74719 55.393
7.79191 56.138
7.83663 56.1488
7.88135 57.3262
7.92607 57.9117
7.97081 59.2538
8.01553 60.1672
8.06026 61.5699
8.10498 63.2777
8.14971 70.8909
8.19446 70.585
8.23919 68.3425
8.28392 71.3472
8.32865 73.3238
8.37339 77.3796
8.41812 83.7443
8.46288 108.64
8.50761 164.52
8.55235 376.161
8.59709 1209.23
8.64183 2220.22
8.68658 863.041
8.73134 147.524
8.77609 97.0044
8.82083 91.1874
8.86558 88.5308
8.91033 88.4637
8.9551 89.0018
8.99985 84.2691
9.04461 82.4976
9.08936 81.9289
9.13412 81.0211
9.17888 81.0655
9.22365 81.5249
9.26841 80.9359
9.31318 81.8829
9.35794 82.0049
9.4027 82.3871
9.44749 83.1443
9.49226 83.8311
9.53703 84.6346
9.5818 86.4602
9.62657 90.2241
9.67134 95.575
9.71614 92.1271
9.76091 92.666
9.80569 95.322
9.85047 98.5609
9.89525 118.013
9.94005 131.171
9.98484 174.857
10.0296 336.332
10.0744 816.372
10.1192 1779.64
10.164 1515.82
10.2088 343.929
10.2536 120.188
10.2984 109.861
10.3432 110.605
10.388 103.56
10.4328 117.058
10.4776 158.839
10.5224 287.192
10.5672 534.614
10.612 480.472
10.6568 186.144
10.7017 93.5013
10.7465 85.1916
10.7913 82.0944
10.8361 80.282
10.8809 77.8934
10.9257 77.2849
10.9706 77.2972
11.0154 73.8978
11.0602 71.7201
11.105 70.7879
11.1499 74.0159
11.1947 79.0291
11.2395 72.2079
11.2844 68.7557
11.3292 66.299
11.374 65.2987
11.4189 65.0033
11.4637 63.967
11.5086 64.3576
11.5534 66.6816
11.5983 64.5047
11.6431 63.0716
11.688 62.2385
11.7328 62.0801
11.7777 62.0174
11.8225 61.5645
11.8674 61.6157
11.9122 61.8485
11.9571 62.0164
12.002 63.2332
12.0468 67.1594
12.0917 77.5754
12.1366 101.521
12.1814 158.474
12.2263 214.129
12.2712 168.125
12.3161 89.1893
12.3609 68.1644
12.4058 63.7682
12.4507 63.3942
12.4956 63.6497
12.5405 63.5677
12.5853 64.463
12.6302 70.4686
12.6751 74.8466
12.72 68.5704
12.7649 67.0385
12.8098 67.6026
12.8547 68.8068
12.8996 70.1733
12.9445 71.641
12.9894 73.4643
13.0343 74.9116
13.0792 78.2697
13.1242 87.4459
13.1691 109.828
13.214 146.564
13.2589 241.676
13.3038 385.876
13.3487 425.757
13.3937 242.377
13.4386 116.867
13.4835 103.906
13.5285 118.569
13.5734 157.053
13.6183 253.687
13.6633 362.27
13.7082 338.245
13.7531 170.034
13.7981 92.6831
13.843 80.4797
13.888 78.4447
13.9329 76.1136
13.9779 74.8437
14.0228 73.4132
14.0678 72.1895
14.1127 71.7512
14.1577 71.4384
14.2027 70.5202
14.2476 69.7512
14.2926 69.6868
14.3376 70.2019
14.3825 68.9998
14.4275 67.9848
14.4725 67.6162
14.5175 67.9734
14.5624 68.1242
14.6074 69.8062
14.6524 70.4298
14.6974 69.7305
14.7424 71.2771
14.7874 77.9522
14.8324 87.98
14.8774 109.935
14.9224 156.449
14.9674 215.759
15.0124 220.256
15.0574 145.238
15.1024 86.5213
15.1474 70.9327
15.1924 69.4758
15.2374 69.6586
15.2824 68.8153
15.3274 67.1539
15.3725 65.9581
15.4175 65.6433
15.4625 65.3169
15.5076 65.2385
15.5526 65.4224
15.5976 65.1754
15.6426 66.166
15.6877 71.3948
15.7327 78.7327
15.7778 93.7023
15.8228 127.135
15.8679 176.355
15.9129 198.558
15.958 148.785
16.003 90.3291
16.0481 65.9505
16.0931 63.2859
16.1382 61.3047
16.1833 59.8228
16.2283 58.3426
16.2734 57.6154
16.3185 57.6861
16.3636 58.2231
16.4086 56.8091
16.4537 55.5863
16.4988 54.82
16.5439 54.8342
16.589 54.336
16.6341 54.1717
16.6792 53.7483
16.7243 54.1046
16.7694 54.208
16.8145 54.1038
16.8596 54.4803
16.9047 55.5526
16.9498 55.831
16.9949 54.8437
17.04 55.1766
17.0851 56.3714
17.1302 57.9124
17.1754 60.906
17.2205 66.2983
17.2656 75.1026
17.3108 83.4629
17.3559 81.2055
17.401 68.5738
17.4462 60.54
17.4913 58.3012
17.5365 58.3143
17.5815 58.4595
17.6268 58.9386
17.6718 59.8235
17.7171 60.1861
17.7622 60.6688
17.8074 61.1863
17.8525 63.5855
17.8977 67.5397
17.9428 72.7647
17.9881 81.7046
18.0331 100.45
18.0784 125.111
18.1237 141.545
18.1688 127.388
18.214 99.246
18.2591 84.3198
18.3044 90.4803
18.3495 101.695
18.3948 105.501
18.4399 92.7631
18.4852 74.1725
18.5303 64.2013
18.5756 61.3346
18.6207 60.5723
18.666 59.5668
18.7112 58.8729
18.7565 58.1065
18.8016 57.8974
18.8469 57.3989
18.892 56.9744
18.9374 56.5213
18.9825 56.267
19.0278 56.2387
19.073 56.2644
19.1183 56.6839
19.1635 57.3436
19.2088 58.884
19.254 61.4458
19.2993 66.4121
19.3447 72.7682
19.3898 76.0542
19.4352 70.5748
19.4804 61.4027
19.5257 55.7335
19.5709 53.5079
19.6163 53.4959
19.6615 52.9299
19.7068 52.6842
19.752 52.7379
19.7974 52.7974
19.8426 53.7109
19.888 54.3692
19.9332 55.558
19.9786 58.2978
20.0238 62.365
20.0692 67.7388
20.1144 69.3094
20.1598 67.053
20.205 62.4723
20.2504 61.5095
20.2957 63.7275
20.3411 65.332
20.3863 62.8035
20.4318 56.785
20.477 52.4456
20.5224 50.6511
20.5677 50.1731
20.6131 49.5723
20.6586 49.1516
20.7038 49.0068
20.7493 48.3979
20.7945 48.4562
20.84 48.2383
20.8853 48.2627
20.9307 48.0229
20.976 48.2267
21.0215 48.1072
21.0668 48.3788
21.1122 48.8457
21.1575 49.6937
21.203 50.4154
21.2483 51.1393
21.2938 50.8811
21.3391 49.3068
21.3846 48.1307
21.4299 47.8122
21.4754 47.8157
21.5207 48.1138
21.5662 48.3261
21.6116 48.6577
21.6571 49.2095
21.7024 50.2226
21.7479 52.1121
21.7933 55.0975
21.8388 58.873
21.8843 62.7618
21.9297 64.0395
21.9752 61.9198
22.0206 58.1775
22.0661 55.7267
22.1115 55.6063
22.157 55.6015
22.2024 53.3104
22.248 50.5248
22.2933 49.1226
22.3389 48.4399
22.3843 48.385
22.4299 48.3553
22.4753 48.2785
22.5208 47.9602
22.5662 47.924
22.6118 48.1284
22.6572 48.3664
22.7028 48.619
22.7483 49.2248
22.7939 49.9555
22.8393 51.4591
22.8849 53.8946
22.9303 56.0433
22.9759 57.5635
23.0214 56.6896
23.067 53.4903
23.1126 50.2995
23.1581 48.4677
23.2037 48.17
23.2492 48.1838
23.2948 48.1418
23.3403 48.5438
23.3859 49.1365
23.4314 50.2607
23.477 52.2605
23.5225 54.6137
23.5682 56.9268
23.6137 57.4057
23.6593 54.4263
23.7048 50.5168
23.7505 47.3141
23.796 45.9354
23.8417 45.4222
23.8872 44.9704
23.9329 44.7375
23.9784 44.3622
24.0241 44.2151
24.0697 43.9147
24.1154 43.5917
24.1609 43.5333
24.2066 43.2043
24.2522 43.2453
24.2979 42.9692
24.3434 42.8108
24.3892 42.692
24.4349 42.5853
24.4805 42.4409
24.5262 42.5799
24.5718 42.4892
24.6175 42.3788
24.6631 42.2811
24.7089 41.9576
24.7545 42.1074
24.8002 41.8
24.8458 41.7161
24.8916 41.6061
24.9372 41.7944
24.983 42.0512
25.0286 42.379
25.0744 42.9837
25.12 43.3747
25.1658 43.931
25.2114 44.2455
25.2572 44.2961
25.3029 44.3951
25.3487 44.5361
25.3943 44.1829
25.4402 42.9195
25.4858 41.8667
25.5316 40.7824
25.5773 40.392
25.6231 40.3393
25.669 40.0398
25.7147 39.9867
25.7605 40.0721
25.8062 40.0228
25.8521 40.2237
25.8977 40.2187
25.9436 40.3255
25.9893 40.6673
26.0352 41.1029
26.0809 41.1517
26.1268 41.372
26.1725 40.9233
26.2184 40.1951
26.2641 39.8045
26.31 39.5805
26.3557 39.7038
26.4017 39.7102
26.4474 39.9686
26.4933 40.2771
26.5391 40.8173
26.585 41.3517
26.6308 41.7069
26.6767 41.8438
26.7225 41.5007
26.7684 40.8044
26.8142 40.4006
26.8601 39.8424
26.9059 39.5552
26.9519 39.0288
26.9979 38.7144
27.0437 38.3819
27.0896 38.2751
27.1354 38.2827
27.1814 38.04
27.2272 38.1554
27.2732 38.1035
27.3191 37.8894
27.3651 38.047
27.4109 38.0076
27.4569 38.1509
27.5027 38.1588
27.5488 38.1223
27.5946 37.9031
27.6407 37.6463
27.6865 37.5707
27.7326 37.3966
27.7784 37.5062
27.8245 37.4324
27.8703 37.6294
27.9164 37.7676
27.9623 38.0499
28.0084 38.4737
28.0543 38.7102
28.1003 38.7142
28.1462 38.4056
28.1923 37.869
28.2384 37.4668
28.2843 37.1589
28.3304 36.619
28.3764 36.2101
28.4225 35.8805
28.4684 35.8677
28.5145 35.4722
28.5605 35.4911
28.6066 35.2402
28.6526 35.2329
28.6987 35.3666
28.7447 35.1466
28.7908 35.0796
28.8368 35.1494
28.8829 35.0816
28.9289 35.022
28.9751 34.7907
29.0211 34.6284
29.0673 34.2513
29.1133 34.1673
29.1595 34.042
29.2055 33.9576
29.2517 33.9474
29.2977 33.9267
29.3439 33.9411
29.3899 33.8813
29.4361 33.7482
29.4824 33.6072
29.5284 33.2824
29.5746 33.0263
29.6207 32.6962
29.6669 32.6764
29.713 32.6661
29.7593 32.4907
29.8053 32.5479
29.8516 32.4208
29.8977 32.4395
29.9439 32.277
29.99 32.1175
30.0363 32.1177
30.0824 32.1092
30.1287 32.0373
30.1748 32.0954
30.2211 32.1735
30.2673 31.927
30.3136 32.0103
30.3597 31.8685
30.406 31.7617
30.4522 31.8048
30.4985 31.7578
30.5447 31.7597
30.591 31.7556
30.6372 31.8264
30.6835 31.9738
30.7297 31.9452
30.7761 31.9534
30.8224 31.6242
30.8686 31.4627
30.915 31.327
30.9612 31.2433
31.0076 30.9184
31.0538 30.8966
31.1002 30.7709
31.1464 30.5772
31.1928 30.6589
31.2391 30.6634
31.2855 30.4885
31.3317 30.5835
31.3781 30.6186
31.4244 30.4873
31.4708 30.5219
31.5171 30.4578
31.5636 30.4092
31.6098 30.1544
31.6563 30.0494
31.7026 29.8984
31.7491 29.747
31.7953 29.7544
31.8418 29.8139
31.8881 29.8894
31.9346 29.8409
31.9809 29.7013
32.0275 29.5541
32.074 29.4997
32.1203 29.2481
32.1668 29.1535
32.2132 29.0093
32.2597 28.9559
32.306 28.7885
32.3526 28.7131
32.399 28.6882
32.4455 28.4105
32.4919 28.3464
32.5385 28.2483
32.5848 28.146
32.6314 28.188
32.6778 28.0755
32.7244 27.8904
32.7708 27.7275
32.8174 27.8514
32.8638 27.6849
32.9104 27.8228
32.9569 27.7753
33.0035 27.602
33.0499 27.6235
33.0966 27.4955
33.143 27.4423
33.1897 27.3743
33.2361 27.28
33.2828 27.2775
33.3293 27.007
33.3759 27.0773
33.4226 26.92
33.4691 26.8397
33.5158 26.782
33.5623 26.5864
33.609 26.4144
33.6555 26.3406
33.7022 26.2842
33.7487 26.2457
33.7954 26.2462
33.842 26.1219
33.8887 26.0115
33.9353 26.058
33.982 25.8398
34.0286 25.6982
34.0753 25.6923
34.1219 25.6206
34.1687 25.5507
34.2152 25.4623
34.262 25.3425
34.3086 25.223
34.3554 25.2231
34.402 25.0777
34.4488 25.0492
34.4954 24.9323
34.5422 24.8892
34.5889 24.8209
34.6357 24.6903
34.6825 24.6107
34.7292 24.6183
34.776 24.4665
34.8227 24.3334
34.8695 24.4493
34.9162 24.327
34.9631 24.2423
35.0098 24.2259
35.0566 24.0711
35.1033 24.0406
35.1502 23.9552
35.1969 23.9352
35.2438 23.9124
35.2906 23.8491
35.3375 23.7916
35.3842 23.7685
35.4311 23.7155
35.4779 23.757
35.5248 23.6528
35.5716 23.501
35.6185 23.3985
35.6653 23.3214
35.7123 23.3041
35.759 23.1646
35.806 23.1299
35.8528 22.9663
35.8998 22.9144
35.9468 22.8565
35.9936 22.8589
36.0406 22.7869
36.0874 22.7429
36.1345 22.6037
36.1813 22.6664
36.2283 22.3654
36.2752 22.4862
36.3222 22.4656
36.3691 22.3319
36.4161 22.2089
36.463 22.2436
36.5101 22.1623
36.557 22.1057
36.6041 21.9731
36.651 21.9127
36.6981 21.8434
36.745 21.8074
36.7921 21.7108
36.839 21.6402
36.8861 21.5664
36.9331 21.5017
36.9802 21.3859
37.0272 21.3874
37.0743 21.246
37.1213 21.2477
37.1684 21.1824
37.2154 21.0777
37.2626 21.0149
37.3098 20.9727
37.3568 20.8764
37.404 20.8522
37.451 20.7812
37.4982 20.6907
37.5452 20.635
37.5924 20.5949
37.6395 20.6168
37.6867 20.4417
37.7337 20.3799
37.781 20.2434
37.8281 20.3098
37.8753 20.1545
37.9224 20.0824
37.9697 20.0656
38.0168 19.9658
38.064 19.8576
38.1111 19.8651
38.1584 19.8053
38.2056 19.7178
38.2529 19.6601
38.3 19.6323
38.3473 19.6283
38.3945 19.4718
38.4418 19.4929
38.489 19.3964
38.5363 19.3114
38.5837 19.2215
38.6309 19.1984
38.6782 19.1243
38.7254 19.0232
38.7728 19.0125
38.82 18.8898
38.8674 18.9441
38.9146 18.8996
38.9621 18.7921
39.0093 18.7191
39.0567 18.7039
39.104 18.605
39.1514 18.513
39.1987 18.5021
39.2461 18.3983
39.2934 18.3635
39.3409 18.303
39.3882 18.2222
39.4356 18.207
39.483 18.1156
39.5304 18.0309
39.5778 18.0317
39.6253 17.9941
39.6726 17.8987
39.7201 17.8879
39.7675 17.8279
39.815 17.7528
39.8624 17.6441
39.9099 17.6498
39.9575 17.5004
40.0049 17.5029
40.0525 17.4204
40.0999 17.3738
40.1474 17.3587
40.1949 17.2789
40.2425 17.2325
40.2899 17.1351
40.3375 17.1314
40.385 17.0587
40.4326 17.0015
40.48 16.9358
40.5277 16.9131
40.5752 16.861
40.6228 16.7481
40.6703 16.7292
40.718 16.6759
40.7655 16.7013
40.8132 16.5622
40.8607 16.5569
40.9084 16.4817
40.9559 16.393
41.0036 16.3937
41.0512 16.441
41.0989 16.2993
41.1465 16.1509
41.1942 16.2002
41.242 16.0419
41.2896 16.0282
41.3373 16.0059
41.3849 15.9139
41.4327 15.9201
41.4803 15.8948
41.5281 15.7909
41.5758 15.6634
41.6236 15.6869
41.6712 15.6171
41.7191 15.5455
41.7667 15.4886
41.8146 15.4891
41.8622 15.4965
41.9101 15.3659
41.9578 15.2686
42.0057 15.3148
42.0534 15.2045
42.1013 15.2287
42.149 15.1166
42.1969 15.0594
42.2446 15.0063
42.2925 14.9742
42.3403 14.8901
42.3882 14.8465
42.436 14.7766
42.4839 14.7364
42.5319 14.7211
42.5797 14.6849
42.6277 14.6008
42.6755 14.5606
42.7235 14.4709
42.7713 14.5117
42.8193 14.4547
42.8671 14.3475
42.9152 14.3435
42.963 14.2735
43.0111 14.2258
43.0589 14.1869
43.107 14.111
43.1549 14.0628
43.2029 14.0382
43.2508 14.0011
43.2989 13.9021
43.3468 13.8856
43.3949 13.8119
43.4429 13.7399
43.491 13.7865
43.5389 13.6777
43.5871 13.6146
43.635 13.5978
43.6832 13.5476
43.7312 13.4837
43.7793 13.4617
43.8273 13.433
43.8755 13.3361
43.9237 13.2896
43.9717 13.2926
44.0199 13.2363
44.068 13.1525
44.1162 13.1153
44.1642 13.1367
44.2125 13.0391
44.2606 13.0029
44.3088 12.9753
44.3569 12.9305
44.4052 12.8955
44.4533 12.8005
44.5016 12.7532
44.5497 12.7753
44.598 12.6911
44.6461 12.6913
44.6945 12.6016
44.7426 12.5895
44.791 12.5234
44.8391 12.4916
44.8875 12.4274
44.9357 12.4095
44.984 12.32
45.0322 12.2903
45.0806 12.2688
45.1288 12.207
45.1773 12.1368
45.2257 12.1511
45.2739 12.0971
45.3224 12.0135
45.3706 12.0353
45.4191 11.9451
45.4673 11.905
45.5158 11.877
45.5641 11.7628
45.6126 11.7706
45.6609 11.6753
45.7094 11.6737
45.7577 11.6276
45.8063 11.5709
45.8546 11.5635
45.9031 11.4675
45.9515 11.4957
46.0001 11.4721
46.0484 11.4014
46.097 11.4056
46.1454 11.3211
46.194 11.3152
46.2424 11.2389
46.291 11.168
46.3395 11.1045
46.3881 11.1088
46.4365 11.0715
46.4852 11.049
46.5337 11.0223
46.5823 10.9666
46.631 10.9017
46.6795 10.8957
46.7282 10.8248
46.7767 10.8193
46.8254 10.7388
46.8739 10.7533
46.9226 10.6577
46.9712 10.6582
47.0199 10.5964
47.0685 10.5612
47.1173 10.5269
47.1658 10.4611
47.2146 10.4727
47.2632 10.4015
47.312 10.3964
47.3606 10.3387
47.4095 10.2975
47.4581 10.2465
47.5069 10.1939
47.5556 10.135
47.6044 10.1339
47.6531 10.0718
47.702 10.0669
47.7507 10.015
47.7996 9.97704
47.8483 9.96266
47.8972 9.93781
47.9461 9.89176
47.9948 9.83148
48.0438 9.80107
48.0925 9.81633
48.1415 9.73576
48.1902 9.67016
48.2392 9.66863
48.288 9.64969
48.337 9.63022
48.3858 9.57053
48.4348 9.55672
48.4837 9.52536
48.5327 9.44417
48.5815 9.42788
48.6306 9.4325
48.6795 9.3894
48.7285 9.35737
48.7774 9.3087
48.8265 9.26976
48.8754 9.2202
48.9245 9.19445
48.9734 9.16487
49.0226 9.10116
49.0715 9.0861
49.1206 9.04716
49.1696 9.02581
49.2188 8.97387
49.2679 8.93321
49.3169 8.89206
49.3661 8.8764
49.4151 8.82286
49.4643 8.83418
49.5134 8.76008
49.5626 8.71862
49.6117 8.71686
49.6609 8.68946
49.71 8.62657
49.7592 8.57771
49.8083 8.56288
49.8576 8.56185
49.9067 8.51742
49.956 8.46117
50.0052 8.444
50.0545 8.40468
50.1036 8.36785
50.153 8.33186
50.2022 8.28617
50.2515 8.25403
50.3007 8.2697
50.3501 8.23889
50.3993 8.16313
50.4487 8.14577
50.498 8.12467
50.5474 8.08761
50.5966 8.06549
50.6461 8.06421
50.6955 7.97929
50.7448 7.99144
50.7943 7.92788
50.8436 7.91855
50.8931 7.88075
50.9424 7.84155
50.9919 7.79233
51.0413 7.79385
51.0908 7.75267
51.1402 7.72106
51.1897 7.71238
51.2391 7.65538
51.2887 7.61005
51.3381 7.61468
51.3877 7.5975
51.4371 7.55438
51.4867 7.51501
51.5362 7.47581
51.5858 7.42588
51.6353 7.41277
51.6849 7.42014
51.7344 7.35753
51.7841 7.32416
51.8336 7.31668
51.8833 7.269
51.9328 7.23674
51.9826 7.18444
52.0323 7.16397
52.0818 7.19224
52.1316 7.08646
52.1812 7.06071
52.231 7.03043
52.2806 7.01181
52.3304 6.98271
52.38 6.96531
52.4298 6.8919
52.4794 6.88066
52.5293 6.85503
52.5789 6.84876
52.6288 6.82408
52.6785 6.76564
52.7284 6.7606
52.7781 6.74972
52.828 6.73198
52.8777 6.66467
52.9276 6.65329
52.9774 6.63964
53.0273 6.55876
53.0771 6.53497
53.1271 6.56167
53.1769 6.53174
53.2269 6.50158
53.2767 6.46297
53.3267 6.41695
53.3765 6.41012
53.4266 6.36156
53.4766 6.34716
53.5265 6.33132
53.5765 6.30989
53.6264 6.26987
53.6765 6.23675
53.7264 6.18672
53.7765 6.19785
53.8265 6.11544
53.8766 6.10138
53.9266 6.10057
53.9767 6.04201
54.0267 6.04822
54.0769 6.02074
54.1269 5.99382
54.1771 5.98457
54.2271 5.94104
54.2773 5.90152
54.3274 5.86338
54.3776 5.82128
54.4277 5.83846
54.478 5.76618
54.528 5.75641
54.5783 5.67506
54.6285 5.64341
54.6788 5.63407
54.7289 5.57231
54.7792 5.5912
54.8296 5.46788
54.8798 5.41981
54.9301 5.38513
54.9803 5.39318
55.0307 5.34902
55.0809 5.29632
55.1314 5.36888
55.1816 5.23374
55.232 5.16139
55.2823 5.16079
55.3328 5.10198
55.383 5.06064
55.4335 4.99006
55.4838 4.93628
55.5344 4.86529
55.5847 4.84635
55.6352 4.8531
55.6856 4.7814
55.7361 4.73341