File: XRD/Ni3Fe_FD0761.xy
TT I
1.27165 7.28084
1.31627 6.53021
1.36089 7.57611
1.40551 6.23373
1.45013 6.06727
1.49476 5.21697
1.53938 5.6584
1.584 5.18902
1.62863 5.02827
1.67325 5.22249
1.71787 4.99806
1.7625 4.8836
1.80712 5.14944
1.85174 5.02055
1.89636 4.4744
1.94099 5.08588
1.98562 4.8238
2.03025 4.68884
2.07487 4.54356
2.11949 5.03514
2.16411 5.01141
2.20874 15.6293
2.25338 27.2532
2.298 6.40667
2.34263 5.63592
2.38725 6.28919
2.43188 5.76794
2.4765 7.39393
2.52115 7.12892
2.56577 7.8902
2.6104 8.18306
2.65503 8.04276
2.69965 7.74205
2.7443 8.07829
2.78893 8.63575
2.83356 8.81431
2.87818 8.70846
2.92281 9.19972
2.96744 9.52161
3.01209 10.2362
3.05672 11.4357
3.10135 12.2673
3.14599 13.2066
3.19062 14.2561
3.23527 15.3236
3.2799 15.5628
3.32454 17.2009
3.36917 17.6413
3.4138 19.2766
3.45844 19.7042
3.50309 20.8946
3.54773 22.0932
3.59237 24.5044
3.637 108.813
3.68164 67.7203
3.7263 26.8858
3.77094 26.887
3.81558 27.0724
3.86022 27.5455
3.90486 28.8607
3.9495 29.8656
3.99416 30.8469
4.0388 32.7383
4.08344 33.5481
4.12809 34.9463
4.17273 37.166
4.21738 44.1036
4.26204 292.85
4.30669 260.126
4.35133 50.1834
4.39598 44.8331
4.44063 56.3689
4.4853 69.5584
4.52995 50.8157
4.5746 50.7141
4.61925 52.8789
4.6639 55.0915
4.70855 57.5167
4.75322 60.5871
4.79788 62.8059
4.84253 66.6712
4.88719 70.95
4.93184 74.4694
4.97652 78.9132
5.02118 85.5038
5.06583 92.4288
5.11049 103.439
5.15515 178.546
5.19981 304.415
5.24449 2468.34
5.28916 12889.2
5.33382 2989.53
5.37848 187.644
5.42315 128.463
5.46783 112.709
5.5125 105.082
5.55716 101.117
5.60183 98.1634
5.6465 96.1526
5.69117 93.1884
5.73586 91.4164
5.78053 90.5562
5.8252 89.6499
5.86988 90.4916
5.91455 91.9799
5.95924 98.2672
6.00392 180.687
6.0486 846.276
6.09328 4351.99
6.13795 3230.97
6.18263 240.649
6.22733 92.48
6.27201 83.2824
6.3167 107.863
6.36138 82.341
6.40606 68.6938
6.45075 67.2872
6.49545 65.2165
6.54014 63.6324
6.58483 62.7433
6.62952 63.4535
6.67421 100.574
6.71892 163.317
6.76361 71.069
6.8083 58.9183
6.853 57.5649
6.89769 56.989
6.94239 56.4267
6.98711 55.7186
7.03181 55.6562
7.07651 55.6341
7.12121 55.1774
7.16591 55.6986
7.21063 55.8815
7.25533 73.9957
7.30004 208.695
7.34475 100.089
7.38945 57.2931
7.43416 54.8591
7.47889 54.5227
7.5236 54.7239
7.56831 55.3679
7.61303 57.2749
7.65774 57.897
7.70247 55.7907
7.74719 55.8709
7.79191 56.4296
7.83663 56.7504
7.88135 57.5503
7.92607 58.5771
7.97081 59.5006
8.01553 60.5449
8.06026 61.8723
8.10498 63.7857
8.14971 75.2042
8.19446 73.4603
8.23919 69.2992
8.28392 71.194
8.32865 73.31
8.37339 77.3551
8.41812 84.937
8.46288 117.187
8.50761 151.285
8.55235 348.185
8.59709 1099.15
8.64183 2165.54
8.68658 1021.43
8.73134 167.549
8.77609 99.2596
8.82083 92.5279
8.86558 88.6449
8.91033 89.4725
8.9551 92.6584
8.99985 85.111
9.04461 82.729
9.08936 82.1126
9.13412 81.2176
9.17888 81.8204
9.22365 82.4155
9.26841 81.4893
9.31318 82.0744
9.35794 81.9553
9.4027 82.7391
9.44749 83.6234
9.49226 83.6255
9.53703 84.884
9.5818 86.1876
9.62657 91.9159
9.67134 99.5731
9.71614 93.6188
9.76091 93.184
9.80569 95.325
9.85047 98.8612
9.89525 127.305
9.94005 139.467
9.98484 160.064
10.0296 304.009
10.0744 754.451
10.1192 1742.37
10.164 1621.59
10.2088 402.439
10.2536 126.238
10.2984 113.803
10.3432 116.576
10.388 104.273
10.4328 112.904
10.4776 150.449
10.5224 268.893
10.5672 512.294
10.612 514.939
10.6568 210.54
10.7017 96.6227
10.7465 85.9663
10.7913 82.9288
10.8361 80.8552
10.8809 78.3384
10.9257 78.6073
10.9706 79.558
11.0154 74.6516
11.0602 72.1998
11.105 71.5999
11.1499 77.6627
11.1947 86.381
11.2395 75.5803
11.2844 70.5454
11.3292 67.1818
11.374 65.8981
11.4189 65.4099
11.4637 64.651
11.5086 65.5061
11.5534 69.3734
11.5983 65.7123
11.6431 63.5774
11.688 62.6603
11.7328 62.6411
11.7777 62.4532
11.8225 62.3372
11.8674 62.0087
11.9122 62.5687
11.9571 62.485
12.002 63.0454
12.0468 65.9252
12.0917 76.2528
12.1366 98.795
12.1814 147.392
12.2263 209.975
12.2712 171.427
12.3161 100.602
12.3609 71.3919
12.4058 64.649
12.4507 64.1417
12.4956 64.2004
12.5405 64.2441
12.5853 65.4327
12.6302 74.7901
12.6751 81.3508
12.72 70.4925
12.7649 67.7305
12.8098 67.9599
12.8547 69.1032
12.8996 70.6845
12.9445 71.4244
12.9894 73.1916
13.0343 74.947
13.0792 77.8022
13.1242 85.307
13.1691 106.285
13.214 139.398
13.2589 226.396
13.3038 368.336
13.3487 431.592
13.3937 271.3
13.4386 126.229
13.4835 102.72
13.5285 114.652
13.5734 149.667
13.6183 237.902
13.6633 346.587
13.7082 345.56
13.7531 189.026
13.7981 97.8686
13.843 81.0168
13.888 79.0749
13.9329 76.6494
13.9779 75.2407
14.0228 73.8877
14.0678 72.5397
14.1127 71.9828
14.1577 72.2757
14.2027 71.1824
14.2476 69.6603
14.2926 70.3968
14.3376 71.5125
14.3825 69.9405
14.4275 68.3759
14.4725 68.0514
14.5175 68.3084
14.5624 68.5815
14.6074 71.1033
14.6524 71.8058
14.6974 69.7145
14.7424 70.7701
14.7874 76.3387
14.8324 85.3563
14.8774 105.768
14.9224 147.292
14.9674 204.056
15.0124 221.461
15.0574 150.419
15.1024 91.4728
15.1474 72.0486
15.1924 70.1414
15.2374 71.2448
15.2824 70.2919
15.3274 68.0314
15.3725 66.4876
15.4175 65.8735
15.4625 65.4459
15.5076 66.087
15.5526 65.8017
15.5976 65.2522
15.6426 65.7511
15.6877 70.1755
15.7327 76.9257
15.7778 91.0997
15.8228 121.607
15.8679 165.967
15.9129 193.45
15.958 157.215
16.003 98.2115
16.0481 68.5863
16.0931 64.8936
16.1382 62.9623
16.1833 60.3315
16.2283 58.717
16.2734 58.0198
16.3185 58.608
16.3636 59.6536
16.4086 57.9842
16.4537 56.0054
16.4988 55.221
16.5439 55.14
16.589 54.8034
16.6341 54.3877
16.6792 54.1314
16.7243 54.412
16.7694 54.7705
16.8145 54.6631
16.8596 54.9683
16.9047 56.9296
16.9498 57.0263
16.9949 55.5433
17.04 55.1438
17.0851 56.2333
17.1302 57.8516
17.1754 60.8484
17.2205 65.4868
17.2656 73.3989
17.3108 82.624
17.3559 82.5698
17.401 70.8988
17.4462 61.5537
17.4913 58.6741
17.5365 58.6265
17.5815 58.8691
17.6268 58.9935
17.6718 59.9106
17.7171 60.418
17.7622 60.9254
17.8074 61.2439
17.8525 63.0069
17.8977 66.7294
17.9428 71.9509
17.9881 79.944
18.0331 96.72
18.0784 119.024
18.1237 138.581
18.1688 131.061
18.214 103.271
18.2591 85.304
18.3044 88.8584
18.3495 98.8911
18.3948 105.808
18.4399 96.3594
18.4852 77.839
18.5303 65.9658
18.5756 61.8039
18.6207 60.8843
18.666 59.9567
18.7112 59.3623
18.7565 58.6431
18.8016 58.1573
18.8469 57.5486
18.892 57.1788
18.9374 56.8623
18.9825 56.5783
19.0278 56.4379
19.073 56.4352
19.1183 56.9096
19.1635 57.7406
19.2088 58.8178
19.254 61.3521
19.2993 65.5236
19.3447 72.2913
19.3898 76.8815
19.4352 72.5151
19.4804 63.119
19.5257 56.5946
19.5709 53.924
19.6163 53.3401
19.6615 53.4456
19.7068 52.9439
19.752 53.0009
19.7974 53.0448
19.8426 53.9387
19.888 54.4469
19.9332 55.5429
19.9786 57.7198
20.0238 61.4362
20.0692 66.4284
20.1144 69.1607
20.1598 67.5324
20.205 62.7555
20.2504 61.4898
20.2957 63.4567
20.3411 65.6295
20.3863 64.1417
20.4318 58.3063
20.477 53.5572
20.5224 51.612
20.5677 50.8093
20.6131 50.0087
20.6586 49.3992
20.7038 49.3006
20.7493 48.7836
20.7945 48.6573
20.84 48.4973
20.8853 48.5737
20.9307 48.1344
20.976 48.441
21.0215 48.2482
21.0668 48.5655
21.1122 49.033
21.1575 49.8962
21.203 50.4293
21.2483 51.057
21.2938 51.2034
21.3391 49.558
21.3846 48.6229
21.4299 48.2834
21.4754 48.1314
21.5207 48.1367
21.5662 48.2974
21.6116 48.8592
21.6571 49.3001
21.7024 50.0402
21.7479 51.9036
21.7933 54.4378
21.8388 58.0372
21.8843 61.8572
21.9297 63.98
21.9752 62.8982
22.0206 59.2278
22.0661 56.2664
22.1115 55.4697
22.157 55.7521
22.2024 54.1308
22.248 51.1293
22.2933 49.5591
22.3389 48.8384
22.3843 48.6639
22.4299 48.7264
22.4753 48.5947
22.5208 48.2568
22.5662 48.2115
22.6118 48.2079
22.6572 48.3088
22.7028 48.7329
22.7483 49.2708
22.7939 49.8049
22.8393 51.3269
22.8849 53.3343
22.9303 55.5688
22.9759 57.6219
23.0214 57.0866
23.067 54.4646
23.1126 50.7153
23.1581 48.9261
23.2037 48.3235
23.2492 48.5719
23.2948 48.2511
23.3403 48.6188
23.3859 49.193
23.4314 50.1811
23.477 51.885
23.5225 54.2043
23.5682 56.5713
23.6137 57.8218
23.6593 55.7278
23.7048 51.6415
23.7505 48.0727
23.796 46.4473
23.8417 45.6783
23.8872 45.2522
23.9329 45.0098
23.9784 44.5934
24.0241 44.3468
24.0697 44.2505
24.1154 43.897
24.1609 43.7871
24.2066 43.6556
24.2522 43.4902
24.2979 43.1808
24.3434 43.0888
24.3892 42.8819
24.4349 42.8654
24.4805 42.6177
24.5262 42.8729
24.5718 42.6829
24.6175 42.6352
24.6631 42.5765
24.7089 42.3234
24.7545 42.0865
24.8002 42.0104
24.8458 41.8856
24.8916 41.7973
24.9372 41.874
24.983 42.1446
25.0286 42.309
25.0744 43.0447
25.12 43.4745
25.1658 43.9718
25.2114 44.4133
25.2572 44.4783
25.3029 44.5713
25.3487 44.8147
25.3943 44.2913
25.4402 43.2833
25.4858 42.2451
25.5316 41.1876
25.5773 40.5596
25.6231 40.6104
25.669 40.225
25.7147 40.3148
25.7605 39.9828
25.8062 40.2873
25.8521 40.3535
25.8977 40.2801
25.9436 40.6164
25.9893 40.81
26.0352 41.0741
26.0809 41.0668
26.1268 41.3729
26.1725 41.0719
26.2184 40.4639
26.2641 40.0297
26.31 39.772
26.3557 39.8273
26.4017 39.8062
26.4474 40.0551
26.4933 40.4668
26.5391 40.963
26.585 41.384
26.6308 41.7093
26.6767 41.7541
26.7225 41.708
26.7684 41.2863
26.8142 40.6298
26.8601 40.2037
26.9059 39.8846
26.9519 39.2768
26.9979 38.8869
27.0437 38.7683
27.0896 38.475
27.1354 38.6628
27.1814 38.3543
27.2272 38.2817
27.2732 38.2868
27.3191 38.1808
27.3651 38.1379
27.4109 38.1595
27.4569 38.2644
27.5027 38.2651
27.5488 38.1768
27.5946 38.0633
27.6407 37.9755
27.6865 37.8793
27.7326 37.6359
27.7784 37.6349
27.8245 37.4623
27.8703 37.7808
27.9164 37.8978
27.9623 38.1236
28.0084 38.3695
28.0543 38.7411
28.1003 38.7039
28.1462 38.5644
28.1923 38.2097
28.2384 37.8004
28.2843 37.4426
28.3304 36.9956
28.3764 36.487
28.4225 36.1987
28.4684 36.067
28.5145 35.749
28.5605 35.7222
28.6066 35.3649
28.6526 35.2769
28.6987 35.3973
28.7447 35.2576
28.7908 35.2333
28.8368 35.1825
28.8829 35.1505
28.9289 35.1141
28.9751 34.9895
29.0211 34.661
29.0673 34.4803
29.1133 34.3623
29.1595 34.1789
29.2055 34.2195
29.2517 34.1123
29.2977 34.1458
29.3439 33.9714
29.3899 33.9592
29.4361 33.921
29.4824 33.7782
29.5284 33.4937
29.5746 33.2777
29.6207 33.0173
29.6669 32.7754
29.713 32.8743
29.7593 32.6517
29.8053 32.6026
29.8516 32.514
29.8977 32.6279
29.9439 32.4037
29.99 32.3381
30.0363 32.3252
30.0824 32.3413
30.1287 32.1951
30.1748 32.2604
30.2211 32.177
30.2673 32.145
30.3136 32.211
30.3597 32.0926
30.406 31.914
30.4522 31.9451
30.4985 31.8105
30.5447 31.9716
30.591 31.89
30.6372 31.9177
30.6835 31.9443
30.7297 31.9695
30.7761 31.9624
30.8224 31.6845
30.8686 31.6609
30.915 31.4507
30.9612 31.3207
31.0076 31.157
31.0538 30.9687
31.1002 30.97
31.1464 30.7265
31.1928 30.8075
31.2391 30.7901
31.2855 30.6635
31.3317 30.6229
31.3781 30.681
31.4244 30.6704
31.4708 30.5719
31.5171 30.5976
31.5636 30.6016
31.6098 30.3024
31.6563 30.1956
31.7026 30.0157
31.7491 29.8536
31.7953 29.9101
31.8418 29.9437
31.8881 29.9989
31.9346 29.817
31.9809 29.8975
32.0275 29.6885
32.074 29.5777
32.1203 29.5056
32.1668 29.3458
32.2132 29.2525
32.2597 29.1189
32.306 29.0443
32.3526 28.7741
32.399 28.768
32.4455 28.6404
32.4919 28.4986
32.5385 28.4934
32.5848 28.2749
32.6314 28.2528
32.6778 28.2529
32.7244 28.064
32.7708 27.9589
32.8174 28.0817
32.8638 27.8364
32.9104 27.8702
32.9569 27.7985
33.0035 27.7
33.0499 27.6773
33.0966 27.7826
33.143 27.5633
33.1897 27.4914
33.2361 27.4519
33.2828 27.4958
33.3293 27.3314
33.3759 27.2394
33.4226 27.0641
33.4691 26.9393
33.5158 26.9621
33.5623 26.6404
33.609 26.6391
33.6555 26.5048
33.7022 26.4284
33.7487 26.2802
33.7954 26.3461
33.842 26.1812
33.8887 26.1078
33.9353 26.0455
33.982 25.9748
34.0286 25.892
34.0753 25.8428
34.1219 25.7089
34.1687 25.6458
34.2152 25.6774
34.262 25.566
34.3086 25.386
34.3554 25.4322
34.402 25.2069
34.4488 25.1088
34.4954 25.1497
34.5422 25.0078
34.5889 24.983
34.6357 24.8253
34.6825 24.7794
34.7292 24.6794
34.776 24.6552
34.8227 24.5521
34.8695 24.5666
34.9162 24.5037
34.9631 24.373
35.0098 24.3516
35.0566 24.1985
35.1033 24.156
35.1502 24.2283
35.1969 23.9951
35.2438 23.9977
35.2906 23.9288
35.3375 23.9407
35.3842 23.7856
35.4311 23.8576
35.4779 23.7701
35.5248 23.7441
35.5716 23.6003
35.6185 23.5513
35.6653 23.5266
35.7123 23.4481
35.759 23.4161
35.806 23.1854
35.8528 23.1522
35.8998 23.1265
35.9468 22.9662
35.9936 22.8845
36.0406 22.8853
36.0874 22.8226
36.1345 22.7748
36.1813 22.6874
36.2283 22.6607
36.2752 22.4838
36.3222 22.5715
36.3691 22.531
36.4161 22.3123
36.463 22.3258
36.5101 22.2929
36.557 22.2349
36.6041 22.1104
36.651 22.0844
36.6981 21.9873
36.745 21.9074
36.7921 21.8646
36.839 21.7604
36.8861 21.6922
36.9331 21.622
36.9802 21.5066
37.0272 21.4567
37.0743 21.3907
37.1213 21.3967
37.1684 21.3072
37.2154 21.2272
37.2626 21.1843
37.3098 21.1041
37.3568 21.045
37.404 20.9541
37.451 20.9087
37.4982 20.8379
37.5452 20.7513
37.5924 20.6953
37.6395 20.6895
37.6867 20.622
37.7337 20.544
37.781 20.4322
37.8281 20.4051
37.8753 20.3176
37.9224 20.2613
37.9697 20.1382
38.0168 20.0413
38.064 20.0481
38.1111 19.9567
38.1584 19.9507
38.2056 19.8617
38.2529 19.7168
38.3 19.6607
38.3473 19.7026
38.3945 19.6269
38.4418 19.5217
38.489 19.4642
38.5363 19.3596
38.5837 19.3227
38.6309 19.2869
38.6782 19.2437
38.7254 19.2021
38.7728 19.1156
38.82 19.0409
38.8674 18.9796
38.9146 18.9643
38.9621 18.8583
39.0093 18.8257
39.0567 18.8229
39.104 18.6642
39.1514 18.6049
39.1987 18.5464
39.2461 18.54
39.2934 18.5019
39.3409 18.3368
39.3882 18.2953
39.4356 18.2512
39.483 18.2425
39.5304 18.1483
39.5778 18.1207
39.6253 18.0633
39.6726 17.9942
39.7201 17.882
39.7675 17.8654
39.815 17.8165
39.8624 17.7277
39.9099 17.7964
39.9575 17.6127
40.0049 17.5652
40.0525 17.5501
40.0999 17.4951
40.1474 17.488
40.1949 17.3488
40.2425 17.3019
40.2899 17.2268
40.3375 17.2344
40.385 17.1029
40.4326 17.099
40.48 17.063
40.5277 17.0801
40.5752 16.948
40.6228 16.8983
40.6703 16.7998
40.718 16.7842
40.7655 16.7646
40.8132 16.6375
40.8607 16.6785
40.9084 16.6119
40.9559 16.4946
41.0036 16.5077
41.0512 16.4291
41.0989 16.397
41.1465 16.2784
41.1942 16.2754
41.242 16.1608
41.2896 16.0888
41.3373 16.0705
41.3849 16.0388
41.4327 15.9433
41.4803 15.8428
41.5281 15.8833
41.5758 15.755
41.6236 15.7529
41.6712 15.6621
41.7191 15.643
41.7667 15.645
41.8146 15.5621
41.8622 15.4672
41.9101 15.4898
41.9578 15.3522
42.0057 15.3622
42.0534 15.3608
42.1013 15.2289
42.149 15.1822
42.1969 15.1848
42.2446 15.125
42.2925 15.0772
42.3403 15.043
42.3882 14.9229
42.436 14.9154
42.4839 14.8294
42.5319 14.7596
42.5797 14.754
42.6277 14.6858
42.6755 14.6437
42.7235 14.5807
42.7713 14.5469
42.8193 14.5236
42.8671 14.4892
42.9152 14.3889
42.963 14.3088
43.0111 14.31
43.0589 14.2678
43.107 14.1725
43.1549 14.1339
43.2029 14.0556
43.2508 14.0477
43.2989 14.046
43.3468 13.9426
43.3949 13.9542
43.4429 13.8766
43.491 13.8236
43.5389 13.8019
43.5871 13.7262
43.635 13.6592
43.6832 13.6433
43.7312 13.5834
43.7793 13.5601
43.8273 13.5369
43.8755 13.4207
43.9237 13.4077
43.9717 13.4287
44.0199 13.3126
44.068 13.2347
44.1162 13.2096
44.1642 13.1741
44.2125 13.1413
44.2606 13.1238
44.3088 13.0163
44.3569 12.9702
44.4052 12.9492
44.4533 12.885
44.5016 12.8039
44.5497 12.8429
44.598 12.7834
44.6461 12.6861
44.6945 12.669
44.7426 12.6236
44.791 12.5623
44.8391 12.5569
44.8875 12.4738
44.9357 12.4304
44.984 12.4144
45.0322 12.3282
45.0806 12.302
45.1288 12.2566
45.1773 12.2336
45.2257 12.1529
45.2739 12.1258
45.3224 12.0877
45.3706 12.0492
45.4191 12.0252
45.4673 12.0001
45.5158 11.9722
45.5641 11.9039
45.6126 11.8612
45.6609 11.7919
45.7094 11.7308
45.7577 11.6765
45.8063 11.6484
45.8546 11.6298
45.9031 11.6005
45.9515 11.5356
46.0001 11.5097
46.0484 11.5175
46.097 11.4688
46.1454 11.4189
46.194 11.3373
46.2424 11.328
46.291 11.2408
46.3395 11.2246
46.3881 11.1937
46.4365 11.1378
46.4852 11.0974
46.5337 11.0927
46.5823 11.0441
46.631 10.9674
46.6795 10.951
46.7282 10.9227
46.7767 10.877
46.8254 10.8099
46.8739 10.786
46.9226 10.7205
46.9712 10.7006
47.0199 10.6752
47.0685 10.65
47.1173 10.5927
47.1658 10.543
47.2146 10.4902
47.2632 10.4559
47.312 10.3957
47.3606 10.3807
47.4095 10.3508
47.4581 10.3515
47.5069 10.2745
47.5556 10.2622
47.6044 10.2319
47.6531 10.1542
47.702 10.106
47.7507 10.0852
47.7996 10.0349
47.8483 10.0239
47.8972 10.0077
47.9461 9.94316
47.9948 9.87307
48.0438 9.89406
48.0925 9.8601
48.1415 9.80437
48.1902 9.7755
48.2392 9.77071
48.288 9.72014
48.337 9.6727
48.3858 9.62488
48.4348 9.62577
48.4837 9.60371
48.5327 9.51258
48.5815 9.46266
48.6306 9.46453
48.6795 9.44502
48.7285 9.35276
48.7774 9.33529
48.8265 9.3345
48.8754 9.29396
48.9245 9.22833
48.9734 9.15659
49.0226 9.19913
49.0715 9.16508
49.1206 9.10327
49.1696 9.06945
49.2188 9.00449
49.2679 8.99227
49.3169 8.92914
49.3661 8.94332
49.4151 8.90934
49.4643 8.86955
49.5134 8.83545
49.5626 8.77426
49.6117 8.73471
49.6609 8.68971
49.71 8.69719
49.7592 8.64579
49.8083 8.63046
49.8576 8.60961
49.9067 8.57193
49.956 8.52732
50.0052 8.46304
50.0545 8.47231
50.1036 8.44211
50.153 8.41503
50.2022 8.40199
50.2515 8.33814
50.3007 8.30616
50.3501 8.26131
50.3993 8.25738
50.4487 8.23029
50.498 8.15355
50.5474 8.15189
50.5966 8.08468
50.6461 8.10183
50.6955 8.04392
50.7448 8.01707
50.7943 7.97808
50.8436 7.94217
50.8931 7.9667
50.9424 7.89456
50.9919 7.88047
51.0413 7.87571
51.0908 7.81072
51.1402 7.76718
51.1897 7.70102
51.2391 7.71004
51.2887 7.66574
51.3381 7.62561
51.3877 7.57433
51.4371 7.58277
51.4867 7.5636
51.5362 7.54806
51.5858 7.5172
51.6353 7.45063
51.6849 7.42854
51.7344 7.4064
51.7841 7.39536
51.8336 7.3226
51.8833 7.31032
51.9328 7.28448
51.9826 7.24825
52.0323 7.18001
52.0818 7.18426
52.1316 7.16462
52.1812 7.13859
52.231 7.08749
52.2806 7.06879
52.3304 7.01044
52.38 7.01596
52.4298 6.99676
52.4794 6.93453
52.5293 6.9092
52.5789 6.90626
52.6288 6.8759
52.6785 6.85198
52.7284 6.78379
52.7781 6.778
52.828 6.76249
52.8777 6.74547
52.9276 6.65499
52.9774 6.64699
53.0273 6.64071
53.0771 6.58957
53.1271 6.57373
53.1769 6.58077
53.2269 6.52671
53.2767 6.51396
53.3267 6.43887
53.3765 6.46101
53.4266 6.43421
53.4766 6.36811
53.5265 6.36941
53.5765 6.34753
53.6264 6.29795
53.6765 6.29423
53.7264 6.225
53.7765 6.23338
53.8265 6.20253
53.8766 6.14781
53.9266 6.14799
53.9767 6.13134
54.0267 6.12274
54.0769 6.02596
54.1269 6.04191
54.1771 6.00224
54.2271 5.99647
54.2773 5.91382
54.3274 5.93909
54.3776 5.89371
54.4277 5.84019
54.478 5.78552
54.528 5.81356
54.5783 5.75722
54.6285 5.72966
54.6788 5.67055
54.7289 5.6277
54.7792 5.5202
54.8296 5.5049
54.8798 5.45713
54.9301 5.41687
54.9803 5.38556
55.0307 5.42959
55.0809 5.35752
55.1314 5.36852
55.1816 5.28041
55.232 5.14565
55.2823 5.17743
55.3328 5.08409
55.383 5.07005
55.4335 5.08496
55.4838 4.99205
55.5344 4.96829
55.5847 4.8781
55.6352 4.88083
55.6856 4.85174
55.7361 4.79398