File: XRD/Ni3Fe_FD0165.xy
TT I
1.27165 7.84467
1.31627 6.72864
1.36089 7.18772
1.40551 6.12081
1.45013 6.62038
1.49476 6.60912
1.53938 6.35004
1.584 5.50405
1.62863 5.96208
1.67325 5.02524
1.71787 5.33402
1.7625 4.8375
1.80712 5.13855
1.85174 5.49837
1.89636 4.6601
1.94099 4.89679
1.98562 5.03872
2.03025 4.90741
2.07487 4.16893
2.11949 4.64479
2.16411 4.52209
2.20874 4.69951
2.25338 5.04022
2.298 5.63141
2.34263 3.66896
2.38725 3.92788
2.43188 4.02029
2.4765 4.25573
2.52115 4.18758
2.56577 4.92911
2.6104 5.41282
2.65503 5.29567
2.69965 5.64402
2.7443 6.25273
2.78893 6.65845
2.83356 7.13711
2.87818 7.42239
2.92281 8.32056
2.96744 9.88683
3.01209 10.412
3.05672 11.4907
3.10135 12.573
3.14599 13.4783
3.19062 14.8552
3.23527 15.1465
3.2799 15.8725
3.32454 17.0603
3.36917 18.01
3.4138 18.9776
3.45844 19.6018
3.50309 20.7039
3.54773 21.1324
3.59237 21.7704
3.637 22.352
3.68164 23.4603
3.7263 24.2101
3.77094 24.9749
3.81558 26.1484
3.86022 26.5676
3.90486 28.0856
3.9495 28.3686
3.99416 29.2919
4.0388 30.8537
4.08344 32.1747
4.12809 33.0049
4.17273 34.2069
4.21738 36.1063
4.26204 36.6266
4.30669 38.279
4.35133 39.9415
4.39598 41.0589
4.44063 43.2348
4.4853 45.2193
4.52995 47.3471
4.5746 48.8903
4.61925 51.6951
4.6639 54.3089
4.70855 57.0952
4.75322 59.6224
4.79788 62.7762
4.84253 66.4638
4.88719 70.5784
4.93184 75.7766
4.97652 82.7572
5.02118 90.4158
5.06583 101.486
5.11049 116.624
5.15515 153.775
5.19981 536.813
5.24449 3775.32
5.28916 8481.19
5.33382 6206.29
5.37848 420.11
5.42315 160.891
5.46783 127.219
5.5125 113.91
5.55716 107.623
5.60183 101.655
5.6465 98.9187
5.69117 98.1387
5.73586 95.4047
5.78053 95.4802
5.8252 95.6334
5.86988 98.1703
5.91455 105.25
5.95924 123.476
6.00392 285.541
6.0486 1380.71
6.09328 2809.59
6.13795 4059.18
6.18263 675.969
6.22733 121.393
6.27201 88.7392
6.3167 78.5577
6.36138 73.0266
6.40606 68.8464
6.45075 66.4467
6.49545 64.7602
6.54014 62.6916
6.58483 61.026
6.62952 60.0584
6.67421 58.8069
6.71892 57.5852
6.76361 56.8627
6.8083 55.8842
6.853 55.1182
6.89769 54.8137
6.94239 54.295
6.98711 54.0585
7.03181 53.2343
7.07651 52.9613
7.12121 52.785
7.16591 52.4684
7.21063 52.231
7.25533 51.9144
7.30004 52.1926
7.34475 52.3792
7.38945 52.7765
7.43416 52.0826
7.47889 52.47
7.5236 55.9648
7.56831 62.8055
7.61303 55.0148
7.65774 53.5722
7.70247 54.2097
7.74719 54.6022
7.79191 55.1805
7.83663 55.4139
7.88135 56.1725
7.92607 57.4832
7.97081 58.4755
8.01553 59.4573
8.06026 60.8214
8.10498 62.2263
8.14971 64.1331
8.19446 65.688
8.23919 68.4037
8.28392 71.2141
8.32865 73.921
8.37339 78.1253
8.41812 83.6311
8.46288 95.7665
8.50761 172.548
8.55235 598.411
8.59709 907.89
8.64183 1532.0
8.68658 1624.99
8.73134 387.144
8.77609 115.044
8.82083 97.4198
8.86558 91.2019
8.91033 88.0273
8.9551 85.5177
8.99985 84.4353
9.04461 83.6315
9.08936 82.6564
9.13412 81.6661
9.17888 81.7381
9.22365 87.0428
9.26841 95.5936
9.31318 86.1643
9.35794 82.6192
9.4027 82.6619
9.44749 82.9344
9.49226 83.8279
9.53703 84.6404
9.5818 86.3752
9.62657 87.5604
9.67134 89.4229
9.71614 91.1367
9.76091 93.0326
9.80569 95.88
9.85047 98.8702
9.89525 103.955
9.94005 114.144
9.98484 185.534
10.0296 542.487
10.0744 746.755
10.1192 1067.72
10.164 1697.94
10.2088 960.406
10.2536 210.292
10.2984 116.381
10.3432 108.312
10.388 104.933
10.4328 121.685
10.4776 213.944
10.5224 264.287
10.5672 341.393
10.612 501.252
10.6568 367.842
10.7017 133.501
10.7465 90.8541
10.7913 83.7998
10.8361 80.6688
10.8809 78.5506
10.9257 76.0775
10.9706 74.6916
11.0154 72.9076
11.0602 71.696
11.105 70.3853
11.1499 69.1136
11.1947 67.8992
11.2395 66.8686
11.2844 66.3807
11.3292 65.8218
11.374 64.9288
11.4189 64.7354
11.4637 63.9704
11.5086 63.1222
11.5534 62.7966
11.5983 62.5129
11.6431 62.3781
11.688 61.6868
11.7328 61.6096
11.7777 61.4397
11.8225 61.2382
11.8674 61.2654
11.9122 62.8426
11.9571 65.6852
12.002 65.0436
12.0468 67.8072
12.0917 90.5891
12.1366 108.06
12.1814 119.575
12.2263 153.004
12.2712 195.666
12.3161 137.773
12.3609 74.9084
12.4058 64.3096
12.4507 63.4853
12.4956 63.3688
12.5405 63.1934
12.5853 63.7652
12.6302 64.0861
12.6751 64.5127
12.72 65.5319
12.7649 66.5078
12.8098 66.959
12.8547 68.5547
12.8996 70.0551
12.9445 71.2353
12.9894 73.514
13.0343 75.38
13.0792 79.5197
13.1242 86.8065
13.1691 133.049
13.214 186.767
13.2589 207.517
13.3038 251.477
13.3487 353.887
13.3937 375.024
13.4386 205.314
13.4835 118.498
13.5285 153.988
13.5734 182.265
13.6183 196.133
13.6633 244.471
13.7082 335.353
13.7531 303.747
13.7981 152.346
13.843 88.2322
13.888 80.8643
13.9329 77.8441
13.9779 76.1699
14.0228 74.871
14.0678 73.2385
14.1127 72.8214
14.1577 74.0451
14.2027 72.5202
14.2476 70.8263
14.2926 69.7133
14.3376 69.4846
14.3825 68.8479
14.4275 68.6037
14.4725 68.6032
14.5175 68.6773
14.5624 68.469
14.6074 68.9765
14.6524 69.2618
14.6974 70.0703
14.7424 71.6372
14.7874 80.7855
14.8324 106.94
14.8774 121.048
14.9224 128.583
14.9674 151.75
15.0124 196.375
15.0574 204.859
15.1024 136.986
15.1474 81.4886
15.1924 71.6698
15.2374 69.2034
15.2824 68.1556
15.3274 67.0538
15.3725 66.6315
15.4175 66.485
15.4625 66.042
15.5076 65.6485
15.5526 65.8062
15.5976 65.901
15.6426 66.9425
15.6877 74.028
15.7327 94.8748
15.7778 107.327
15.8228 112.33
15.8679 127.025
15.9129 157.43
15.958 186.168
16.003 148.964
16.0481 87.5494
16.0931 66.1657
16.1382 62.0716
16.1833 60.5948
16.2283 58.9533
16.2734 58.1374
16.3185 57.4141
16.3636 56.7921
16.4086 56.0917
16.4537 55.8522
16.4988 55.2035
16.5439 55.2721
16.589 55.0276
16.6341 54.5599
16.6792 54.2609
16.7243 54.3972
16.7694 54.276
16.8145 54.2685
16.8596 54.4524
16.9047 54.83
16.9498 55.2148
16.9949 55.0593
17.04 55.4502
17.0851 57.1
17.1302 61.3017
17.1754 64.6876
17.2205 65.6804
17.2656 67.8039
17.3108 73.1846
17.3559 80.0444
17.401 80.7595
17.4462 71.0427
17.4913 61.5888
17.5365 59.3399
17.5815 59.3505
17.6268 59.6397
17.6718 60.1028
17.7171 60.3458
17.7622 61.4431
17.8074 62.3524
17.8525 63.9062
17.8977 72.2997
17.9428 83.7385
17.9881 88.8619
18.0331 92.1128
18.0784 99.6807
18.1237 116.699
18.1688 141.46
18.214 140.674
18.2591 109.462
18.3044 88.5014
18.3495 87.2836
18.3948 96.2239
18.4399 103.993
18.4852 94.8739
18.5303 75.6712
18.5756 64.9214
18.6207 62.267
18.666 60.9709
18.7112 60.2307
18.7565 59.2947
18.8016 59.0564
18.8469 58.6261
18.892 57.9484
18.9374 57.3508
18.9825 57.1576
19.0278 57.0759
19.073 57.2007
19.1183 57.2894
19.1635 59.7642
19.2088 61.7821
19.254 62.8235
19.2993 63.2997
19.3447 65.8471
19.3898 69.7562
19.4352 74.2778
19.4804 72.2462
19.5257 63.4744
19.5709 56.2251
19.6163 54.3271
19.6615 54.197
19.7068 53.5074
19.752 53.4939
19.7974 53.602
19.8426 54.8389
19.888 57.0346
19.9332 58.5045
19.9786 58.7063
20.0238 59.665
20.0692 62.5066
20.1144 67.5658
20.1598 72.8742
20.205 71.1482
20.2504 65.3113
20.2957 61.3264
20.3411 62.3138
20.3863 64.9961
20.4318 64.5858
20.477 59.088
20.5224 53.2813
20.5677 51.0146
20.6131 50.3974
20.6586 49.9596
20.7038 49.7277
20.7493 49.4872
20.7945 49.4005
20.84 49.2919
20.8853 49.0255
20.9307 48.7285
20.976 49.019
21.0215 49.119
21.0668 49.6944
21.1122 49.5716
21.1575 49.7604
21.203 50.0152
21.2483 50.4061
21.2938 51.5867
21.3391 51.5493
21.3846 50.6125
21.4299 49.6088
21.4754 48.875
21.5207 49.0936
21.5662 49.1738
21.6116 49.5676
21.6571 51.4492
21.7024 53.296
21.7479 54.3402
21.7933 54.6531
21.8388 56.2916
21.8843 59.2339
21.9297 62.6578
21.9752 66.1675
22.0206 65.8547
22.0661 60.6349
22.1115 56.7303
22.157 55.8393
22.2024 56.6083
22.248 55.0527
22.2933 52.5053
22.3389 50.1833
22.3843 49.4642
22.4299 49.0553
22.4753 49.2912
22.5208 48.9454
22.5662 48.9398
22.6118 49.2545
22.6572 49.2769
22.7028 50.5837
22.7483 51.4945
22.7939 52.0865
22.8393 52.4674
22.8849 53.0585
22.9303 53.7744
22.9759 55.494
23.0214 57.551
23.067 58.5106
23.1126 56.0406
23.1581 52.3504
23.2037 50.0048
23.2492 49.6171
23.2948 49.9278
23.3403 50.9788
23.3859 51.8283
23.4314 51.8647
23.477 52.2792
23.5225 52.6818
23.5682 54.1282
23.6137 56.2656
23.6593 58.179
23.7048 57.0922
23.7505 53.0044
23.796 49.2391
23.8417 47.1662
23.8872 46.2781
23.9329 45.8603
23.9784 45.5323
24.0241 45.2996
24.0697 44.9741
24.1154 44.6074
24.1609 44.2855
24.2066 44.2375
24.2522 44.1752
24.2979 43.7373
24.3434 43.7492
24.3892 43.5624
24.4349 43.5479
24.4805 43.0888
24.5262 43.1655
24.5718 43.1736
24.6175 43.238
24.6631 43.3813
24.7089 43.1658
24.7545 42.8559
24.8002 42.6078
24.8458 42.7271
24.8916 42.7284
24.9372 42.7416
24.983 43.0576
25.0286 43.2184
25.0744 43.6998
25.12 44.0823
25.1658 44.4597
25.2114 44.9586
25.2572 45.198
25.3029 45.1858
25.3487 44.9736
25.3943 45.0099
25.4402 45.1773
25.4858 44.5771
25.5316 43.2897
25.5773 41.9798
25.6231 41.5607
25.669 41.0303
25.7147 40.8991
25.7605 40.8124
25.8062 41.1514
25.8521 41.2255
25.8977 41.087
25.9436 41.1179
25.9893 41.0413
26.0352 41.3852
26.0809 41.3665
26.1268 41.8498
26.1725 42.2014
26.2184 42.1939
26.2641 41.6651
26.31 41.1329
26.3557 40.9712
26.4017 40.9368
26.4474 41.0368
26.4933 41.1495
26.5391 41.4399
26.585 41.7068
26.6308 41.9843
26.6767 42.3655
26.7225 42.8665
26.7684 42.8596
26.8142 42.1101
26.8601 41.5677
26.9059 40.8917
26.9519 40.5515
26.9979 40.1724
27.0437 39.7607
27.0896 39.3878
27.1354 39.2074
27.1814 39.1861
27.2272 39.1859
27.2732 39.0309
27.3191 38.9099
27.3651 38.8734
27.4109 38.8563
27.4569 38.9535
27.5027 38.891
27.5488 38.9712
27.5946 38.9886
27.6407 38.9943
27.6865 38.9671
27.7326 38.7597
27.7784 38.7246
27.8245 38.4981
27.8703 38.6219
27.9164 38.5579
27.9623 38.6687
28.0084 39.0173
28.0543 39.1885
28.1003 39.3839
28.1462 39.5915
28.1923 39.5013
28.2384 39.0778
28.2843 38.5351
28.3304 38.134
28.3764 37.8509
28.4225 37.3192
28.4684 36.9724
28.5145 36.384
28.5605 36.354
28.6066 36.2703
28.6526 36.1179
28.6987 36.1681
28.7447 35.9517
28.7908 35.9487
28.8368 35.7512
28.8829 35.7219
28.9289 35.588
28.9751 35.5425
29.0211 35.5712
29.0673 35.3299
29.1133 35.2202
29.1595 34.9628
29.2055 34.6362
29.2517 34.7083
29.2977 34.627
29.3439 34.5291
29.3899 34.3587
29.4361 34.4706
29.4824 34.471
29.5284 34.3606
29.5746 34.1181
29.6207 33.6189
29.6669 33.4244
29.713 33.3665
29.7593 33.2025
29.8053 33.244
29.8516 33.2108
29.8977 33.0823
29.9439 32.9514
29.99 32.8545
30.0363 32.8069
30.0824 32.8365
30.1287 32.7008
30.1748 32.7085
30.2211 32.7435
30.2673 32.6125
30.3136 32.7567
30.3597 32.7076
30.406 32.832
30.4522 32.5375
30.4985 32.5142
30.5447 32.5322
30.591 32.4811
30.6372 32.4885
30.6835 32.456
30.7297 32.5372
30.7761 32.447
30.8224 32.5156
30.8686 32.5602
30.915 32.3423
30.9612 32.0867
31.0076 31.8187
31.0538 31.6994
31.1002 31.6142
31.1464 31.5092
31.1928 31.4124
31.2391 31.3616
31.2855 31.3735
31.3317 31.2147
31.3781 31.3114
31.4244 31.292
31.4708 31.139
31.5171 31.1517
31.5636 31.2862
31.6098 31.1652
31.6563 31.0252
31.7026 30.8908
31.7491 30.589
31.7953 30.6362
31.8418 30.3704
31.8881 30.4992
31.9346 30.3777
31.9809 30.4368
32.0275 30.3325
32.074 30.4504
32.1203 30.0846
32.1668 30.0316
32.2132 29.8622
32.2597 29.7536
32.306 29.623
32.3526 29.4435
32.399 29.3406
32.4455 29.1865
32.4919 29.0059
32.5385 29.0141
32.5848 28.7897
32.6314 28.9187
32.6778 28.7306
32.7244 28.5708
32.7708 28.5757
32.8174 28.511
32.8638 28.4213
32.9104 28.498
32.9569 28.4001
33.0035 28.2437
33.0499 28.2725
33.0966 28.0784
33.143 28.1512
33.1897 27.9697
33.2361 27.957
33.2828 27.8514
33.3293 27.8289
33.3759 27.8068
33.4226 27.7352
33.4691 27.5777
33.5158 27.4249
33.5623 27.2498
33.609 27.1264
33.6555 26.9632
33.7022 27.0076
33.7487 26.8239
33.7954 26.8709
33.842 26.6997
33.8887 26.6489
33.9353 26.5715
33.982 26.4894
34.0286 26.4467
34.0753 26.3917
34.1219 26.2496
34.1687 26.1337
34.2152 26.0939
34.262 25.9936
34.3086 25.8855
34.3554 25.8478
34.402 25.6768
34.4488 25.658
34.4954 25.5496
34.5422 25.588
34.5889 25.3525
34.6357 25.3446
34.6825 25.2083
34.7292 25.2167
34.776 25.072
34.8227 24.9668
34.8695 24.9824
34.9162 24.9548
34.9631 24.8426
35.0098 24.7951
35.0566 24.6344
35.1033 24.638
35.1502 24.5192
35.1969 24.5187
35.2438 24.3956
35.2906 24.3917
35.3375 24.3122
35.3842 24.2693
35.4311 24.2025
35.4779 24.1961
35.5248 24.1635
35.5716 24.153
35.6185 23.9631
35.6653 23.9102
35.7123 23.8776
35.759 23.7919
35.806 23.6826
35.8528 23.4665
35.8998 23.518
35.9468 23.3423
35.9936 23.3277
36.0406 23.3273
36.0874 23.2294
36.1345 23.2241
36.1813 23.0852
36.2283 23.0138
36.2752 22.8914
36.3222 22.9114
36.3691 22.8265
36.4161 22.6277
36.463 22.8138
36.5101 22.696
36.557 22.548
36.6041 22.4345
36.651 22.4639
36.6981 22.4088
36.745 22.3258
36.7921 22.3103
36.839 22.1988
36.8861 22.0975
36.9331 22.0495
36.9802 21.985
37.0272 21.8355
37.0743 21.6811
37.1213 21.737
37.1684 21.7232
37.2154 21.6335
37.2626 21.5044
37.3098 21.4944
37.3568 21.4079
37.404 21.3705
37.451 21.2641
37.4982 21.1814
37.5452 21.0766
37.5924 20.9879
37.6395 21.0541
37.6867 20.9177
37.7337 20.8554
37.781 20.7948
37.8281 20.7576
37.8753 20.6411
37.9224 20.5498
37.9697 20.4588
38.0168 20.4166
38.064 20.3836
38.1111 20.3749
38.1584 20.2122
38.2056 20.1883
38.2529 20.1493
38.3 20.104
38.3473 20.0075
38.3945 19.9699
38.4418 19.9108
38.489 19.854
38.5363 19.728
38.5837 19.6449
38.6309 19.6487
38.6782 19.5603
38.7254 19.4841
38.7728 19.4491
38.82 19.3428
38.8674 19.2715
38.9146 19.2777
38.9621 19.2234
39.0093 19.1306
39.0567 19.1003
39.104 19.0895
39.1514 18.9205
39.1987 18.9781
39.2461 18.8867
39.2934 18.8201
39.3409 18.6736
39.3882 18.6198
39.4356 18.5432
39.483 18.5381
39.5304 18.4976
39.5778 18.4381
39.6253 18.3083
39.6726 18.2984
39.7201 18.2558
39.7675 18.2126
39.815 18.1243
39.8624 18.0759
39.9099 18.0756
39.9575 17.9729
40.0049 17.8569
40.0525 17.8391
40.0999 17.8306
40.1474 17.7243
40.1949 17.7143
40.2425 17.6221
40.2899 17.5588
40.3375 17.5414
40.385 17.4315
40.4326 17.4522
40.48 17.2945
40.5277 17.3314
40.5752 17.2854
40.6228 17.129
40.6703 17.1152
40.718 17.1195
40.7655 17.0231
40.8132 16.9321
40.8607 16.9101
40.9084 16.8315
40.9559 16.7957
41.0036 16.7815
41.0512 16.6608
41.0989 16.6399
41.1465 16.5812
41.1942 16.5834
41.242 16.4349
41.2896 16.3929
41.3373 16.3432
41.3849 16.2872
41.4327 16.2747
41.4803 16.1727
41.5281 16.1623
41.5758 16.0851
41.6236 16.0059
41.6712 15.9815
41.7191 15.8993
41.7667 15.8935
41.8146 15.83
41.8622 15.7756
41.9101 15.7139
41.9578 15.5998
42.0057 15.6029
42.0534 15.517
42.1013 15.5146
42.149 15.4342
42.1969 15.3504
42.2446 15.3922
42.2925 15.3122
42.3403 15.2484
42.3882 15.2294
42.436 15.1996
42.4839 15.0387
42.5319 15.0504
42.5797 14.994
42.6277 14.9429
42.6755 14.898
42.7235 14.835
42.7713 14.7862
42.8193 14.7285
42.8671 14.7023
42.9152 14.6188
42.963 14.5517
43.0111 14.5327
43.0589 14.4928
43.107 14.3959
43.1549 14.3563
43.2029 14.3009
43.2508 14.3462
43.2989 14.2285
43.3468 14.1581
43.3949 14.1344
43.4429 14.0771
43.491 14.0991
43.5389 14.0338
43.5871 13.9445
43.635 13.9043
43.6832 13.8566
43.7312 13.8118
43.7793 13.75
43.8273 13.7339
43.8755 13.6349
43.9237 13.6446
43.9717 13.5962
44.0199 13.5503
44.068 13.4925
44.1162 13.4434
44.1642 13.3474
44.2125 13.3247
44.2606 13.3034
44.3088 13.1987
44.3569 13.251
44.4052 13.1664
44.4533 13.0927
44.5016 13.0937
44.5497 13.0565
44.598 12.9776
44.6461 12.9189
44.6945 12.866
44.7426 12.8324
44.791 12.7526
44.8391 12.731
44.8875 12.7027
44.9357 12.6474
44.984 12.5861
45.0322 12.5587
45.0806 12.4777
45.1288 12.453
45.1773 12.4101
45.2257 12.3901
45.2739 12.3477
45.3224 12.2978
45.3706 12.258
45.4191 12.1603
45.4673 12.1883
45.5158 12.1553
45.5641 12.0815
45.6126 12.0793
45.6609 11.9793
45.7094 11.9937
45.7577 11.9435
45.8063 11.8579
45.8546 11.8585
45.9031 11.8012
45.9515 11.7818
46.0001 11.7334
46.0484 11.6883
46.097 11.6336
46.1454 11.596
46.194 11.4997
46.2424 11.4795
46.291 11.4643
46.3395 11.4144
46.3881 11.3399
46.4365 11.3304
46.4852 11.2851
46.5337 11.2196
46.5823 11.2365
46.631 11.138
46.6795 11.1361
46.7282 11.0742
46.7767 11.0391
46.8254 10.9895
46.8739 10.9274
46.9226 10.9145
46.9712 10.8446
47.0199 10.8269
47.0685 10.749
47.1173 10.7892
47.1658 10.695
47.2146 10.6949
47.2632 10.6387
47.312 10.6219
47.3606 10.5356
47.4095 10.5253
47.4581 10.4748
47.5069 10.4519
47.5556 10.3915
47.6044 10.3554
47.6531 10.3269
47.702 10.2895
47.7507 10.243
47.7996 10.2183
47.8483 10.2016
47.8972 10.1633
47.9461 10.108
47.9948 10.0406
48.0438 10.0065
48.0925 10.0096
48.1415 9.97445
48.1902 9.89818
48.2392 9.90191
48.288 9.84761
48.337 9.84235
48.3858 9.75598
48.4348 9.78405
48.4837 9.74388
48.5327 9.68301
48.5815 9.66623
48.6306 9.61613
48.6795 9.59517
48.7285 9.52033
48.7774 9.50097
48.8265 9.49185
48.8754 9.3797
48.9245 9.39205
48.9734 9.36901
49.0226 9.3207
49.0715 9.29124
49.1206 9.23452
49.1696 9.19613
49.2188 9.18579
49.2679 9.13182
49.3169 9.09665
49.3661 9.08986
49.4151 9.04789
49.4643 9.04646
49.5134 8.99036
49.5626 8.94555
49.6117 8.88561
49.6609 8.87839
49.71 8.84707
49.7592 8.80368
49.8083 8.7536
49.8576 8.73891
49.9067 8.67608
49.956 8.66515
50.0052 8.62676
50.0545 8.59123
50.1036 8.54599
50.153 8.53018
50.2022 8.49022
50.2515 8.46552
50.3007 8.40431
50.3501 8.37576
50.3993 8.36319
50.4487 8.3641
50.498 8.32185
50.5474 8.28439
50.5966 8.22839
50.6461 8.19663
50.6955 8.17292
50.7448 8.16122
50.7943 8.12392
50.8436 8.09779
50.8931 8.04873
50.9424 8.01749
50.9919 8.00035
51.0413 7.99444
51.0908 7.94116
51.1402 7.9058
51.1897 7.86294
51.2391 7.84633
51.2887 7.80992
51.3381 7.79167
51.3877 7.78589
51.4371 7.72847
51.4867 7.66928
51.5362 7.64177
51.5858 7.58839
51.6353 7.56139
51.6849 7.55369
51.7344 7.53549
51.7841 7.50554
51.8336 7.46544
51.8833 7.41095
51.9328 7.42169
51.9826 7.38247
52.0323 7.32156
52.0818 7.28553
52.1316 7.27056
52.1812 7.24085
52.231 7.22093
52.2806 7.19829
52.3304 7.17813
52.38 7.10579
52.4298 7.11222
52.4794 7.05686
52.5293 7.04758
52.5789 7.02643
52.6288 7.01318
52.6785 6.91525
52.7284 6.93971
52.7781 6.91251
52.828 6.84296
52.8777 6.80245
52.9276 6.81306
52.9774 6.7708
53.0273 6.74642
53.0771 6.72135
53.1271 6.74084
53.1769 6.6525
53.2269 6.65457
53.2767 6.61976
53.3267 6.58422
53.3765 6.57193
53.4266 6.54926
53.4766 6.48394
53.5265 6.42688
53.5765 6.45194
53.6264 6.44404
53.6765 6.36684
53.7264 6.35838
53.7765 6.31104
53.8265 6.31496
53.8766 6.27496
53.9266 6.24889
53.9767 6.22587
54.0267 6.2001
54.0769 6.14434
54.1269 6.10487
54.1771 6.05963
54.2271 6.09438
54.2773 5.99632
54.3274 5.96066
54.3776 5.92795
54.4277 5.90197
54.478 5.89874
54.528 5.78121
54.5783 5.8602
54.6285 5.73503
54.6788 5.71098
54.7289 5.64416
54.7792 5.63321
54.8296 5.57695
54.8798 5.49591
54.9301 5.46879
54.9803 5.46414
55.0307 5.43815
55.0809 5.3418
55.1314 5.36054
55.1816 5.26029
55.232 5.19364
55.2823 5.22227
55.3328 5.17295
55.383 5.08353
55.4335 5.04542
55.4838 4.98744
55.5344 4.94377
55.5847 4.85393
55.6352 4.83931
55.6856 4.8826
55.7361 4.80268