File: XRD/Ni3Fe_FD0108.xy
TT I
1.27165 8.38388
1.31627 7.93857
1.36089 7.34303
1.40551 6.75546
1.45013 7.4421
1.49476 6.68895
1.53938 6.72443
1.584 6.20179
1.62863 5.95167
1.67325 5.96205
1.71787 6.12091
1.7625 5.55887
1.80712 5.17874
1.85174 5.8793
1.89636 5.44203
1.94099 5.39191
1.98562 5.5439
2.03025 5.07951
2.07487 4.99503
2.11949 5.45608
2.16411 4.61297
2.20874 4.74914
2.25338 4.66955
2.298 4.63444
2.34263 4.13892
2.38725 4.20002
2.43188 4.2935
2.4765 3.79364
2.52115 4.51323
2.56577 4.1908
2.6104 4.46875
2.65503 4.4544
2.69965 5.18667
2.7443 5.38682
2.78893 6.20532
2.83356 6.6721
2.87818 8.02235
2.92281 8.73155
2.96744 9.61258
3.01209 10.5421
3.05672 10.8825
3.10135 12.4869
3.14599 13.0342
3.19062 14.048
3.23527 15.3928
3.2799 15.5294
3.32454 16.9608
3.36917 17.6001
3.4138 18.5263
3.45844 18.9759
3.50309 20.2075
3.54773 20.935
3.59237 21.6026
3.637 22.0965
3.68164 22.6989
3.7263 23.9807
3.77094 24.6537
3.81558 25.7167
3.86022 25.9385
3.90486 27.1857
3.9495 27.6526
3.99416 28.6243
4.0388 30.3188
4.08344 31.4366
4.12809 32.5092
4.17273 33.6037
4.21738 35.041
4.26204 36.1204
4.30669 37.4927
4.35133 39.1724
4.39598 40.8443
4.44063 42.5528
4.4853 44.1858
4.52995 46.4987
4.5746 48.6026
4.61925 51.1337
4.6639 53.4283
4.70855 56.0935
4.75322 59.2073
4.79788 62.2167
4.84253 65.3285
4.88719 70.202
4.93184 75.2955
4.97652 82.4976
5.02118 92.4027
5.06583 103.329
5.11049 121.58
5.15515 165.74
5.19981 631.179
5.24449 3776.15
5.28916 7018.93
5.33382 6850.86
5.37848 605.508
5.42315 180.509
5.46783 133.995
5.5125 118.069
5.55716 109.604
5.60183 103.355
5.6465 100.809
5.69117 98.4044
5.73586 96.9724
5.78053 95.9189
5.8252 97.0815
5.86988 101.146
5.91455 109.507
5.95924 132.353
6.00392 321.713
6.0486 1426.59
6.09328 2324.14
6.13795 3917.88
6.18263 876.297
6.22733 138.206
6.27201 93.3355
6.3167 80.2947
6.36138 73.3823
6.40606 68.8151
6.45075 66.3292
6.49545 64.0425
6.54014 61.8847
6.58483 60.5264
6.62952 59.5087
6.67421 58.1582
6.71892 56.5385
6.76361 56.381
6.8083 54.8545
6.853 54.0549
6.89769 53.9837
6.94239 53.1249
6.98711 52.7344
7.03181 52.3509
7.07651 52.0296
7.12121 51.9573
7.16591 51.587
7.21063 50.9608
7.25533 51.2625
7.30004 51.1844
7.34475 51.1853
7.38945 51.6051
7.43416 51.1703
7.47889 51.8188
7.5236 57.7117
7.56831 70.9808
7.61303 56.8901
7.65774 52.8464
7.70247 53.258
7.74719 53.8331
7.79191 53.7908
7.83663 54.1533
7.88135 55.428
7.92607 56.4327
7.97081 57.76
8.01553 58.4791
8.06026 59.6758
8.10498 60.9296
8.14971 62.8655
8.19446 64.6323
8.23919 66.9984
8.28392 69.9285
8.32865 72.7694
8.37339 77.6764
8.41812 84.0052
8.46288 97.3452
8.50761 183.627
8.55235 636.664
8.59709 791.642
8.64183 1248.27
8.68658 1707.43
8.73134 510.526
8.77609 124.364
8.82083 99.0333
8.86558 91.8296
8.91033 87.6655
8.9551 84.6915
8.99985 83.3568
9.04461 82.4062
9.08936 81.7793
9.13412 80.8569
9.17888 80.7979
9.22365 90.2378
9.26841 109.804
9.31318 91.6031
9.35794 82.2093
9.4027 81.245
9.44749 82.103
9.49226 82.4642
9.53703 83.1811
9.5818 85.1073
9.62657 86.0303
9.67134 87.6327
9.71614 89.7663
9.76091 92.2058
9.80569 94.787
9.85047 98.3965
9.89525 103.893
9.94005 115.101
9.98484 194.878
10.0296 577.071
10.0744 688.801
10.1192 847.093
10.164 1536.6
10.2088 1147.48
10.2536 256.505
10.2984 120.272
10.3432 108.944
10.388 104.281
10.4328 123.344
10.4776 223.421
10.5224 248.438
10.5672 281.711
10.612 453.357
10.6568 410.491
10.7017 153.958
10.7465 92.9967
10.7913 83.1662
10.8361 80.1541
10.8809 77.4734
10.9257 74.6992
10.9706 73.6892
11.0154 71.7226
11.0602 70.3144
11.105 69.4522
11.1499 67.6116
11.1947 67.101
11.2395 65.9183
11.2844 65.2279
11.3292 64.5879
11.374 63.7784
11.4189 63.3603
11.4637 62.6109
11.5086 62.0324
11.5534 61.618
11.5983 61.0879
11.6431 61.3395
11.688 60.6124
11.7328 60.8049
11.7777 60.4271
11.8225 60.0825
11.8674 60.4978
11.9122 62.2819
11.9571 68.0075
12.002 67.543
12.0468 68.5448
12.0917 92.1933
12.1366 106.728
12.1814 107.876
12.2263 132.933
12.2712 183.001
12.3161 151.979
12.3609 79.1683
12.4058 63.9582
12.4507 62.8656
12.4956 62.3929
12.5405 62.127
12.5853 62.7849
12.6302 62.9433
12.6751 63.6788
12.72 64.4027
12.7649 65.416
12.8098 65.8765
12.8547 67.2974
12.8996 68.3588
12.9445 70.1498
12.9894 72.14
13.0343 74.3225
13.0792 78.7059
13.1242 87.1851
13.1691 136.878
13.214 191.628
13.2589 190.293
13.3038 211.134
13.3487 308.207
13.3937 390.63
13.4386 241.042
13.4835 127.317
13.5285 159.595
13.5734 183.092
13.6183 174.642
13.6633 205.129
13.7082 298.265
13.7531 321.84
13.7981 174.398
13.843 91.1315
13.888 80.4232
13.9329 77.0832
13.9779 75.1345
14.0228 73.8765
14.0678 72.0097
14.1127 72.3834
14.1577 75.6884
14.2027 73.7033
14.2476 70.2499
14.2926 68.5839
14.3376 68.0927
14.3825 67.7959
14.4275 67.42
14.4725 67.2138
14.5175 67.2999
14.5624 67.5528
14.6074 67.5665
14.6524 68.1594
14.6974 68.8923
14.7424 70.7604
14.7874 80.6356
14.8324 109.247
14.8774 120.538
14.9224 117.249
14.9674 130.14
15.0124 172.435
15.0574 207.125
15.1024 153.792
15.1474 86.3929
15.1924 71.3375
15.2374 68.5209
15.2824 66.9991
15.3274 66.2161
15.3725 65.4776
15.4175 65.3528
15.4625 64.7038
15.5076 64.4805
15.5526 64.6344
15.5976 64.8861
15.6426 65.6717
15.6877 73.5034
15.7327 96.8844
15.7778 107.769
15.8228 104.02
15.8679 110.711
15.9129 136.92
15.958 179.024
16.003 164.173
16.0481 97.2188
16.0931 67.737
16.1382 61.679
16.1833 60.1313
16.2283 58.404
16.2734 57.2433
16.3185 56.6858
16.3636 56.0944
16.4086 55.0838
16.4537 55.0679
16.4988 54.3678
16.5439 54.1834
16.589 54.0752
16.6341 53.6016
16.6792 53.2285
16.7243 53.5418
16.7694 53.318
16.8145 53.4578
16.8596 53.6753
16.9047 54.068
16.9498 54.5567
16.9949 54.3623
17.04 54.5457
17.0851 55.8615
17.1302 60.6306
17.1754 63.9251
17.2205 63.705
17.2656 64.3248
17.3108 68.3277
17.3559 75.3918
17.401 81.2133
17.4462 73.4412
17.4913 62.0267
17.5365 58.4493
17.5815 58.2462
17.6268 58.5869
17.6718 58.9147
17.7171 59.319
17.7622 60.7413
17.8074 61.4595
17.8525 63.2952
17.8977 71.7626
17.9428 84.371
17.9881 87.7425
18.0331 86.2244
18.0784 90.1704
18.1237 104.268
18.1688 132.926
18.214 146.76
18.2591 117.808
18.3044 87.6547
18.3495 81.9479
18.3948 88.8966
18.4399 100.02
18.4852 98.1754
18.5303 79.5811
18.5756 65.6329
18.6207 61.7447
18.666 60.1984
18.7112 59.2505
18.7565 58.5668
18.8016 58.033
18.8469 57.4736
18.892 57.2569
18.9374 56.5586
18.9825 56.3211
19.0278 56.0238
19.073 56.0686
19.1183 56.6987
19.1635 59.294
19.2088 61.5235
19.254 61.3537
19.2993 61.323
19.3447 62.8234
19.3898 66.0119
19.4352 71.2898
19.4804 72.9015
19.5257 65.7623
19.5709 56.8145
19.6163 53.5652
19.6615 53.1835
19.7068 52.5811
19.752 52.6449
19.7974 52.8124
19.8426 54.0704
19.888 56.3862
19.9332 57.8007
19.9786 57.7234
20.0238 57.2615
20.0692 59.824
20.1144 64.3378
20.1598 70.629
20.205 71.1093
20.2504 65.4927
20.2957 59.7191
20.3411 59.323
20.3863 62.3027
20.4318 64.1126
20.477 60.1254
20.5224 53.5112
20.5677 50.5518
20.6131 49.7919
20.6586 49.2115
20.7038 48.9591
20.7493 48.7411
20.7945 48.6134
20.84 48.6978
20.8853 48.2656
20.9307 47.9643
20.976 48.3127
21.0215 48.6502
21.0668 48.7604
21.1122 48.894
21.1575 48.7349
21.203 48.6031
21.2483 49.1987
21.2938 50.4459
21.3391 50.8265
21.3846 50.3397
21.4299 48.9444
21.4754 48.1323
21.5207 48.1434
21.5662 48.4412
21.6116 48.7283
21.6571 50.8209
21.7024 52.7609
21.7479 53.431
21.7933 53.0657
21.8388 54.0563
21.8843 56.3625
21.9297 59.5779
21.9752 63.7017
22.0206 65.3429
22.0661 61.2538
22.1115 55.9193
22.157 54.2741
22.2024 55.2839
22.248 55.0706
22.2933 52.7233
22.3389 49.9913
22.3843 48.7761
22.4299 48.2219
22.4753 48.2338
22.5208 48.172
22.5662 48.1026
22.6118 48.3195
22.6572 48.51
22.7028 49.7075
22.7483 51.0512
22.7939 51.4066
22.8393 50.9956
22.8849 51.2448
22.9303 51.7882
22.9759 52.9206
23.0214 55.1485
23.067 57.5578
23.1126 56.6387
23.1581 52.5654
23.2037 49.6601
23.2492 48.8587
23.2948 49.1712
23.3403 50.6455
23.3859 51.4618
23.4314 51.1367
23.477 50.7901
23.5225 50.8677
23.5682 51.7324
23.6137 53.7058
23.6593 56.2274
23.7048 57.0921
23.7505 54.0157
23.796 49.5505
23.8417 46.648
23.8872 45.6885
23.9329 45.19
23.9784 44.8363
24.0241 44.4422
24.0697 44.3946
24.1154 43.7766
24.1609 43.7695
24.2066 43.5193
24.2522 43.2549
24.2979 43.2478
24.3434 43.0089
24.3892 42.9202
24.4349 42.677
24.4805 42.4947
24.5262 42.474
24.5718 42.3196
24.6175 42.4661
24.6631 42.6653
24.7089 42.3708
24.7545 42.2662
24.8002 42.0056
24.8458 42.0347
24.8916 42.0747
24.9372 42.2004
24.983 42.3423
25.0286 42.3945
25.0744 42.884
25.12 43.1665
25.1658 43.5567
25.2114 43.7075
25.2572 44.018
25.3029 44.2206
25.3487 44.0134
25.3943 44.0584
25.4402 44.2817
25.4858 44.4039
25.5316 43.1255
25.5773 41.6135
25.6231 40.9315
25.669 40.4579
25.7147 40.2257
25.7605 40.3459
25.8062 40.4473
25.8521 40.7236
25.8977 40.5055
25.9436 40.3793
25.9893 40.3965
26.0352 40.5317
26.0809 40.5673
26.1268 40.9109
26.1725 41.2075
26.2184 41.473
26.2641 41.1665
26.31 40.7462
26.3557 40.449
26.4017 40.371
26.4474 40.3261
26.4933 40.3403
26.5391 40.5631
26.585 40.7523
26.6308 40.911
26.6767 41.3126
26.7225 41.902
26.7684 42.1688
26.8142 41.7514
26.8601 40.9428
26.9059 40.4725
26.9519 40.0531
26.9979 39.7318
27.0437 39.1366
27.0896 38.7837
27.1354 38.581
27.1814 38.5736
27.2272 38.4432
27.2732 38.5092
27.3191 38.2141
27.3651 38.1948
27.4109 38.139
27.4569 38.1541
27.5027 38.0402
27.5488 38.1328
27.5946 38.1952
27.6407 38.2547
27.6865 38.4701
27.7326 38.1601
27.7784 38.1855
27.8245 37.9455
27.8703 37.8406
27.9164 38.0049
27.9623 37.9648
28.0084 37.9858
28.0543 38.3256
28.1003 38.4354
28.1462 38.6898
28.1923 38.9214
28.2384 38.5002
28.2843 37.9737
28.3304 37.6455
28.3764 37.3196
28.4225 36.8714
28.4684 36.4652
28.5145 36.0011
28.5605 35.8334
28.6066 35.5167
28.6526 35.4434
28.6987 35.4682
28.7447 35.1813
28.7908 35.1586
28.8368 35.0641
28.8829 34.9614
28.9289 35.0234
28.9751 34.9763
29.0211 34.9325
29.0673 34.781
29.1133 34.6403
29.1595 34.3914
29.2055 34.2811
29.2517 33.9606
29.2977 33.8946
29.3439 33.9213
29.3899 33.7864
29.4361 33.7195
29.4824 33.8035
29.5284 33.7768
29.5746 33.6163
29.6207 33.197
29.6669 32.9217
29.713 32.7921
29.7593 32.6611
29.8053 32.5961
29.8516 32.6028
29.8977 32.555
29.9439 32.415
29.99 32.3612
30.0363 32.2777
30.0824 32.2547
30.1287 32.1316
30.1748 32.0897
30.2211 32.1
30.2673 31.8755
30.3136 32.194
30.3597 32.2196
30.406 32.276
30.4522 32.0394
30.4985 31.9012
30.5447 31.921
30.591 31.7823
30.6372 31.884
30.6835 31.7224
30.7297 31.8214
30.7761 31.8638
30.8224 31.8723
30.8686 32.0211
30.915 31.6587
30.9612 31.6104
31.0076 31.2928
31.0538 31.0975
31.1002 31.1446
31.1464 30.8903
31.1928 30.9093
31.2391 30.8232
31.2855 30.7467
31.3317 30.6658
31.3781 30.6667
31.4244 30.5334
31.4708 30.6377
31.5171 30.5161
31.5636 30.6627
31.6098 30.6524
31.6563 30.5265
31.7026 30.3384
31.7491 30.1182
31.7953 30.0524
31.8418 30.043
31.8881 29.8774
31.9346 29.9299
31.9809 29.8602
32.0275 29.8576
32.074 29.8439
32.1203 29.6742
32.1668 29.5738
32.2132 29.324
32.2597 29.2913
32.306 29.1756
32.3526 28.8778
32.399 28.8353
32.4455 28.618
32.4919 28.5059
32.5385 28.5506
32.5848 28.372
32.6314 28.3968
32.6778 28.2267
32.7244 28.1795
32.7708 27.9183
32.8174 28.0857
32.8638 27.8373
32.9104 27.8801
32.9569 27.8837
33.0035 27.7359
33.0499 27.6599
33.0966 27.6633
33.143 27.5398
33.1897 27.402
33.2361 27.4451
33.2828 27.3516
33.3293 27.3096
33.3759 27.3548
33.4226 27.206
33.4691 27.0525
33.5158 26.9698
33.5623 26.8581
33.609 26.5804
33.6555 26.6168
33.7022 26.4417
33.7487 26.344
33.7954 26.2783
33.842 26.1968
33.8887 26.1569
33.9353 26.1278
33.982 26.0459
34.0286 25.9891
34.0753 25.8588
34.1219 25.7721
34.1687 25.6866
34.2152 25.5838
34.262 25.4928
34.3086 25.3339
34.3554 25.349
34.402 25.1767
34.4488 25.1701
34.4954 25.1287
34.5422 25.0316
34.5889 24.8886
34.6357 24.821
34.6825 24.7525
34.7292 24.7419
34.776 24.5415
34.8227 24.5599
34.8695 24.4598
34.9162 24.4
34.9631 24.4274
35.0098 24.3592
35.0566 24.1902
35.1033 24.1207
35.1502 24.0482
35.1969 24.0807
35.2438 24.0444
35.2906 23.872
35.3375 23.8682
35.3842 23.7799
35.4311 23.7623
35.4779 23.7174
35.5248 23.7816
35.5716 23.6137
35.6185 23.5905
35.6653 23.5115
35.7123 23.4622
35.759 23.3699
35.806 23.1961
35.8528 23.1593
35.8998 23.1096
35.9468 23.0437
35.9936 22.8882
36.0406 22.8769
36.0874 22.783
36.1345 22.7538
36.1813 22.7449
36.2283 22.5548
36.2752 22.4511
36.3222 22.5135
36.3691 22.4819
36.4161 22.3067
36.463 22.2669
36.5101 22.3282
36.557 22.1744
36.6041 22.0169
36.651 22.0634
36.6981 22.0379
36.745 21.8943
36.7921 21.8374
36.839 21.7486
36.8861 21.714
36.9331 21.6001
36.9802 21.5447
37.0272 21.4718
37.0743 21.4172
37.1213 21.3317
37.1684 21.2982
37.2154 21.2128
37.2626 21.1497
37.3098 21.1478
37.3568 21.0134
37.404 20.9693
37.451 20.8668
37.4982 20.7854
37.5452 20.7093
37.5924 20.6116
37.6395 20.6773
37.6867 20.6256
37.7337 20.4073
37.781 20.3922
37.8281 20.3804
37.8753 20.2612
37.9224 20.2043
37.9697 20.2054
38.0168 20.131
38.064 20.054
38.1111 20.0316
38.1584 19.8834
38.2056 19.7606
38.2529 19.7959
38.3 19.6844
38.3473 19.6777
38.3945 19.521
38.4418 19.5185
38.489 19.4525
38.5363 19.3362
38.5837 19.3492
38.6309 19.3096
38.6782 19.1817
38.7254 19.1634
38.7728 19.0694
38.82 19.0558
38.8674 18.9917
38.9146 18.9062
38.9621 18.8588
39.0093 18.7992
39.0567 18.6917
39.104 18.6204
39.1514 18.5219
39.1987 18.5673
39.2461 18.5336
39.2934 18.4016
39.3409 18.3529
39.3882 18.3027
39.4356 18.2061
39.483 18.162
39.5304 18.115
39.5778 18.0783
39.6253 17.9718
39.6726 17.9239
39.7201 17.888
39.7675 17.8165
39.815 17.7844
39.8624 17.688
39.9099 17.6917
39.9575 17.6584
40.0049 17.5896
40.0525 17.5074
40.0999 17.457
40.1474 17.4372
40.1949 17.2931
40.2425 17.2091
40.2899 17.2137
40.3375 17.1703
40.385 17.1546
40.4326 17.1041
40.48 17.0111
40.5277 16.9858
40.5752 16.8925
40.6228 16.88
40.6703 16.7423
40.718 16.7583
40.7655 16.7242
40.8132 16.6906
40.8607 16.6719
40.9084 16.6204
40.9559 16.488
41.0036 16.4776
41.0512 16.4013
41.0989 16.333
41.1465 16.2495
41.1942 16.241
41.242 16.1641
41.2896 16.0999
41.3373 16.0264
41.3849 16.0608
41.4327 16.0127
41.4803 15.8788
41.5281 15.8632
41.5758 15.8019
41.6236 15.7137
41.6712 15.6283
41.7191 15.6516
41.7667 15.5593
41.8146 15.4831
41.8622 15.4788
41.9101 15.4854
41.9578 15.345
42.0057 15.3756
42.0534 15.2495
42.1013 15.2017
42.149 15.1599
42.1969 15.0711
42.2446 15.0906
42.2925 15.066
42.3403 15.006
42.3882 14.8917
42.436 14.9071
42.4839 14.8306
42.5319 14.8287
42.5797 14.7093
42.6277 14.645
42.6755 14.6268
42.7235 14.5763
42.7713 14.5361
42.8193 14.5105
42.8671 14.4084
42.9152 14.3601
42.963 14.3416
43.0111 14.266
43.0589 14.2454
43.107 14.1652
43.1549 14.1805
43.2029 14.0692
43.2508 14.0247
43.2989 13.969
43.3468 13.9532
43.3949 13.8803
43.4429 13.8527
43.491 13.8318
43.5389 13.7163
43.5871 13.7242
43.635 13.6921
43.6832 13.604
43.7312 13.5615
43.7793 13.4815
43.8273 13.488
43.8755 13.3907
43.9237 13.3799
43.9717 13.3168
44.0199 13.2469
44.068 13.2759
44.1162 13.1671
44.1642 13.2151
44.2125 13.0885
44.2606 13.0814
44.3088 13.0064
44.3569 12.9617
44.4052 12.9088
44.4533 12.9128
44.5016 12.7898
44.5497 12.792
44.598 12.7365
44.6461 12.7127
44.6945 12.6445
44.7426 12.6123
44.791 12.5412
44.8391 12.5041
44.8875 12.4724
44.9357 12.4132
44.984 12.3458
45.0322 12.3232
45.0806 12.2877
45.1288 12.2417
45.1773 12.2149
45.2257 12.1745
45.2739 12.0909
45.3224 12.0509
45.3706 12.0154
45.4191 12.0088
45.4673 11.9652
45.5158 11.9465
45.5641 11.8361
45.6126 11.8699
45.6609 11.8084
45.7094 11.7242
45.7577 11.691
45.8063 11.6634
45.8546 11.5876
45.9031 11.5613
45.9515 11.5069
46.0001 11.4908
46.0484 11.4698
46.097 11.3876
46.1454 11.3497
46.194 11.3468
46.2424 11.2919
46.291 11.2057
46.3395 11.1755
46.3881 11.1332
46.4365 11.177
46.4852 11.0401
46.5337 11.0092
46.5823 11.029
46.631 10.9895
46.6795 10.9479
46.7282 10.9084
46.7767 10.8944
46.8254 10.7644
46.8739 10.7689
46.9226 10.7534
46.9712 10.6545
47.0199 10.6098
47.0685 10.6107
47.1173 10.581
47.1658 10.4975
47.2146 10.4894
47.2632 10.4352
47.312 10.3881
47.3606 10.3779
47.4095 10.3004
47.4581 10.3194
47.5069 10.2504
47.5556 10.2144
47.6044 10.1819
47.6531 10.0996
47.702 10.0902
47.7507 10.075
47.7996 10.0005
47.8483 9.99819
47.8972 9.949
47.9461 9.93764
47.9948 9.86341
48.0438 9.86006
48.0925 9.82326
48.1415 9.78496
48.1902 9.78077
48.2392 9.72851
48.288 9.68195
48.337 9.63577
48.3858 9.58318
48.4348 9.57369
48.4837 9.55426
48.5327 9.50363
48.5815 9.46026
48.6306 9.42469
48.6795 9.39967
48.7285 9.37254
48.7774 9.32853
48.8265 9.29536
48.8754 9.22648
48.9245 9.22243
48.9734 9.18485
49.0226 9.16256
49.0715 9.11072
49.1206 9.05339
49.1696 9.09751
49.2188 9.03335
49.2679 8.98284
49.3169 8.94266
49.3661 8.90401
49.4151 8.89528
49.4643 8.8706
49.5134 8.81495
49.5626 8.78041
49.6117 8.74839
49.6609 8.72294
49.71 8.65097
49.7592 8.67283
49.8083 8.62651
49.8576 8.62003
49.9067 8.56415
49.956 8.523
50.0052 8.47443
50.0545 8.46626
50.1036 8.4285
50.153 8.39319
50.2022 8.39477
50.2515 8.32558
50.3007 8.26509
50.3501 8.24677
50.3993 8.24583
50.4487 8.21499
50.498 8.19139
50.5474 8.15037
50.5966 8.11499
50.6461 8.0611
50.6955 8.0392
50.7448 8.02865
50.7943 7.99012
50.8436 7.95033
50.8931 7.91735
50.9424 7.91002
50.9919 7.85015
51.0413 7.84677
51.0908 7.79168
51.1402 7.77639
51.1897 7.75432
51.2391 7.70601
51.2887 7.7151
51.3381 7.60922
51.3877 7.62436
51.4371 7.56908
51.4867 7.56992
51.5362 7.53651
51.5858 7.49427
51.6353 7.44786
51.6849 7.41584
51.7344 7.37797
51.7841 7.37988
51.8336 7.33635
51.8833 7.30237
51.9328 7.28261
51.9826 7.23668
52.0323 7.18601
52.0818 7.19252
52.1316 7.12223
52.1812 7.14007
52.231 7.09206
52.2806 7.06368
52.3304 7.05753
52.38 6.99759
52.4298 6.95167
52.4794 6.96218
52.5293 6.92811
52.5789 6.8662
52.6288 6.88463
52.6785 6.77316
52.7284 6.79729
52.7781 6.7696
52.828 6.78562
52.8777 6.70969
52.9276 6.69049
52.9774 6.66202
53.0273 6.64981
53.0771 6.63171
53.1271 6.61828
53.1769 6.55193
53.2269 6.50937
53.2767 6.50253
53.3267 6.47009
53.3765 6.4781
53.4266 6.46091
53.4766 6.39203
53.5265 6.37135
53.5765 6.35396
53.6264 6.30309
53.6765 6.24891
53.7264 6.227
53.7765 6.24379
53.8265 6.16287
53.8766 6.14936
53.9266 6.11828
53.9767 6.12354
54.0267 6.10933
54.0769 6.01391
54.1269 5.97332
54.1771 6.0231
54.2271 5.94528
54.2773 5.90175
54.3274 5.85462
54.3776 5.84455
54.4277 5.77108
54.478 5.7556
54.528 5.72388
54.5783 5.69362
54.6285 5.59491
54.6788 5.5758
54.7289 5.56023
54.7792 5.54991
54.8296 5.43766
54.8798 5.36957
54.9301 5.34831
54.9803 5.31978
55.0307 5.31563
55.0809 5.2719
55.1314 5.20329
55.1816 5.16498
55.232 5.1053
55.2823 5.07331
55.3328 5.00659
55.383 4.9022
55.4335 4.92699
55.4838 4.88898
55.5344 4.84518
55.5847 4.77036
55.6352 4.72878
55.6856 4.72154
55.7361 4.72687