File: XRD/Ni3Fe_FD0598.xy
TT I
1.27165 7.20125
1.31627 6.23718
1.36089 6.32827
1.40551 5.94078
1.45013 5.69459
1.49476 5.94165
1.53938 5.37297
1.584 4.54425
1.62863 5.25897
1.67325 5.52188
1.71787 4.77606
1.7625 4.89834
1.80712 4.8826
1.85174 5.00057
1.89636 4.91767
1.94099 5.3806
1.98562 5.02032
2.03025 4.40542
2.07487 4.54151
2.11949 4.65566
2.16411 4.02569
2.20874 7.60022
2.25338 11.5985
2.298 5.37934
2.34263 5.61583
2.38725 5.43378
2.43188 5.81798
2.4765 6.24206
2.52115 7.10634
2.56577 6.86436
2.6104 8.16169
2.65503 6.82978
2.69965 8.07172
2.7443 7.82049
2.78893 7.66772
2.83356 8.31349
2.87818 8.68286
2.92281 9.25363
2.96744 9.45983
3.01209 10.4747
3.05672 10.7677
3.10135 12.3512
3.14599 13.2783
3.19062 14.5347
3.23527 15.296
3.2799 15.7235
3.32454 16.5981
3.36917 17.5614
3.4138 18.8223
3.45844 19.4461
3.50309 20.6175
3.54773 21.2749
3.59237 23.0452
3.637 48.9122
3.68164 36.8101
3.7263 25.3116
3.77094 26.2658
3.81558 26.9079
3.86022 26.9823
3.90486 28.8971
3.9495 29.3454
3.99416 30.9514
4.0388 31.7572
4.08344 33.7122
4.12809 34.4664
4.17273 35.9848
4.21738 39.896
4.26204 119.166
4.30669 103.013
4.35133 44.4077
4.39598 43.333
4.44063 48.7927
4.4853 54.3376
4.52995 55.9713
4.5746 56.315
4.61925 53.475
4.6639 55.9881
4.70855 58.6009
4.75322 62.5409
4.79788 67.8859
4.84253 68.7589
4.88719 75.455
4.93184 77.4821
4.97652 82.2628
5.02118 88.9747
5.06583 97.0698
5.11049 108.928
5.15515 160.282
5.19981 479.919
5.24449 3248.78
5.28916 12240.2
5.33382 2741.05
5.37848 203.793
5.42315 133.478
5.46783 120.278
5.5125 111.984
5.55716 103.386
5.60183 99.3045
5.6465 97.4164
5.69117 95.6911
5.73586 93.9406
5.78053 97.7108
5.8252 97.6338
5.86988 100.248
5.91455 97.5083
5.95924 109.173
6.00392 277.942
6.0486 1108.01
6.09328 4390.56
6.13795 3315.68
6.18263 235.316
6.22733 93.0495
6.27201 82.0041
6.3167 85.7074
6.36138 74.8487
6.40606 70.2872
6.45075 69.5835
6.49545 65.6788
6.54014 63.8131
6.58483 63.4775
6.62952 63.1847
6.67421 73.4512
6.71892 91.5427
6.76361 62.4577
6.8083 59.4721
6.853 59.6549
6.89769 56.6929
6.94239 56.4903
6.98711 56.004
7.03181 56.0487
7.07651 55.038
7.12121 55.0088
7.16591 56.0519
7.21063 55.4402
7.25533 60.4804
7.30004 100.456
7.34475 67.9039
7.38945 55.3205
7.43416 54.1571
7.47889 54.3353
7.5236 54.5271
7.56831 55.219
7.61303 56.0965
7.65774 56.4678
7.70247 56.9789
7.74719 56.6504
7.79191 56.6664
7.83663 57.0363
7.88135 57.8615
7.92607 58.7527
7.97081 59.994
8.01553 61.2315
8.06026 62.8451
8.10498 64.7402
8.14971 70.8757
8.19446 70.5659
8.23919 69.8059
8.28392 72.4853
8.32865 74.8948
8.37339 79.4782
8.41812 85.1019
8.46288 106.444
8.50761 198.548
8.55235 437.382
8.59709 1258.8
8.64183 2204.38
8.68658 922.081
8.73134 155.678
8.77609 99.8657
8.82083 93.5992
8.86558 92.8795
8.91033 91.9211
8.9551 90.0117
8.99985 85.9667
9.04461 84.8438
9.08936 84.6058
9.13412 83.6102
9.17888 82.9828
9.22365 82.8776
9.26841 82.769
9.31318 85.1438
9.35794 86.5525
9.4027 86.2223
9.44749 85.5238
9.49226 85.5961
9.53703 86.4385
9.5818 89.4986
9.62657 94.0598
9.67134 96.0558
9.71614 94.0325
9.76091 95.6516
9.80569 99.6688
9.85047 102.085
9.89525 113.419
9.94005 131.684
9.98484 211.117
10.0296 382.23
10.0744 877.744
10.1192 1721.97
10.164 1499.55
10.2088 361.768
10.2536 124.283
10.2984 111.2
10.3432 109.352
10.388 106.95
10.4328 128.181
10.4776 171.57
10.5224 302.088
10.5672 514.402
10.612 477.01
10.6568 188.693
10.7017 94.9306
10.7465 87.0264
10.7913 83.6289
10.8361 81.5509
10.8809 79.2442
10.9257 78.4012
10.9706 78.134
11.0154 75.3434
11.0602 73.4212
11.105 72.0159
11.1499 72.737
11.1947 74.7168
11.2395 70.8152
11.2844 68.9298
11.3292 67.3541
11.374 66.6988
11.4189 66.066
11.4637 65.0723
11.5086 65.1032
11.5534 65.9521
11.5983 64.5042
11.6431 63.8742
11.688 63.2339
11.7328 63.32
11.7777 62.8959
11.8225 63.1218
11.8674 62.831
11.9122 63.1763
11.9571 63.4964
12.002 65.3195
12.0468 70.4635
12.0917 81.8479
12.1366 107.364
12.1814 156.832
12.2263 203.786
12.2712 161.946
12.3161 89.865
12.3609 67.355
12.4058 64.5362
12.4507 64.8131
12.4956 65.2266
12.5405 65.6444
12.5853 66.0896
12.6302 68.7525
12.6751 71.2522
12.72 68.6536
12.7649 68.2273
12.8098 69.0762
12.8547 70.2383
12.8996 72.0652
12.9445 73.5164
12.9894 75.1348
13.0343 76.9345
13.0792 81.4191
13.1242 96.1655
13.1691 117.817
13.214 158.562
13.2589 253.676
13.3038 378.085
13.3487 420.302
13.3937 250.639
13.4386 122.124
13.4835 111.181
13.5285 126.93
13.5734 169.045
13.6183 255.971
13.6633 349.585
13.7082 328.477
13.7531 179.151
13.7981 96.6015
13.843 82.1587
13.888 80.0415
13.9329 77.6832
13.9779 76.3815
14.0228 74.8571
14.0678 73.5106
14.1127 73.0394
14.1577 72.3626
14.2027 71.8663
14.2476 70.8427
14.2926 70.6231
14.3376 70.8451
14.3825 70.1686
14.4275 69.4821
14.4725 69.3778
14.5175 69.4543
14.5624 69.5908
14.6074 70.6769
14.6524 71.015
14.6974 71.2982
14.7424 75.3884
14.7874 82.5536
14.8324 92.7099
14.8774 116.84
14.9224 159.49
14.9674 211.683
15.0124 212.957
15.0574 143.512
15.1024 88.3302
15.1474 72.5789
15.1924 70.858
15.2374 70.3641
15.2824 69.2036
15.3274 68.1029
15.3725 67.3489
15.4175 66.9479
15.4625 66.3916
15.5076 66.4008
15.5526 66.4757
15.5976 66.8407
15.6426 69.4959
15.6877 74.9984
15.7327 82.8294
15.7778 99.7651
15.8228 131.786
15.8679 174.219
15.9129 192.787
15.958 149.607
16.003 92.4432
16.0481 67.2157
16.0931 63.6099
16.1382 61.6944
16.1833 60.8065
16.2283 59.3981
16.2734 58.7713
16.3185 58.3108
16.3636 58.1256
16.4086 57.2022
16.4537 56.5838
16.4988 55.8597
16.5439 55.8594
16.589 55.467
16.6341 55.1827
16.6792 54.8757
16.7243 55.1486
16.7694 55.2381
16.8145 55.0114
16.8596 55.2913
16.9047 55.9973
16.9498 56.216
16.9949 55.8953
17.04 56.6597
17.0851 58.0727
17.1302 59.4273
17.1754 62.735
17.2205 68.0847
17.2656 75.4237
17.3108 82.8442
17.3559 82.4076
17.401 71.2016
17.4462 62.4267
17.4913 59.8264
17.5365 59.6811
17.5815 59.8649
17.6268 60.2672
17.6718 60.9896
17.7171 61.1719
17.7622 61.9349
17.8074 63.2852
17.8525 66.3971
17.8977 70.0017
17.9428 75.6682
17.9881 85.6892
18.0331 103.263
18.0784 124.393
18.1237 141.594
18.1688 131.799
18.214 102.316
18.2591 87.4479
18.3044 92.2857
18.3495 101.283
18.3948 105.906
18.4399 94.9665
18.4852 76.5812
18.5303 65.8824
18.5756 62.628
18.6207 61.4687
18.666 60.8064
18.7112 60.1339
18.7565 59.4162
18.8016 59.1345
18.8469 58.5378
18.892 58.0016
18.9374 57.5626
18.9825 57.2963
19.0278 57.1852
19.073 57.4844
19.1183 57.9831
19.1635 58.3883
19.2088 60.0099
19.254 63.0672
19.2993 67.3824
19.3447 72.7148
19.3898 75.9064
19.4352 71.6689
19.4804 62.8455
19.5257 56.7355
19.5709 54.4081
19.6163 54.166
19.6615 54.151
19.7068 53.7509
19.752 53.8217
19.7974 54.335
19.8426 54.9474
19.888 55.6114
19.9332 56.9572
19.9786 59.8732
20.0238 63.6314
20.0692 68.1685
20.1144 70.1124
20.1598 68.1984
20.205 63.5502
20.2504 62.3248
20.2957 64.0557
20.3411 65.7035
20.3863 63.9009
20.4318 58.1523
20.477 53.5576
20.5224 51.396
20.5677 50.8916
20.6131 50.4735
20.6586 50.0689
20.7038 49.8115
20.7493 49.2751
20.7945 49.3294
20.84 49.1646
20.8853 49.012
20.9307 49.0477
20.976 49.1633
21.0215 49.0028
21.0668 49.2852
21.1122 49.9095
21.1575 50.4216
21.203 51.2784
21.2483 51.6291
21.2938 51.625
21.3391 50.28
21.3846 49.1687
21.4299 48.8336
21.4754 48.7599
21.5207 48.9187
21.5662 49.4261
21.6116 49.9801
21.6571 50.6175
21.7024 51.4754
21.7479 53.3024
21.7933 56.2882
21.8388 59.7322
21.8843 63.3635
21.9297 65.1072
21.9752 63.2443
22.0206 59.6981
22.0661 56.5255
22.1115 56.2987
22.157 56.314
22.2024 54.4166
22.248 51.4935
22.2933 50.0388
22.3389 49.3985
22.3843 49.2388
22.4299 49.0128
22.4753 48.9957
22.5208 48.9464
22.5662 48.8179
22.6118 49.037
22.6572 49.3852
22.7028 49.7021
22.7483 50.27
22.7939 50.9583
22.8393 52.6882
22.8849 54.7434
22.9303 56.5937
22.9759 58.2746
23.0214 57.4231
23.067 54.2172
23.1126 50.9996
23.1581 49.3048
23.2037 49.128
23.2492 49.3425
23.2948 49.2229
23.3403 49.457
23.3859 50.5615
23.4314 51.4717
23.477 53.408
23.5225 55.2815
23.5682 57.2084
23.6137 58.2113
23.6593 55.678
23.7048 51.5597
23.7505 48.293
23.796 46.8311
23.8417 46.1603
23.8872 45.8859
23.9329 45.5798
23.9784 45.0364
24.0241 44.8716
24.0697 44.7437
24.1154 44.3802
24.1609 44.1255
24.2066 44.1138
24.2522 44.0124
24.2979 43.6615
24.3434 43.473
24.3892 43.4949
24.4349 43.5201
24.4805 43.2509
24.5262 43.5049
24.5718 43.1455
24.6175 43.1723
24.6631 43.0737
24.7089 42.7691
24.7545 42.654
24.8002 42.519
24.8458 42.6261
24.8916 42.3104
24.9372 42.5345
24.983 42.8809
25.0286 43.2633
25.0744 43.736
25.12 44.0641
25.1658 44.7824
25.2114 44.9527
25.2572 45.2163
25.3029 45.0324
25.3487 45.0684
25.3943 44.7261
25.4402 43.6201
25.4858 42.5451
25.5316 41.5399
25.5773 41.1456
25.6231 41.1446
25.669 40.7022
25.7147 40.7247
25.7605 40.6468
25.8062 40.8433
25.8521 40.9651
25.8977 40.8547
25.9436 41.1733
25.9893 41.3218
26.0352 41.8598
26.0809 41.745
26.1268 42.0404
26.1725 41.5049
26.2184 40.9426
26.2641 40.4366
26.31 40.4364
26.3557 40.4398
26.4017 40.3828
26.4474 40.7647
26.4933 41.1202
26.5391 41.6365
26.585 42.0076
26.6308 42.5109
26.6767 42.4418
26.7225 42.2112
26.7684 41.6998
26.8142 41.158
26.8601 40.7098
26.9059 40.2616
26.9519 39.6711
26.9979 39.4645
27.0437 39.1052
27.0896 38.769
27.1354 39.094
27.1814 38.8266
27.2272 38.7622
27.2732 38.7589
27.3191 38.6759
27.3651 38.7874
27.4109 38.5782
27.4569 38.8085
27.5027 38.761
27.5488 38.9334
27.5946 38.7691
27.6407 38.3907
27.6865 38.2902
27.7326 38.1692
27.7784 38.0748
27.8245 37.9774
27.8703 38.362
27.9164 38.6338
27.9623 38.6605
28.0084 39.0168
28.0543 39.3328
28.1003 39.3005
28.1462 39.0786
28.1923 38.5945
28.2384 38.0717
28.2843 37.8849
28.3304 37.3816
28.3764 36.9347
28.4225 36.6166
28.4684 36.579
28.5145 36.2395
28.5605 36.1652
28.6066 36.0013
28.6526 35.8919
28.6987 35.8402
28.7447 35.7643
28.7908 35.6355
28.8368 35.7083
28.8829 35.6471
28.9289 35.5391
28.9751 35.407
29.0211 35.1643
29.0673 34.8559
29.1133 34.6717
29.1595 34.6472
29.2055 34.5841
29.2517 34.5329
29.2977 34.4489
29.3439 34.4548
29.3899 34.388
29.4361 34.3484
29.4824 34.1487
29.5284 33.8938
29.5746 33.614
29.6207 33.3543
29.6669 33.3066
29.713 33.1312
29.7593 33.0046
29.8053 33.1557
29.8516 33.0067
29.8977 33.1497
29.9439 32.8737
29.99 32.7715
30.0363 32.6044
30.0824 32.7589
30.1287 32.6219
30.1748 32.7252
30.2211 32.6742
30.2673 32.5003
30.3136 32.642
30.3597 32.4508
30.406 32.3547
30.4522 32.1864
30.4985 32.3031
30.5447 32.3788
30.591 32.309
30.6372 32.3816
30.6835 32.4189
30.7297 32.4371
30.7761 32.3736
30.8224 32.2269
30.8686 32.0265
30.915 31.8166
30.9612 31.6632
31.0076 31.576
31.0538 31.3447
31.1002 31.3714
31.1464 31.1551
31.1928 31.194
31.2391 31.219
31.2855 31.0678
31.3317 31.0027
31.3781 31.1744
31.4244 31.087
31.4708 31.0762
31.5171 31.0078
31.5636 30.9976
31.6098 30.6705
31.6563 30.4622
31.7026 30.5184
31.7491 30.348
31.7953 30.4064
31.8418 30.3783
31.8881 30.3906
31.9346 30.2765
31.9809 30.2121
32.0275 30.0421
32.074 29.9614
32.1203 29.6852
32.1668 29.7044
32.2132 29.5654
32.2597 29.4401
32.306 29.3801
32.3526 29.1043
32.399 29.0065
32.4455 28.9991
32.4919 28.9543
32.5385 28.792
32.5848 28.6398
32.6314 28.6351
32.6778 28.6349
32.7244 28.538
32.7708 28.316
32.8174 28.355
32.8638 28.1695
32.9104 28.1911
32.9569 28.1991
33.0035 28.0443
33.0499 28.0187
33.0966 27.9645
33.143 27.9617
33.1897 27.9382
33.2361 27.7475
33.2828 27.7285
33.3293 27.5579
33.3759 27.5372
33.4226 27.3993
33.4691 27.206
33.5158 27.1883
33.5623 27.0294
33.609 26.92
33.6555 26.8503
33.7022 26.7404
33.7487 26.7059
33.7954 26.7071
33.842 26.5027
33.8887 26.5117
33.9353 26.3995
33.982 26.2998
34.0286 26.1981
34.0753 26.1564
34.1219 26.0705
34.1687 25.9617
34.2152 25.8947
34.262 25.8522
34.3086 25.7098
34.3554 25.7321
34.402 25.5276
34.4488 25.4197
34.4954 25.4155
34.5422 25.2679
34.5889 25.2305
34.6357 25.2157
34.6825 25.1034
34.7292 24.9908
34.776 24.8724
34.8227 24.9025
34.8695 24.7665
34.9162 24.7159
34.9631 24.6476
35.0098 24.6771
35.0566 24.478
35.1033 24.4331
35.1502 24.4975
35.1969 24.3183
35.2438 24.3366
35.2906 24.2311
35.3375 24.25
35.3842 24.064
35.4311 24.0983
35.4779 24.1333
35.5248 24.0119
35.5716 23.8847
35.6185 23.8332
35.6653 23.7258
35.7123 23.7137
35.759 23.597
35.806 23.4414
35.8528 23.4155
35.8998 23.3503
35.9468 23.2434
35.9936 23.234
36.0406 23.212
36.0874 23.1079
36.1345 23.0364
36.1813 22.9046
36.2283 22.8578
36.2752 22.8061
36.3222 22.7704
36.3691 22.7077
36.4161 22.6618
36.463 22.5568
36.5101 22.5168
36.557 22.4581
36.6041 22.3213
36.651 22.2662
36.6981 22.255
36.745 22.2048
36.7921 22.0972
36.839 21.9322
36.8861 21.8576
36.9331 21.867
36.9802 21.8203
37.0272 21.7321
37.0743 21.6491
37.1213 21.6291
37.1684 21.5362
37.2154 21.48
37.2626 21.3435
37.3098 21.3722
37.3568 21.2999
37.404 21.1939
37.451 21.054
37.4982 21.084
37.5452 20.9637
37.5924 20.8841
37.6395 20.9
37.6867 20.7761
37.7337 20.7417
37.781 20.7102
37.8281 20.5906
37.8753 20.5233
37.9224 20.4708
37.9697 20.375
38.0168 20.361
38.064 20.2203
38.1111 20.1673
38.1584 20.0926
38.2056 20.0833
38.2529 20.0771
38.3 19.8466
38.3473 19.9317
38.3945 19.8122
38.4418 19.7926
38.489 19.749
38.5363 19.5793
38.5837 19.5263
38.6309 19.5047
38.6782 19.3823
38.7254 19.3582
38.7728 19.3181
38.82 19.2094
38.8674 19.2616
38.9146 19.1685
38.9621 19.0057
39.0093 18.9798
39.0567 18.9579
39.104 18.8758
39.1514 18.8534
39.1987 18.7605
39.2461 18.727
39.2934 18.6606
39.3409 18.5757
39.3882 18.4316
39.4356 18.4006
39.483 18.4265
39.5304 18.3436
39.5778 18.3619
39.6253 18.2562
39.6726 18.1988
39.7201 18.1556
39.7675 18.1531
39.815 18.0579
39.8624 17.9698
39.9099 17.9677
39.9575 17.8362
40.0049 17.7209
40.0525 17.6717
40.0999 17.7203
40.1474 17.6154
40.1949 17.5096
40.2425 17.5132
40.2899 17.4338
40.3375 17.4596
40.385 17.2863
40.4326 17.2625
40.48 17.2086
40.5277 17.1763
40.5752 17.0989
40.6228 17.004
40.6703 16.9751
40.718 16.9731
40.7655 16.943
40.8132 16.8367
40.8607 16.8504
40.9084 16.7909
40.9559 16.6505
41.0036 16.6403
41.0512 16.5354
41.0989 16.5321
41.1465 16.4775
41.1942 16.4288
41.242 16.3134
41.2896 16.3234
41.3373 16.3103
41.3849 16.2137
41.4327 16.1005
41.4803 16.0509
41.5281 16.0324
41.5758 15.9793
41.6236 15.9679
41.6712 15.8241
41.7191 15.8206
41.7667 15.7505
41.8146 15.7208
41.8622 15.6594
41.9101 15.6305
41.9578 15.5108
42.0057 15.4965
42.0534 15.4412
42.1013 15.3978
42.149 15.3417
42.1969 15.2939
42.2446 15.2175
42.2925 15.205
42.3403 15.1686
42.3882 15.1118
42.436 15.0558
42.4839 14.9844
42.5319 14.9844
42.5797 14.924
42.6277 14.8854
42.6755 14.8552
42.7235 14.7449
42.7713 14.7327
42.8193 14.6431
42.8671 14.5973
42.9152 14.5442
42.963 14.5145
43.0111 14.4639
43.0589 14.4086
43.107 14.302
43.1549 14.3285
43.2029 14.2585
43.2508 14.21
43.2989 14.1306
43.3468 14.0901
43.3949 14.0956
43.4429 13.9842
43.491 13.977
43.5389 13.9402
43.5871 13.8378
43.635 13.7811
43.6832 13.7615
43.7312 13.6801
43.7793 13.6552
43.8273 13.5958
43.8755 13.5385
43.9237 13.5385
43.9717 13.4796
44.0199 13.4551
44.068 13.4298
44.1162 13.3753
44.1642 13.3225
44.2125 13.2724
44.2606 13.1933
44.3088 13.1086
44.3569 13.1165
44.4052 13.0604
44.4533 13.0054
44.5016 12.9819
44.5497 12.9583
44.598 12.8772
44.6461 12.8898
44.6945 12.8188
44.7426 12.7221
44.791 12.6704
44.8391 12.6918
44.8875 12.624
44.9357 12.5572
44.984 12.5108
45.0322 12.4528
45.0806 12.4182
45.1288 12.3998
45.1773 12.3254
45.2257 12.3192
45.2739 12.2181
45.3224 12.2386
45.3706 12.2025
45.4191 12.0972
45.4673 12.1239
45.5158 12.0648
45.5641 11.9889
45.6126 11.9646
45.6609 11.8956
45.7094 11.8585
45.7577 11.8391
45.8063 11.7803
45.8546 11.7025
45.9031 11.6913
45.9515 11.6207
46.0001 11.6253
46.0484 11.5519
46.097 11.5099
46.1454 11.5304
46.194 11.4684
46.2424 11.4507
46.291 11.3886
46.3395 11.3482
46.3881 11.2428
46.4365 11.2693
46.4852 11.1921
46.5337 11.1975
46.5823 11.1664
46.631 11.0643
46.6795 11.0167
46.7282 11.0346
46.7767 10.9939
46.8254 10.9114
46.8739 10.8756
46.9226 10.8106
46.9712 10.8286
47.0199 10.7844
47.0685 10.7112
47.1173 10.68
47.1658 10.6878
47.2146 10.5778
47.2632 10.5343
47.312 10.5822
47.3606 10.4833
47.4095 10.4729
47.4581 10.3952
47.5069 10.3555
47.5556 10.3265
47.6044 10.3636
47.6531 10.2413
47.702 10.1751
47.7507 10.1925
47.7996 10.1213
47.8483 10.0969
47.8972 10.078
47.9461 10.0237
47.9948 9.9621
48.0438 9.9773
48.0925 9.94305
48.1415 9.89052
48.1902 9.82996
48.2392 9.82787
48.288 9.79187
48.337 9.75751
48.3858 9.69448
48.4348 9.63746
48.4837 9.6759
48.5327 9.61427
48.5815 9.58237
48.6306 9.5356
48.6795 9.50464
48.7285 9.47978
48.7774 9.45635
48.8265 9.41612
48.8754 9.34539
48.9245 9.32787
48.9734 9.28786
49.0226 9.27309
49.0715 9.23692
49.1206 9.18538
49.1696 9.1487
49.2188 9.12015
49.2679 9.07768
49.3169 9.04682
49.3661 9.00851
49.4151 8.95533
49.4643 8.97641
49.5134 8.94192
49.5626 8.83935
49.6117 8.82868
49.6609 8.84719
49.71 8.74875
49.7592 8.73532
49.8083 8.68474
49.8576 8.66459
49.9067 8.67163
49.956 8.59272
50.0052 8.52551
50.0545 8.54224
50.1036 8.49642
50.153 8.48162
50.2022 8.43316
50.2515 8.41605
50.3007 8.35508
50.3501 8.35623
50.3993 8.33586
50.4487 8.29291
50.498 8.24457
50.5474 8.18501
50.5966 8.18038
50.6461 8.17589
50.6955 8.1352
50.7448 8.09715
50.7943 8.08908
50.8436 8.0338
50.8931 7.97502
50.9424 7.9453
50.9919 7.91508
51.0413 7.9007
51.0908 7.87095
51.1402 7.80365
51.1897 7.79244
51.2391 7.80455
51.2887 7.76296
51.3381 7.70127
51.3877 7.66414
51.4371 7.6451
51.4867 7.60085
51.5362 7.59697
51.5858 7.55551
51.6353 7.5306
51.6849 7.47088
51.7344 7.47003
51.7841 7.46112
51.8336 7.40484
51.8833 7.38661
51.9328 7.31572
51.9826 7.3022
52.0323 7.28532
52.0818 7.24912
52.1316 7.18836
52.1812 7.21479
52.231 7.17195
52.2806 7.12505
52.3304 7.08981
52.38 7.08213
52.4298 7.04088
52.4794 6.99296
52.5293 6.9642
52.5789 6.93545
52.6288 6.92514
52.6785 6.91484
52.7284 6.86248
52.7781 6.86585
52.828 6.8017
52.8777 6.80368
52.9276 6.76448
52.9774 6.70361
53.0273 6.7073
53.0771 6.65991
53.1271 6.65806
53.1769 6.63208
53.2269 6.56955
53.2767 6.57
53.3267 6.50396
53.3765 6.49662
53.4266 6.46801
53.4766 6.47512
53.5265 6.43648
53.5765 6.36426
53.6264 6.3602
53.6765 6.31819
53.7264 6.31416
53.7765 6.27863
53.8265 6.25799
53.8766 6.20268
53.9266 6.1873
53.9767 6.18804
54.0267 6.16115
54.0769 6.06403
54.1269 6.05656
54.1771 6.05341
54.2271 6.07021
54.2773 5.9865
54.3274 5.96629
54.3776 5.91633
54.4277 5.85941
54.478 5.91483
54.528 5.79043
54.5783 5.81355
54.6285 5.72037
54.6788 5.69499
54.7289 5.64333
54.7792 5.65282
54.8296 5.57622
54.8798 5.55295
54.9301 5.52919
54.9803 5.45507
55.0307 5.45167
55.0809 5.41486
55.1314 5.39885
55.1816 5.30682
55.232 5.27444
55.2823 5.28629
55.3328 5.18428
55.383 5.14736
55.4335 5.09579
55.4838 5.02975
55.5344 5.01629
55.5847 4.98627
55.6352 4.95777
55.6856 4.9072
55.7361 4.89787