File: XRD/Ni3Fe_FD0675.xy
TT I
1.27165 7.4615
1.31627 6.6295
1.36089 6.86336
1.40551 6.0892
1.45013 6.57074
1.49476 6.07156
1.53938 5.91088
1.584 5.21213
1.62863 4.89174
1.67325 5.06238
1.71787 5.1516
1.7625 4.69588
1.80712 4.54976
1.85174 4.5715
1.89636 4.82296
1.94099 4.50917
1.98562 5.06083
2.03025 4.50105
2.07487 4.25402
2.11949 4.71823
2.16411 5.23849
2.20874 11.9405
2.25338 16.3416
2.298 6.00611
2.34263 5.73778
2.38725 6.22307
2.43188 5.95919
2.4765 6.57114
2.52115 6.71923
2.56577 7.44396
2.6104 7.81069
2.65503 8.61538
2.69965 8.51835
2.7443 7.71931
2.78893 7.77583
2.83356 8.49354
2.87818 8.50082
2.92281 8.46474
2.96744 9.53655
3.01209 9.96481
3.05672 10.7772
3.10135 12.0718
3.14599 13.1263
3.19062 13.8846
3.23527 14.9364
3.2799 15.7681
3.32454 16.7782
3.36917 17.6892
3.4138 19.0074
3.45844 19.7454
3.50309 21.1193
3.54773 21.6337
3.59237 23.4438
3.637 69.9809
3.68164 46.907
3.7263 26.1115
3.77094 26.2298
3.81558 26.9371
3.86022 27.6016
3.90486 28.774
3.9495 29.6532
3.99416 30.5936
4.0388 31.9515
4.08344 33.5567
4.12809 33.9146
4.17273 35.8778
4.21738 41.0397
4.26204 182.137
4.30669 155.303
4.35133 46.2387
4.39598 44.0935
4.44063 51.094
4.4853 58.7936
4.52995 50.9368
4.5746 52.2229
4.61925 53.8487
4.6639 55.5525
4.70855 58.269
4.75322 61.3653
4.79788 64.6492
4.84253 68.0335
4.88719 71.9259
4.93184 75.3803
4.97652 81.8269
5.02118 87.7418
5.06583 95.4817
5.11049 106.64
5.15515 162.176
5.19981 391.819
5.24449 2987.46
5.28916 12428.7
5.33382 2658.92
5.37848 182.95
5.42315 128.078
5.46783 113.737
5.5125 106.277
5.55716 101.728
5.60183 97.9695
5.6465 96.5819
5.69117 94.1457
5.73586 92.6594
5.78053 92.8196
5.8252 92.1303
5.86988 93.5425
5.91455 95.5909
5.95924 104.712
6.00392 230.551
6.0486 1007.73
6.09328 4548.32
6.13795 3223.5
6.18263 227.282
6.22733 91.3531
6.27201 81.7499
6.3167 92.9546
6.36138 77.0367
6.40606 68.8057
6.45075 67.3655
6.49545 65.3761
6.54014 63.6234
6.58483 62.3262
6.62952 62.0708
6.67421 83.1068
6.71892 115.423
6.76361 65.0081
6.8083 58.1948
6.853 57.5396
6.89769 56.5777
6.94239 56.0275
6.98711 55.4718
7.03181 55.4794
7.07651 54.8129
7.12121 55.0243
7.16591 55.0212
7.21063 54.8023
7.25533 65.1747
7.30004 137.293
7.34475 78.7747
7.38945 55.8804
7.43416 53.973
7.47889 54.2404
7.5236 54.3508
7.56831 55.1108
7.61303 56.4894
7.65774 56.3042
7.70247 55.9524
7.74719 55.6588
7.79191 56.5403
7.83663 56.6592
7.88135 57.592
7.92607 58.6383
7.97081 59.67
8.01553 60.6071
8.06026 62.1873
8.10498 63.8077
8.14971 70.9031
8.19446 70.4991
8.23919 69.3873
8.28392 71.7063
8.32865 74.2235
8.37339 78.437
8.41812 84.7759
8.46288 108.512
8.50761 177.971
8.55235 407.59
8.59709 1227.35
8.64183 2215.31
8.68658 908.226
8.73134 154.259
8.77609 98.6089
8.82083 92.4155
8.86558 89.7647
8.91033 89.3277
8.9551 89.5834
8.99985 84.8724
9.04461 83.6642
9.08936 82.8232
9.13412 81.9356
9.17888 81.9348
9.22365 82.0537
9.26841 82.1831
9.31318 82.8474
9.35794 83.4937
9.4027 83.7113
9.44749 84.125
9.49226 84.7723
9.53703 85.6112
9.5818 87.237
9.62657 91.6916
9.67134 95.4456
9.71614 93.1835
9.76091 94.1076
9.80569 97.3662
9.85047 100.391
9.89525 117.371
9.94005 132.063
9.98484 190.178
10.0296 362.07
10.0744 842.936
10.1192 1792.95
10.164 1561.6
10.2088 370.825
10.2536 123.408
10.2984 110.665
10.3432 111.06
10.388 104.649
10.4328 122.275
10.4776 164.168
10.5224 290.135
10.5672 514.092
10.612 494.413
10.6568 191.784
10.7017 94.8046
10.7465 86.2442
10.7913 82.8995
10.8361 80.8434
10.8809 78.6185
10.9257 77.6678
10.9706 77.8516
11.0154 74.5748
11.0602 72.4273
11.105 71.2139
11.1499 73.8791
11.1947 78.2837
11.2395 71.9715
11.2844 69.2128
11.3292 66.6822
11.374 65.87
11.4189 65.1613
11.4637 64.8507
11.5086 64.9689
11.5534 66.5154
11.5983 64.9088
11.6431 63.2778
11.688 62.8434
11.7328 62.6231
11.7777 62.7726
11.8225 62.4443
11.8674 62.1265
11.9122 62.5622
11.9571 62.8355
12.002 63.7547
12.0468 68.4846
12.0917 79.5741
12.1366 104.674
12.1814 153.885
12.2263 204.162
12.2712 159.794
12.3161 89.9237
12.3609 68.5581
12.4058 64.09
12.4507 64.0433
12.4956 64.0026
12.5405 64.366
12.5853 65.2818
12.6302 70.4046
12.6751 74.1183
12.72 68.8365
12.7649 67.753
12.8098 68.1144
12.8547 69.4962
12.8996 71.1104
12.9445 72.2308
12.9894 73.9775
13.0343 75.7045
13.0792 79.5168
13.1242 90.6803
13.1691 114.16
13.214 152.236
13.2589 247.234
13.3038 378.701
13.3487 420.973
13.3937 250.884
13.4386 120.466
13.4835 107.43
13.5285 122.631
13.5734 162.38
13.6183 255.11
13.6633 355.63
13.7082 326.692
13.7531 170.771
13.7981 93.4856
13.843 81.3482
13.888 79.5091
13.9329 77.0068
13.9779 75.6157
14.0228 74.2846
14.0678 72.9133
14.1127 72.4369
14.1577 72.0004
14.2027 71.2898
14.2476 70.3402
14.2926 70.1288
14.3376 70.6631
14.3825 69.8302
14.4275 68.751
14.4725 68.6069
14.5175 68.5692
14.5624 68.9706
14.6074 70.2933
14.6524 70.9049
14.6974 70.379
14.7424 72.603
14.7874 79.8543
14.8324 89.9152
14.8774 112.578
14.9224 157.646
14.9674 212.902
15.0124 216.399
15.0574 141.028
15.1024 86.6235
15.1474 71.7749
15.1924 70.2046
15.2374 69.7812
15.2824 69.3967
15.3274 67.547
15.3725 66.691
15.4175 66.403
15.4625 65.8342
15.5076 66.0087
15.5526 65.9463
15.5976 65.7753
15.6426 67.2497
15.6877 73.4438
15.7327 80.6822
15.7778 96.3243
15.8228 129.289
15.8679 175.328
15.9129 194.224
15.958 151.585
16.003 92.3311
16.0481 66.9404
16.0931 63.6014
16.1382 61.9534
16.1833 60.0656
16.2283 58.7158
16.2734 58.1679
16.3185 57.985
16.3636 58.5878
16.4086 57.2666
16.4537 55.9483
16.4988 55.3868
16.5439 55.1899
16.589 55.2208
16.6341 54.6072
16.6792 54.4266
16.7243 54.7374
16.7694 54.7574
16.8145 54.8071
16.8596 54.99
16.9047 56.1724
16.9498 56.2063
16.9949 55.5586
17.04 55.7855
17.0851 57.1309
17.1302 58.8589
17.1754 61.7257
17.2205 67.0649
17.2656 74.8238
17.3108 83.3677
17.3559 81.7646
17.401 69.8771
17.4462 61.1614
17.4913 58.8937
17.5365 58.8519
17.5815 59.0155
17.6268 59.4322
17.6718 60.1622
17.7171 60.7467
17.7622 61.126
17.8074 62.1434
17.8525 64.7761
17.8977 68.6853
17.9428 74.2667
17.9881 83.4379
18.0331 101.729
18.0784 124.522
18.1237 142.447
18.1688 130.649
18.214 100.894
18.2591 86.0597
18.3044 91.1063
18.3495 100.568
18.3948 105.61
18.4399 94.0918
18.4852 75.529
18.5303 65.1021
18.5756 61.8436
18.6207 60.9404
18.666 60.2239
18.7112 59.4983
18.7565 58.8042
18.8016 58.5697
18.8469 57.857
18.892 57.7398
18.9374 57.1586
18.9825 56.7854
19.0278 56.5451
19.073 56.7782
19.1183 57.2837
19.1635 58.0123
19.2088 59.4533
19.254 62.2992
19.2993 67.1838
19.3447 73.2438
19.3898 76.4463
19.4352 71.3404
19.4804 62.3085
19.5257 56.2976
19.5709 54.0114
19.6163 53.6813
19.6615 53.4488
19.7068 53.2236
19.752 53.1926
19.7974 53.4707
19.8426 54.5396
19.888 55.0295
19.9332 56.2506
19.9786 58.9523
20.0238 62.9158
20.0692 67.5881
20.1144 69.8249
20.1598 67.6187
20.205 62.9324
20.2504 62.3119
20.2957 64.257
20.3411 65.5132
20.3863 63.3805
20.4318 57.3962
20.477 52.9132
20.5224 51.132
20.5677 50.8163
20.6131 50.2385
20.6586 49.6097
20.7038 49.4195
20.7493 49.0107
20.7945 48.9341
20.84 48.7376
20.8853 48.8091
20.9307 48.5576
20.976 48.7975
21.0215 48.5353
21.0668 48.6822
21.1122 49.3106
21.1575 49.988
21.203 50.907
21.2483 51.343
21.2938 51.1295
21.3391 49.7856
21.3846 48.5757
21.4299 48.5135
21.4754 48.3557
21.5207 48.5299
21.5662 48.8379
21.6116 49.2662
21.6571 49.7645
21.7024 50.9674
21.7479 52.8365
21.7933 55.6475
21.8388 59.3429
21.8843 63.0888
21.9297 64.9057
21.9752 62.8208
22.0206 58.8788
22.0661 56.2383
22.1115 56.14
22.157 55.9617
22.2024 53.8825
22.248 51.1692
22.2933 49.5894
22.3389 48.9563
22.3843 48.8013
22.4299 48.6691
22.4753 48.5712
22.5208 48.3799
22.5662 48.35
22.6118 48.7554
22.6572 48.9004
22.7028 49.1561
22.7483 49.8447
22.7939 50.4711
22.8393 52.258
22.8849 54.3555
22.9303 56.2132
22.9759 57.9072
23.0214 57.1923
23.067 53.9656
23.1126 50.7352
23.1581 49.0184
23.2037 48.5846
23.2492 48.8514
23.2948 48.7839
23.3403 49.0868
23.3859 49.6903
23.4314 50.8344
23.477 52.7792
23.5225 55.06
23.5682 57.2056
23.6137 57.8116
23.6593 55.2981
23.7048 50.997
23.7505 47.9223
23.796 46.473
23.8417 45.7556
23.8872 45.551
23.9329 44.9896
23.9784 44.8579
24.0241 44.5606
24.0697 44.268
24.1154 44.0977
24.1609 43.873
24.2066 43.7189
24.2522 43.5007
24.2979 43.3201
24.3434 43.2912
24.3892 42.9766
24.4349 42.9239
24.4805 42.9468
24.5262 43.0665
24.5718 42.902
24.6175 42.9066
24.6631 42.6411
24.7089 42.34
24.7545 42.258
24.8002 42.1152
24.8458 42.2142
24.8916 41.9717
24.9372 42.1248
24.983 42.5544
25.0286 42.8963
25.0744 43.2513
25.12 43.6826
25.1658 44.2889
25.2114 44.628
25.2572 44.6506
25.3029 44.7799
25.3487 44.8694
25.3943 44.4957
25.4402 43.2838
25.4858 42.2982
25.5316 41.2707
25.5773 40.8076
25.6231 40.8481
25.669 40.4083
25.7147 40.4207
25.7605 40.3746
25.8062 40.3261
25.8521 40.6463
25.8977 40.5314
25.9436 40.715
25.9893 40.8524
26.0352 41.431
26.0809 41.5969
26.1268 41.6182
26.1725 41.2372
26.2184 40.6197
26.2641 40.1902
26.31 39.9723
26.3557 40.0858
26.4017 40.1027
26.4474 40.4808
26.4933 40.5692
26.5391 41.1884
26.585 41.7098
26.6308 42.004
26.6767 42.0667
26.7225 41.8146
26.7684 41.2701
26.8142 40.8152
26.8601 40.3713
26.9059 40.018
26.9519 39.4351
26.9979 39.1181
27.0437 38.7987
27.0896 38.7448
27.1354 38.6889
27.1814 38.459
27.2272 38.4873
27.2732 38.3707
27.3191 38.3908
27.3651 38.4403
27.4109 38.3956
27.4569 38.5581
27.5027 38.573
27.5488 38.5841
27.5946 38.2726
27.6407 38.113
27.6865 38.0483
27.7326 37.8457
27.7784 37.7681
27.8245 37.824
27.8703 37.9375
27.9164 38.3608
27.9623 38.487
28.0084 38.8076
28.0543 39.0012
28.1003 39.0488
28.1462 38.6937
28.1923 38.3125
28.2384 37.9041
28.2843 37.5564
28.3304 36.9173
28.3764 36.5172
28.4225 36.3387
28.4684 36.1805
28.5145 35.9017
28.5605 35.7814
28.6066 35.6947
28.6526 35.5286
28.6987 35.5957
28.7447 35.3924
28.7908 35.2601
28.8368 35.3907
28.8829 35.2705
28.9289 35.1944
28.9751 34.9642
29.0211 34.8879
29.0673 34.5652
29.1133 34.4654
29.1595 34.3325
29.2055 34.2894
29.2517 34.2258
29.2977 34.3069
29.3439 34.1435
29.3899 34.1989
29.4361 34.0974
29.4824 33.9982
29.5284 33.7149
29.5746 33.3124
29.6207 33.1349
29.6669 33.0287
29.713 32.8871
29.7593 32.7555
29.8053 32.7998
29.8516 32.7457
29.8977 32.6914
29.9439 32.5622
29.99 32.5116
30.0363 32.3449
30.0824 32.5258
30.1287 32.318
30.1748 32.4816
30.2211 32.3649
30.2673 32.2239
30.3136 32.2958
30.3597 32.1816
30.406 32.0931
30.4522 31.9873
30.4985 32.0662
30.5447 32.1437
30.591 32.0248
30.6372 32.2019
30.6835 32.1386
30.7297 32.1602
30.7761 32.0739
30.8224 31.9962
30.8686 31.7883
30.915 31.5918
30.9612 31.4093
31.0076 31.2775
31.0538 31.1631
31.1002 31.1058
31.1464 30.8832
31.1928 30.9178
31.2391 30.9254
31.2855 30.7906
31.3317 30.912
31.3781 30.8965
31.4244 30.8458
31.4708 30.7966
31.5171 30.7188
31.5636 30.691
31.6098 30.4019
31.6563 30.3453
31.7026 30.2274
31.7491 30.0465
31.7953 30.2131
31.8418 30.1251
31.8881 30.1724
31.9346 29.912
31.9809 30.0115
32.0275 29.8504
32.074 29.8063
32.1203 29.6255
32.1668 29.4061
32.2132 29.3063
32.2597 29.174
32.306 29.1971
32.3526 28.8588
32.399 28.8743
32.4455 28.812
32.4919 28.5787
32.5385 28.614
32.5848 28.4178
32.6314 28.4674
32.6778 28.3
32.7244 28.2657
32.7708 28.093
32.8174 28.1011
32.8638 28.0275
32.9104 27.9687
32.9569 27.9407
33.0035 27.7562
33.0499 27.8495
33.0966 27.8496
33.143 27.8862
33.1897 27.5345
33.2361 27.5473
33.2828 27.5463
33.3293 27.3845
33.3759 27.337
33.4226 27.2261
33.4691 27.07
33.5158 26.9249
33.5623 26.8548
33.609 26.7068
33.6555 26.656
33.7022 26.5282
33.7487 26.4801
33.7954 26.4906
33.842 26.3265
33.8887 26.3041
33.9353 26.17
33.982 26.1552
34.0286 25.9502
34.0753 25.9581
34.1219 25.9102
34.1687 25.7896
34.2152 25.7563
34.262 25.5858
34.3086 25.53
34.3554 25.5829
34.402 25.3892
34.4488 25.3125
34.4954 25.2079
34.5422 25.071
34.5889 25.046
34.6357 24.959
34.6825 24.9108
34.7292 24.7922
34.776 24.7046
34.8227 24.6997
34.8695 24.5688
34.9162 24.4895
34.9631 24.3683
35.0098 24.3951
35.0566 24.3495
35.1033 24.1975
35.1502 24.2468
35.1969 24.2167
35.2438 24.1516
35.2906 24.0337
35.3375 23.965
35.3842 23.8837
35.4311 23.9466
35.4779 23.9827
35.5248 23.7726
35.5716 23.6934
35.6185 23.7164
35.6653 23.5859
35.7123 23.5672
35.759 23.3923
35.806 23.2756
35.8528 23.1987
35.8998 23.1608
35.9468 23.1094
35.9936 23.0792
36.0406 23.0072
36.0874 22.9563
36.1345 22.8235
36.1813 22.8201
36.2283 22.6233
36.2752 22.5017
36.3222 22.6461
36.3691 22.5014
36.4161 22.3913
36.463 22.5027
36.5101 22.3347
36.557 22.3028
36.6041 22.1273
36.651 22.1948
36.6981 22.0962
36.745 22.007
36.7921 21.922
36.839 21.8471
36.8861 21.7707
36.9331 21.6397
36.9802 21.6342
37.0272 21.5069
37.0743 21.4996
37.1213 21.4165
37.1684 21.3944
37.2154 21.3223
37.2626 21.2213
37.3098 21.1008
37.3568 21.0681
37.404 21.0679
37.451 20.9588
37.4982 20.9246
37.5452 20.7337
37.5924 20.7526
37.6395 20.8111
37.6867 20.649
37.7337 20.5271
37.781 20.4801
37.8281 20.4911
37.8753 20.3574
37.9224 20.3054
37.9697 20.2423
38.0168 20.1415
38.064 20.1304
38.1111 20.0464
38.1584 20.033
38.2056 19.9409
38.2529 19.9017
38.3 19.7761
38.3473 19.7945
38.3945 19.6182
38.4418 19.6119
38.489 19.5494
38.5363 19.545
38.5837 19.4828
38.6309 19.3279
38.6782 19.2705
38.7254 19.243
38.7728 19.1847
38.82 19.0907
38.8674 19.0688
38.9146 19.0476
38.9621 18.8599
39.0093 18.8605
39.0567 18.8319
39.104 18.7445
39.1514 18.6634
39.1987 18.6649
39.2461 18.5966
39.2934 18.514
39.3409 18.414
39.3882 18.4394
39.4356 18.3727
39.483 18.2653
39.5304 18.1831
39.5778 18.1626
39.6253 18.141
39.6726 18.082
39.7201 18.0325
39.7675 17.9154
39.815 17.8505
39.8624 17.8596
39.9099 17.8583
39.9575 17.7089
40.0049 17.6732
40.0525 17.603
40.0999 17.5981
40.1474 17.4874
40.1949 17.4465
40.2425 17.3595
40.2899 17.3382
40.3375 17.1952
40.385 17.2026
40.4326 17.1245
40.48 17.0333
40.5277 17.085
40.5752 16.9606
40.6228 16.8877
40.6703 16.9546
40.718 16.8376
40.7655 16.7852
40.8132 16.7378
40.8607 16.7168
40.9084 16.5851
40.9559 16.5441
41.0036 16.5935
41.0512 16.4971
41.0989 16.4498
41.1465 16.3647
41.1942 16.3051
41.242 16.2033
41.2896 16.1382
41.3373 16.1043
41.3849 16.1506
41.4327 16.039
41.4803 15.9541
41.5281 15.9378
41.5758 15.8336
41.6236 15.7977
41.6712 15.7517
41.7191 15.7155
41.7667 15.6621
41.8146 15.5751
41.8622 15.5182
41.9101 15.5388
41.9578 15.4072
42.0057 15.3822
42.0534 15.3421
42.1013 15.3306
42.149 15.2226
42.1969 15.1776
42.2446 15.1335
42.2925 15.1497
42.3403 15.0576
42.3882 15.0319
42.436 14.9489
42.4839 14.886
42.5319 14.8699
42.5797 14.8104
42.6277 14.6854
42.6755 14.7098
42.7235 14.6333
42.7713 14.6197
42.8193 14.5696
42.8671 14.4784
42.9152 14.4229
42.963 14.3921
43.0111 14.3394
43.0589 14.246
43.107 14.2184
43.1549 14.2001
43.2029 14.1201
43.2508 14.1237
43.2989 14.0517
43.3468 13.9745
43.3949 13.956
43.4429 13.8983
43.491 13.828
43.5389 13.8705
43.5871 13.7521
43.635 13.699
43.6832 13.6653
43.7312 13.6267
43.7793 13.5954
43.8273 13.5217
43.8755 13.4683
43.9237 13.4599
43.9717 13.4219
44.0199 13.4006
44.068 13.3059
44.1162 13.2726
44.1642 13.1935
44.2125 13.1389
44.2606 13.1267
44.3088 13.0874
44.3569 13.0316
44.4052 13.0074
44.4533 12.9083
44.5016 12.8344
44.5497 12.813
44.598 12.7779
44.6461 12.7254
44.6945 12.6799
44.7426 12.6038
44.791 12.6129
44.8391 12.6037
44.8875 12.5279
44.9357 12.4945
44.984 12.4382
45.0322 12.3949
45.0806 12.3363
45.1288 12.2978
45.1773 12.2568
45.2257 12.2024
45.2739 12.1414
45.3224 12.1079
45.3706 12.0903
45.4191 12.0275
45.4673 12.0187
45.5158 11.964
45.5641 11.9345
45.6126 11.8467
45.6609 11.8278
45.7094 11.7686
45.7577 11.7597
45.8063 11.6534
45.8546 11.6396
45.9031 11.6545
45.9515 11.5869
46.0001 11.5607
46.0484 11.4941
46.097 11.4287
46.1454 11.422
46.194 11.3752
46.2424 11.332
46.291 11.266
46.3395 11.2806
46.3881 11.1818
46.4365 11.1844
46.4852 11.1291
46.5337 11.1188
46.5823 11.0745
46.631 11.0002
46.6795 10.9729
46.7282 10.9094
46.7767 10.8703
46.8254 10.8716
46.8739 10.7829
46.9226 10.7762
46.9712 10.722
47.0199 10.6664
47.0685 10.6565
47.1173 10.5634
47.1658 10.5507
47.2146 10.5572
47.2632 10.4895
47.312 10.4789
47.3606 10.4117
47.4095 10.3873
47.4581 10.3465
47.5069 10.2952
47.5556 10.2525
47.6044 10.2128
47.6531 10.1783
47.702 10.1189
47.7507 10.1075
47.7996 10.0651
47.8483 10.0343
47.8972 10.0067
47.9461 9.93867
47.9948 9.9263
48.0438 9.91552
48.0925 9.85275
48.1415 9.82065
48.1902 9.74673
48.2392 9.75113
48.288 9.67661
48.337 9.66909
48.3858 9.66665
48.4348 9.63638
48.4837 9.61216
48.5327 9.57044
48.5815 9.48309
48.6306 9.47363
48.6795 9.46437
48.7285 9.39216
48.7774 9.35671
48.8265 9.34158
48.8754 9.29175
48.9245 9.26701
48.9734 9.21205
49.0226 9.2377
49.0715 9.14777
49.1206 9.11655
49.1696 9.07372
49.2188 9.04703
49.2679 9.02494
49.3169 8.9703
49.3661 8.96095
49.4151 8.92036
49.4643 8.89738
49.5134 8.83306
49.5626 8.77542
49.6117 8.78757
49.6609 8.77176
49.71 8.66614
49.7592 8.68392
49.8083 8.60565
49.8576 8.63348
49.9067 8.53585
49.956 8.53503
50.0052 8.50346
50.0545 8.49769
50.1036 8.4797
50.153 8.43244
50.2022 8.41247
50.2515 8.30909
50.3007 8.30371
50.3501 8.32097
50.3993 8.23652
50.4487 8.20912
50.498 8.2136
50.5474 8.15618
50.5966 8.1188
50.6461 8.07789
50.6955 8.0773
50.7448 8.0158
50.7943 8.00555
50.8436 7.96591
50.8931 7.91559
50.9424 7.89825
50.9919 7.88234
51.0413 7.86005
51.0908 7.80217
51.1402 7.76281
51.1897 7.76202
51.2391 7.73621
51.2887 7.66335
51.3381 7.63495
51.3877 7.64241
51.4371 7.57809
51.4867 7.53371
51.5362 7.50731
51.5858 7.48963
51.6353 7.45854
51.6849 7.43051
51.7344 7.38961
51.7841 7.39078
51.8336 7.33502
51.8833 7.32761
51.9328 7.30932
51.9826 7.21248
52.0323 7.22087
52.0818 7.22093
52.1316 7.17523
52.1812 7.13551
52.231 7.08572
52.2806 7.09902
52.3304 7.03271
52.38 7.03925
52.4298 6.96264
52.4794 6.97299
52.5293 6.92301
52.5789 6.87581
52.6288 6.89437
52.6785 6.8357
52.7284 6.79588
52.7781 6.78271
52.828 6.76025
52.8777 6.70502
52.9276 6.71068
52.9774 6.72087
53.0273 6.68295
53.0771 6.62512
53.1271 6.66356
53.1769 6.5847
53.2269 6.57566
53.2767 6.5127
53.3267 6.44991
53.3765 6.43614
53.4266 6.449
53.4766 6.42207
53.5265 6.41863
53.5765 6.39787
53.6264 6.31146
53.6765 6.3017
53.7264 6.27783
53.7765 6.23346
53.8265 6.19455
53.8766 6.18883
53.9266 6.12041
53.9767 6.09741
54.0267 6.10936
54.0769 6.06519
54.1269 6.0591
54.1771 6.00034
54.2271 5.96402
54.2773 5.92234
54.3274 5.96456
54.3776 5.84038
54.4277 5.85907
54.478 5.84822
54.528 5.8169
54.5783 5.73167
54.6285 5.70602
54.6788 5.65958
54.7289 5.60865
54.7792 5.5839
54.8296 5.5279
54.8798 5.55208
54.9301 5.44054
54.9803 5.44315
55.0307 5.43661
55.0809 5.35334
55.1314 5.34933
55.1816 5.28679
55.232 5.24458
55.2823 5.23423
55.3328 5.13187
55.383 5.1241
55.4335 5.07532
55.4838 4.96813
55.5344 4.93645
55.5847 4.93693
55.6352 4.88125
55.6856 4.82076
55.7361 4.83023