File: XRD/Ni3Fe_FD0030.xy
TT I
1.27165 32.8734
1.31627 32.0281
1.36089 31.8151
1.40551 30.3692
1.45013 28.7341
1.49476 27.9143
1.53938 26.5902
1.584 25.7765
1.62863 25.2809
1.67325 24.1871
1.71787 23.5494
1.7625 23.0133
1.80712 22.9597
1.85174 22.0554
1.89636 22.2572
1.94099 23.1584
1.98562 22.9301
2.03025 22.5097
2.07487 22.7924
2.11949 24.1767
2.16411 24.2816
2.20874 25.9971
2.25338 25.0544
2.298 25.7123
2.34263 24.859
2.38725 24.3122
2.43188 23.8897
2.4765 23.9514
2.52115 24.3672
2.56577 24.8435
2.6104 25.5889
2.65503 26.5094
2.69965 28.2477
2.7443 29.3296
2.78893 31.9391
2.83356 34.0242
2.87818 37.0918
2.92281 41.4163
2.96744 47.7437
3.01209 56.2017
3.05672 64.6273
3.10135 74.4228
3.14599 80.0907
3.19062 80.5412
3.23527 73.3156
3.2799 62.9528
3.32454 52.3668
3.36917 45.0128
3.4138 39.3001
3.45844 36.6291
3.50309 36.0071
3.54773 35.624
3.59237 37.889
3.637 40.9943
3.68164 41.8255
3.7263 40.8321
3.77094 37.8758
3.81558 35.7406
3.86022 34.3664
3.90486 34.358
3.9495 34.3977
3.99416 36.6876
4.0388 38.5477
4.08344 42.0479
4.12809 46.8649
4.17273 56.1032
4.21738 69.2184
4.26204 83.5566
4.30669 91.0831
4.35133 85.2547
4.39598 72.3907
4.44063 63.6638
4.4853 59.398
4.52995 54.2115
4.5746 49.2507
4.61925 47.0531
4.6639 45.3701
4.70855 45.8231
4.75322 47.2061
4.79788 49.2
4.84253 52.3574
4.88719 57.0396
4.93184 62.6201
4.97652 71.9749
5.02118 88.8331
5.06583 113.395
5.11049 140.197
5.15515 188.073
5.19981 290.722
5.24449 599.532
5.28916 1254.47
5.33382 3363.94
5.37848 3576.47
5.42315 1054.96
5.46783 349.414
5.5125 208.171
5.55716 153.791
5.60183 125.367
5.6465 112.967
5.69117 107.149
5.73586 100.357
5.78053 96.912
5.8252 97.2062
5.86988 102.436
5.91455 113.035
5.95924 132.766
6.00392 178.063
6.0486 284.294
6.09328 483.978
6.13795 867.34
6.18263 1294.15
6.22733 706.819
6.27201 290.254
6.3167 158.838
6.36138 106.716
6.40606 83.0841
6.45075 71.1446
6.49545 62.8017
6.54014 58.3853
6.58483 56.2306
6.62952 56.1268
6.67421 56.9243
6.71892 58.5911
6.76361 58.5303
6.8083 55.0537
6.853 51.1528
6.89769 48.4408
6.94239 45.9591
6.98711 43.9268
7.03181 43.0037
7.07651 43.4019
7.12121 44.4402
7.16591 47.3476
7.21063 51.5463
7.25533 59.1346
7.30004 71.4407
7.34475 77.2172
7.38945 69.1918
7.43416 57.9349
7.47889 51.5095
7.5236 54.6556
7.56831 99.1262
7.61303 148.069
7.65774 70.5434
7.70247 44.3026
7.74719 40.2748
7.79191 38.3936
7.83663 37.4585
7.88135 37.4301
7.92607 37.9054
7.97081 38.1835
8.01553 38.5455
8.06026 39.267
8.10498 40.6232
8.14971 42.0848
8.19446 43.6956
8.23919 45.1661
8.28392 47.1573
8.32865 49.0859
8.37339 53.194
8.41812 58.1918
8.46288 67.249
8.50761 81.2882
8.55235 110.286
8.59709 168.911
8.64183 229.057
8.68658 422.259
8.73134 778.787
8.77609 592.823
8.82083 248.27
8.86558 127.332
8.91033 92.4745
8.9551 77.4744
8.99985 70.523
9.04461 65.1181
9.08936 61.4118
9.13412 59.9541
9.17888 60.7485
9.22365 69.3729
9.26841 133.355
9.31318 250.949
9.35794 138.198
9.4027 67.8417
9.44749 57.3018
9.49226 53.9353
9.53703 52.8801
9.5818 53.1404
9.62657 53.2512
9.67134 54.3196
9.71614 56.0565
9.76091 57.5938
9.80569 59.1242
9.85047 62.4638
9.89525 66.715
9.94005 73.1409
9.98484 83.6684
10.0296 105.578
10.0744 148.263
10.1192 189.927
10.164 263.943
10.2088 543.219
10.2536 814.388
10.2984 495.063
10.3432 219.533
10.388 123.819
10.4328 93.6266
10.4776 84.2908
10.5224 87.6586
10.5672 93.0325
10.612 105.376
10.6568 168.677
10.7017 279.117
10.7465 247.043
10.7913 129.89
10.8361 70.6786
10.8809 55.1266
10.9257 49.4055
10.9706 47.161
11.0154 45.7302
11.0602 44.3238
11.105 43.9407
11.1499 43.1056
11.1947 43.2222
11.2395 43.2821
11.2844 43.1129
11.3292 41.7874
11.374 40.5215
11.4189 39.7384
11.4637 38.8428
11.5086 38.6352
11.5534 38.4224
11.5983 38.6446
11.6431 38.6156
11.688 37.687
11.7328 37.5139
11.7777 37.3416
11.8225 37.3913
11.8674 37.9453
11.9122 40.1407
11.9571 47.3505
12.002 75.9775
12.0468 88.1021
12.0917 58.0318
12.1366 47.3021
12.1814 47.9773
12.2263 50.5859
12.2712 57.4159
12.3161 74.9629
12.3609 96.0542
12.4058 86.5
12.4507 61.9182
12.4956 50.0408
12.5405 44.5511
12.5853 42.4546
12.6302 41.6438
12.6751 41.911
12.72 42.5517
12.7649 42.0985
12.8098 41.0774
12.8547 40.3691
12.8996 40.3153
12.9445 40.1304
12.9894 40.8051
13.0343 41.4757
13.0792 43.4344
13.1242 48.1328
13.1691 58.5828
13.214 62.6775
13.2589 65.3729
13.3038 70.2243
13.3487 77.5737
13.3937 101.942
13.4386 162.284
13.4835 222.128
13.5285 178.634
13.5734 114.216
13.6183 89.2802
13.6633 81.0461
13.7082 83.4551
13.7531 107.333
13.7981 171.252
13.843 206.017
13.888 140.32
13.9329 80.585
13.9779 58.9654
14.0228 50.9939
14.0678 46.8738
14.1127 46.1088
14.1577 49.4653
14.2027 69.0969
14.2476 86.0388
14.2926 64.5567
14.3376 46.6487
14.3825 41.73
14.4275 40.2968
14.4725 39.6667
14.5175 39.1583
14.5624 38.7869
14.6074 38.8962
14.6524 39.0034
14.6974 39.3204
14.7424 39.5999
14.7874 40.1437
14.8324 41.5453
14.8774 44.3647
14.9224 48.5072
14.9674 50.3994
15.0124 53.5286
15.0574 63.8931
15.1024 87.9701
15.1474 121.593
15.1924 117.435
15.2374 81.8364
15.2824 58.6213
15.3274 47.9986
15.3725 43.8608
15.4175 41.5987
15.4625 40.4339
15.5076 39.606
15.5526 39.2425
15.5976 39.1002
15.6426 38.9447
15.6877 39.1148
15.7327 40.1688
15.7778 42.4873
15.8228 45.5381
15.8679 47.9265
15.9129 49.5049
15.958 56.0391
16.003 71.3452
16.0481 102.678
16.0931 123.452
16.1382 105.284
16.1833 76.3838
16.2283 53.5607
16.2734 43.6322
16.3185 39.4944
16.3636 37.2625
16.4086 35.8276
16.4537 35.2071
16.4988 34.3439
16.5439 33.8609
16.589 33.2545
16.6341 32.8603
16.6792 32.2963
16.7243 32.4236
16.7694 32.2149
16.8145 32.2795
16.8596 32.4295
16.9047 32.8294
16.9498 33.8162
16.9949 37.2152
17.04 40.0158
17.0851 37.9902
17.1302 34.7469
17.1754 34.0577
17.2205 34.3193
17.2656 34.7482
17.3108 35.121
17.3559 35.4153
17.401 37.2398
17.4462 41.6115
17.4913 48.4376
17.5365 51.1677
17.5815 45.3273
17.6268 39.3612
17.6718 36.492
17.7171 35.736
17.7622 35.8563
17.8074 37.5596
17.8525 40.8957
17.8977 42.0956
17.9428 40.1996
17.9881 39.8046
18.0331 41.886
18.0784 42.8997
18.1237 43.6851
18.1688 46.5834
18.214 53.6242
18.2591 69.1097
18.3044 92.6377
18.3495 96.9104
18.3948 76.5812
18.4399 59.6623
18.4852 55.2402
18.5303 61.3993
18.5756 71.0825
18.6207 70.8582
18.666 59.2002
18.7112 48.2576
18.7565 41.1496
18.8016 38.1618
18.8469 36.3714
18.892 35.5409
18.9374 34.8028
18.9825 34.47
19.0278 34.0351
19.073 34.1149
19.1183 33.8962
19.1635 33.8453
19.2088 34.4452
19.254 34.9846
19.2993 35.7555
19.3447 37.0176
19.3898 41.0357
19.4352 45.9728
19.4804 46.9254
19.5257 45.3309
19.5709 47.1292
19.6163 48.3461
19.6615 44.1393
19.7068 38.1287
19.752 35.0949
19.7974 33.6389
19.8426 32.962
19.888 32.2643
19.9332 32.3613
19.9786 32.6172
20.0238 32.7071
20.0692 32.8812
20.1144 33.0597
20.1598 33.8279
20.205 35.3734
20.2504 38.6658
20.2957 43.511
20.3411 46.3874
20.3863 43.8536
20.4318 39.608
20.477 38.8649
20.5224 41.5719
20.5677 44.0949
20.6131 41.8822
20.6586 36.9189
20.7038 33.5267
20.7493 31.8435
20.7945 31.5203
20.84 32.369
20.8853 33.6017
20.9307 33.2963
20.976 31.3947
21.0215 29.7438
21.0668 29.5559
21.1122 29.1375
21.1575 29.1663
21.203 29.067
21.2483 29.232
21.2938 29.2241
21.3391 29.3005
21.3846 29.6656
21.4299 30.609
21.4754 32.1584
21.5207 32.5322
21.5662 31.8037
21.6116 30.8168
21.6571 30.1921
21.7024 29.855
21.7479 30.0722
21.7933 30.5486
21.8388 30.9635
21.8843 31.2675
21.9297 31.471
21.9752 32.5285
22.0206 34.4026
22.0661 37.1814
22.1115 41.7858
22.157 46.249
22.2024 46.5078
22.248 43.1459
22.2933 40.7604
22.3389 39.3097
22.3843 38.8781
22.4299 36.8694
22.4753 34.3015
22.5208 32.3279
22.5662 31.1193
22.6118 30.5553
22.6572 30.3414
22.7028 30.1687
22.7483 30.1182
22.7939 30.1984
22.8393 30.876
22.8849 31.8502
22.9303 32.0553
22.9759 31.8653
23.0214 31.373
23.067 31.9671
23.1126 33.2225
23.1581 35.6088
23.2037 39.5774
23.2492 41.6093
23.2948 39.0374
23.3403 35.2098
23.3859 33.0211
23.4314 32.0449
23.477 32.6099
23.5225 33.5224
23.5682 33.9593
23.6137 33.2771
23.6593 32.4814
23.7048 32.9838
23.7505 34.7017
23.796 37.8906
23.8417 41.914
23.8872 42.0977
23.9329 38.2335
23.9784 33.706
24.0241 31.136
24.0697 30.0164
24.1154 29.2892
24.1609 29.08
24.2066 28.7616
24.2522 28.2535
24.2979 27.59
24.3434 27.2526
24.3892 27.1422
24.4349 27.1125
24.4805 26.8369
24.5262 26.7806
24.5718 26.7313
24.6175 26.6625
24.6631 26.7611
24.7089 27.1397
24.7545 27.6639
24.8002 28.0429
24.8458 27.7413
24.8916 27.1655
24.9372 26.7544
24.983 26.5531
25.0286 26.4104
25.0744 26.4253
25.12 26.3108
25.1658 26.4607
25.2114 26.603
25.2572 26.9339
25.3029 27.3095
25.3487 28.061
25.3943 28.9717
25.4402 29.6514
25.4858 29.8909
25.5316 29.8118
25.5773 30.1303
25.6231 31.3027
25.669 31.0851
25.7147 29.6209
25.7605 27.8556
25.8062 26.9455
25.8521 26.6535
25.8977 26.5538
25.9436 26.7973
25.9893 26.5732
26.0352 26.251
26.0809 25.7575
26.1268 25.7835
26.1725 25.729
26.2184 25.8571
26.2641 26.3098
26.31 26.9782
26.3557 27.6895
26.4017 28.2827
26.4474 28.0825
26.4933 27.3496
26.5391 26.5871
26.585 26.2132
26.6308 26.1326
26.6767 25.8863
26.7225 25.9869
26.7684 26.3097
26.8142 26.8389
26.8601 27.5257
26.9059 28.6976
26.9519 29.7214
26.9979 29.9094
27.0437 29.2723
27.0896 28.9183
27.1354 28.4358
27.1814 27.2864
27.2272 26.2636
27.2732 25.6884
27.3191 25.1739
27.3651 25.0167
27.4109 24.7878
27.4569 24.8336
27.5027 24.7235
27.5488 24.8077
27.5946 24.7531
27.6407 24.7775
27.6865 24.8525
27.7326 24.8313
27.7784 25.0821
27.8245 25.353
27.8703 25.6095
27.9164 25.3275
27.9623 24.9556
28.0084 24.8019
28.0543 24.9986
28.1003 25.1708
28.1462 25.5483
28.1923 25.7652
28.2384 25.705
28.2843 26.1501
28.3304 27.1022
28.3764 27.5919
28.4225 27.6259
28.4684 27.0061
28.5145 26.5256
28.5605 26.2091
28.6066 25.6525
28.6526 25.1223
28.6987 24.536
28.7447 23.8929
28.7908 23.5479
28.8368 23.2294
28.8829 23.1107
28.9289 22.9983
28.9751 22.8985
29.0211 22.8146
29.0673 22.6674
29.1133 22.8678
29.1595 23.0178
29.2055 23.2545
29.2517 23.2616
29.2977 23.0766
29.3439 22.7305
29.3899 22.4119
29.4361 22.1198
29.4824 22.0131
29.5284 22.1167
29.5746 22.0529
29.6207 22.1432
29.6669 22.3689
29.713 22.6039
29.7593 22.6908
29.8053 22.3443
29.8516 21.9671
29.8977 21.7488
29.9439 21.497
29.99 21.416
30.0363 21.2302
30.0824 21.3891
30.1287 21.2754
30.1748 21.4449
30.2211 21.4457
30.2673 21.3378
30.3136 21.1883
30.3597 21.1569
30.406 21.1559
30.4522 21.1901
30.4985 21.2699
30.5447 21.4881
30.591 21.4781
30.6372 21.3439
30.6835 21.1609
30.7297 21.0944
30.7761 20.9539
30.8224 21.0055
30.8686 21.2232
30.915 21.2601
30.9612 21.5936
31.0076 22.0131
31.0538 22.2237
31.1002 22.3853
31.1464 22.0258
31.1928 21.9434
31.2391 21.7383
31.2855 21.34
31.3317 21.0172
31.3781 20.787
31.4244 20.6491
31.4708 20.5251
31.5171 20.4993
31.5636 20.51
31.6098 20.4301
31.6563 20.5679
31.7026 20.7153
31.7491 20.8067
31.7953 21.0227
31.8418 21.0926
31.8881 21.0841
31.9346 20.8356
31.9809 20.4458
32.0275 20.287
32.074 20.1961
32.1203 20.1745
32.1668 20.3108
32.2132 20.3997
32.2597 20.4693
32.306 20.7349
32.3526 20.6666
32.399 20.5058
32.4455 20.1855
32.4919 19.9645
32.5385 19.736
32.5848 19.5518
32.6314 19.3829
32.6778 19.2867
32.7244 19.1462
32.7708 19.0305
32.8174 18.9241
32.8638 18.798
32.9104 18.9147
32.9569 18.7861
33.0035 18.7927
33.0499 18.9233
33.0966 18.8804
33.143 18.7944
33.1897 18.6841
33.2361 18.4969
33.2828 18.5106
33.3293 18.481
33.3759 18.5179
33.4226 18.5306
33.4691 18.6523
33.5158 18.7717
33.5623 18.8574
33.609 18.843
33.6555 18.7799
33.7022 18.639
33.7487 18.5018
33.7954 18.3007
33.842 18.0865
33.8887 17.9305
33.9353 17.8509
33.982 17.848
34.0286 17.7258
34.0753 17.6487
34.1219 17.626
34.1687 17.6735
34.2152 17.6922
34.262 17.6231
34.3086 17.5157
34.3554 17.5332
34.402 17.3065
34.4488 17.1809
34.4954 17.1088
34.5422 17.108
34.5889 17.0977
34.6357 17.0575
34.6825 17.0371
34.7292 17.0283
34.776 16.9028
34.8227 16.8831
34.8695 16.7867
34.9162 16.7351
34.9631 16.507
35.0098 16.5666
35.0566 16.4497
35.1033 16.4302
35.1502 16.4222
35.1969 16.348
35.2438 16.3426
35.2906 16.3902
35.3375 16.3561
35.3842 16.3285
35.4311 16.337
35.4779 16.3141
35.5248 16.2759
35.5716 16.2301
35.6185 16.1962
35.6653 16.1367
35.7123 16.3045
35.759 16.4074
35.806 16.3831
35.8528 16.4335
35.8998 16.4841
35.9468 16.3179
35.9936 16.2628
36.0406 16.0396
36.0874 16.0709
36.1345 15.8831
36.1813 15.7585
36.2283 15.6866
36.2752 15.5723
36.3222 15.6058
36.3691 15.5016
36.4161 15.5096
36.463 15.5735
36.5101 15.6009
36.557 15.543
36.6041 15.4672
36.651 15.4511
36.6981 15.3454
36.745 15.2441
36.7921 15.1971
36.839 15.1306
36.8861 15.0614
36.9331 15.2112
36.9802 15.1633
37.0272 15.1039
37.0743 15.0271
37.1213 14.9937
37.1684 14.8985
37.2154 14.7886
37.2626 14.6752
37.3098 14.6422
37.3568 14.5763
37.404 14.553
37.451 14.5631
37.4982 14.4802
37.5452 14.4133
37.5924 14.3213
37.6395 14.4273
37.6867 14.3766
37.7337 14.2354
37.781 14.2114
37.8281 14.1132
37.8753 14.1333
37.9224 14.0662
37.9697 14.0318
38.0168 14.0236
38.064 13.9415
38.1111 13.9965
38.1584 13.897
38.2056 13.878
38.2529 13.7433
38.3 13.7231
38.3473 13.6749
38.3945 13.6469
38.4418 13.5615
38.489 13.5682
38.5363 13.4834
38.5837 13.4929
38.6309 13.4031
38.6782 13.3856
38.7254 13.3976
38.7728 13.3616
38.82 13.3035
38.8674 13.2507
38.9146 13.2052
38.9621 13.1295
39.0093 13.1505
39.0567 13.1574
39.104 13.1487
39.1514 13.0358
39.1987 13.0404
39.2461 12.9545
39.2934 12.94
39.3409 12.7875
39.3882 12.7927
39.4356 12.7671
39.483 12.7449
39.5304 12.6383
39.5778 12.6001
39.6253 12.5803
39.6726 12.5301
39.7201 12.5175
39.7675 12.5368
39.815 12.4465
39.8624 12.3785
39.9099 12.3995
39.9575 12.3585
40.0049 12.3064
40.0525 12.3042
40.0999 12.2635
40.1474 12.2575
40.1949 12.2296
40.2425 12.2035
40.2899 12.1958
40.3375 12.2008
40.385 12.0537
40.4326 12.0347
40.48 11.9602
40.5277 11.9964
40.5752 11.9165
40.6228 11.8835
40.6703 11.8444
40.718 11.8743
40.7655 11.808
40.8132 11.766
40.8607 11.738
40.9084 11.6758
40.9559 11.6812
41.0036 11.6785
41.0512 11.6404
41.0989 11.6468
41.1465 11.5499
41.1942 11.5307
41.242 11.4677
41.2896 11.4373
41.3373 11.338
41.3849 11.3909
41.4327 11.3117
41.4803 11.2579
41.5281 11.2129
41.5758 11.1778
41.6236 11.1658
41.6712 11.0893
41.7191 11.0939
41.7667 11.0696
41.8146 11.0206
41.8622 10.952
41.9101 10.9068
41.9578 10.9258
42.0057 10.8905
42.0534 10.8242
42.1013 10.8725
42.149 10.8012
42.1969 10.7913
42.2446 10.7401
42.2925 10.7224
42.3403 10.6343
42.3882 10.6113
42.436 10.5891
42.4839 10.4995
42.5319 10.5073
42.5797 10.4621
42.6277 10.4344
42.6755 10.3479
42.7235 10.3219
42.7713 10.2939
42.8193 10.292
42.8671 10.2694
42.9152 10.2388
42.963 10.1872
43.0111 10.0773
43.0589 10.0846
43.107 10.0416
43.1549 10.0565
43.2029 10.0071
43.2508 9.94194
43.2989 9.92545
43.3468 9.93541
43.3949 9.84203
43.4429 9.81117
43.491 9.80528
43.5389 9.76217
43.5871 9.75973
43.635 9.70511
43.6832 9.70475
43.7312 9.61584
43.7793 9.5975
43.8273 9.59444
43.8755 9.54412
43.9237 9.54434
43.9717 9.47245
44.0199 9.47558
44.068 9.46102
44.1162 9.40236
44.1642 9.40218
44.2125 9.35943
44.2606 9.30013
44.3088 9.26533
44.3569 9.2538
44.4052 9.24307
44.4533 9.16486
44.5016 9.14159
44.5497 9.1706
44.598 9.0937
44.6461 9.09798
44.6945 9.0204
44.7426 9.02868
44.791 8.9904
44.8391 8.98589
44.8875 8.93778
44.9357 8.9177
44.984 8.8644
45.0322 8.85052
45.0806 8.81501
45.1288 8.79378
45.1773 8.74066
45.2257 8.75999
45.2739 8.68304
45.3224 8.62963
45.3706 8.63644
45.4191 8.58817
45.4673 8.57249
45.5158 8.57044
45.5641 8.51584
45.6126 8.5008
45.6609 8.44398
45.7094 8.41747
45.7577 8.39018
45.8063 8.34526
45.8546 8.30566
45.9031 8.32307
45.9515 8.27503
46.0001 8.24323
46.0484 8.22258
46.097 8.22133
46.1454 8.15642
46.194 8.17714
46.2424 8.0984
46.291 8.09944
46.3395 8.05309
46.3881 8.00833
46.4365 8.02564
46.4852 7.97813
46.5337 7.95209
46.5823 7.94612
46.631 7.91295
46.6795 7.88333
46.7282 7.85267
46.7767 7.78784
46.8254 7.76033
46.8739 7.76569
46.9226 7.72487
46.9712 7.73851
47.0199 7.67138
47.0685 7.64316
47.1173 7.58489
47.1658 7.57944
47.2146 7.57735
47.2632 7.49093
47.312 7.53961
47.3606 7.4918
47.4095 7.45676
47.4581 7.40041
47.5069 7.3774
47.5556 7.35273
47.6044 7.32663
47.6531 7.33928
47.702 7.27918
47.7507 7.25275
47.7996 7.22875
47.8483 7.22275
47.8972 7.21951
47.9461 7.155
47.9948 7.11525
48.0438 7.10406
48.0925 7.08061
48.1415 7.02877
48.1902 7.04556
48.2392 7.05469
48.288 7.01539
48.337 6.98547
48.3858 6.94558
48.4348 6.90269
48.4837 6.89985
48.5327 6.85739
48.5815 6.83461
48.6306 6.83452
48.6795 6.80552
48.7285 6.78239
48.7774 6.77663
48.8265 6.73633
48.8754 6.70552
48.9245 6.68566
48.9734 6.62913
49.0226 6.63672
49.0715 6.59776
49.1206 6.59522
49.1696 6.55735
49.2188 6.54215
49.2679 6.49621
49.3169 6.48735
49.3661 6.46227
49.4151 6.44696
49.4643 6.41427
49.5134 6.41942
49.5626 6.36795
49.6117 6.35664
49.6609 6.33369
49.71 6.32507
49.7592 6.25359
49.8083 6.22056
49.8576 6.27743
49.9067 6.21209
49.956 6.2174
50.0052 6.16447
50.0545 6.15413
50.1036 6.17106
50.153 6.08709
50.2022 6.07306
50.2515 6.06122
50.3007 6.03137
50.3501 6.01173
50.3993 5.99113
50.4487 5.99057
50.498 5.95858
50.5474 5.93014
50.5966 5.88685
50.6461 5.89903
50.6955 5.88873
50.7448 5.85521
50.7943 5.81922
50.8436 5.77036
50.8931 5.77186
50.9424 5.75708
50.9919 5.76036
51.0413 5.70406
51.0908 5.71858
51.1402 5.70778
51.1897 5.65588
51.2391 5.61003
51.2887 5.57736
51.3381 5.60047
51.3877 5.5622
51.4371 5.53761
51.4867 5.51993
51.5362 5.49663
51.5858 5.49207
51.6353 5.45006
51.6849 5.42086
51.7344 5.41553
51.7841 5.40504
51.8336 5.3923
51.8833 5.33943
51.9328 5.34422
51.9826 5.31824
52.0323 5.27428
52.0818 5.27279
52.1316 5.24192
52.1812 5.23773
52.231 5.21224
52.2806 5.1956
52.3304 5.1694
52.38 5.14255
52.4298 5.12225
52.4794 5.11306
52.5293 5.06671
52.5789 5.04226
52.6288 5.06159
52.6785 4.99691
52.7284 4.9993
52.7781 4.96484
52.828 4.97099
52.8777 4.9339
52.9276 4.93024
52.9774 4.8864
53.0273 4.92672
53.0771 4.89353
53.1271 4.86484
53.1769 4.83657
53.2269 4.80657
53.2767 4.80982
53.3267 4.77646
53.3765 4.78457
53.4266 4.75537
53.4766 4.69851
53.5265 4.69462
53.5765 4.67303
53.6264 4.67067
53.6765 4.63991
53.7264 4.61539
53.7765 4.5853
53.8265 4.59849
53.8766 4.52885
53.9266 4.50613
53.9767 4.5009
54.0267 4.46762
54.0769 4.44275
54.1269 4.42212
54.1771 4.44576
54.2271 4.37786
54.2773 4.35533
54.3274 4.35962
54.3776 4.31632
54.4277 4.22564
54.478 4.24028
54.528 4.20341
54.5783 4.19892
54.6285 4.1412
54.6788 4.13239
54.7289 4.09996
54.7792 4.05684
54.8296 4.05976
54.8798 4.00954
54.9301 3.94486
54.9803 3.96232
55.0307 3.95428
55.0809 3.9025
55.1314 3.87446
55.1816 3.77504
55.232 3.76546
55.2823 3.77727
55.3328 3.68835
55.383 3.64782
55.4335 3.63873
55.4838 3.56927
55.5344 3.55283
55.5847 3.55299
55.6352 3.51354
55.6856 3.4862
55.7361 3.49554