File: XRD/Ni3Fe_FD0216.xy
TT I
1.27165 8.38821
1.31627 7.84416
1.36089 7.32992
1.40551 7.01184
1.45013 6.7142
1.49476 6.29437
1.53938 6.36447
1.584 6.2801
1.62863 6.35266
1.67325 5.0208
1.71787 5.44137
1.7625 5.30361
1.80712 5.10313
1.85174 5.1568
1.89636 5.17481
1.94099 5.69582
1.98562 4.71289
2.03025 5.10584
2.07487 5.15448
2.11949 5.21414
2.16411 5.12203
2.20874 4.1856
2.25338 4.62806
2.298 4.6108
2.34263 4.18662
2.38725 4.19424
2.43188 4.66321
2.4765 4.78601
2.52115 4.99252
2.56577 5.82319
2.6104 5.88705
2.65503 5.90296
2.69965 6.82299
2.7443 6.9744
2.78893 6.64876
2.83356 7.5799
2.87818 8.29613
2.92281 8.61476
2.96744 9.07642
3.01209 9.80931
3.05672 11.2671
3.10135 12.1725
3.14599 12.8231
3.19062 14.1214
3.23527 14.6091
3.2799 15.9799
3.32454 16.9613
3.36917 18.092
3.4138 19.0499
3.45844 20.1054
3.50309 21.1842
3.54773 21.804
3.59237 22.4355
3.637 23.1886
3.68164 23.6332
3.7263 25.025
3.77094 26.132
3.81558 26.6663
3.86022 27.9444
3.90486 28.8485
3.9495 30.2217
3.99416 31.2945
4.0388 32.4998
4.08344 34.0096
4.12809 35.0706
4.17273 36.6664
4.21738 37.6152
4.26204 39.3481
4.30669 41.3767
4.35133 43.0116
4.39598 44.3898
4.44063 46.3071
4.4853 47.9595
4.52995 52.4352
4.5746 53.815
4.61925 56.0137
4.6639 58.3429
4.70855 61.5333
4.75322 64.4212
4.79788 68.368
4.84253 71.6754
4.88719 77.1501
4.93184 81.6425
4.97652 88.6268
5.02118 96.889
5.06583 107.471
5.11049 125.219
5.15515 170.334
5.19981 893.935
5.24449 3964.98
5.28916 10560.3
5.33382 4304.75
5.37848 279.717
5.42315 154.505
5.46783 130.036
5.5125 118.396
5.55716 112.858
5.60183 107.015
5.6465 104.455
5.69117 103.481
5.73586 101.011
5.78053 101.892
5.8252 102.587
5.86988 104.702
5.91455 111.095
5.95924 134.201
6.00392 446.059
6.0486 1426.91
6.09328 3576.96
6.13795 3737.07
6.18263 385.893
6.22733 110.954
6.27201 89.6452
6.3167 81.1299
6.36138 76.3987
6.40606 73.0347
6.45075 71.2924
6.49545 68.6342
6.54014 66.7596
6.58483 65.021
6.62952 64.3241
6.67421 62.1514
6.71892 62.0966
6.76361 60.7033
6.8083 59.8334
6.853 59.2177
6.89769 58.4073
6.94239 58.2018
6.98711 57.5306
7.03181 56.9714
7.07651 56.796
7.12121 56.2673
7.16591 56.6664
7.21063 55.8098
7.25533 55.4486
7.30004 55.7869
7.34475 55.8272
7.38945 56.3598
7.43416 55.5336
7.47889 55.487
7.5236 56.5189
7.56831 57.3185
7.61303 57.292
7.65774 57.6029
7.70247 58.462
7.74719 58.0965
7.79191 58.8409
7.83663 59.2048
7.88135 60.1101
7.92607 61.5531
7.97081 62.3983
8.01553 63.8495
8.06026 65.3674
8.10498 67.0461
8.14971 69.2354
8.19446 70.7125
8.23919 73.7107
8.28392 76.5518
8.32865 79.3659
8.37339 84.6661
8.41812 90.8019
8.46288 110.197
8.50761 291.774
8.55235 591.921
8.59709 1052.9
8.64183 1960.18
8.68658 1256.09
8.73134 231.576
8.77609 111.827
8.82083 100.704
8.86558 95.9906
8.91033 93.7612
8.9551 91.0018
8.99985 89.7599
9.04461 88.8625
9.08936 88.1453
9.13412 87.3763
9.17888 86.5689
9.22365 86.9755
9.26841 87.8173
9.31318 88.513
9.35794 88.4415
9.4027 88.6301
9.44749 89.5174
9.49226 89.7917
9.53703 91.0992
9.5818 92.7414
9.62657 94.5363
9.67134 95.7588
9.71614 97.9764
9.76091 100.436
9.80569 103.55
9.85047 106.655
9.89525 112.999
9.94005 135.496
9.98484 304.661
10.0296 525.088
10.0744 798.144
10.1192 1436.7
10.164 1739.18
10.2088 575.306
10.2536 151.515
10.2984 118.407
10.3432 113.648
10.388 115.143
10.4328 159.923
10.4776 213.579
10.5224 281.019
10.5672 434.881
10.612 530.361
10.6568 261.319
10.7017 109.432
10.7465 92.4766
10.7913 88.5369
10.8361 85.7166
10.8809 83.3018
10.9257 80.7323
10.9706 79.9112
11.0154 78.1312
11.0602 76.6532
11.105 75.1444
11.1499 73.3278
11.1947 72.6981
11.2395 71.469
11.2844 71.0241
11.3292 70.3192
11.374 69.3843
11.4189 68.7633
11.4637 68.0246
11.5086 67.2946
11.5534 66.845
11.5983 66.4628
11.6431 66.5629
11.688 65.8668
11.7328 65.6813
11.7777 65.6599
11.8225 65.2714
11.8674 65.6164
11.9122 65.9084
11.9571 66.478
12.002 68.6133
12.0468 80.1928
12.0917 95.1925
12.1366 108.671
12.1814 139.581
12.2263 190.4
12.2712 187.569
12.3161 106.409
12.3609 70.7095
12.4058 67.3963
12.4507 67.4297
12.4956 67.414
12.5405 67.6909
12.5853 68.0044
12.6302 68.3236
12.6751 69.3461
12.72 69.8558
12.7649 71.0032
12.8098 71.9389
12.8547 73.3123
12.8996 74.9459
12.9445 76.2923
12.9894 78.6901
13.0343 80.9147
13.0792 86.4727
13.1242 110.481
13.1691 148.497
13.214 175.271
13.2589 227.149
13.3038 316.182
13.3487 416.912
13.3937 314.653
13.4386 152.351
13.4835 134.832
13.5285 154.559
13.5734 174.081
13.6183 223.649
13.6633 306.315
13.7082 356.235
13.7531 231.7
13.7981 113.913
13.843 87.5849
13.888 84.3758
13.9329 81.732
13.9779 80.3817
14.0228 78.682
14.0678 77.1946
14.1127 76.253
14.1577 75.4032
14.2027 74.9539
14.2476 74.2325
14.2926 73.2536
14.3376 73.4796
14.3825 73.0746
14.4275 72.6101
14.4725 72.5664
14.5175 72.681
14.5624 72.7598
14.6074 73.0805
14.6524 73.7702
14.6974 74.7782
14.7424 80.704
14.7874 95.8242
14.8324 107.15
14.8774 119.339
14.9224 143.729
14.9674 185.197
15.0124 222.92
15.0574 175.249
15.1024 104.535
15.1474 77.7705
15.1924 73.9097
15.2374 72.8539
15.2824 71.4107
15.3274 70.7369
15.3725 70.2549
15.4175 69.9881
15.4625 69.7706
15.5076 69.2651
15.5526 69.5605
15.5976 70.2012
15.6426 74.6246
15.6877 86.7197
15.7327 95.5402
15.7778 103.755
15.8228 121.539
15.8679 151.937
15.9129 188.52
15.958 179.046
16.003 114.84
16.0481 73.8724
16.0931 66.0661
16.1382 64.1128
16.1833 63.23
16.2283 61.6563
16.2734 61.1811
16.3185 60.3518
16.3636 59.7844
16.4086 58.9886
16.4537 58.7306
16.4988 58.3204
16.5439 58.0952
16.589 57.763
16.6341 57.6611
16.6792 57.394
16.7243 57.4641
16.7694 57.1693
16.8145 57.2873
16.8596 57.3689
16.9047 57.7715
16.9498 57.9074
16.9949 57.7605
17.04 59.189
17.0851 62.0428
17.1302 64.1248
17.1754 65.9042
17.2205 68.8442
17.2656 73.5221
17.3108 81.7058
17.3559 85.8741
17.401 78.1133
17.4462 66.9518
17.4913 62.6421
17.5365 62.0768
17.5815 62.213
17.6268 62.6726
17.6718 63.2571
17.7171 63.7158
17.7622 64.888
17.8074 66.4166
17.8525 72.334
17.8977 78.6639
17.9428 82.9892
17.9881 88.1942
18.0331 98.9201
18.0784 114.258
18.1237 138.035
18.1688 146.021
18.214 120.683
18.2591 94.3883
18.3044 90.257
18.3495 96.3269
18.3948 106.205
18.4399 103.297
18.4852 84.8464
18.5303 70.6283
18.5756 65.6473
18.6207 64.4843
18.666 63.555
18.7112 62.6788
18.7565 62.0857
18.8016 61.7981
18.8469 61.2019
18.892 60.7915
18.9374 60.2881
18.9825 59.8704
19.0278 59.7779
19.073 60.5514
19.1183 61.4666
19.1635 62.1452
19.2088 63.2089
19.254 64.7546
19.2993 67.4382
19.3447 71.3166
19.3898 76.1175
19.4352 76.5037
19.4804 69.2488
19.5257 61.2014
19.5709 57.0166
19.6163 56.821
19.6615 56.517
19.7068 55.9656
19.752 56.1862
19.7974 57.0957
19.8426 58.2394
19.888 59.0315
19.9332 59.6524
19.9786 61.346
20.0238 63.7995
20.0692 68.1234
20.1144 72.5895
20.1598 72.9327
20.205 68.2196
20.2504 64.4691
20.2957 64.2571
20.3411 66.6983
20.3863 67.4067
20.4318 62.6561
20.477 57.0112
20.5224 53.9333
20.5677 52.9223
20.6131 52.7943
20.6586 52.1915
20.7038 51.9518
20.7493 51.4913
20.7945 51.4123
20.84 51.2254
20.8853 51.2816
20.9307 51.2745
20.976 51.5551
21.0215 51.4512
21.0668 51.5847
21.1122 51.8602
21.1575 52.0336
21.203 52.7
21.2483 53.4931
21.2938 54.2742
21.3391 53.0958
21.3846 51.8552
21.4299 50.8978
21.4754 51.0006
21.5207 51.288
21.5662 51.8225
21.6116 53.0012
21.6571 53.7703
21.7024 54.4221
21.7479 55.5914
21.7933 57.674
21.8388 60.0471
21.8843 63.3347
21.9297 66.7598
21.9752 67.0881
22.0206 63.4716
22.0661 58.8023
22.1115 57.716
22.157 58.3739
22.2024 57.5836
22.248 54.898
22.2933 52.7466
22.3389 51.5574
22.3843 51.4842
22.4299 51.0486
22.4753 50.9698
22.5208 51.0873
22.5662 50.9443
22.6118 51.4897
22.6572 52.041
22.7028 52.6815
22.7483 53.0514
22.7939 53.2424
22.8393 54.261
22.8849 55.654
22.9303 57.2153
22.9759 59.0197
23.0214 60.0563
23.067 58.5639
23.1126 54.6439
23.1581 52.2789
23.2037 51.6069
23.2492 52.0094
23.2948 52.146
23.3403 52.4126
23.3859 52.6884
23.4314 53.2643
23.477 54.2584
23.5225 55.4761
23.5682 57.3827
23.6137 59.6709
23.6593 59.0397
23.7048 55.4409
23.7505 51.5227
23.796 49.262
23.8417 48.2563
23.8872 47.8373
23.9329 47.4916
23.9784 47.2792
24.0241 46.8416
24.0697 46.7135
24.1154 46.2139
24.1609 46.0882
24.2066 45.9666
24.2522 45.8206
24.2979 45.4591
24.3434 45.5105
24.3892 45.315
24.4349 45.2428
24.4805 44.9418
24.5262 45.1208
24.5718 45.0771
24.6175 45.0197
24.6631 44.9173
24.7089 44.7417
24.7545 44.5508
24.8002 44.4106
24.8458 44.4408
24.8916 44.3326
24.9372 44.5358
24.983 44.8133
25.0286 45.1396
25.0744 45.4848
25.12 45.7392
25.1658 46.341
25.2114 46.7063
25.2572 46.6378
25.3029 46.545
25.3487 46.6823
25.3943 46.6343
25.4402 46.0577
25.4858 44.8706
25.5316 43.7978
25.5773 42.8781
25.6231 42.855
25.669 42.5437
25.7147 42.5118
25.7605 42.5485
25.8062 42.5003
25.8521 42.744
25.8977 42.6099
25.9436 42.8427
25.9893 42.7505
26.0352 43.2253
26.0809 43.2155
26.1268 43.6687
26.1725 43.6378
26.2184 43.0292
26.2641 42.5784
26.31 42.1733
26.3557 42.3539
26.4017 42.2091
26.4474 42.4501
26.4933 42.63
26.5391 42.8445
26.585 43.2006
26.6308 43.718
26.6767 44.0523
26.7225 44.0335
26.7684 43.6548
26.8142 42.8612
26.8601 42.3438
26.9059 42.1331
26.9519 41.5906
26.9979 41.2646
27.0437 40.8637
27.0896 40.6895
27.1354 40.7639
27.1814 40.7015
27.2272 40.4398
27.2732 40.456
27.3191 40.2323
27.3651 40.3492
27.4109 40.2802
27.4569 40.2913
27.5027 40.3799
27.5488 40.4578
27.5946 40.3292
27.6407 40.3005
27.6865 40.1572
27.7326 39.9017
27.7784 39.8184
27.8245 39.6521
27.8703 39.8151
27.9164 40.038
27.9623 40.0736
28.0084 40.2127
28.0543 40.8219
28.1003 40.7595
28.1462 40.8103
28.1923 40.3397
28.2384 39.7387
28.2843 39.5185
28.3304 39.0836
28.3764 38.6051
28.4225 38.3534
28.4684 38.0717
28.5145 37.6094
28.5605 37.6445
28.6066 37.4594
28.6526 37.2841
28.6987 37.3892
28.7447 37.1453
28.7908 37.0267
28.8368 37.1536
28.8829 37.0081
28.9289 36.9919
28.9751 36.9522
29.0211 36.7306
29.0673 36.4711
29.1133 36.3933
29.1595 36.1176
29.2055 35.9949
29.2517 35.9716
29.2977 35.9055
29.3439 35.8713
29.3899 35.8543
29.4361 35.7406
29.4824 35.5613
29.5284 35.3946
29.5746 35.0832
29.6207 34.8479
29.6669 34.6466
29.713 34.6995
29.7593 34.5772
29.8053 34.5264
29.8516 34.2963
29.8977 34.311
29.9439 34.2128
29.99 34.2028
30.0363 34.0496
30.0824 34.071
30.1287 33.8585
30.1748 34.053
30.2211 34.0253
30.2673 33.8254
30.3136 33.9992
30.3597 33.8892
30.406 33.7741
30.4522 33.6927
30.4985 33.6257
30.5447 33.7967
30.591 33.6321
30.6372 33.683
30.6835 33.6115
30.7297 33.6876
30.7761 33.7129
30.8224 33.6265
30.8686 33.434
30.915 33.1545
30.9612 33.1739
31.0076 32.8948
31.0538 32.7192
31.1002 32.6764
31.1464 32.53
31.1928 32.5285
31.2391 32.4586
31.2855 32.2826
31.3317 32.4012
31.3781 32.4591
31.4244 32.2783
31.4708 32.3185
31.5171 32.2517
31.5636 32.2325
31.6098 32.0929
31.6563 31.8486
31.7026 31.817
31.7491 31.686
31.7953 31.5616
31.8418 31.5667
31.8881 31.5684
31.9346 31.5566
31.9809 31.458
32.0275 31.3624
32.074 31.2865
32.1203 31.0596
32.1668 30.9679
32.2132 30.8332
32.2597 30.741
32.306 30.5807
32.3526 30.431
32.399 30.3306
32.4455 30.1569
32.4919 30.033
32.5385 30.0924
32.5848 29.9665
32.6314 30.0156
32.6778 29.7745
32.7244 29.6284
32.7708 29.4913
32.8174 29.545
32.8638 29.3465
32.9104 29.4866
32.9569 29.3703
33.0035 29.1969
33.0499 29.2402
33.0966 29.0413
33.143 29.072
33.1897 29.0267
33.2361 28.9655
33.2828 28.9561
33.3293 28.728
33.3759 28.8257
33.4226 28.5419
33.4691 28.4465
33.5158 28.3323
33.5623 28.2635
33.609 28.0494
33.6555 28.0052
33.7022 27.8556
33.7487 27.7715
33.7954 27.7455
33.842 27.6505
33.8887 27.575
33.9353 27.4702
33.982 27.3614
34.0286 27.3415
34.0753 27.1455
34.1219 27.1838
34.1687 27.0837
34.2152 27.0388
34.262 26.8777
34.3086 26.8191
34.3554 26.7275
34.402 26.5437
34.4488 26.5187
34.4954 26.4514
34.5422 26.3677
34.5889 26.2479
34.6357 26.1673
34.6825 26.1898
34.7292 26.0929
34.776 26.015
34.8227 25.8874
34.8695 25.847
34.9162 25.7077
34.9631 25.5957
35.0098 25.7361
35.0566 25.5244
35.1033 25.4577
35.1502 25.3716
35.1969 25.3381
35.2438 25.2535
35.2906 25.304
35.3375 25.1662
35.3842 25.1467
35.4311 25.1378
35.4779 25.0775
35.5248 25.0377
35.5716 24.9033
35.6185 24.8441
35.6653 24.6224
35.7123 24.6501
35.759 24.5769
35.806 24.4408
35.8528 24.3141
35.8998 24.285
35.9468 24.2798
35.9936 24.1544
36.0406 24.1108
36.0874 24.0671
36.1345 24.0553
36.1813 23.928
36.2283 23.8956
36.2752 23.6446
36.3222 23.8232
36.3691 23.6382
36.4161 23.542
36.463 23.5486
36.5101 23.4509
36.557 23.4559
36.6041 23.1672
36.651 23.231
36.6981 23.1299
36.745 23.1068
36.7921 23.02
36.839 22.8898
36.8861 22.8529
36.9331 22.7923
36.9802 22.7184
37.0272 22.662
37.0743 22.5199
37.1213 22.4937
37.1684 22.4645
37.2154 22.4467
37.2626 22.2823
37.3098 22.2522
37.3568 22.207
37.404 22.1412
37.451 22.0026
37.4982 21.9812
37.5452 21.8694
37.5924 21.8055
37.6395 21.8168
37.6867 21.7287
37.7337 21.6274
37.781 21.531
37.8281 21.4919
37.8753 21.399
37.9224 21.2755
37.9697 21.2742
38.0168 21.154
38.064 21.0533
38.1111 21.0524
38.1584 20.972
38.2056 20.8436
38.2529 20.8986
38.3 20.7723
38.3473 20.7522
38.3945 20.5976
38.4418 20.5583
38.489 20.5833
38.5363 20.4105
38.5837 20.4192
38.6309 20.265
38.6782 20.2756
38.7254 20.1523
38.7728 20.1292
38.82 20.0448
38.8674 19.9566
38.9146 19.9629
38.9621 19.8299
39.0093 19.8088
39.0567 19.7555
39.104 19.7128
39.1514 19.5451
39.1987 19.5233
39.2461 19.5493
39.2934 19.4322
39.3409 19.3497
39.3882 19.2553
39.4356 19.2556
39.483 19.2211
39.5304 19.088
39.5778 19.0825
39.6253 19.015
39.6726 18.9717
39.7201 18.9832
39.7675 18.8031
39.815 18.8148
39.8624 18.694
39.9099 18.6388
39.9575 18.5706
40.0049 18.5511
40.0525 18.4259
40.0999 18.3569
40.1474 18.3528
40.1949 18.2635
40.2425 18.2899
40.2899 18.1615
40.3375 18.163
40.385 18.0428
40.4326 17.9888
40.48 17.9246
40.5277 17.8569
40.5752 17.8143
40.6228 17.8004
40.6703 17.7093
40.718 17.6424
40.7655 17.6126
40.8132 17.5733
40.8607 17.5334
40.9084 17.477
40.9559 17.3852
41.0036 17.3763
41.0512 17.2756
41.0989 17.2528
41.1465 17.1539
41.1942 17.116
41.242 17.0027
41.2896 16.9318
41.3373 16.8873
41.3849 16.8797
41.4327 16.802
41.4803 16.7607
41.5281 16.6917
41.5758 16.6504
41.6236 16.5641
41.6712 16.5579
41.7191 16.4671
41.7667 16.4062
41.8146 16.3891
41.8622 16.2737
41.9101 16.2998
41.9578 16.134
42.0057 16.1716
42.0534 16.1073
42.1013 16.0701
42.149 15.9099
42.1969 15.9682
42.2446 15.8663
42.2925 15.8334
42.3403 15.7662
42.3882 15.7672
42.436 15.7304
42.4839 15.5924
42.5319 15.5771
42.5797 15.5145
42.6277 15.4671
42.6755 15.4334
42.7235 15.3115
42.7713 15.3228
42.8193 15.2281
42.8671 15.2268
42.9152 15.1941
42.963 15.0741
43.0111 15.0486
43.0589 14.9641
43.107 14.9542
43.1549 14.8712
43.2029 14.8557
43.2508 14.7898
43.2989 14.6667
43.3468 14.6425
43.3949 14.6064
43.4429 14.5655
43.491 14.5593
43.5389 14.4888
43.5871 14.4527
43.635 14.3219
43.6832 14.3136
43.7312 14.2746
43.7793 14.2047
43.8273 14.2317
43.8755 14.1303
43.9237 14.1125
43.9717 14.0532
44.0199 13.9619
44.068 13.9185
44.1162 13.8321
44.1642 13.886
44.2125 13.8083
44.2606 13.7504
44.3088 13.7171
44.3569 13.6482
44.4052 13.6794
44.4533 13.5489
44.5016 13.4842
44.5497 13.455
44.598 13.4172
44.6461 13.3487
44.6945 13.3412
44.7426 13.2729
44.791 13.2194
44.8391 13.215
44.8875 13.1036
44.9357 13.0651
44.984 13.0271
45.0322 13.0181
45.0806 12.9262
45.1288 12.917
45.1773 12.8683
45.2257 12.7749
45.2739 12.7198
45.3224 12.7097
45.3706 12.667
45.4191 12.6079
45.4673 12.5843
45.5158 12.5366
45.5641 12.4972
45.6126 12.4597
45.6609 12.4011
45.7094 12.3519
45.7577 12.2895
45.8063 12.2338
45.8546 12.2358
45.9031 12.181
45.9515 12.1784
46.0001 12.0766
46.0484 12.1167
46.097 12.0154
46.1454 11.9609
46.194 11.9857
46.2424 11.8946
46.291 11.8351
46.3395 11.7698
46.3881 11.7528
46.4365 11.679
46.4852 11.668
46.5337 11.6571
46.5823 11.5904
46.631 11.5438
46.6795 11.494
46.7282 11.4515
46.7767 11.3989
46.8254 11.3441
46.8739 11.3203
46.9226 11.2626
46.9712 11.2143
47.0199 11.1814
47.0685 11.2146
47.1173 11.1342
47.1658 11.0364
47.2146 11.0318
47.2632 10.9829
47.312 10.94
47.3606 10.8944
47.4095 10.848
47.4581 10.82
47.5069 10.7785
47.5556 10.7373
47.6044 10.6481
47.6531 10.6503
47.702 10.6323
47.7507 10.6029
47.7996 10.5266
47.8483 10.5005
47.8972 10.4968
47.9461 10.4729
47.9948 10.3917
48.0438 10.3688
48.0925 10.3299
48.1415 10.3048
48.1902 10.2474
48.2392 10.2374
48.288 10.1979
48.337 10.1218
48.3858 10.1452
48.4348 10.0769
48.4837 10.029
48.5327 9.96919
48.5815 9.93522
48.6306 9.95257
48.6795 9.89067
48.7285 9.83772
48.7774 9.82607
48.8265 9.7928
48.8754 9.71331
48.9245 9.72514
48.9734 9.64118
49.0226 9.62833
49.0715 9.63049
49.1206 9.53923
49.1696 9.52444
49.2188 9.48324
49.2679 9.47652
49.3169 9.38011
49.3661 9.34705
49.4151 9.34938
49.4643 9.31861
49.5134 9.29765
49.5626 9.20395
49.6117 9.18444
49.6609 9.16772
49.71 9.11364
49.7592 9.08703
49.8083 9.03212
49.8576 9.02892
49.9067 8.98094
49.956 8.95409
50.0052 8.94634
50.0545 8.89222
50.1036 8.82717
50.153 8.82899
50.2022 8.77391
50.2515 8.72314
50.3007 8.71629
50.3501 8.65916
50.3993 8.66659
50.4487 8.60721
50.498 8.57916
50.5474 8.53702
50.5966 8.47427
50.6461 8.49944
50.6955 8.47641
50.7448 8.4028
50.7943 8.39374
50.8436 8.32549
50.8931 8.33439
50.9424 8.29655
50.9919 8.27603
51.0413 8.24754
51.0908 8.19703
51.1402 8.19284
51.1897 8.15676
51.2391 8.10752
51.2887 8.08448
51.3381 8.01862
51.3877 8.00439
51.4371 7.94881
51.4867 7.89498
51.5362 7.90953
51.5858 7.87437
51.6353 7.84802
51.6849 7.78038
51.7344 7.76972
51.7841 7.72652
51.8336 7.69201
51.8833 7.66532
51.9328 7.60603
51.9826 7.58922
52.0323 7.57302
52.0818 7.55896
52.1316 7.47396
52.1812 7.45616
52.231 7.40775
52.2806 7.39276
52.3304 7.43122
52.38 7.36692
52.4298 7.31892
52.4794 7.30857
52.5293 7.25834
52.5789 7.24398
52.6288 7.18242
52.6785 7.14218
52.7284 7.1577
52.7781 7.13498
52.828 7.10524
52.8777 7.0907
52.9276 7.00392
52.9774 7.02166
53.0273 6.97667
53.0771 6.91946
53.1271 6.93582
53.1769 6.88012
53.2269 6.83547
53.2767 6.81795
53.3267 6.78935
53.3765 6.76866
53.4266 6.73685
53.4766 6.70563
53.5265 6.64227
53.5765 6.63511
53.6264 6.58986
53.6765 6.59333
53.7264 6.5699
53.7765 6.51977
53.8265 6.51118
53.8766 6.46324
53.9266 6.42712
53.9767 6.41206
54.0267 6.38377
54.0769 6.34445
54.1269 6.34691
54.1771 6.25527
54.2271 6.23661
54.2773 6.19495
54.3274 6.2144
54.3776 6.14229
54.4277 6.07944
54.478 6.0611
54.528 6.00401
54.5783 5.93575
54.6285 5.92251
54.6788 5.94888
54.7289 5.83409
54.7792 5.82349
54.8296 5.76021
54.8798 5.71897
54.9301 5.69735
54.9803 5.67481
55.0307 5.67427
55.0809 5.58054
55.1314 5.5527
55.1816 5.41219
55.232 5.42556
55.2823 5.41062
55.3328 5.34225
55.383 5.24484
55.4335 5.18909
55.4838 5.16287
55.5344 5.13206
55.5847 5.08463
55.6352 5.10057
55.6856 5.0175
55.7361 5.01575