File: XRD/Ni3Fe_FD0796.xy
TT I
1.27165 6.86761
1.31627 6.93419
1.36089 6.80214
1.40551 6.03775
1.45013 6.16431
1.49476 6.38416
1.53938 5.72816
1.584 5.1452
1.62863 5.07534
1.67325 4.90936
1.71787 4.86448
1.7625 4.44469
1.80712 5.06653
1.85174 4.58528
1.89636 4.85977
1.94099 4.98646
1.98562 4.60542
2.03025 4.55012
2.07487 4.59244
2.11949 4.52624
2.16411 5.27992
2.20874 10.2259
2.25338 14.5253
2.298 5.43932
2.34263 5.6751
2.38725 6.09959
2.43188 6.20768
2.4765 7.23211
2.52115 7.58763
2.56577 7.49633
2.6104 8.39491
2.65503 8.09464
2.69965 8.4273
2.7443 8.63317
2.78893 8.40674
2.83356 8.65792
2.87818 8.87071
2.92281 9.25415
2.96744 9.37528
3.01209 10.1416
3.05672 11.3083
3.10135 12.3982
3.14599 12.6225
3.19062 14.1505
3.23527 14.9898
3.2799 15.6259
3.32454 17.043
3.36917 17.2663
3.4138 18.4178
3.45844 19.6881
3.50309 20.6002
3.54773 21.5757
3.59237 23.1008
3.637 62.1876
3.68164 42.9844
3.7263 25.5633
3.77094 25.94
3.81558 26.4288
3.86022 27.2934
3.90486 28.5886
3.9495 29.6294
3.99416 30.3402
4.0388 31.8753
4.08344 33.5997
4.12809 34.2181
4.17273 35.5618
4.21738 39.6701
4.26204 157.846
4.30669 136.144
4.35133 45.0306
4.39598 43.2411
4.44063 49.5329
4.4853 57.4
4.52995 53.1082
4.5746 53.5547
4.61925 53.2896
4.6639 55.0655
4.70855 57.7627
4.75322 60.8033
4.79788 65.0943
4.84253 67.3298
4.88719 72.8116
4.93184 75.4558
4.97652 80.1557
5.02118 86.7855
5.06583 94.225
5.11049 104.601
5.15515 158.237
5.19981 373.489
5.24449 2817.06
5.28916 12287.5
5.33382 2507.88
5.37848 180.126
5.42315 126.651
5.46783 114.302
5.5125 107.501
5.55716 100.475
5.60183 97.2405
5.6465 95.5908
5.69117 93.3358
5.73586 91.6215
5.78053 93.6037
5.8252 93.1927
5.86988 95.1763
5.91455 94.0761
5.95924 103.25
6.00392 227.318
6.0486 967.063
6.09328 4576.29
6.13795 3114.67
6.18263 202.289
6.22733 89.7079
6.27201 80.4066
6.3167 88.8174
6.36138 75.6007
6.40606 68.4439
6.45075 67.2452
6.49545 64.345
6.54014 62.8145
6.58483 62.1143
6.62952 62.0206
6.67421 78.8056
6.71892 105.685
6.76361 63.8551
6.8083 58.239
6.853 57.925
6.89769 56.2811
6.94239 55.5508
6.98711 55.1779
7.03181 54.7505
7.07651 54.5289
7.12121 54.3108
7.16591 55.219
7.21063 54.8453
7.25533 63.53
7.30004 123.675
7.34475 74.3546
7.38945 54.9734
7.43416 53.0729
7.47889 53.7793
7.5236 54.0459
7.56831 54.4653
7.61303 55.4851
7.65774 55.8897
7.70247 55.7429
7.74719 55.6871
7.79191 56.0597
7.83663 56.3509
7.88135 57.3136
7.92607 58.0641
7.97081 59.2022
8.01553 60.3647
8.06026 62.0941
8.10498 63.386
8.14971 70.7041
8.19446 70.523
8.23919 68.7984
8.28392 71.1306
8.32865 73.5064
8.37339 77.6227
8.41812 83.6788
8.46288 105.485
8.50761 173.894
8.55235 383.432
8.59709 1210.94
8.64183 2196.66
8.68658 848.118
8.73134 146.984
8.77609 97.036
8.82083 91.5196
8.86558 90.0121
8.91033 89.8317
8.9551 88.814
8.99985 84.7681
9.04461 82.7761
9.08936 82.5218
9.13412 81.7279
9.17888 81.4856
9.22365 81.7832
9.26841 81.591
9.31318 82.9531
9.35794 83.7868
9.4027 83.8467
9.44749 83.9029
9.49226 84.1287
9.53703 84.8599
9.5818 87.7134
9.62657 91.7698
9.67134 94.5999
9.71614 92.2449
9.76091 93.6723
9.80569 97.4044
9.85047 99.8422
9.89525 115.073
9.94005 128.478
9.98484 185.659
10.0296 344.867
10.0744 830.82
10.1192 1798.43
10.164 1515.63
10.2088 341.779
10.2536 119.878
10.2984 109.616
10.3432 109.575
10.388 103.782
10.4328 120.397
10.4776 161.273
10.5224 290.404
10.5672 542.944
10.612 488.692
10.6568 184.771
10.7017 93.7929
10.7465 85.4494
10.7913 82.3472
10.8361 80.2154
10.8809 78.1935
10.9257 77.3526
10.9706 77.3361
11.0154 74.3236
11.0602 72.0297
11.105 70.8441
11.1499 72.6872
11.1947 76.4001
11.2395 70.8923
11.2844 68.5225
11.3292 66.143
11.374 65.5968
11.4189 64.8732
11.4637 64.2155
11.5086 64.0356
11.5534 65.4161
11.5983 64.0931
11.6431 62.8272
11.688 62.1946
11.7328 62.19
11.7777 62.1625
11.8225 61.7952
11.8674 61.9578
11.9122 62.2767
11.9571 62.3702
12.002 63.6029
12.0468 68.2998
12.0917 78.0687
12.1366 102.836
12.1814 157.796
12.2263 213.98
12.2712 165.166
12.3161 87.5719
12.3609 67.0481
12.4058 63.4014
12.4507 63.5881
12.4956 63.6094
12.5405 64.0055
12.5853 64.6485
12.6302 69.1122
12.6751 72.1428
12.72 67.9482
12.7649 67.2513
12.8098 67.8462
12.8547 68.9014
12.8996 70.3728
12.9445 71.8265
12.9894 73.8924
13.0343 75.4909
13.0792 79.3873
13.1242 90.3877
13.1691 111.349
13.214 148.559
13.2589 247.729
13.3038 388.72
13.3487 419.995
13.3937 240.285
13.4386 116.989
13.4835 105.595
13.5285 119.856
13.5734 159.329
13.6183 256.679
13.6633 363.797
13.7082 324.854
13.7531 167.323
13.7981 92.4323
13.843 80.5691
13.888 78.7877
13.9329 76.3241
13.9779 75.0816
14.0228 73.6177
14.0678 72.0319
14.1127 71.8561
14.1577 71.273
14.2027 70.7361
14.2476 69.7658
14.2926 69.6116
14.3376 69.8048
14.3825 69.0101
14.4275 68.2165
14.4725 68.1121
14.5175 68.1139
14.5624 68.2718
14.6074 69.7703
14.6524 70.0951
14.6974 69.9272
14.7424 72.2573
14.7874 79.2364
14.8324 88.5634
14.8774 111.233
14.9224 158.594
14.9674 216.039
15.0124 219.692
15.0574 140.844
15.1024 85.9415
15.1474 71.0324
15.1924 69.4814
15.2374 69.1918
15.2824 68.69
15.3274 66.9502
15.3725 66.1363
15.4175 65.5881
15.4625 65.3086
15.5076 65.2095
15.5526 65.3261
15.5976 65.3116
15.6426 67.0608
15.6877 72.3558
15.7327 79.2868
15.7778 94.8097
15.8228 129.464
15.8679 177.598
15.9129 196.166
15.958 146.033
16.003 89.7054
16.0481 65.9266
16.0931 62.9424
16.1382 60.8917
16.1833 59.8481
16.2283 58.2911
16.2734 57.4117
16.3185 57.5174
16.3636 57.6007
16.4086 56.5795
16.4537 55.4719
16.4988 54.7566
16.5439 54.8176
16.589 54.6002
16.6341 54.1861
16.6792 53.7448
16.7243 54.3431
16.7694 54.3075
16.8145 54.1934
16.8596 54.4305
16.9047 55.1244
16.9498 55.5032
16.9949 54.9929
17.04 55.4898
17.0851 56.6068
17.1302 58.217
17.1754 61.3063
17.2205 66.7814
17.2656 75.3127
17.3108 83.2941
17.3559 81.1627
17.401 68.7934
17.4462 60.6617
17.4913 58.3998
17.5365 58.5128
17.5815 58.5793
17.6268 58.9187
17.6718 59.6652
17.7171 60.1633
17.7622 60.7265
17.8074 61.6201
17.8525 64.4756
17.8977 68.0345
17.9428 73.1471
17.9881 82.6233
18.0331 101.568
18.0784 125.33
18.1237 141.641
18.1688 127.074
18.214 98.7663
18.2591 84.6147
18.3044 91.2721
18.3495 101.746
18.3948 105.465
18.4399 92.4204
18.4852 74.0289
18.5303 64.2286
18.5756 61.3585
18.6207 60.6215
18.666 59.6039
18.7112 59.0075
18.7565 58.2124
18.8016 57.9758
18.8469 57.6115
18.892 57.1317
18.9374 56.5762
18.9825 56.3416
19.0278 56.2697
19.073 56.443
19.1183 56.7705
19.1635 57.2487
19.2088 58.7541
19.254 61.7081
19.2993 66.4142
19.3447 72.6417
19.3898 75.7733
19.4352 70.2701
19.4804 61.1502
19.5257 55.4449
19.5709 53.6018
19.6163 53.4465
19.6615 52.9749
19.7068 52.7635
19.752 52.736
19.7974 53.0536
19.8426 53.6862
19.888 54.5751
19.9332 55.7024
19.9786 58.5494
20.0238 62.732
20.0692 67.9702
20.1144 69.6792
20.1598 66.939
20.205 62.4369
20.2504 61.8366
20.2957 64.1252
20.3411 65.5001
20.3863 62.8762
20.4318 56.8162
20.477 52.2104
20.5224 50.7423
20.5677 50.2101
20.6131 49.621
20.6586 49.0502
20.7038 48.8539
20.7493 48.5343
20.7945 48.5071
20.84 48.2631
20.8853 48.1494
20.9307 47.8823
20.976 48.3019
21.0215 48.1026
21.0668 48.4429
21.1122 49.1247
21.1575 49.4679
21.203 50.5338
21.2483 50.9402
21.2938 50.8292
21.3391 49.3609
21.3846 48.3333
21.4299 47.8505
21.4754 47.9047
21.5207 48.1078
21.5662 48.5035
21.6116 48.9142
21.6571 49.4315
21.7024 50.4154
21.7479 52.2929
21.7933 55.1162
21.8388 59.1321
21.8843 63.0135
21.9297 64.2361
21.9752 62.0595
22.0206 58.0942
22.0661 55.9125
22.1115 55.795
22.157 55.3214
22.2024 53.1472
22.248 50.4439
22.2933 49.1153
22.3389 48.5298
22.3843 48.3817
22.4299 48.2427
22.4753 48.246
22.5208 48.0077
22.5662 47.9808
22.6118 48.3565
22.6572 48.4035
22.7028 48.6969
22.7483 49.164
22.7939 50.1035
22.8393 51.578
22.8849 54.1218
22.9303 56.1865
22.9759 57.6157
23.0214 56.6183
23.067 53.522
23.1126 50.1995
23.1581 48.4188
23.2037 48.3159
23.2492 48.5652
23.2948 48.3128
23.3403 48.6186
23.3859 49.3656
23.4314 50.3956
23.477 52.4112
23.5225 54.8496
23.5682 56.9902
23.6137 57.5322
23.6593 54.4101
23.7048 50.3906
23.7505 47.3337
23.796 45.8967
23.8417 45.4842
23.8872 44.9952
23.9329 44.7298
23.9784 44.4122
24.0241 44.1959
24.0697 43.991
24.1154 43.6182
24.1609 43.309
24.2066 43.4525
24.2522 43.402
24.2979 42.9787
24.3434 42.6205
24.3892 42.7081
24.4349 42.6425
24.4805 42.495
24.5262 42.6214
24.5718 42.5319
24.6175 42.4117
24.6631 42.5245
24.7089 42.1184
24.7545 42.012
24.8002 41.874
24.8458 41.8948
24.8916 41.6179
24.9372 41.733
24.983 42.1876
25.0286 42.5664
25.0744 42.9845
25.12 43.4352
25.1658 44.1233
25.2114 44.3312
25.2572 44.4565
25.3029 44.4594
25.3487 44.6431
25.3943 44.0474
25.4402 42.8719
25.4858 41.8257
25.5316 40.8473
25.5773 40.4712
25.6231 40.4443
25.669 40.1316
25.7147 40.1495
25.7605 40.1153
25.8062 40.1047
25.8521 40.2147
25.8977 40.148
25.9436 40.4933
25.9893 40.6989
26.0352 41.1375
26.0809 41.1844
26.1268 41.2196
26.1725 40.8911
26.2184 40.3922
26.2641 39.754
26.31 39.6728
26.3557 39.6933
26.4017 39.6678
26.4474 40.0267
26.4933 40.2924
26.5391 40.9424
26.585 41.4038
26.6308 41.7735
26.6767 41.7708
26.7225 41.4113
26.7684 40.9439
26.8142 40.3323
26.8601 39.9867
26.9059 39.5424
26.9519 39.0324
26.9979 38.6958
27.0437 38.5985
27.0896 38.4287
27.1354 38.4397
27.1814 38.2205
27.2272 38.1448
27.2732 38.21
27.3191 37.9296
27.3651 38.107
27.4109 38.0613
27.4569 38.2107
27.5027 38.2015
27.5488 38.2403
27.5946 38.0422
27.6407 37.7323
27.6865 37.7099
27.7326 37.6311
27.7784 37.4161
27.8245 37.3846
27.8703 37.6856
27.9164 38.0553
27.9623 37.996
28.0084 38.5387
28.0543 38.8402
28.1003 38.5927
28.1462 38.4218
28.1923 38.0152
28.2384 37.6263
28.2843 37.2535
28.3304 36.7659
28.3764 36.2749
28.4225 36.1043
28.4684 35.9132
28.5145 35.5229
28.5605 35.4508
28.6066 35.2287
28.6526 35.1261
28.6987 35.1551
28.7447 35.1829
28.7908 35.1058
28.8368 35.0535
28.8829 35.1564
28.9289 34.9713
28.9751 34.7836
29.0211 34.57
29.0673 34.3195
29.1133 34.2172
29.1595 34.0928
29.2055 34.0134
29.2517 34.0053
29.2977 34.0741
29.3439 33.8271
29.3899 33.9172
29.4361 33.8131
29.4824 33.6461
29.5284 33.3959
29.5746 33.0189
29.6207 32.8675
29.6669 32.7178
29.713 32.6162
29.7593 32.4503
29.8053 32.5138
29.8516 32.4494
29.8977 32.4338
29.9439 32.3916
29.99 32.2515
30.0363 32.0625
30.0824 32.2325
30.1287 32.0165
30.1748 32.1251
30.2211 32.0853
30.2673 31.8725
30.3136 32.0004
30.3597 31.898
30.406 31.9621
30.4522 31.7816
30.4985 31.712
30.5447 31.9781
30.591 31.7672
30.6372 31.9799
30.6835 31.9083
30.7297 31.931
30.7761 31.757
30.8224 31.7272
30.8686 31.5419
30.915 31.2481
30.9612 31.1754
31.0076 30.9722
31.0538 30.796
31.1002 30.8693
31.1464 30.5654
31.1928 30.705
31.2391 30.6444
31.2855 30.5877
31.3317 30.4866
31.3781 30.6738
31.4244 30.638
31.4708 30.5805
31.5171 30.4739
31.5636 30.4676
31.6098 30.1769
31.6563 30.0104
31.7026 30.0516
31.7491 29.8258
31.7953 29.8286
31.8418 29.8105
31.8881 29.9221
31.9346 29.8606
31.9809 29.8875
32.0275 29.6548
32.074 29.4456
32.1203 29.2549
32.1668 29.1723
32.2132 29.0194
32.2597 28.8673
32.306 28.8215
32.3526 28.737
32.399 28.6447
32.4455 28.553
32.4919 28.4095
32.5385 28.2765
32.5848 28.1831
32.6314 28.1745
32.6778 28.1643
32.7244 27.9404
32.7708 27.8937
32.8174 27.975
32.8638 27.7663
32.9104 27.8006
32.9569 27.7527
33.0035 27.5601
33.0499 27.4706
33.0966 27.5658
33.143 27.5593
33.1897 27.4419
33.2361 27.2922
33.2828 27.3133
33.3293 27.1259
33.3759 27.0207
33.4226 26.9982
33.4691 26.7839
33.5158 26.7116
33.5623 26.7078
33.609 26.475
33.6555 26.396
33.7022 26.2911
33.7487 26.2581
33.7954 26.2759
33.842 26.1817
33.8887 26.1246
33.9353 25.9656
33.982 25.8296
34.0286 25.7893
34.0753 25.8065
34.1219 25.6491
34.1687 25.5539
34.2152 25.4091
34.262 25.3058
34.3086 25.3144
34.3554 25.2713
34.402 25.1212
34.4488 25.085
34.4954 24.9709
34.5422 24.93
34.5889 24.7928
34.6357 24.6659
34.6825 24.6983
34.7292 24.6203
34.776 24.5059
34.8227 24.5069
34.8695 24.3534
34.9162 24.393
34.9631 24.2519
35.0098 24.2644
35.0566 24.1054
35.1033 24.0602
35.1502 24.0116
35.1969 23.9925
35.2438 23.9024
35.2906 23.8595
35.3375 23.8716
35.3842 23.7081
35.4311 23.7248
35.4779 23.7206
35.5248 23.6689
35.5716 23.5078
35.6185 23.4355
35.6653 23.3488
35.7123 23.2889
35.759 23.2006
35.806 23.1647
35.8528 23.0428
35.8998 23.0516
35.9468 22.9429
35.9936 22.8537
36.0406 22.7861
36.0874 22.7915
36.1345 22.6443
36.1813 22.6177
36.2283 22.4394
36.2752 22.404
36.3222 22.4277
36.3691 22.3014
36.4161 22.2243
36.463 22.2294
36.5101 22.2058
36.557 22.1342
36.6041 21.9698
36.651 21.9746
36.6981 21.8565
36.745 21.7845
36.7921 21.7828
36.839 21.6485
36.8861 21.604
36.9331 21.6
36.9802 21.4737
37.0272 21.4247
37.0743 21.2878
37.1213 21.2751
37.1684 21.1472
37.2154 21.1493
37.2626 21.0782
37.3098 20.9721
37.3568 20.9213
37.404 20.8926
37.451 20.7643
37.4982 20.7252
37.5452 20.6675
37.5924 20.5643
37.6395 20.6219
37.6867 20.4622
37.7337 20.3593
37.781 20.306
37.8281 20.2621
37.8753 20.2055
37.9224 20.0955
37.9697 20.0537
38.0168 19.9473
38.064 19.8667
38.1111 19.8927
38.1584 19.8023
38.2056 19.7904
38.2529 19.748
38.3 19.5919
38.3473 19.6222
38.3945 19.4831
38.4418 19.4616
38.489 19.4015
38.5363 19.2215
38.5837 19.2504
38.6309 19.1969
38.6782 19.0567
38.7254 19.052
38.7728 19.025
38.82 18.9572
38.8674 18.9097
38.9146 18.8101
38.9621 18.776
39.0093 18.7175
39.0567 18.6832
39.104 18.6309
39.1514 18.5546
39.1987 18.4902
39.2461 18.4746
39.2934 18.387
39.3409 18.2351
39.3882 18.2162
39.4356 18.1914
39.483 18.1587
39.5304 18.1024
39.5778 18.01
39.6253 17.9851
39.6726 17.9045
39.7201 17.8546
39.7675 17.842
39.815 17.7575
39.8624 17.7412
39.9099 17.6943
39.9575 17.5667
40.0049 17.5394
40.0525 17.4754
40.0999 17.4055
40.1474 17.3388
40.1949 17.3011
40.2425 17.229
40.2899 17.1919
40.3375 17.1236
40.385 17.0797
40.4326 17.0158
40.48 16.9292
40.5277 16.8773
40.5752 16.81
40.6228 16.7858
40.6703 16.7219
40.718 16.7128
40.7655 16.6796
40.8132 16.5896
40.8607 16.5464
40.9084 16.4722
40.9559 16.4712
41.0036 16.4162
41.0512 16.32
41.0989 16.2988
41.1465 16.2159
41.1942 16.1905
41.242 16.0844
41.2896 16.056
41.3373 16.0574
41.3849 15.9561
41.4327 15.8941
41.4803 15.7731
41.5281 15.7612
41.5758 15.7181
41.6236 15.6811
41.6712 15.6392
41.7191 15.5887
41.7667 15.5425
41.8146 15.4924
41.8622 15.4244
41.9101 15.4026
41.9578 15.2573
42.0057 15.2901
42.0534 15.219
42.1013 15.1268
42.149 15.0683
42.1969 15.0692
42.2446 15.0114
42.2925 14.9773
42.3403 14.9029
42.3882 14.8885
42.436 14.8579
42.4839 14.7506
42.5319 14.7537
42.5797 14.6605
42.6277 14.6009
42.6755 14.6376
42.7235 14.4715
42.7713 14.4927
42.8193 14.4364
42.8671 14.3553
42.9152 14.3565
42.963 14.276
43.0111 14.2118
43.0589 14.2099
43.107 14.1206
43.1549 14.1317
43.2029 14.0009
43.2508 14.0075
43.2989 13.9648
43.3468 13.8689
43.3949 13.8401
43.4429 13.809
43.491 13.6929
43.5389 13.6984
43.5871 13.6465
43.635 13.5271
43.6832 13.5689
43.7312 13.4831
43.7793 13.4651
43.8273 13.3919
43.8755 13.3684
43.9237 13.3193
43.9717 13.2955
44.0199 13.1936
44.068 13.1728
44.1162 13.1167
44.1642 13.1007
44.2125 13.1031
44.2606 12.9637
44.3088 12.9368
44.3569 12.9226
44.4052 12.9183
44.4533 12.7828
44.5016 12.7547
44.5497 12.7431
44.598 12.7206
44.6461 12.6272
44.6945 12.622
44.7426 12.579
44.791 12.4927
44.8391 12.4928
44.8875 12.4087
44.9357 12.43
44.984 12.3557
45.0322 12.3028
45.0806 12.2011
45.1288 12.2247
45.1773 12.1431
45.2257 12.1523
45.2739 12.0866
45.3224 12.0326
45.3706 11.9829
45.4191 11.9346
45.4673 11.9552
45.5158 11.8914
45.5641 11.7817
45.6126 11.7681
45.6609 11.7434
45.7094 11.6543
45.7577 11.6604
45.8063 11.5755
45.8546 11.5704
45.9031 11.5485
45.9515 11.4707
46.0001 11.4507
46.0484 11.4264
46.097 11.3675
46.1454 11.3422
46.194 11.3061
46.2424 11.2253
46.291 11.1983
46.3395 11.1453
46.3881 11.0894
46.4365 11.0947
46.4852 11.0756
46.5337 11.0241
46.5823 10.9999
46.631 10.9188
46.6795 10.891
46.7282 10.8597
46.7767 10.81
46.8254 10.7082
46.8739 10.7435
46.9226 10.6498
46.9712 10.6294
47.0199 10.6062
47.0685 10.5638
47.1173 10.5143
47.1658 10.4762
47.2146 10.4575
47.2632 10.4507
47.312 10.4076
47.3606 10.3253
47.4095 10.3024
47.4581 10.2383
47.5069 10.1698
47.5556 10.1501
47.6044 10.1429
47.6531 10.0972
47.702 10.0269
47.7507 10.0094
47.7996 9.98488
47.8483 9.97495
47.8972 9.92139
47.9461 9.89179
47.9948 9.81311
48.0438 9.78444
48.0925 9.76025
48.1415 9.72853
48.1902 9.71349
48.2392 9.72219
48.288 9.63904
48.337 9.63249
48.3858 9.54892
48.4348 9.54427
48.4837 9.50973
48.5327 9.50482
48.5815 9.44866
48.6306 9.42764
48.6795 9.38003
48.7285 9.33191
48.7774 9.27239
48.8265 9.2551
48.8754 9.22098
48.9245 9.17754
48.9734 9.15103
49.0226 9.13452
49.0715 9.07259
49.1206 9.05647
49.1696 8.96582
49.2188 8.95719
49.2679 8.9407
49.3169 8.9245
49.3661 8.85977
49.4151 8.83258
49.4643 8.82283
49.5134 8.77913
49.5626 8.71769
49.6117 8.73086
49.6609 8.67676
49.71 8.62253
49.7592 8.58985
49.8083 8.54482
49.8576 8.55921
49.9067 8.51092
49.956 8.47954
50.0052 8.41389
50.0545 8.39451
50.1036 8.39451
50.153 8.35832
50.2022 8.33635
50.2515 8.29883
50.3007 8.20895
50.3501 8.20744
50.3993 8.19713
50.4487 8.12843
50.498 8.13113
50.5474 8.11803
50.5966 8.05163
50.6461 8.04461
50.6955 8.01853
50.7448 8.01289
50.7943 7.91754
50.8436 7.90461
50.8931 7.87016
50.9424 7.8625
50.9919 7.8229
51.0413 7.79571
51.0908 7.76091
51.1402 7.70545
51.1897 7.69256
51.2391 7.64436
51.2887 7.6379
51.3381 7.62193
51.3877 7.5723
51.4371 7.5646
51.4867 7.46311
51.5362 7.42979
51.5858 7.41886
51.6353 7.40231
51.6849 7.35414
51.7344 7.34025
51.7841 7.34603
51.8336 7.25968
51.8833 7.27145
51.9328 7.23675
51.9826 7.20227
52.0323 7.17704
52.0818 7.12869
52.1316 7.08259
52.1812 7.06469
52.231 7.03331
52.2806 6.99527
52.3304 7.00652
52.38 6.98083
52.4298 6.94893
52.4794 6.90929
52.5293 6.86982
52.5789 6.82667
52.6288 6.8422
52.6785 6.79206
52.7284 6.79522
52.7781 6.74356
52.828 6.73756
52.8777 6.67404
52.9276 6.67182
52.9774 6.63664
53.0273 6.59699
53.0771 6.59987
53.1271 6.58056
53.1769 6.52883
53.2269 6.50161
53.2767 6.44476
53.3267 6.44625
53.3765 6.39772
53.4266 6.37569
53.4766 6.37581
53.5265 6.32495
53.5765 6.31065
53.6264 6.27612
53.6765 6.26648
53.7264 6.18805
53.7765 6.1517
53.8265 6.14024
53.8766 6.12292
53.9266 6.11136
53.9767 6.07621
54.0267 6.06414
54.0769 6.03753
54.1269 6.00319
54.1771 5.94548
54.2271 5.91566
54.2773 5.9093
54.3274 5.88759
54.3776 5.84703
54.4277 5.84333
54.478 5.79451
54.528 5.73186
54.5783 5.69635
54.6285 5.6664
54.6788 5.6237
54.7289 5.57226
54.7792 5.56333
54.8296 5.53654
54.8798 5.45043
54.9301 5.40175
54.9803 5.39165
55.0307 5.39601
55.0809 5.31921
55.1314 5.32558
55.1816 5.25052
55.232 5.19771
55.2823 5.18005
55.3328 5.0827
55.383 5.01469
55.4335 5.00331
55.4838 4.98406
55.5344 4.89038
55.5847 4.89369
55.6352 4.879
55.6856 4.8234
55.7361 4.76553