File: XRD/Ni3Fe_FD0090.xy
TT I
1.27165 8.92217
1.31627 8.2829
1.36089 8.46183
1.40551 7.32427
1.45013 7.4556
1.49476 7.13392
1.53938 7.63099
1.584 6.89634
1.62863 6.71689
1.67325 6.27291
1.71787 6.04552
1.7625 6.05772
1.80712 6.00162
1.85174 5.97281
1.89636 5.80337
1.94099 6.0988
1.98562 6.01004
2.03025 6.092
2.07487 5.64054
2.11949 5.67509
2.16411 5.21229
2.20874 4.73971
2.25338 4.98245
2.298 4.98371
2.34263 4.76153
2.38725 4.64546
2.43188 4.28582
2.4765 5.01342
2.52115 4.10993
2.56577 4.38869
2.6104 4.34421
2.65503 4.73977
2.69965 5.86112
2.7443 5.70532
2.78893 5.77435
2.83356 6.70213
2.87818 7.59634
2.92281 8.16487
2.96744 9.04377
3.01209 10.5447
3.05672 10.6612
3.10135 12.4775
3.14599 12.3593
3.19062 14.0677
3.23527 14.89
3.2799 15.7204
3.32454 17.0198
3.36917 17.0617
3.4138 18.5241
3.45844 19.4206
3.50309 20.3355
3.54773 20.8848
3.59237 21.2438
3.637 22.5837
3.68164 23.2034
3.7263 24.2479
3.77094 24.6844
3.81558 25.0474
3.86022 26.1433
3.90486 27.559
3.9495 28.1248
3.99416 29.3195
4.0388 30.4284
4.08344 31.4021
4.12809 32.2697
4.17273 33.5303
4.21738 35.3224
4.26204 36.2181
4.30669 37.2107
4.35133 39.4181
4.39598 40.8497
4.44063 42.8328
4.4853 44.4359
4.52995 46.825
4.5746 48.8231
4.61925 51.1775
4.6639 54.1595
4.70855 56.5045
4.75322 59.7039
4.79788 62.8402
4.84253 66.9753
4.88719 71.1891
4.93184 76.9316
4.97652 85.1065
5.02118 97.0002
5.06583 109.663
5.11049 131.334
5.15515 184.452
5.19981 743.144
5.24449 3748.35
5.28916 5844.72
5.33382 7612.67
5.37848 869.076
5.42315 213.66
5.46783 147.629
5.5125 125.787
5.55716 116.245
5.60183 107.784
5.6465 104.553
5.69117 102.646
5.73586 100.378
5.78053 100.487
5.8252 101.933
5.86988 106.167
5.91455 116.94
5.95924 146.488
6.00392 372.739
6.0486 1447.31
6.09328 1876.07
6.13795 3700.83
6.18263 1074.29
6.22733 167.654
6.27201 102.092
6.3167 84.318
6.36138 75.9913
6.40606 70.5576
6.45075 67.3594
6.49545 64.8797
6.54014 62.5486
6.58483 61.2285
6.62952 59.7555
6.67421 57.7587
6.71892 57.0728
6.76361 56.2118
6.8083 54.9506
6.853 54.3635
6.89769 53.8895
6.94239 53.9695
6.98711 52.7027
7.03181 52.4505
7.07651 52.2
7.12121 51.6046
7.16591 51.6556
7.21063 51.1167
7.25533 51.2034
7.30004 51.4048
7.34475 51.3082
7.38945 51.7091
7.43416 51.3075
7.47889 52.3832
7.5236 63.2959
7.56831 90.8855
7.61303 63.8596
7.65774 53.6803
7.70247 53.7889
7.74719 53.628
7.79191 54.2131
7.83663 54.4496
7.88135 55.657
7.92607 56.116
7.97081 57.2678
8.01553 58.6352
8.06026 59.815
8.10498 61.2878
8.14971 62.8594
8.19446 64.9478
8.23919 67.5483
8.28392 70.429
8.32865 73.4485
8.37339 78.6433
8.41812 85.08
8.46288 101.347
8.50761 202.605
8.55235 670.223
8.59709 686.833
8.64183 987.911
8.68658 1769.8
8.73134 640.239
8.77609 139.731
8.82083 103.945
8.86558 93.7354
8.91033 88.8141
8.9551 85.9211
8.99985 84.2023
9.04461 82.8415
9.08936 81.941
9.13412 81.7204
9.17888 82.4893
9.22365 99.7828
9.26841 143.372
9.31318 105.983
9.35794 83.9082
9.4027 82.2041
9.44749 82.3043
9.49226 83.0486
9.53703 83.7628
9.5818 85.5003
9.62657 85.9496
9.67134 87.6831
9.71614 89.8455
9.76091 92.0892
9.80569 95.0613
9.85047 98.8311
9.89525 105.064
9.94005 119.08
9.98484 213.232
10.0296 610.097
10.0744 631.618
10.1192 644.697
10.164 1372.8
10.2088 1314.72
10.2536 319.711
10.2984 127.026
10.3432 111.717
10.388 107.026
10.4328 128.121
10.4776 234.04
10.5224 234.813
10.5672 227.952
10.612 399.661
10.6568 458.184
10.7017 183.041
10.7465 99.9738
10.7913 85.1122
10.8361 80.342
10.8809 77.4634
10.9257 75.1451
10.9706 73.5415
11.0154 71.8452
11.0602 70.6471
11.105 68.9871
11.1499 67.4793
11.1947 66.8662
11.2395 65.533
11.2844 65.3255
11.3292 64.4655
11.374 63.5815
11.4189 63.0235
11.4637 62.3648
11.5086 62.0069
11.5534 61.0491
11.5983 61.3234
11.6431 60.9586
11.688 60.6548
11.7328 60.6628
11.7777 60.32
11.8225 60.3286
11.8674 60.819
11.9122 63.461
11.9571 74.8706
12.002 74.7495
12.0468 71.1162
12.0917 94.8017
12.1366 105.897
12.1814 97.2864
12.2263 113.438
12.2712 172.309
12.3161 164.569
12.3609 85.9244
12.4058 64.9066
12.4507 62.7161
12.4956 62.231
12.5405 62.257
12.5853 62.6739
12.6302 62.6405
12.6751 63.2811
12.72 64.1196
12.7649 65.0662
12.8098 65.6919
12.8547 66.839
12.8996 68.5702
12.9445 69.9391
12.9894 72.2423
13.0343 74.0983
13.0792 79.7569
13.1242 90.1063
13.1691 143.449
13.214 195.793
13.2589 173.673
13.3038 174.598
13.3487 257.113
13.3937 392.488
13.4386 279.085
13.4835 139.716
13.5285 167.921
13.5734 183.219
13.6183 156.076
13.6633 168.45
13.7082 263.557
13.7531 342.669
13.7981 203.6
13.843 95.7572
13.888 81.3546
13.9329 77.1404
13.9779 75.377
14.0228 73.752
14.0678 72.4312
14.1127 73.6372
14.1577 80.5246
14.2027 79.0783
14.2476 71.9073
14.2926 68.7694
14.3376 68.2502
14.3825 67.7535
14.4275 67.0937
14.4725 66.9791
14.5175 67.2904
14.5624 67.1638
14.6074 67.3888
14.6524 67.9823
14.6974 68.774
14.7424 70.8942
14.7874 82.4813
14.8324 112.362
14.8774 119.451
14.9224 107.445
14.9674 112.357
15.0124 149.029
15.0574 207.292
15.1024 172.02
15.1474 93.6795
15.1924 72.5317
15.2374 68.6851
15.2824 67.1988
15.3274 66.0523
15.3725 65.4083
15.4175 64.9502
15.4625 64.6908
15.5076 64.1342
15.5526 64.2846
15.5976 64.8043
15.6426 66.18
15.6877 75.129
15.7327 99.6707
15.7778 107.621
15.8228 96.8544
15.8679 96.9837
15.9129 116.403
15.958 168.802
16.003 177.097
16.0481 109.916
16.0931 72.1356
16.1382 63.118
16.1833 60.3368
16.2283 58.3061
16.2734 57.4288
16.3185 56.5514
16.3636 55.8544
16.4086 54.97
16.4537 54.5897
16.4988 54.1092
16.5439 53.9561
16.589 53.6874
16.6341 53.4777
16.6792 52.9887
16.7243 53.2192
16.7694 53.2047
16.8145 53.2325
16.8596 53.2664
16.9047 54.1388
16.9498 55.0262
16.9949 55.0104
17.04 54.7438
17.0851 56.0995
17.1302 60.8216
17.1754 63.9453
17.2205 62.3961
17.2656 61.4475
17.3108 64.4172
17.3559 70.9938
17.401 80.9828
17.4462 76.1332
17.4913 62.9049
17.5365 58.5452
17.5815 57.998
17.6268 58.2633
17.6718 58.4902
17.7171 59.1466
17.7622 60.6717
17.8074 62.0077
17.8525 63.6037
17.8977 72.8887
17.9428 85.9063
17.9881 86.7705
18.0331 81.2975
18.0784 82.161
18.1237 92.8448
18.1688 123.675
18.214 151.049
18.2591 126.554
18.3044 88.226
18.3495 77.375
18.3948 81.873
18.4399 95.8672
18.4852 101.504
18.5303 84.0126
18.5756 67.3743
18.6207 62.3231
18.666 60.2209
18.7112 59.1894
18.7565 58.4675
18.8016 57.82
18.8469 57.2628
18.892 56.805
18.9374 56.3367
18.9825 55.9195
19.0278 55.7428
19.073 55.7895
19.1183 56.7672
19.1635 59.339
19.2088 61.5274
19.254 60.7379
19.2993 60.0151
19.3447 61.002
19.3898 63.2695
19.4352 68.6774
19.4804 73.5437
19.5257 67.9766
19.5709 57.8773
19.6163 53.8989
19.6615 53.024
19.7068 52.6124
19.752 52.4773
19.7974 52.5944
19.8426 54.1299
19.888 56.4774
19.9332 57.4904
19.9786 56.7486
20.0238 55.8975
20.0692 57.4714
20.1144 61.7316
20.1598 68.3394
20.205 71.1232
20.2504 66.5291
20.2957 59.0531
20.3411 57.1628
20.3863 59.9653
20.4318 64.36
20.477 62.2128
20.5224 54.7017
20.5677 50.743
20.6131 49.4262
20.6586 49.0365
20.7038 48.5543
20.7493 48.748
20.7945 48.7138
20.84 48.5491
20.8853 48.1385
20.9307 47.6977
20.976 47.8846
21.0215 48.3395
21.0668 48.5617
21.1122 48.6057
21.1575 48.2496
21.203 47.8787
21.2483 48.3424
21.2938 49.3278
21.3391 50.314
21.3846 50.3904
21.4299 49.0077
21.4754 48.0116
21.5207 47.7831
21.5662 47.935
21.6116 48.5052
21.6571 50.7676
21.7024 52.8098
21.7479 53.0086
21.7933 52.0143
21.8388 52.32
21.8843 54.27
21.9297 56.8334
21.9752 61.286
22.0206 65.1876
22.0661 62.1383
22.1115 55.972
22.157 53.5502
22.2024 54.654
22.248 55.2639
22.2933 53.4752
22.3389 50.0481
22.3843 48.467
22.4299 47.9748
22.4753 48.0126
22.5208 47.8611
22.5662 47.8594
22.6118 48.1002
22.6572 48.3071
22.7028 49.7061
22.7483 50.9418
22.7939 51.2122
22.8393 50.5562
22.8849 50.2868
22.9303 50.3574
22.9759 51.2258
23.0214 53.4381
23.067 56.9088
23.1126 57.2564
23.1581 53.6813
23.2037 49.9263
23.2492 48.7875
23.2948 49.16
23.3403 50.5416
23.3859 51.4897
23.4314 50.6896
23.477 50.0435
23.5225 49.6088
23.5682 50.0467
23.6137 51.4476
23.6593 54.3811
23.7048 57.2566
23.7505 55.3538
23.796 50.4726
23.8417 46.7236
23.8872 45.4408
23.9329 45.0227
23.9784 44.593
24.0241 44.2663
24.0697 43.9903
24.1154 43.6117
24.1609 43.3585
24.2066 43.1084
24.2522 43.0957
24.2979 42.8721
24.3434 42.7198
24.3892 42.7113
24.4349 42.5037
24.4805 42.1618
24.5262 42.1725
24.5718 41.9466
24.6175 42.1565
24.6631 42.3956
24.7089 42.2694
24.7545 42.0405
24.8002 41.7898
24.8458 41.8065
24.8916 41.6882
24.9372 41.9095
24.983 41.9859
25.0286 42.0702
25.0744 42.57
25.12 42.6863
25.1658 42.8253
25.2114 42.8091
25.2572 43.3937
25.3029 43.7164
25.3487 43.5507
25.3943 43.0614
25.4402 43.7623
25.4858 44.319
25.5316 43.3435
25.5773 41.5714
25.6231 40.8358
25.669 40.2732
25.7147 40.1331
25.7605 40.0615
25.8062 40.4351
25.8521 40.386
25.8977 40.2573
25.9436 40.1
25.9893 39.7307
26.0352 40.0859
26.0809 39.9547
26.1268 40.2856
26.1725 40.7974
26.2184 41.3388
26.2641 41.2855
26.31 40.6275
26.3557 40.3862
26.4017 40.116
26.4474 40.1129
26.4933 39.983
26.5391 40.0745
26.585 40.0969
26.6308 40.2302
26.6767 40.3422
26.7225 41.0573
26.7684 41.894
26.8142 41.569
26.8601 40.8911
26.9059 40.2044
26.9519 39.8763
26.9979 39.654
27.0437 39.0764
27.0896 38.5753
27.1354 38.5276
27.1814 38.2346
27.2272 38.3964
27.2732 38.2441
27.3191 37.9282
27.3651 38.0348
27.4109 37.8002
27.4569 37.8995
27.5027 37.7604
27.5488 37.8819
27.5946 37.878
27.6407 37.9865
27.6865 38.1939
27.7326 38.0894
27.7784 37.9509
27.8245 37.7185
27.8703 37.516
27.9164 37.5145
27.9623 37.5419
28.0084 37.5824
28.0543 37.787
28.1003 37.6875
28.1462 38.1939
28.1923 38.5523
28.2384 38.2401
28.2843 37.7425
28.3304 37.3295
28.3764 37.1323
28.4225 36.8316
28.4684 36.3801
28.5145 35.7739
28.5605 35.6534
28.6066 35.4877
28.6526 35.3335
28.6987 35.2216
28.7447 34.9859
28.7908 34.7661
28.8368 34.863
28.8829 34.7321
28.9289 34.5969
28.9751 34.6034
29.0211 34.6452
29.0673 34.6985
29.1133 34.4642
29.1595 34.1031
29.2055 34.0211
29.2517 33.827
29.2977 33.567
29.3439 33.6453
29.3899 33.4715
29.4361 33.4927
29.4824 33.4973
29.5284 33.4866
29.5746 33.3635
29.6207 33.0879
29.6669 32.8314
29.713 32.6013
29.7593 32.3485
29.8053 32.4129
29.8516 32.3984
29.8977 32.312
29.9439 32.2225
29.99 32.1891
30.0363 31.9577
30.0824 32.0839
30.1287 31.8983
30.1748 31.8713
30.2211 31.8018
30.2673 31.6697
30.3136 31.8158
30.3597 31.9307
30.406 32.0254
30.4522 31.8081
30.4985 31.6904
30.5447 31.6783
30.591 31.5566
30.6372 31.5077
30.6835 31.3667
30.7297 31.458
30.7761 31.5591
30.8224 31.6777
30.8686 31.6878
30.915 31.5379
30.9612 31.3686
31.0076 31.1348
31.0538 30.9872
31.1002 30.8283
31.1464 30.6882
31.1928 30.6607
31.2391 30.6459
31.2855 30.4581
31.3317 30.3529
31.3781 30.3639
31.4244 30.3734
31.4708 30.2747
31.5171 30.304
31.5636 30.4153
31.6098 30.3586
31.6563 30.2643
31.7026 30.2017
31.7491 29.9141
31.7953 29.7956
31.8418 29.6954
31.8881 29.5865
31.9346 29.4727
31.9809 29.4973
32.0275 29.4983
32.074 29.4573
32.1203 29.5455
32.1668 29.3636
32.2132 29.2339
32.2597 28.9922
32.306 28.9188
32.3526 28.7402
32.399 28.5973
32.4455 28.4138
32.4919 28.297
32.5385 28.3533
32.5848 28.1021
32.6314 28.1412
32.6778 28.1203
32.7244 27.9492
32.7708 27.7792
32.8174 27.7972
32.8638 27.6655
32.9104 27.6907
32.9569 27.6005
33.0035 27.4291
33.0499 27.4151
33.0966 27.349
33.143 27.2902
33.1897 27.1142
33.2361 27.1559
33.2828 27.1208
33.3293 26.9896
33.3759 27.1497
33.4226 26.9803
33.4691 26.9603
33.5158 26.8279
33.5623 26.7068
33.609 26.457
33.6555 26.297
33.7022 26.2451
33.7487 26.1405
33.7954 26.1081
33.842 26.0034
33.8887 25.9404
33.9353 25.8844
33.982 25.7534
34.0286 25.7443
34.0753 25.6733
34.1219 25.6215
34.1687 25.4878
34.2152 25.3377
34.262 25.1944
34.3086 25.1156
34.3554 25.1586
34.402 25.044
34.4488 24.997
34.4954 24.8893
34.5422 24.8771
34.5889 24.746
34.6357 24.5899
34.6825 24.5536
34.7292 24.4534
34.776 24.4435
34.8227 24.3652
34.8695 24.1981
34.9162 24.2725
34.9631 24.1274
35.0098 24.1452
35.0566 23.9651
35.1033 23.9634
35.1502 23.9768
35.1969 23.8303
35.2438 23.7009
35.2906 23.7238
35.3375 23.6758
35.3842 23.4924
35.4311 23.5846
35.4779 23.5472
35.5248 23.494
35.5716 23.4014
35.6185 23.473
35.6653 23.2634
35.7123 23.2449
35.759 23.1789
35.806 23.0613
35.8528 22.9978
35.8998 22.8848
35.9468 22.8171
35.9936 22.7716
36.0406 22.713
36.0874 22.6363
36.1345 22.5563
36.1813 22.4695
36.2283 22.3388
36.2752 22.3493
36.3222 22.357
36.3691 22.2704
36.4161 22.071
36.463 22.1389
36.5101 22.1262
36.557 22.0243
36.6041 21.8753
36.651 21.8507
36.6981 21.7363
36.745 21.6832
36.7921 21.7587
36.839 21.5524
36.8861 21.4772
36.9331 21.5345
36.9802 21.3637
37.0272 21.3347
37.0743 21.1879
37.1213 21.1269
37.1684 21.1159
37.2154 21.0367
37.2626 20.9612
37.3098 20.886
37.3568 20.7797
37.404 20.7872
37.451 20.7151
37.4982 20.6777
37.5452 20.5407
37.5924 20.4898
37.6395 20.5183
37.6867 20.4076
37.7337 20.29
37.781 20.1926
37.8281 20.2359
37.8753 20.0685
37.9224 19.9575
37.9697 19.9142
38.0168 19.9367
38.064 19.8649
38.1111 19.7851
38.1584 19.7505
38.2056 19.6453
38.2529 19.626
38.3 19.5491
38.3473 19.5325
38.3945 19.3962
38.4418 19.3313
38.489 19.3286
38.5363 19.2368
38.5837 19.2386
38.6309 19.1024
38.6782 19.0084
38.7254 18.9695
38.7728 18.9566
38.82 18.8214
38.8674 18.8419
38.9146 18.7741
38.9621 18.6226
39.0093 18.6803
39.0567 18.6298
39.104 18.5709
39.1514 18.4493
39.1987 18.4183
39.2461 18.4047
39.2934 18.3297
39.3409 18.1892
39.3882 18.1085
39.4356 18.0685
39.483 18.0751
39.5304 18.0217
39.5778 17.9835
39.6253 17.8772
39.6726 17.8403
39.7201 17.8004
39.7675 17.7298
39.815 17.6726
39.8624 17.6115
39.9099 17.6114
39.9575 17.5338
40.0049 17.4823
40.0525 17.3955
40.0999 17.3533
40.1474 17.2597
40.1949 17.2112
40.2425 17.1598
40.2899 17.1109
40.3375 17.0203
40.385 17.0181
40.4326 17.0145
40.48 16.9076
40.5277 16.8029
40.5752 16.8052
40.6228 16.7346
40.6703 16.6582
40.718 16.5865
40.7655 16.5976
40.8132 16.4918
40.8607 16.5434
40.9084 16.4489
40.9559 16.4086
41.0036 16.3945
41.0512 16.3272
41.0989 16.2768
41.1465 16.2308
41.1942 16.1463
41.242 16.0602
41.2896 15.9917
41.3373 15.9452
41.3849 15.8781
41.4327 15.8682
41.4803 15.7344
41.5281 15.7081
41.5758 15.6911
41.6236 15.6091
41.6712 15.5402
41.7191 15.5092
41.7667 15.5031
41.8146 15.422
41.8622 15.3456
41.9101 15.3639
41.9578 15.2352
42.0057 15.2006
42.0534 15.1438
42.1013 15.1612
42.149 15.0645
42.1969 14.9895
42.2446 14.9698
42.2925 14.9484
42.3403 14.87
42.3882 14.8474
42.436 14.7592
42.4839 14.7259
42.5319 14.6858
42.5797 14.6375
42.6277 14.552
42.6755 14.5545
42.7235 14.4449
42.7713 14.4138
42.8193 14.3969
42.8671 14.31
42.9152 14.2959
42.963 14.2167
43.0111 14.1726
43.0589 14.1169
43.107 14.0437
43.1549 13.9838
43.2029 13.9635
43.2508 13.9171
43.2989 13.8868
43.3468 13.8046
43.3949 13.7612
43.4429 13.7203
43.491 13.6958
43.5389 13.6145
43.5871 13.6298
43.635 13.5721
43.6832 13.5603
43.7312 13.4669
43.7793 13.464
43.8273 13.3755
43.8755 13.3319
43.9237 13.2773
43.9717 13.26
44.0199 13.1889
44.068 13.1635
44.1162 13.0795
44.1642 13.077
44.2125 13.0314
44.2606 12.9521
44.3088 12.9118
44.3569 12.8628
44.4052 12.8061
44.4533 12.7745
44.5016 12.7076
44.5497 12.6864
44.598 12.7013
44.6461 12.61
44.6945 12.6076
44.7426 12.5082
44.791 12.5038
44.8391 12.4154
44.8875 12.3632
44.9357 12.3107
44.984 12.2671
45.0322 12.2221
45.0806 12.1644
45.1288 12.1323
45.1773 12.1591
45.2257 12.0371
45.2739 11.967
45.3224 12.0248
45.3706 11.962
45.4191 11.8532
45.4673 11.89
45.5158 11.8013
45.5641 11.7553
45.6126 11.6983
45.6609 11.6657
45.7094 11.6161
45.7577 11.5904
45.8063 11.5301
45.8546 11.5172
45.9031 11.4926
45.9515 11.4698
46.0001 11.3842
46.0484 11.3776
46.097 11.3323
46.1454 11.3109
46.194 11.2436
46.2424 11.2036
46.291 11.2071
46.3395 11.1485
46.3881 11.0981
46.4365 11.0557
46.4852 11.0223
46.5337 10.9637
46.5823 10.9297
46.631 10.8693
46.6795 10.8505
46.7282 10.7927
46.7767 10.7675
46.8254 10.6904
46.8739 10.6643
46.9226 10.6162
46.9712 10.5887
47.0199 10.5779
47.0685 10.5253
47.1173 10.4779
47.1658 10.4402
47.2146 10.4096
47.2632 10.341
47.312 10.3299
47.3606 10.3124
47.4095 10.2471
47.4581 10.2269
47.5069 10.2086
47.5556 10.1177
47.6044 10.151
47.6531 10.0626
47.702 10.0054
47.7507 9.96683
47.7996 9.94761
47.8483 9.92693
47.8972 9.9061
47.9461 9.86939
47.9948 9.79526
48.0438 9.75635
48.0925 9.77243
48.1415 9.7243
48.1902 9.67432
48.2392 9.64699
48.288 9.60426
48.337 9.55924
48.3858 9.49479
48.4348 9.53128
48.4837 9.4974
48.5327 9.45224
48.5815 9.4102
48.6306 9.35327
48.6795 9.33829
48.7285 9.30943
48.7774 9.28486
48.8265 9.22483
48.8754 9.16849
48.9245 9.18887
48.9734 9.1229
49.0226 9.11061
49.0715 9.06257
49.1206 9.03419
49.1696 8.98373
49.2188 8.98596
49.2679 8.94801
49.3169 8.89651
49.3661 8.88273
49.4151 8.82078
49.4643 8.83047
49.5134 8.77268
49.5626 8.7136
49.6117 8.67074
49.6609 8.67167
49.71 8.62053
49.7592 8.5971
49.8083 8.55425
49.8576 8.584
49.9067 8.49301
49.956 8.50197
50.0052 8.46379
50.0545 8.3862
50.1036 8.35761
50.153 8.3668
50.2022 8.31287
50.2515 8.25435
50.3007 8.25444
50.3501 8.21023
50.3993 8.16128
50.4487 8.12307
50.498 8.13261
50.5474 8.08804
50.5966 8.04217
50.6461 8.03539
50.6955 8.0265
50.7448 7.97551
50.7943 7.94929
50.8436 7.89884
50.8931 7.88187
50.9424 7.8529
50.9919 7.81208
51.0413 7.82606
51.0908 7.72807
51.1402 7.75337
51.1897 7.66552
51.2391 7.65367
51.2887 7.63686
51.3381 7.57835
51.3877 7.56993
51.4371 7.53288
51.4867 7.5341
51.5362 7.44967
51.5858 7.44406
51.6353 7.44377
51.6849 7.34665
51.7344 7.37343
51.7841 7.32596
51.8336 7.27566
51.8833 7.24827
51.9328 7.19639
51.9826 7.20903
52.0323 7.15401
52.0818 7.13316
52.1316 7.0995
52.1812 7.0809
52.231 7.03731
52.2806 7.02422
52.3304 6.99255
52.38 6.95964
52.4298 6.95632
52.4794 6.88505
52.5293 6.90681
52.5789 6.86375
52.6288 6.83577
52.6785 6.78808
52.7284 6.78004
52.7781 6.75837
52.828 6.69518
52.8777 6.66003
52.9276 6.6509
52.9774 6.61931
53.0273 6.57894
53.0771 6.5823
53.1271 6.55145
53.1769 6.55283
53.2269 6.49016
53.2767 6.47133
53.3267 6.43654
53.3765 6.39693
53.4266 6.4057
53.4766 6.33199
53.5265 6.27203
53.5765 6.30865
53.6264 6.27671
53.6765 6.22502
53.7264 6.18676
53.7765 6.17337
53.8265 6.12824
53.8766 6.09384
53.9266 6.11464
53.9767 6.05815
54.0267 6.02942
54.0769 5.98664
54.1269 5.95439
54.1771 5.92398
54.2271 5.86819
54.2773 5.82994
54.3274 5.82968
54.3776 5.77643
54.4277 5.7657
54.478 5.69423
54.528 5.66844
54.5783 5.63422
54.6285 5.54044
54.6788 5.55841
54.7289 5.506
54.7792 5.48054
54.8296 5.38939
54.8798 5.3431
54.9301 5.29456
54.9803 5.24648
55.0307 5.23328
55.0809 5.18069
55.1314 5.13172
55.1816 5.16043
55.232 5.03903
55.2823 4.97917
55.3328 4.97515
55.383 4.90808
55.4335 4.87489
55.4838 4.78347
55.5344 4.79656
55.5847 4.74284
55.6352 4.70762
55.6856 4.71724
55.7361 4.7042