File: XRD/Ni3Fe_FD0260.xy
TT I
1.27165 7.8199
1.31627 7.11559
1.36089 7.63125
1.40551 7.66656
1.45013 6.09755
1.49476 6.5436
1.53938 6.53632
1.584 5.7562
1.62863 5.32396
1.67325 5.22765
1.71787 5.6631
1.7625 5.53788
1.80712 5.53379
1.85174 4.79821
1.89636 4.93253
1.94099 5.51879
1.98562 5.07423
2.03025 4.60869
2.07487 5.03553
2.11949 5.14572
2.16411 4.73462
2.20874 8.9748
2.25338 14.1931
2.298 4.76228
2.34263 4.93535
2.38725 4.85501
2.43188 5.33535
2.4765 5.49915
2.52115 5.60067
2.56577 6.06821
2.6104 6.11715
2.65503 5.86828
2.69965 6.97992
2.7443 7.1682
2.78893 6.92129
2.83356 7.62815
2.87818 8.03148
2.92281 8.77872
2.96744 9.74014
3.01209 10.1557
3.05672 11.191
3.10135 12.3508
3.14599 13.4156
3.19062 14.3584
3.23527 14.9071
3.2799 15.8759
3.32454 17.1424
3.36917 18.1848
3.4138 19.0277
3.45844 20.4597
3.50309 20.8428
3.54773 21.77
3.59237 24.0045
3.637 57.7721
3.68164 42.2506
3.7263 26.1351
3.77094 26.6428
3.81558 27.2033
3.86022 28.0553
3.90486 29.0104
3.9495 30.6739
3.99416 31.5246
4.0388 32.767
4.08344 34.5166
4.12809 35.5552
4.17273 37.2309
4.21738 42.2034
4.26204 145.38
4.30669 131.088
4.35133 47.4764
4.39598 45.363
4.44063 50.7393
4.4853 57.7487
4.52995 53.6152
4.5746 53.8366
4.61925 55.3509
4.6639 57.5771
4.70855 60.6885
4.75322 63.7837
4.79788 67.7053
4.84253 70.5846
4.88719 76.0491
4.93184 79.7424
4.97652 86.4732
5.02118 93.8831
5.06583 104.192
5.11049 119.228
5.15515 177.224
5.19981 567.567
5.24449 3756.31
5.28916 10556.5
5.33382 4302.58
5.37848 280.116
5.42315 151.325
5.46783 127.801
5.5125 116.271
5.55716 110.621
5.60183 105.328
5.6465 103.291
5.69117 100.972
5.73586 99.326
5.78053 100.253
5.8252 99.9864
5.86988 101.418
5.91455 105.616
5.95924 119.445
6.00392 294.759
6.0486 1303.13
6.09328 3654.09
6.13795 3759.43
6.18263 383.707
6.22733 109.025
6.27201 89.4502
6.3167 93.9154
6.36138 80.6181
6.40606 73.0884
6.45075 70.8501
6.49545 68.6982
6.54014 66.5545
6.58483 65.4236
6.62952 64.995
6.67421 79.2986
6.71892 104.506
6.76361 66.2499
6.8083 60.7791
6.853 59.5591
6.89769 58.7392
6.94239 58.4885
6.98711 57.8243
7.03181 57.1325
7.07651 57.36
7.12121 56.6833
7.16591 57.1435
7.21063 57.0217
7.25533 64.4663
7.30004 118.591
7.34475 76.0783
7.38945 57.5176
7.43416 56.161
7.47889 55.6015
7.5236 56.3826
7.56831 57.2159
7.61303 58.2927
7.65774 58.782
7.70247 58.2589
7.74719 58.3334
7.79191 58.7429
7.83663 59.1757
7.88135 60.2219
7.92607 61.3468
7.97081 62.0556
8.01553 63.4523
8.06026 64.3779
8.10498 66.4449
8.14971 73.0222
8.19446 73.0117
8.23919 72.6627
8.28392 75.646
8.32865 78.0923
8.37339 83.1307
8.41812 89.5181
8.46288 111.405
8.50761 201.022
8.55235 525.455
8.59709 1109.07
8.64183 1975.08
8.68658 1261.29
8.73134 234.951
8.77609 110.459
8.82083 99.2891
8.86558 95.543
8.91033 94.006
8.9551 93.5763
8.99985 89.533
9.04461 87.8259
9.08936 87.0912
9.13412 86.0264
9.17888 86.1418
9.22365 86.4531
9.26841 85.9501
9.31318 87.1992
9.35794 87.4224
9.4027 87.7123
9.44749 88.2821
9.49226 88.8332
9.53703 89.9171
9.5818 92.3113
9.62657 95.2001
9.67134 98.9652
9.71614 97.7217
9.76091 98.9675
9.80569 102.052
9.85047 105.801
9.89525 119.737
9.94005 134.153
9.98484 213.732
10.0296 468.154
10.0744 828.537
10.1192 1447.9
10.164 1709.84
10.2088 607.63
10.2536 155.451
10.2984 119.743
10.3432 116.938
10.388 111.171
10.4328 132.802
10.4776 195.71
10.5224 287.584
10.5672 444.504
10.612 522.482
10.6568 273.507
10.7017 110.209
10.7465 92.2669
10.7913 87.3969
10.8361 85.254
10.8809 82.9639
10.9257 81.2109
10.9706 81.3194
11.0154 78.1505
11.0602 75.8977
11.105 74.7531
11.1499 76.0358
11.1947 79.1886
11.2395 74.4216
11.2844 72.0307
11.3292 70.0557
11.374 68.9695
11.4189 68.3204
11.4637 67.6396
11.5086 67.3696
11.5534 68.417
11.5983 67.3827
11.6431 66.2768
11.688 65.4097
11.7328 65.5641
11.7777 65.5567
11.8225 65.1439
11.8674 65.0356
11.9122 65.3081
11.9571 65.6832
12.002 66.773
12.0468 72.6364
12.0917 89.4423
12.1366 110.304
12.1814 143.7
12.2263 191.109
12.2712 189.552
12.3161 110.808
12.3609 73.3519
12.4058 67.2359
12.4507 67.2085
12.4956 67.2413
12.5405 67.5004
12.5853 68.2256
12.6302 71.9256
12.6751 75.2911
12.72 71.3553
12.7649 70.7173
12.8098 71.4168
12.8547 72.5789
12.8996 74.3501
12.9445 75.7173
12.9894 77.7413
13.0343 79.2762
13.0792 83.1736
13.1242 95.2139
13.1691 130.721
13.214 172.965
13.2589 233.743
13.3038 326.164
13.3487 414.275
13.3937 320.538
13.4386 152.161
13.4835 117.917
13.5285 143.155
13.5734 175.229
13.6183 231.748
13.6633 308.815
13.7082 354.826
13.7531 237.369
13.7981 116.519
13.843 87.1585
13.888 83.7454
13.9329 80.8701
13.9779 79.3256
14.0228 78.0538
14.0678 76.5563
14.1127 75.8157
14.1577 75.2502
14.2027 74.3909
14.2476 73.7502
14.2926 73.155
14.3376 73.6545
14.3825 73.0331
14.4275 71.9277
14.4725 71.8361
14.5175 71.9645
14.5624 72.3893
14.6074 73.5529
14.6524 74.2698
14.6974 73.5419
14.7424 75.9049
14.7874 86.0165
14.8324 102.048
14.8774 119.56
14.9224 148.132
14.9674 187.527
15.0124 216.215
15.0574 176.94
15.1024 106.797
15.1474 77.7571
15.1924 73.8975
15.2374 73.1743
15.2824 72.3498
15.3274 70.6519
15.3725 70.0329
15.4175 69.4401
15.4625 69.133
15.5076 69.1333
15.5526 69.1487
15.5976 69.0273
15.6426 70.4373
15.6877 78.5995
15.7327 91.0756
15.7778 103.547
15.8228 124.217
15.8679 154.627
15.9129 185.666
15.958 174.481
16.003 116.502
16.0481 75.0028
16.0931 67.131
16.1382 64.864
16.1833 63.1683
16.2283 61.5409
16.2734 60.9457
16.3185 60.5687
16.3636 60.6886
16.4086 59.3376
16.4537 58.3641
16.4988 57.8854
16.5439 57.768
16.589 57.6146
16.6341 57.431
16.6792 56.9759
16.7243 56.9792
16.7694 57.1128
16.8145 57.0324
16.8596 57.3684
16.9047 58.1604
16.9498 58.5083
16.9949 57.9838
17.04 58.2389
17.0851 60.0361
17.1302 62.8405
17.1754 65.3158
17.2205 68.9421
17.2656 74.2057
17.3108 81.5216
17.3559 84.6768
17.401 77.7518
17.4462 67.3694
17.4913 62.3509
17.5365 61.6644
17.5815 61.9811
17.6268 62.2111
17.6718 62.9346
17.7171 63.3549
17.7622 64.0205
17.8074 64.8346
17.8525 67.7639
17.8977 74.1316
17.9428 81.4667
17.9881 88.0069
18.0331 99.5222
18.0784 114.61
18.1237 134.602
18.1688 142.315
18.214 121.352
18.2591 96.0894
18.3044 91.3855
18.3495 97.2154
18.3948 104.853
18.4399 102.481
18.4852 85.5087
18.5303 71.0288
18.5756 65.5473
18.6207 64.1853
18.666 63.2052
18.7112 62.6144
18.7565 61.8087
18.8016 61.2323
18.8469 60.7352
18.892 60.2422
18.9374 59.9122
18.9825 59.4067
19.0278 59.3793
19.073 59.5765
19.1183 60.125
19.1635 61.4649
19.2088 63.0763
19.254 64.6452
19.2993 67.6552
19.3447 71.8114
19.3898 76.4117
19.4352 76.5576
19.4804 69.273
19.5257 61.0782
19.5709 57.0809
19.6163 56.4928
19.6615 56.2811
19.7068 55.6579
19.752 55.566
19.7974 55.9286
19.8426 57.2256
19.888 58.2563
19.9332 59.5342
19.9786 61.0726
20.0238 63.6981
20.0692 67.6104
20.1144 71.6154
20.1598 72.6583
20.205 68.1062
20.2504 65.0072
20.2957 64.7987
20.3411 66.586
20.3863 67.0704
20.4318 62.7668
20.477 57.03
20.5224 54.0845
20.5677 53.092
20.6131 52.3487
20.6586 51.9092
20.7038 51.7564
20.7493 51.3812
20.7945 51.1106
20.84 50.9952
20.8853 50.9424
20.9307 50.7285
20.976 50.9429
21.0215 51.0486
21.0668 51.3782
21.1122 51.5917
21.1575 51.9555
21.203 52.4493
21.2483 53.1474
21.2938 53.7716
21.3391 52.7535
21.3846 51.5674
21.4299 50.8141
21.4754 50.5195
21.5207 50.6674
21.5662 50.9818
21.6116 51.6759
21.6571 52.6982
21.7024 53.9099
21.7479 55.3749
21.7933 57.1822
21.8388 59.95
21.8843 63.2173
21.9297 66.1036
21.9752 66.7601
22.0206 63.7738
22.0661 59.377
22.1115 57.7255
22.157 58.049
22.2024 57.4568
22.248 54.6748
22.2933 52.7519
22.3389 51.4095
22.3843 51.1725
22.4299 51.0443
22.4753 50.8588
22.5208 50.5927
22.5662 50.6813
22.6118 50.8382
22.6572 51.1258
22.7028 51.8851
22.7483 52.3738
22.7939 52.9154
22.8393 54.1448
22.8849 55.6264
22.9303 57.1344
22.9759 58.8818
23.0214 59.5733
23.067 58.0665
23.1126 54.7036
23.1581 51.8715
23.2037 51.1633
23.2492 51.0968
23.2948 51.126
23.3403 51.9624
23.3859 52.6031
23.4314 53.07
23.477 54.2146
23.5225 55.8443
23.5682 57.3891
23.6137 59.2623
23.6593 58.724
23.7048 55.5264
23.7505 51.6378
23.796 49.2856
23.8417 48.3426
23.8872 47.5982
23.9329 47.3922
23.9784 46.8958
24.0241 46.4752
24.0697 46.4042
24.1154 45.9442
24.1609 45.9574
24.2066 45.6576
24.2522 45.6181
24.2979 45.2599
24.3434 45.2658
24.3892 45.0845
24.4349 45.049
24.4805 44.6708
24.5262 44.8591
24.5718 44.7256
24.6175 44.7326
24.6631 44.7799
24.7089 44.4053
24.7545 44.2989
24.8002 44.1743
24.8458 44.1175
24.8916 43.9829
24.9372 44.1964
24.983 44.3951
25.0286 44.6836
25.0744 45.0757
25.12 45.4998
25.1658 46.1007
25.2114 46.6321
25.2572 46.5593
25.3029 46.3796
25.3487 46.5045
25.3943 46.5952
25.4402 45.7723
25.4858 44.9173
25.5316 43.6515
25.5773 42.8748
25.6231 42.7036
25.669 42.4202
25.7147 42.362
25.7605 42.2518
25.8062 42.2944
25.8521 42.4639
25.8977 42.4782
25.9436 42.5479
25.9893 42.5378
26.0352 42.9298
26.0809 42.9983
26.1268 43.3134
26.1725 43.4042
26.2184 42.8216
26.2641 42.1686
26.31 42.0134
26.3557 41.9475
26.4017 41.9643
26.4474 42.1592
26.4933 42.4965
26.5391 42.8404
26.585 43.2051
26.6308 43.433
26.6767 43.7972
26.7225 43.9459
26.7684 43.4233
26.8142 42.9032
26.8601 42.3162
26.9059 41.9083
26.9519 41.4984
26.9979 41.0711
27.0437 40.5961
27.0896 40.548
27.1354 40.4618
27.1814 40.4635
27.2272 40.2301
27.2732 40.2052
27.3191 40.0228
27.3651 40.0966
27.4109 40.0775
27.4569 40.0848
27.5027 40.15
27.5488 40.2481
27.5946 40.0434
27.6407 39.8901
27.6865 39.8919
27.7326 39.6266
27.7784 39.5041
27.8245 39.5285
27.8703 39.6902
27.9164 39.7928
27.9623 40.0474
28.0084 40.0944
28.0543 40.4495
28.1003 40.5357
28.1462 40.4678
28.1923 40.1096
28.2384 39.6778
28.2843 39.3456
28.3304 38.9361
28.3764 38.5148
28.4225 38.1505
28.4684 37.9354
28.5145 37.6464
28.5605 37.399
28.6066 37.2165
28.6526 37.2127
28.6987 37.05
28.7447 37.0125
28.7908 36.829
28.8368 36.9359
28.8829 36.9913
28.9289 36.8313
28.9751 36.6313
29.0211 36.4543
29.0673 36.2732
29.1133 36.0528
29.1595 35.878
29.2055 35.8283
29.2517 35.747
29.2977 35.6648
29.3439 35.6687
29.3899 35.603
29.4361 35.7202
29.4824 35.4665
29.5284 35.2628
29.5746 34.962
29.6207 34.7012
29.6669 34.5375
29.713 34.4999
29.7593 34.3828
29.8053 34.2846
29.8516 34.1172
29.8977 34.0917
29.9439 33.9977
29.99 33.934
30.0363 33.8088
30.0824 33.8587
30.1287 33.7853
30.1748 33.8291
30.2211 33.7429
30.2673 33.5495
30.3136 33.811
30.3597 33.7085
30.406 33.6937
30.4522 33.4599
30.4985 33.406
30.5447 33.5625
30.591 33.4902
30.6372 33.537
30.6835 33.4377
30.7297 33.601
30.7761 33.5666
30.8224 33.5019
30.8686 33.2977
30.915 33.0752
30.9612 32.9563
31.0076 32.6615
31.0538 32.5948
31.1002 32.4079
31.1464 32.3701
31.1928 32.2262
31.2391 32.3214
31.2855 32.065
31.3317 32.1385
31.3781 32.207
31.4244 32.1891
31.4708 32.145
31.5171 32.0311
31.5636 32.1141
31.6098 32.0087
31.6563 31.7085
31.7026 31.5747
31.7491 31.3154
31.7953 31.5214
31.8418 31.3985
31.8881 31.3643
31.9346 31.3752
31.9809 31.3701
32.0275 31.23
32.074 31.107
32.1203 30.9323
32.1668 30.8275
32.2132 30.6842
32.2597 30.51
32.306 30.5878
32.3526 30.3296
32.399 30.0645
32.4455 30.038
32.4919 30.0004
32.5385 29.834
32.5848 29.771
32.6314 29.6471
32.6778 29.7428
32.7244 29.5617
32.7708 29.3378
32.8174 29.4332
32.8638 29.1436
32.9104 29.3518
32.9569 29.2422
33.0035 29.0454
33.0499 29.0562
33.0966 29.0221
33.143 28.9492
33.1897 28.8315
33.2361 28.8473
33.2828 28.6599
33.3293 28.5611
33.3759 28.6077
33.4226 28.4948
33.4691 28.3192
33.5158 28.2343
33.5623 28.0524
33.609 27.8336
33.6555 27.8658
33.7022 27.6622
33.7487 27.6497
33.7954 27.6093
33.842 27.5734
33.8887 27.4441
33.9353 27.403
33.982 27.23
34.0286 27.1343
34.0753 27.0923
34.1219 27.0047
34.1687 27.0018
34.2152 26.8317
34.262 26.729
34.3086 26.6652
34.3554 26.5998
34.402 26.4619
34.4488 26.4134
34.4954 26.4035
34.5422 26.1474
34.5889 26.1403
34.6357 26.0902
34.6825 25.9764
34.7292 25.9841
34.776 25.7962
34.8227 25.7385
34.8695 25.7
34.9162 25.6328
34.9631 25.408
35.0098 25.5786
35.0566 25.3898
35.1033 25.3135
35.1502 25.283
35.1969 25.1522
35.2438 25.177
35.2906 25.121
35.3375 25.0822
35.3842 24.953
35.4311 24.9107
35.4779 24.9209
35.5248 24.8917
35.5716 24.7968
35.6185 24.7165
35.6653 24.6584
35.7123 24.521
35.759 24.5236
35.806 24.386
35.8528 24.274
35.8998 24.1896
35.9468 24.1191
35.9936 24.1153
36.0406 23.997
36.0874 23.9646
36.1345 23.8508
36.1813 23.7705
36.2283 23.7263
36.2752 23.6283
36.3222 23.6703
36.3691 23.5441
36.4161 23.4612
36.463 23.3676
36.5101 23.3937
36.557 23.3456
36.6041 23.1198
36.651 23.176
36.6981 23.099
36.745 22.9958
36.7921 22.9778
36.839 22.7796
36.8861 22.7444
36.9331 22.6666
36.9802 22.5338
37.0272 22.5494
37.0743 22.4399
37.1213 22.4731
37.1684 22.3099
37.2154 22.2319
37.2626 22.2017
37.3098 22.1154
37.3568 22.0098
37.404 22.0194
37.451 21.9138
37.4982 21.8781
37.5452 21.7313
37.5924 21.6805
37.6395 21.6681
37.6867 21.5935
37.7337 21.4287
37.781 21.4067
37.8281 21.3802
37.8753 21.2734
37.9224 21.2444
37.9697 21.1169
38.0168 21.1456
38.064 21.0205
38.1111 21.0047
38.1584 20.9313
38.2056 20.8708
38.2529 20.8
38.3 20.6954
38.3473 20.6562
38.3945 20.534
38.4418 20.5241
38.489 20.4525
38.5363 20.3617
38.5837 20.2678
38.6309 20.3411
38.6782 20.1346
38.7254 20.0406
38.7728 20.0866
38.82 19.9912
38.8674 19.883
38.9146 19.852
38.9621 19.7275
39.0093 19.7436
39.0567 19.699
39.104 19.624
39.1514 19.5647
39.1987 19.5251
39.2461 19.4642
39.2934 19.371
39.3409 19.2667
39.3882 19.151
39.4356 19.1824
39.483 19.1019
39.5304 19.038
39.5778 19.0026
39.6253 18.8774
39.6726 18.8286
39.7201 18.796
39.7675 18.8544
39.815 18.6878
39.8624 18.6182
39.9099 18.6592
39.9575 18.4915
40.0049 18.4629
40.0525 18.4482
40.0999 18.3648
40.1474 18.3144
40.1949 18.1979
40.2425 18.1645
40.2899 18.1158
40.3375 18.0423
40.385 17.9995
40.4326 17.9348
40.48 17.8762
40.5277 17.8574
40.5752 17.7373
40.6228 17.6743
40.6703 17.7035
40.718 17.6257
40.7655 17.569
40.8132 17.4607
40.8607 17.4781
40.9084 17.3948
40.9559 17.3447
41.0036 17.2773
41.0512 17.2701
41.0989 17.1766
41.1465 17.1298
41.1942 17.0719
41.242 16.999
41.2896 16.8847
41.3373 16.853
41.3849 16.8065
41.4327 16.6955
41.4803 16.7498
41.5281 16.6189
41.5758 16.5865
41.6236 16.4862
41.6712 16.4612
41.7191 16.4512
41.7667 16.3247
41.8146 16.3043
41.8622 16.2904
41.9101 16.2206
41.9578 16.1123
42.0057 16.0993
42.0534 16.0542
42.1013 15.9774
42.149 15.9019
42.1969 15.8439
42.2446 15.8422
42.2925 15.7992
42.3403 15.6553
42.3882 15.683
42.436 15.5583
42.4839 15.5217
42.5319 15.5126
42.5797 15.4723
42.6277 15.432
42.6755 15.3631
42.7235 15.2451
42.7713 15.2498
42.8193 15.1935
42.8671 15.1147
42.9152 15.1082
42.963 15.0516
43.0111 14.9769
43.0589 14.9482
43.107 14.8583
43.1549 14.8362
43.2029 14.7876
43.2508 14.7107
43.2989 14.7109
43.3468 14.6132
43.3949 14.5574
43.4429 14.537
43.491 14.4666
43.5389 14.4118
43.5871 14.3437
43.635 14.2777
43.6832 14.2942
43.7312 14.256
43.7793 14.1715
43.8273 14.1259
43.8755 14.0287
43.9237 14.0168
43.9717 13.9832
44.0199 13.8966
44.068 13.878
44.1162 13.8323
44.1642 13.8404
44.2125 13.7571
44.2606 13.7084
44.3088 13.6289
44.3569 13.5789
44.4052 13.5584
44.4533 13.513
44.5016 13.4112
44.5497 13.4325
44.598 13.4112
44.6461 13.289
44.6945 13.3141
44.7426 13.2111
44.791 13.1977
44.8391 13.1092
44.8875 13.0892
44.9357 13.0046
44.984 12.9457
45.0322 12.9361
45.0806 12.8653
45.1288 12.8823
45.1773 12.7615
45.2257 12.7702
45.2739 12.7314
45.3224 12.6658
45.3706 12.6074
45.4191 12.5537
45.4673 12.5157
45.5158 12.4917
45.5641 12.454
45.6126 12.3787
45.6609 12.329
45.7094 12.334
45.7577 12.2494
45.8063 12.1758
45.8546 12.1667
45.9031 12.1266
45.9515 12.0919
46.0001 12.0377
46.0484 12.0095
46.097 11.9835
46.1454 11.9342
46.194 11.8724
46.2424 11.8086
46.291 11.7733
46.3395 11.7216
46.3881 11.6854
46.4365 11.7143
46.4852 11.6008
46.5337 11.6024
46.5823 11.5649
46.631 11.5188
46.6795 11.4571
46.7282 11.4032
46.7767 11.3562
46.8254 11.3067
46.8739 11.2396
46.9226 11.1856
46.9712 11.1538
47.0199 11.1491
47.0685 11.0971
47.1173 11.0408
47.1658 11.0286
47.2146 11.0192
47.2632 10.9203
47.312 10.8972
47.3606 10.867
47.4095 10.795
47.4581 10.7483
47.5069 10.7593
47.5556 10.6953
47.6044 10.6267
47.6531 10.6194
47.702 10.5365
47.7507 10.5182
47.7996 10.5002
47.8483 10.4849
47.8972 10.4315
47.9461 10.3996
47.9948 10.3635
48.0438 10.333
48.0925 10.2768
48.1415 10.2467
48.1902 10.2262
48.2392 10.2197
48.288 10.1586
48.337 10.0929
48.3858 10.0324
48.4348 10.0305
48.4837 10.0203
48.5327 9.9758
48.5815 9.88866
48.6306 9.91214
48.6795 9.82413
48.7285 9.80179
48.7774 9.77301
48.8265 9.72347
48.8754 9.71567
48.9245 9.68697
48.9734 9.622
49.0226 9.61099
49.0715 9.58624
49.1206 9.51441
49.1696 9.44094
49.2188 9.47428
49.2679 9.43565
49.3169 9.42437
49.3661 9.32625
49.4151 9.31715
49.4643 9.27062
49.5134 9.21203
49.5626 9.15426
49.6117 9.1749
49.6609 9.15178
49.71 9.0481
49.7592 9.03873
49.8083 8.99546
49.8576 9.03453
49.9067 8.92654
49.956 8.94035
50.0052 8.90713
50.0545 8.85581
50.1036 8.80608
50.153 8.78703
50.2022 8.71995
50.2515 8.70326
50.3007 8.68706
50.3501 8.67999
50.3993 8.62892
50.4487 8.58486
50.498 8.56405
50.5474 8.5231
50.5966 8.45839
50.6461 8.46521
50.6955 8.44814
50.7448 8.38813
50.7943 8.35362
50.8436 8.33088
50.8931 8.27825
50.9424 8.27999
50.9919 8.25053
51.0413 8.1893
51.0908 8.17702
51.1402 8.13988
51.1897 8.09309
51.2391 8.05546
51.2887 8.03213
51.3381 7.97796
51.3877 7.97547
51.4371 7.90655
51.4867 7.93128
51.5362 7.86214
51.5858 7.84181
51.6353 7.80294
51.6849 7.7653
51.7344 7.69663
51.7841 7.71568
51.8336 7.64226
51.8833 7.63348
51.9328 7.5842
51.9826 7.56683
52.0323 7.53732
52.0818 7.52733
52.1316 7.42747
52.1812 7.46561
52.231 7.43524
52.2806 7.37575
52.3304 7.37332
52.38 7.29954
52.4298 7.29723
52.4794 7.27665
52.5293 7.26004
52.5789 7.19282
52.6288 7.1682
52.6785 7.10195
52.7284 7.11102
52.7781 7.0459
52.828 7.08738
52.8777 7.03726
52.9276 6.99846
52.9774 6.987
53.0273 6.94614
53.0771 6.93075
53.1271 6.89474
53.1769 6.84897
53.2269 6.85377
53.2767 6.796
53.3267 6.72367
53.3765 6.75097
53.4266 6.7129
53.4766 6.68298
53.5265 6.62798
53.5765 6.57509
53.6264 6.59554
53.6765 6.62004
53.7264 6.52893
53.7765 6.50795
53.8265 6.47072
53.8766 6.44868
53.9266 6.41562
53.9767 6.39336
54.0267 6.36749
54.0769 6.30372
54.1269 6.30034
54.1771 6.27178
54.2271 6.23448
54.2773 6.1982
54.3274 6.14885
54.3776 6.13027
54.4277 6.10576
54.478 5.98927
54.528 6.02294
54.5783 5.97064
54.6285 5.89686
54.6788 5.88111
54.7289 5.83695
54.7792 5.77531
54.8296 5.7587
54.8798 5.7372
54.9301 5.73025
54.9803 5.64053
55.0307 5.60802
55.0809 5.5654
55.1314 5.56594
55.1816 5.4963
55.232 5.44635
55.2823 5.32963
55.3328 5.34288
55.383 5.27682
55.4335 5.22562
55.4838 5.19449
55.5344 5.12103
55.5847 5.18839
55.6352 5.08594
55.6856 5.06212
55.7361 4.99648