File: XRD/Ni3Fe_FD1000.xy
TT I
1.27165 6.91779
1.31627 6.53902
1.36089 6.54426
1.40551 5.75586
1.45013 5.49663
1.49476 5.47516
1.53938 5.35803
1.584 5.0192
1.62863 5.24631
1.67325 5.14334
1.71787 5.4968
1.7625 4.84514
1.80712 4.7314
1.85174 4.14783
1.89636 4.44117
1.94099 5.01357
1.98562 4.79554
2.03025 5.02614
2.07487 4.33035
2.11949 4.4033
2.16411 5.01795
2.20874 15.9567
2.25338 26.8196
2.298 6.22968
2.34263 5.97265
2.38725 6.02249
2.43188 6.62475
2.4765 8.00979
2.52115 7.26893
2.56577 7.72755
2.6104 7.97047
2.65503 7.79844
2.69965 8.33864
2.7443 8.85648
2.78893 8.23631
2.83356 8.34273
2.87818 8.99306
2.92281 8.9376
2.96744 9.68487
3.01209 10.4119
3.05672 11.058
3.10135 12.21
3.14599 13.2052
3.19062 14.0804
3.23527 15.2803
3.2799 16.1531
3.32454 16.5915
3.36917 17.9374
3.4138 18.8771
3.45844 19.9125
3.50309 20.7124
3.54773 21.4254
3.59237 24.1068
3.637 106.661
3.68164 67.7843
3.7263 26.4663
3.77094 25.9248
3.81558 26.3436
3.86022 27.0271
3.90486 28.6118
3.9495 29.4749
3.99416 30.3834
4.0388 31.7029
4.08344 33.5821
4.12809 34.3584
4.17273 36.626
4.21738 43.5511
4.26204 293.672
4.30669 263.528
4.35133 49.8688
4.39598 44.099
4.44063 54.7694
4.4853 69.6979
4.52995 49.4578
4.5746 50.2341
4.61925 51.7917
4.6639 53.9979
4.70855 56.8054
4.75322 59.7118
4.79788 62.3668
4.84253 65.6046
4.88719 69.667
4.93184 73.0146
4.97652 77.7516
5.02118 83.6056
5.06583 90.1958
5.11049 100.679
5.15515 170.939
5.19981 266.937
5.24449 2180.43
5.28916 13413.1
5.33382 2769.97
5.37848 173.181
5.42315 122.984
5.46783 109.369
5.5125 103.008
5.55716 99.5031
5.60183 95.8746
5.6465 94.5352
5.69117 91.3838
5.73586 89.1171
5.78053 88.7868
5.8252 87.9806
5.86988 88.1751
5.91455 89.8293
5.95924 94.5013
6.00392 160.306
6.0486 740.356
6.09328 4550.58
6.13795 3299.18
6.18263 212.569
6.22733 89.5105
6.27201 81.0132
6.3167 106.349
6.36138 81.7711
6.40606 67.3768
6.45075 66.156
6.49545 64.3209
6.54014 62.7741
6.58483 61.7076
6.62952 62.2271
6.67421 99.7047
6.71892 163.348
6.76361 70.792
6.8083 57.9064
6.853 56.5557
6.89769 56.3573
6.94239 56.0891
6.98711 55.0443
7.03181 54.7262
7.07651 54.696
7.12121 54.4947
7.16591 54.9007
7.21063 55.1441
7.25533 72.151
7.30004 204.971
7.34475 101.723
7.38945 56.396
7.43416 53.7711
7.47889 53.9182
7.5236 53.9657
7.56831 54.9181
7.61303 56.3689
7.65774 57.1537
7.70247 55.4772
7.74719 55.0954
7.79191 55.7304
7.83663 56.0718
7.88135 56.7225
7.92607 57.6742
7.97081 58.9834
8.01553 59.3918
8.06026 60.8372
8.10498 62.8273
8.14971 73.9066
8.19446 72.6307
8.23919 68.2061
8.28392 70.1748
8.32865 72.2448
8.37339 75.8307
8.41812 83.0379
8.46288 114.559
8.50761 138.903
8.55235 307.134
8.59709 1085.76
8.64183 2381.33
8.68658 964.97
8.73134 163.068
8.77609 96.7423
8.82083 90.3522
8.86558 87.5119
8.91033 88.1473
8.9551 91.2515
8.99985 83.8168
9.04461 81.6625
9.08936 80.9782
9.13412 80.2882
9.17888 80.4213
9.22365 80.9654
9.26841 80.01
9.31318 80.4653
9.35794 80.7407
9.4027 81.4472
9.44749 81.8443
9.49226 82.7399
9.53703 83.4097
9.5818 85.1936
9.62657 90.3528
9.67134 98.7651
9.71614 91.7906
9.76091 91.6214
9.80569 93.5847
9.85047 97.2871
9.89525 124.738
9.94005 137.58
9.98484 149.664
10.0296 278.124
10.0744 715.496
10.1192 1757.21
10.164 1580.69
10.2088 371.118
10.2536 122.941
10.2984 111.086
10.3432 114.248
10.388 101.944
10.4328 108.544
10.4776 141.684
10.5224 260.166
10.5672 523.565
10.612 513.879
10.6568 197.281
10.7017 94.2499
10.7465 84.7055
10.7913 81.0369
10.8361 79.3807
10.8809 77.1268
10.9257 77.449
10.9706 78.2815
11.0154 73.6473
11.0602 71.4608
11.105 70.6966
11.1499 76.1385
11.1947 85.6538
11.2395 74.7067
11.2844 69.5138
11.3292 66.2623
11.374 64.8197
11.4189 64.2313
11.4637 63.8395
11.5086 64.4455
11.5534 68.5563
11.5983 65.03
11.6431 62.4925
11.688 61.673
11.7328 61.7863
11.7777 61.6579
11.8225 61.109
11.8674 61.2812
11.9122 61.3861
11.9571 61.7052
12.002 62.0744
12.0468 64.2609
12.0917 73.7798
12.1366 96.5807
12.1814 147.52
12.2263 204.102
12.2712 162.893
12.3161 94.6372
12.3609 70.6094
12.4058 63.6799
12.4507 62.8763
12.4956 62.9708
12.5405 63.0644
12.5853 64.2703
12.6302 73.3975
12.6751 80.4257
12.72 69.6378
12.7649 66.4218
12.8098 66.8957
12.8547 67.9298
12.8996 69.2282
12.9445 70.6201
12.9894 72.1887
13.0343 73.6169
13.0792 76.315
13.1242 82.5334
13.1691 102.163
13.214 133.3
13.2589 219.905
13.3038 371.898
13.3487 436.433
13.3937 258.74
13.4386 121.793
13.4835 98.9598
13.5285 109.713
13.5734 143.75
13.6183 235.382
13.6633 355.869
13.7082 340.787
13.7531 180.876
13.7981 94.6345
13.843 79.7243
13.888 77.7893
13.9329 75.4547
13.9779 74.2595
14.0228 72.453
14.0678 71.3293
14.1127 71.0252
14.1577 71.1279
14.2027 70.2253
14.2476 68.797
14.2926 69.1565
14.3376 70.7107
14.3825 68.8194
14.4275 67.3045
14.4725 66.9202
14.5175 67.0763
14.5624 67.5173
14.6074 69.9691
14.6524 70.9624
14.6974 68.5782
14.7424 69.4034
14.7874 73.9101
14.8324 82.3916
14.8774 101.906
14.9224 145.006
14.9674 209.19
15.0124 219.217
15.0574 151.148
15.1024 89.5566
15.1474 70.8384
15.1924 68.7825
15.2374 70.1509
15.2824 69.2551
15.3274 66.9723
15.3725 65.3785
15.4175 64.7923
15.4625 64.585
15.5076 65.1882
15.5526 64.888
15.5976 64.1563
15.6426 64.4748
15.6877 68.1826
15.7327 74.4552
15.7778 87.8153
15.8228 118.282
15.8679 170.147
15.9129 197.693
15.958 155.367
16.003 94.5497
16.0481 66.9159
16.0931 63.9279
16.1382 61.8953
16.1833 59.4394
16.2283 57.8011
16.2734 57.1842
16.3185 57.6415
16.3636 58.8923
16.4086 57.0849
16.4537 55.0139
16.4988 54.5829
16.5439 54.3692
16.589 53.7968
16.6341 53.7538
16.6792 53.4528
16.7243 53.827
16.7694 54.0413
16.8145 53.8639
16.8596 54.1311
16.9047 56.0172
16.9498 56.471
16.9949 54.7099
17.04 54.561
17.0851 55.215
17.1302 56.7661
17.1754 59.4763
17.2205 64.1729
17.2656 72.7127
17.3108 81.8798
17.3559 80.7049
17.401 69.0208
17.4462 60.4737
17.4913 57.7671
17.5365 57.7117
17.5815 57.7635
17.6268 58.2429
17.6718 58.9839
17.7171 59.4879
17.7622 59.7461
17.8074 60.0731
17.8525 61.6588
17.8977 64.9446
17.9428 69.9945
17.9881 77.9844
18.0331 95.1956
18.0784 120.248
18.1237 139.518
18.1688 128.344
18.214 100.131
18.2591 83.1529
18.3044 87.7009
18.3495 99.7313
18.3948 106.61
18.4399 94.8394
18.4852 76.0172
18.5303 64.7601
18.5756 60.8462
18.6207 59.8895
18.666 59.1382
18.7112 58.4823
18.7565 57.7357
18.8016 57.4471
18.8469 56.8084
18.892 56.5187
18.9374 56.0025
18.9825 55.8363
19.0278 55.7209
19.073 55.5516
19.1183 55.8498
19.1635 56.6748
19.2088 57.7317
19.254 60.2713
19.2993 64.9144
19.3447 71.5364
19.3898 75.955
19.4352 71.1484
19.4804 61.9282
19.5257 55.4843
19.5709 52.9719
19.6163 52.7603
19.6615 52.4373
19.7068 52.1726
19.752 52.0575
19.7974 52.3152
19.8426 53.004
19.888 53.6441
19.9332 54.505
19.9786 56.9907
20.0238 60.7219
20.0692 65.9756
20.1144 68.998
20.1598 66.5784
20.205 61.9163
20.2504 60.4793
20.2957 63.1266
20.3411 65.0847
20.3863 63.1811
20.4318 57.2653
20.477 52.6039
20.5224 50.7591
20.5677 49.9995
20.6131 49.2056
20.6586 48.7792
20.7038 48.4312
20.7493 48.0393
20.7945 48.153
20.84 47.82
20.8853 47.5562
20.9307 47.459
20.976 47.5864
21.0215 47.3987
21.0668 47.9266
21.1122 48.4336
21.1575 49.0048
21.203 49.8128
21.2483 50.4946
21.2938 50.2768
21.3391 48.8659
21.3846 47.9911
21.4299 47.4079
21.4754 47.4123
21.5207 47.4904
21.5662 47.6227
21.6116 47.8493
21.6571 48.4122
21.7024 49.3955
21.7479 51.0431
21.7933 53.5694
21.8388 57.4752
21.8843 61.7812
21.9297 63.7514
21.9752 61.8323
22.0206 58.1621
22.0661 55.5422
22.1115 55.0788
22.157 54.9584
22.2024 53.2316
22.248 50.3605
22.2933 48.7049
22.3389 48.1334
22.3843 48.0677
22.4299 48.0378
22.4753 47.9945
22.5208 47.7054
22.5662 47.5667
22.6118 47.4905
22.6572 47.4996
22.7028 48.0102
22.7483 48.5016
22.7939 49.0035
22.8393 50.4453
22.8849 52.6566
22.9303 55.1294
22.9759 56.8824
23.0214 56.5518
23.067 53.5246
23.1126 50.0677
23.1581 48.3613
23.2037 47.843
23.2492 47.6748
23.2948 47.6983
23.3403 47.8162
23.3859 48.4524
23.4314 49.3666
23.477 51.4161
23.5225 53.8721
23.5682 56.4997
23.6137 57.4111
23.6593 54.9337
23.7048 50.5215
23.7505 47.4126
23.796 45.7435
23.8417 45.0766
23.8872 44.663
23.9329 44.3018
23.9784 44.0843
24.0241 43.6695
24.0697 43.6031
24.1154 43.2312
24.1609 43.0753
24.2066 42.9988
24.2522 42.8193
24.2979 42.723
24.3434 42.3635
24.3892 42.3507
24.4349 42.2749
24.4805 42.1005
24.5262 42.1744
24.5718 42.1161
24.6175 42.2025
24.6631 41.9192
24.7089 41.635
24.7545 41.6676
24.8002 41.4736
24.8458 41.1859
24.8916 41.1659
24.9372 41.1497
24.983 41.497
25.0286 41.8106
25.0744 42.3208
25.12 42.7297
25.1658 43.3253
25.2114 43.7312
25.2572 43.7597
25.3029 43.8868
25.3487 44.2341
25.3943 43.877
25.4402 42.5744
25.4858 41.7862
25.5316 40.6069
25.5773 40.079
25.6231 40.1187
25.669 39.6797
25.7147 39.6163
25.7605 39.564
25.8062 39.6587
25.8521 39.7639
25.8977 39.668
25.9436 39.8483
25.9893 40.102
26.0352 40.6957
26.0809 40.8113
26.1268 40.9387
26.1725 40.5609
26.2184 39.984
26.2641 39.4387
26.31 39.22
26.3557 39.202
26.4017 39.1334
26.4474 39.4995
26.4933 39.972
26.5391 40.4005
26.585 40.8793
26.6308 41.3137
26.6767 41.4882
26.7225 41.1973
26.7684 40.6679
26.8142 40.1299
26.8601 39.6383
26.9059 39.2798
26.9519 38.8178
26.9979 38.3888
27.0437 38.0456
27.0896 37.9033
27.1354 37.9942
27.1814 37.8452
27.2272 37.6563
27.2732 37.7346
27.3191 37.4839
27.3651 37.7745
27.4109 37.5099
27.4569 37.7096
27.5027 37.8459
27.5488 37.7955
27.5946 37.6915
27.6407 37.4198
27.6865 37.3529
27.7326 37.0534
27.7784 37.0979
27.8245 36.9877
27.8703 37.1144
27.9164 37.5053
27.9623 37.6961
28.0084 38.0321
28.0543 38.4369
28.1003 38.2262
28.1462 38.1062
28.1923 37.8351
28.2384 37.1739
28.2843 36.9412
28.3304 36.4252
28.3764 35.9354
28.4225 35.7237
28.4684 35.5099
28.5145 35.2151
28.5605 35.3171
28.6066 34.9963
28.6526 34.9387
28.6987 34.9447
28.7447 34.8367
28.7908 34.8702
28.8368 34.8711
28.8829 34.751
28.9289 34.6546
28.9751 34.4365
29.0211 34.1801
29.0673 33.8884
29.1133 33.9741
29.1595 33.6968
29.2055 33.6853
29.2517 33.6808
29.2977 33.6314
29.3439 33.5754
29.3899 33.5746
29.4361 33.4606
29.4824 33.3386
29.5284 33.0625
29.5746 32.6922
29.6207 32.4698
29.6669 32.4678
29.713 32.3417
29.7593 32.2705
29.8053 32.1656
29.8516 32.1981
29.8977 32.1094
29.9439 31.9242
29.99 31.8887
30.0363 31.8727
30.0824 31.8434
30.1287 31.7939
30.1748 31.7279
30.2211 31.8335
30.2673 31.6838
30.3136 31.7132
30.3597 31.6079
30.406 31.5795
30.4522 31.4928
30.4985 31.4896
30.5447 31.5585
30.591 31.5199
30.6372 31.6268
30.6835 31.5814
30.7297 31.6193
30.7761 31.4863
30.8224 31.3173
30.8686 31.2354
30.915 30.9401
30.9612 30.7987
31.0076 30.5641
31.0538 30.531
31.1002 30.61
31.1464 30.3284
31.1928 30.3029
31.2391 30.2917
31.2855 30.1863
31.3317 30.265
31.3781 30.3641
31.4244 30.245
31.4708 30.2548
31.5171 30.2
31.5636 30.0948
31.6098 29.9189
31.6563 29.7717
31.7026 29.6049
31.7491 29.4963
31.7953 29.6019
31.8418 29.4069
31.8881 29.5468
31.9346 29.4787
31.9809 29.4431
32.0275 29.3368
32.074 29.1639
32.1203 29.0481
32.1668 29.0146
32.2132 28.7991
32.2597 28.669
32.306 28.6101
32.3526 28.447
32.399 28.3878
32.4455 28.2509
32.4919 28.1528
32.5385 28.0933
32.5848 27.9729
32.6314 28.0052
32.6778 27.838
32.7244 27.7294
32.7708 27.6551
32.8174 27.5769
32.8638 27.439
32.9104 27.426
32.9569 27.4579
33.0035 27.3348
33.0499 27.2136
33.0966 27.2746
33.143 27.1918
33.1897 27.2486
33.2361 27.0781
33.2828 27.0795
33.3293 26.8208
33.3759 26.9082
33.4226 26.6927
33.4691 26.5382
33.5158 26.4747
33.5623 26.334
33.609 26.217
33.6555 26.1512
33.7022 26.1207
33.7487 25.9698
33.7954 26.0225
33.842 25.8475
33.8887 25.8342
33.9353 25.7965
33.982 25.6771
34.0286 25.5122
34.0753 25.5057
34.1219 25.3765
34.1687 25.2483
34.2152 25.3334
34.262 25.1132
34.3086 24.9883
34.3554 25.0148
34.402 24.8901
34.4488 24.8019
34.4954 24.802
34.5422 24.6298
34.5889 24.6395
34.6357 24.5406
34.6825 24.4267
34.7292 24.3452
34.776 24.2373
34.8227 24.2736
34.8695 24.1784
34.9162 24.1058
34.9631 23.9742
35.0098 24.0962
35.0566 23.8564
35.1033 23.8276
35.1502 23.8
35.1969 23.7624
35.2438 23.7275
35.2906 23.6487
35.3375 23.5947
35.3842 23.5438
35.4311 23.529
35.4779 23.5713
35.5248 23.466
35.5716 23.3054
35.6185 23.2302
35.6653 23.2066
35.7123 23.1248
35.759 23.0294
35.806 22.9482
35.8528 22.8804
35.8998 22.7353
35.9468 22.6968
35.9936 22.6599
36.0406 22.5815
36.0874 22.5456
36.1345 22.5091
36.1813 22.3547
36.2283 22.2527
36.2752 22.1998
36.3222 22.2756
36.3691 22.1386
36.4161 22.0662
36.463 21.9825
36.5101 22.0385
36.557 21.9346
36.6041 21.7339
36.651 21.7837
36.6981 21.7229
36.745 21.6124
36.7921 21.5117
36.839 21.417
36.8861 21.4096
36.9331 21.2822
36.9802 21.303
37.0272 21.212
37.0743 21.0861
37.1213 21.0627
37.1684 20.977
37.2154 20.942
37.2626 20.8523
37.3098 20.8277
37.3568 20.7679
37.404 20.6972
37.451 20.5133
37.4982 20.5291
37.5452 20.5
37.5924 20.4106
37.6395 20.4583
37.6867 20.313
37.7337 20.2695
37.781 20.101
37.8281 20.0835
37.8753 19.9444
37.9224 19.95
37.9697 19.9275
38.0168 19.8072
38.064 19.7375
38.1111 19.6347
38.1584 19.6119
38.2056 19.6273
38.2529 19.5462
38.3 19.4438
38.3473 19.4032
38.3945 19.3141
38.4418 19.3267
38.489 19.2741
38.5363 19.1098
38.5837 19.0762
38.6309 19.0734
38.6782 18.9742
38.7254 18.8627
38.7728 18.8816
38.82 18.7512
38.8674 18.719
38.9146 18.674
38.9621 18.6094
39.0093 18.5859
39.0567 18.5355
39.104 18.4946
39.1514 18.32
39.1987 18.3675
39.2461 18.2518
39.2934 18.2044
39.3409 18.1385
39.3882 18.0769
39.4356 17.9525
39.483 18.0007
39.5304 17.886
39.5778 17.8797
39.6253 17.8139
39.6726 17.7543
39.7201 17.7449
39.7675 17.6475
39.815 17.6145
39.8624 17.5768
39.9099 17.5009
39.9575 17.5055
40.0049 17.3544
40.0525 17.3301
40.0999 17.3307
40.1474 17.2376
40.1949 17.1989
40.2425 17.0233
40.2899 17.0212
40.3375 16.9543
40.385 16.8827
40.4326 16.891
40.48 16.78
40.5277 16.771
40.5752 16.7232
40.6228 16.6136
40.6703 16.5567
40.718 16.6096
40.7655 16.5621
40.8132 16.4464
40.8607 16.4719
40.9084 16.3685
40.9559 16.2686
41.0036 16.2896
41.0512 16.2091
41.0989 16.1345
41.1465 16.1222
41.1942 16.006
41.242 15.9417
41.2896 15.9092
41.3373 15.8442
41.3849 15.9109
41.4327 15.7634
41.4803 15.6674
41.5281 15.6966
41.5758 15.6329
41.6236 15.5608
41.6712 15.5251
41.7191 15.4472
41.7667 15.3949
41.8146 15.359
41.8622 15.28
41.9101 15.2666
41.9578 15.1617
42.0057 15.1678
42.0534 15.1056
42.1013 15.0607
42.149 14.9851
42.1969 14.9701
42.2446 14.8984
42.2925 14.8391
42.3403 14.819
42.3882 14.7871
42.436 14.7325
42.4839 14.6369
42.5319 14.6573
42.5797 14.5417
42.6277 14.4698
42.6755 14.4996
42.7235 14.4134
42.7713 14.3557
42.8193 14.3276
42.8671 14.2711
42.9152 14.1921
42.963 14.1265
43.0111 14.1157
43.0589 14.0952
43.107 14.0408
43.1549 13.9582
43.2029 13.923
43.2508 13.9291
43.2989 13.8391
43.3468 13.7717
43.3949 13.7773
43.4429 13.6682
43.491 13.6122
43.5389 13.5865
43.5871 13.5363
43.635 13.4929
43.6832 13.4497
43.7312 13.4092
43.7793 13.3585
43.8273 13.3114
43.8755 13.2586
43.9237 13.2172
43.9717 13.1804
44.0199 13.1348
44.068 13.0837
44.1162 13.0105
44.1642 13.0703
44.2125 12.9957
44.2606 12.8827
44.3088 12.8389
44.3569 12.8191
44.4052 12.8213
44.4533 12.7264
44.5016 12.7091
44.5497 12.6348
44.598 12.6361
44.6461 12.5349
44.6945 12.4986
44.7426 12.4764
44.791 12.3503
44.8391 12.3933
44.8875 12.3524
44.9357 12.3179
44.984 12.2761
45.0322 12.2058
45.0806 12.1479
45.1288 12.1008
45.1773 12.1002
45.2257 11.9958
45.2739 11.9949
45.3224 11.9312
45.3706 11.9039
45.4191 11.8351
45.4673 11.8115
45.5158 11.7586
45.5641 11.6818
45.6126 11.6857
45.6609 11.6305
45.7094 11.6056
45.7577 11.5635
45.8063 11.4663
45.8546 11.4996
45.9031 11.4404
45.9515 11.3915
46.0001 11.3947
46.0484 11.3137
46.097 11.2925
46.1454 11.2773
46.194 11.1932
46.2424 11.1867
46.291 11.1107
46.3395 11.0857
46.3881 11.0464
46.4365 10.9902
46.4852 10.9459
46.5337 10.9347
46.5823 10.9073
46.631 10.8461
46.6795 10.8122
46.7282 10.7386
46.7767 10.7428
46.8254 10.6393
46.8739 10.6903
46.9226 10.6379
46.9712 10.5175
47.0199 10.5139
47.0685 10.4959
47.1173 10.4278
47.1658 10.4006
47.2146 10.3873
47.2632 10.3168
47.312 10.3175
47.3606 10.2369
47.4095 10.174
47.4581 10.1839
47.5069 10.1341
47.5556 10.1011
47.6044 10.0598
47.6531 10.0338
47.702 9.99885
47.7507 9.94223
47.7996 9.90194
47.8483 9.89669
47.8972 9.84284
47.9461 9.81097
47.9948 9.78203
48.0438 9.73179
48.0925 9.69075
48.1415 9.67364
48.1902 9.61697
48.2392 9.62703
48.288 9.5682
48.337 9.54309
48.3858 9.48848
48.4348 9.45536
48.4837 9.44638
48.5327 9.38928
48.5815 9.32589
48.6306 9.38102
48.6795 9.33993
48.7285 9.24022
48.7774 9.23176
48.8265 9.22274
48.8754 9.15184
48.9245 9.14755
48.9734 9.08722
49.0226 9.05648
49.0715 9.0022
49.1206 9.02283
49.1696 8.93935
49.2188 8.93856
49.2679 8.8759
49.3169 8.81975
49.3661 8.80963
49.4151 8.75632
49.4643 8.7432
49.5134 8.75355
49.5626 8.65947
49.6117 8.64196
49.6609 8.61254
49.71 8.55447
49.7592 8.52683
49.8083 8.4693
49.8576 8.51742
49.9067 8.45754
49.956 8.39796
50.0052 8.39005
50.0545 8.38996
50.1036 8.30957
50.153 8.25511
50.2022 8.23705
50.2515 8.22685
50.3007 8.1791
50.3501 8.14321
50.3993 8.16589
50.4487 8.13814
50.498 8.06573
50.5474 8.05121
50.5966 8.02073
50.6461 8.00493
50.6955 7.96842
50.7448 7.88296
50.7943 7.90085
50.8436 7.82217
50.8931 7.82105
50.9424 7.77886
50.9919 7.76773
51.0413 7.73441
51.0908 7.71094
51.1402 7.66765
51.1897 7.63995
51.2391 7.60331
51.2887 7.55675
51.3381 7.51682
51.3877 7.54903
51.4371 7.46817
51.4867 7.44612
51.5362 7.41609
51.5858 7.38074
51.6353 7.33376
51.6849 7.30305
51.7344 7.30885
51.7841 7.30163
51.8336 7.2615
51.8833 7.20131
51.9328 7.16726
51.9826 7.16999
52.0323 7.08147
52.0818 7.09862
52.1316 7.04133
52.1812 7.07978
52.231 6.98881
52.2806 6.96994
52.3304 6.93393
52.38 6.90143
52.4298 6.86886
52.4794 6.85071
52.5293 6.83217
52.5789 6.81323
52.6288 6.78156
52.6785 6.74417
52.7284 6.75469
52.7781 6.72463
52.828 6.67989
52.8777 6.66184
52.9276 6.62495
52.9774 6.57832
53.0273 6.54368
53.0771 6.52419
53.1271 6.50733
53.1769 6.45813
53.2269 6.43606
53.2767 6.3907
53.3267 6.40414
53.3765 6.35125
53.4266 6.34117
53.4766 6.32099
53.5265 6.24854
53.5765 6.25072
53.6264 6.2332
53.6765 6.24956
53.7264 6.17258
53.7765 6.15254
53.8265 6.09812
53.8766 6.08462
53.9266 6.09448
53.9767 6.03319
54.0267 6.04714
54.0769 5.97461
54.1269 5.97395
54.1771 5.93148
54.2271 5.88097
54.2773 5.86825
54.3274 5.86921
54.3776 5.79812
54.4277 5.7603
54.478 5.73805
54.528 5.71045
54.5783 5.65841
54.6285 5.63342
54.6788 5.59932
54.7289 5.55551
54.7792 5.47912
54.8296 5.4701
54.8798 5.38088
54.9301 5.39181
54.9803 5.35394
55.0307 5.31106
55.0809 5.30988
55.1314 5.24848
55.1816 5.22825
55.232 5.14404
55.2823 5.13607
55.3328 5.09516
55.383 4.99248
55.4335 4.99022
55.4838 4.89688
55.5344 4.88406
55.5847 4.87219
55.6352 4.83284
55.6856 4.74862
55.7361 4.73532