File: XRD/Ni3Fe_FD0669.xy
TT I
1.27165 7.50774
1.31627 6.58833
1.36089 6.87333
1.40551 5.76551
1.45013 5.83071
1.49476 6.11302
1.53938 6.10255
1.584 5.4063
1.62863 5.04477
1.67325 5.3338
1.71787 5.16014
1.7625 4.63939
1.80712 4.73939
1.85174 4.43059
1.89636 4.55331
1.94099 4.25154
1.98562 4.50407
2.03025 4.35355
2.07487 4.682
2.11949 4.76359
2.16411 4.67924
2.20874 12.0104
2.25338 18.6859
2.298 5.67658
2.34263 5.22239
2.38725 5.68226
2.43188 6.18589
2.4765 7.16128
2.52115 6.86815
2.56577 7.14991
2.6104 7.98228
2.65503 7.36644
2.69965 7.65339
2.7443 7.9349
2.78893 8.7577
2.83356 8.48008
2.87818 8.58283
2.92281 8.89734
2.96744 9.99137
3.01209 10.274
3.05672 11.224
3.10135 12.0123
3.14599 12.6107
3.19062 14.3547
3.23527 15.169
3.2799 15.7415
3.32454 16.5954
3.36917 17.8897
3.4138 18.728
3.45844 19.7117
3.50309 20.3824
3.54773 21.9787
3.59237 23.4208
3.637 77.0111
3.68164 50.4383
3.7263 25.7819
3.77094 25.8203
3.81558 26.581
3.86022 27.0501
3.90486 28.7329
3.9495 29.6914
3.99416 30.5485
4.0388 32.0894
4.08344 33.7232
4.12809 34.2782
4.17273 36.4239
4.21738 41.3654
4.26204 201.583
4.30669 171.424
4.35133 46.4598
4.39598 43.7391
4.44063 51.7356
4.4853 60.5392
4.52995 50.2815
4.5746 51.5193
4.61925 53.3673
4.6639 55.6549
4.70855 58.1308
4.75322 61.0237
4.79788 63.6079
4.84253 67.5283
4.88719 71.5201
4.93184 75.2534
4.97652 81.054
5.02118 87.533
5.06583 94.6988
5.11049 106.217
5.15515 165.51
5.19981 371.535
5.24449 2941.69
5.28916 12564.8
5.33382 2774.65
5.37848 181.491
5.42315 127.319
5.46783 112.518
5.5125 105.787
5.55716 101.719
5.60183 97.688
5.6465 96.1567
5.69117 93.4619
5.73586 92.3084
5.78053 91.8768
5.8252 91.3152
5.86988 92.3626
5.91455 94.5812
5.95924 104.215
6.00392 218.913
6.0486 989.745
6.09328 4476.39
6.13795 3264.12
6.18263 220.277
6.22733 91.9473
6.27201 81.6054
6.3167 95.3021
6.36138 78.0049
6.40606 68.3946
6.45075 66.9788
6.49545 65.0866
6.54014 63.3054
6.58483 62.1609
6.62952 62.4665
6.67421 85.6956
6.71892 122.953
6.76361 66.2324
6.8083 58.2408
6.853 57.2153
6.89769 56.9187
6.94239 56.2589
6.98711 55.6431
7.03181 55.2684
7.07651 54.9801
7.12121 54.9091
7.16591 54.9949
7.21063 55.2026
7.25533 67.5318
7.30004 147.403
7.34475 81.986
7.38945 55.6075
7.43416 54.4226
7.47889 54.0562
7.5236 54.5834
7.56831 55.07
7.61303 56.7045
7.65774 56.6587
7.70247 55.8747
7.74719 56.2162
7.79191 56.4796
7.83663 56.6533
7.88135 57.7143
7.92607 58.905
7.97081 59.8631
8.01553 60.764
8.06026 62.1539
8.10498 63.5741
8.14971 71.3969
8.19446 70.8148
8.23919 69.3821
8.28392 71.787
8.32865 73.7206
8.37339 78.2512
8.41812 84.9074
8.46288 109.704
8.50761 172.148
8.55235 402.442
8.59709 1215.94
8.64183 2190.99
8.68658 933.497
8.73134 158.529
8.77609 98.6173
8.82083 91.9616
8.86558 89.2609
8.91033 89.0598
8.9551 89.6418
8.99985 84.7456
9.04461 83.4593
9.08936 82.4199
9.13412 81.6557
9.17888 81.7378
9.22365 82.3832
9.26841 81.5043
9.31318 82.7259
9.35794 82.8805
9.4027 83.099
9.44749 84.0535
9.49226 84.3618
9.53703 85.5055
9.5818 87.0757
9.62657 90.8507
9.67134 96.4856
9.71614 93.2588
9.76091 93.918
9.80569 96.2766
9.85047 99.9299
9.89525 119.516
9.94005 132.446
9.98484 184.341
10.0296 357.222
10.0744 832.723
10.1192 1788.28
10.164 1572.27
10.2088 373.236
10.2536 123.493
10.2984 111.123
10.3432 111.876
10.388 104.562
10.4328 119.752
10.4776 163.221
10.5224 286.137
10.5672 512.648
10.612 498.526
10.6568 190.125
10.7017 94.6939
10.7465 86.2184
10.7913 82.6031
10.8361 80.7623
10.8809 78.6506
10.9257 77.9163
10.9706 77.8137
11.0154 74.2898
11.0602 72.4181
11.105 71.4345
11.1499 74.5188
11.1947 79.8304
11.2395 72.8293
11.2844 69.4326
11.3292 67.039
11.374 65.7649
11.4189 65.2577
11.4637 64.5231
11.5086 64.8453
11.5534 67.0041
11.5983 64.7944
11.6431 63.275
11.688 62.641
11.7328 62.5488
11.7777 62.674
11.8225 62.3077
11.8674 62.2753
11.9122 62.7019
11.9571 62.6201
12.002 63.5996
12.0468 68.0855
12.0917 79.299
12.1366 103.635
12.1814 152.939
12.2263 204.722
12.2712 159.282
12.3161 89.9845
12.3609 68.9008
12.4058 64.3226
12.4507 63.7323
12.4956 63.9906
12.5405 63.9881
12.5853 65.4101
12.6302 71.0517
12.6751 75.1211
12.72 68.9878
12.7649 67.7539
12.8098 68.1968
12.8547 69.6787
12.8996 71.0309
12.9445 71.9588
12.9894 73.8613
13.0343 75.8142
13.0792 79.3984
13.1242 89.3154
13.1691 113.63
13.214 150.957
13.2589 245.125
13.3038 379.22
13.3487 424.347
13.3937 252.345
13.4386 120.68
13.4835 106.492
13.5285 122.004
13.5734 160.931
13.6183 252.955
13.6633 358.552
13.7082 331.613
13.7531 173.359
13.7981 94.4513
13.843 81.3381
13.888 79.3095
13.9329 76.536
13.9779 75.7365
14.0228 74.3736
14.0678 72.592
14.1127 72.2185
14.1577 72.1854
14.2027 71.2159
14.2476 70.0162
14.2926 70.1407
14.3376 70.9759
14.3825 69.9269
14.4275 68.7253
14.4725 68.5673
14.5175 68.5778
14.5624 68.8885
14.6074 70.202
14.6524 70.9006
14.6974 70.4335
14.7424 72.2447
14.7874 79.4768
14.8324 89.6883
14.8774 111.735
14.9224 156.867
14.9674 211.919
15.0124 217.344
15.0574 142.444
15.1024 87.1813
15.1474 71.6605
15.1924 70.1225
15.2374 70.2312
15.2824 69.6788
15.3274 67.6774
15.3725 66.5138
15.4175 66.1763
15.4625 65.789
15.5076 65.897
15.5526 65.9486
15.5976 65.8303
15.6426 67.2081
15.6877 72.763
15.7327 80.345
15.7778 95.753
15.8228 128.566
15.8679 175.076
15.9129 196.174
15.958 153.321
16.003 93.5624
16.0481 66.9466
16.0931 63.6353
16.1382 62.0082
16.1833 60.0858
16.2283 58.797
16.2734 58.1363
16.3185 58.32
16.3636 58.7518
16.4086 57.2502
16.4537 55.9137
16.4988 55.4395
16.5439 55.3443
16.589 54.9373
16.6341 54.8154
16.6792 54.2462
16.7243 54.7058
16.7694 54.9251
16.8145 54.6551
16.8596 55.1294
16.9047 56.2543
16.9498 56.6725
16.9949 55.5065
17.04 55.4663
17.0851 57.0463
17.1302 58.5572
17.1754 61.6487
17.2205 66.8863
17.2656 74.8906
17.3108 83.4632
17.3559 81.8829
17.401 69.9609
17.4462 61.5007
17.4913 58.8742
17.5365 58.7722
17.5815 58.9804
17.6268 59.2929
17.6718 60.146
17.7171 60.752
17.7622 61.319
17.8074 61.8797
17.8525 64.4746
17.8977 68.6503
17.9428 74.0733
17.9881 83.3467
18.0331 101.271
18.0784 124.016
18.1237 142.743
18.1688 130.33
18.214 101.001
18.2591 85.9154
18.3044 90.9326
18.3495 101.005
18.3948 105.959
18.4399 94.8229
18.4852 75.6022
18.5303 65.1238
18.5756 61.9581
18.6207 60.9634
18.666 60.1882
18.7112 59.4953
18.7565 58.8998
18.8016 58.3664
18.8469 57.8771
18.892 57.3026
18.9374 57.2507
18.9825 56.8748
19.0278 56.6056
19.073 56.7658
19.1183 57.1428
19.1635 58.1149
19.2088 59.2921
19.254 62.2801
19.2993 67.2227
19.3447 73.3772
19.3898 76.5817
19.4352 71.8167
19.4804 62.3644
19.5257 56.2697
19.5709 54.0697
19.6163 53.9218
19.6615 53.2749
19.7068 53.2684
19.752 53.1106
19.7974 53.6329
19.8426 54.607
19.888 54.9621
19.9332 56.1407
19.9786 58.9044
20.0238 62.7586
20.0692 67.7968
20.1144 69.7416
20.1598 67.6951
20.205 63.0676
20.2504 61.9405
20.2957 63.9848
20.3411 65.4753
20.3863 63.2807
20.4318 57.5199
20.477 52.9801
20.5224 51.103
20.5677 50.7261
20.6131 50.0325
20.6586 49.4886
20.7038 49.392
20.7493 48.8823
20.7945 48.9144
20.84 48.6928
20.8853 48.5681
20.9307 48.5319
20.976 48.6011
21.0215 48.435
21.0668 48.8567
21.1122 49.231
21.1575 49.9928
21.203 50.831
21.2483 51.4075
21.2938 51.2184
21.3391 49.9246
21.3846 48.5996
21.4299 48.0747
21.4754 48.2885
21.5207 48.4434
21.5662 48.6854
21.6116 49.3255
21.6571 49.8196
21.7024 50.8591
21.7479 52.7405
21.7933 55.4401
21.8388 59.4245
21.8843 63.1841
21.9297 64.7396
21.9752 63.0396
22.0206 59.0849
22.0661 56.3274
22.1115 56.1738
22.157 55.8128
22.2024 54.1139
22.248 51.1905
22.2933 49.6436
22.3389 48.8289
22.3843 48.8049
22.4299 48.6569
22.4753 48.7757
22.5208 48.524
22.5662 48.3193
22.6118 48.5138
22.6572 48.6455
22.7028 49.2425
22.7483 49.5968
22.7939 50.4629
22.8393 52.1181
22.8849 54.2679
22.9303 56.2853
22.9759 57.9368
23.0214 57.1459
23.067 54.1336
23.1126 50.6769
23.1581 49.1006
23.2037 48.5702
23.2492 48.6008
23.2948 48.6999
23.3403 49.0137
23.3859 49.7282
23.4314 50.7834
23.477 52.5892
23.5225 54.9507
23.5682 57.2516
23.6137 57.9249
23.6593 55.002
23.7048 51.0366
23.7505 47.8973
23.796 46.4102
23.8417 45.7643
23.8872 45.3807
23.9329 44.982
23.9784 44.7814
24.0241 44.4743
24.0697 44.4371
24.1154 44.0184
24.1609 43.9015
24.2066 43.6695
24.2522 43.5424
24.2979 43.4201
24.3434 43.2152
24.3892 42.9183
24.4349 43.0756
24.4805 42.8495
24.5262 43.0179
24.5718 42.8078
24.6175 42.8322
24.6631 42.6578
24.7089 42.358
24.7545 42.2898
24.8002 42.1747
24.8458 42.2369
24.8916 42.0741
24.9372 42.0943
24.983 42.3576
25.0286 42.8863
25.0744 43.4157
25.12 43.7809
25.1658 44.3236
25.2114 44.6956
25.2572 44.6395
25.3029 44.8005
25.3487 44.9485
25.3943 44.5183
25.4402 43.2062
25.4858 42.2137
25.5316 41.3756
25.5773 40.8318
25.6231 40.8179
25.669 40.421
25.7147 40.3537
25.7605 40.3422
25.8062 40.3484
25.8521 40.6074
25.8977 40.5845
25.9436 40.8014
25.9893 40.896
26.0352 41.4554
26.0809 41.4991
26.1268 41.6793
26.1725 41.1952
26.2184 40.7277
26.2641 40.1452
26.31 40.0873
26.3557 39.9915
26.4017 40.0597
26.4474 40.3548
26.4933 40.7883
26.5391 41.0995
26.585 41.7324
26.6308 42.0176
26.6767 42.0794
26.7225 41.9167
26.7684 41.3309
26.8142 40.7693
26.8601 40.2979
26.9059 39.859
26.9519 39.3718
26.9979 39.1597
27.0437 38.6921
27.0896 38.6379
27.1354 38.638
27.1814 38.6333
27.2272 38.412
27.2732 38.4794
27.3191 38.3492
27.3651 38.3133
27.4109 38.3858
27.4569 38.5309
27.5027 38.5602
27.5488 38.5583
27.5946 38.2328
27.6407 38.114
27.6865 38.1513
27.7326 37.794
27.7784 37.7365
27.8245 37.6539
27.8703 37.9131
27.9164 38.3207
27.9623 38.3724
28.0084 38.7562
28.0543 39.0572
28.1003 38.9948
28.1462 38.7294
28.1923 38.3367
28.2384 37.8738
28.2843 37.6024
28.3304 36.9957
28.3764 36.6208
28.4225 36.3098
28.4684 36.1153
28.5145 35.912
28.5605 35.9055
28.6066 35.5845
28.6526 35.6808
28.6987 35.5649
28.7447 35.3529
28.7908 35.349
28.8368 35.4485
28.8829 35.4521
28.9289 35.1395
28.9751 35.1068
29.0211 34.7714
29.0673 34.6346
29.1133 34.519
29.1595 34.3752
29.2055 34.2486
29.2517 34.209
29.2977 34.2062
29.3439 34.246
29.3899 34.31
29.4361 34.095
29.4824 33.9729
29.5284 33.6666
29.5746 33.3348
29.6207 33.1814
29.6669 32.9993
29.713 32.9363
29.7593 32.7802
29.8053 32.733
29.8516 32.6997
29.8977 32.6664
29.9439 32.5497
29.99 32.5544
30.0363 32.4106
30.0824 32.4048
30.1287 32.3246
30.1748 32.3876
30.2211 32.272
30.2673 32.2242
30.3136 32.2222
30.3597 32.169
30.406 32.1826
30.4522 31.9438
30.4985 31.8736
30.5447 32.0954
30.591 32.1474
30.6372 32.1502
30.6835 32.2278
30.7297 32.1082
30.7761 32.0159
30.8224 31.8175
30.8686 31.8107
30.915 31.4445
30.9612 31.3454
31.0076 31.1602
31.0538 31.1867
31.1002 31.0395
31.1464 31.0394
31.1928 30.8798
31.2391 31.0104
31.2855 30.8398
31.3317 30.7901
31.3781 30.9205
31.4244 30.9477
31.4708 30.7412
31.5171 30.7856
31.5636 30.6706
31.6098 30.517
31.6563 30.2706
31.7026 30.1948
31.7491 30.061
31.7953 30.0918
31.8418 30.0824
31.8881 30.1102
31.9346 30.0109
31.9809 30.0236
32.0275 29.8089
32.074 29.8153
32.1203 29.4891
32.1668 29.4974
32.2132 29.2832
32.2597 29.2409
32.306 29.0891
32.3526 28.8995
32.399 28.9329
32.4455 28.7602
32.4919 28.6358
32.5385 28.5937
32.5848 28.4373
32.6314 28.5099
32.6778 28.3618
32.7244 28.1294
32.7708 27.9909
32.8174 28.0651
32.8638 27.9479
32.9104 28.0135
32.9569 27.9209
33.0035 27.7945
33.0499 27.8074
33.0966 27.8602
33.143 27.7397
33.1897 27.6122
33.2361 27.6373
33.2828 27.5911
33.3293 27.3961
33.3759 27.273
33.4226 27.1842
33.4691 27.0978
33.5158 26.9746
33.5623 26.891
33.609 26.7233
33.6555 26.6004
33.7022 26.5285
33.7487 26.418
33.7954 26.4495
33.842 26.2786
33.8887 26.2961
33.9353 26.1452
33.982 26.1292
34.0286 25.8963
34.0753 25.9441
34.1219 25.8736
34.1687 25.7621
34.2152 25.7647
34.262 25.6491
34.3086 25.5441
34.3554 25.4879
34.402 25.3531
34.4488 25.2674
34.4954 25.152
34.5422 25.1009
34.5889 25.0285
34.6357 24.8968
34.6825 24.8918
34.7292 24.8654
34.776 24.6791
34.8227 24.6806
34.8695 24.5814
34.9162 24.5188
34.9631 24.4405
35.0098 24.5116
35.0566 24.3645
35.1033 24.206
35.1502 24.2131
35.1969 24.1578
35.2438 24.0128
35.2906 24.133
35.3375 24.0136
35.3842 23.9652
35.4311 23.9458
35.4779 23.9274
35.5248 23.8464
35.5716 23.6972
35.6185 23.665
35.6653 23.5765
35.7123 23.5312
35.759 23.3874
35.806 23.3288
35.8528 23.2061
35.8998 23.1664
35.9468 23.0645
35.9936 23.0979
36.0406 22.9506
36.0874 22.9683
36.1345 22.8513
36.1813 22.7107
36.2283 22.6444
36.2752 22.5871
36.3222 22.6534
36.3691 22.5777
36.4161 22.4391
36.463 22.4697
36.5101 22.3441
36.557 22.3271
36.6041 22.0998
36.651 22.1923
36.6981 22.0243
36.745 22.0545
36.7921 21.9398
36.839 21.7936
36.8861 21.7938
36.9331 21.6684
36.9802 21.665
37.0272 21.588
37.0743 21.4531
37.1213 21.4617
37.1684 21.3937
37.2154 21.2314
37.2626 21.2393
37.3098 21.2196
37.3568 21.1316
37.404 21.0716
37.451 20.9509
37.4982 20.942
37.5452 20.7583
37.5924 20.6864
37.6395 20.8106
37.6867 20.7255
37.7337 20.5374
37.781 20.4956
37.8281 20.4161
37.8753 20.3643
37.9224 20.2997
37.9697 20.184
38.0168 20.1503
38.064 20.1433
38.1111 20.0247
38.1584 19.9684
38.2056 19.967
38.2529 19.8982
38.3 19.7994
38.3473 19.7532
38.3945 19.6406
38.4418 19.655
38.489 19.548
38.5363 19.5099
38.5837 19.4064
38.6309 19.3741
38.6782 19.3528
38.7254 19.2621
38.7728 19.2183
38.82 19.1776
38.8674 19.0602
38.9146 18.9847
38.9621 18.9496
39.0093 18.9526
39.0567 18.8314
39.104 18.738
39.1514 18.67
39.1987 18.651
39.2461 18.5944
39.2934 18.5499
39.3409 18.4629
39.3882 18.3847
39.4356 18.3964
39.483 18.302
39.5304 18.2185
39.5778 18.2509
39.6253 18.13
39.6726 18.0574
39.7201 18.0154
39.7675 17.9766
39.815 17.8913
39.8624 17.813
39.9099 17.804
39.9575 17.771
40.0049 17.6697
40.0525 17.5614
40.0999 17.5594
40.1474 17.4835
40.1949 17.4329
40.2425 17.3265
40.2899 17.3286
40.3375 17.2558
40.385 17.2333
40.4326 17.1546
40.48 17.0877
40.5277 17.1034
40.5752 17.053
40.6228 16.943
40.6703 16.8994
40.718 16.8085
40.7655 16.7886
40.8132 16.6795
40.8607 16.7005
40.9084 16.6367
40.9559 16.575
41.0036 16.5694
41.0512 16.4984
41.0989 16.4589
41.1465 16.3101
41.1942 16.3165
41.242 16.2925
41.2896 16.1943
41.3373 16.1153
41.3849 16.1183
41.4327 16.0377
41.4803 15.9298
41.5281 15.917
41.5758 15.8641
41.6236 15.7848
41.6712 15.8396
41.7191 15.7095
41.7667 15.6955
41.8146 15.6493
41.8622 15.5354
41.9101 15.5097
41.9578 15.383
42.0057 15.3932
42.0534 15.365
42.1013 15.2938
42.149 15.2506
42.1969 15.1913
42.2446 15.1879
42.2925 15.0825
42.3403 15.0254
42.3882 15.0409
42.436 14.981
42.4839 14.9048
42.5319 14.8377
42.5797 14.815
42.6277 14.7301
42.6755 14.7215
42.7235 14.6323
42.7713 14.5993
42.8193 14.5326
42.8671 14.5047
42.9152 14.4834
42.963 14.3862
43.0111 14.3373
43.0589 14.2895
43.107 14.2347
43.1549 14.2148
43.2029 14.1533
43.2508 14.109
43.2989 14.0409
43.3468 13.9961
43.3949 13.9414
43.4429 13.93
43.491 13.8455
43.5389 13.827
43.5871 13.766
43.635 13.7189
43.6832 13.7034
43.7312 13.6304
43.7793 13.5468
43.8273 13.5309
43.8755 13.4764
43.9237 13.444
43.9717 13.3828
44.0199 13.3505
44.068 13.3142
44.1162 13.2564
44.1642 13.2122
44.2125 13.1808
44.2606 13.1181
44.3088 13.0567
44.3569 13.0599
44.4052 12.9933
44.4533 12.9254
44.5016 12.886
44.5497 12.7999
44.598 12.7917
44.6461 12.7945
44.6945 12.6622
44.7426 12.6573
44.791 12.6238
44.8391 12.6083
44.8875 12.5669
44.9357 12.4934
44.984 12.41
45.0322 12.3651
45.0806 12.363
45.1288 12.3424
45.1773 12.2793
45.2257 12.2355
45.2739 12.1606
45.3224 12.0879
45.3706 12.1167
45.4191 12.0412
45.4673 12.0191
45.5158 11.9785
45.5641 11.909
45.6126 11.849
45.6609 11.8291
45.7094 11.811
45.7577 11.7749
45.8063 11.6873
45.8546 11.7044
45.9031 11.6372
45.9515 11.5865
46.0001 11.536
46.0484 11.5245
46.097 11.5245
46.1454 11.4763
46.194 11.3798
46.2424 11.3433
46.291 11.2998
46.3395 11.2279
46.3881 11.2075
46.4365 11.1924
46.4852 11.1223
46.5337 11.122
46.5823 11.0678
46.631 11.0148
46.6795 10.9792
46.7282 10.9343
46.7767 10.8917
46.8254 10.8431
46.8739 10.8038
46.9226 10.7517
46.9712 10.6778
47.0199 10.7085
47.0685 10.6424
47.1173 10.5917
47.1658 10.56
47.2146 10.5247
47.2632 10.4471
47.312 10.4723
47.3606 10.4095
47.4095 10.3497
47.4581 10.3248
47.5069 10.2508
47.5556 10.2231
47.6044 10.2144
47.6531 10.2036
47.702 10.1243
47.7507 10.1047
47.7996 10.0841
47.8483 10.0516
47.8972 10.034
47.9461 9.95429
47.9948 9.90919
48.0438 9.9009
48.0925 9.86274
48.1415 9.86422
48.1902 9.80449
48.2392 9.75951
48.288 9.76158
48.337 9.67838
48.3858 9.63855
48.4348 9.63376
48.4837 9.58674
48.5327 9.52727
48.5815 9.51405
48.6306 9.50977
48.6795 9.44231
48.7285 9.41594
48.7774 9.36061
48.8265 9.3566
48.8754 9.31608
48.9245 9.30995
48.9734 9.28458
49.0226 9.20931
49.0715 9.17975
49.1206 9.13564
49.1696 9.10985
49.2188 9.08962
49.2679 9.00881
49.3169 8.96204
49.3661 8.96476
49.4151 8.9144
49.4643 8.91869
49.5134 8.85573
49.5626 8.78507
49.6117 8.7404
49.6609 8.75451
49.71 8.69184
49.7592 8.64407
49.8083 8.60391
49.8576 8.63395
49.9067 8.56162
49.956 8.58049
50.0052 8.51222
50.0545 8.4766
50.1036 8.46885
50.153 8.43244
50.2022 8.38664
50.2515 8.34953
50.3007 8.30682
50.3501 8.27522
50.3993 8.28475
50.4487 8.21784
50.498 8.19449
50.5474 8.16584
50.5966 8.0988
50.6461 8.09867
50.6955 8.10836
50.7448 8.0995
50.7943 8.02799
50.8436 7.96238
50.8931 7.94932
50.9424 7.94203
50.9919 7.90962
51.0413 7.8293
51.0908 7.81242
51.1402 7.7714
51.1897 7.78021
51.2391 7.72685
51.2887 7.68348
51.3381 7.69364
51.3877 7.65088
51.4371 7.55547
51.4867 7.57432
51.5362 7.56698
51.5858 7.49483
51.6353 7.45496
51.6849 7.4444
51.7344 7.404
51.7841 7.41239
51.8336 7.36991
51.8833 7.3368
51.9328 7.30721
51.9826 7.21411
52.0323 7.21474
52.0818 7.18377
52.1316 7.12187
52.1812 7.13818
52.231 7.08994
52.2806 7.10219
52.3304 7.08595
52.38 7.02438
52.4298 6.99234
52.4794 6.93874
52.5293 6.96488
52.5789 6.92263
52.6288 6.86798
52.6785 6.849
52.7284 6.84902
52.7781 6.76966
52.828 6.77677
52.8777 6.73667
52.9276 6.68566
52.9774 6.69854
53.0273 6.6486
53.0771 6.65468
53.1271 6.61373
53.1769 6.57086
53.2269 6.55061
53.2767 6.55675
53.3267 6.48484
53.3765 6.4713
53.4266 6.45424
53.4766 6.42503
53.5265 6.38174
53.5765 6.31947
53.6264 6.31833
53.6765 6.31536
53.7264 6.27074
53.7765 6.22511
53.8265 6.22277
53.8766 6.21288
53.9266 6.17467
53.9767 6.12901
54.0267 6.0905
54.0769 6.04719
54.1269 6.05069
54.1771 5.99692
54.2271 6.02037
54.2773 5.94546
54.3274 5.91598
54.3776 5.90624
54.4277 5.87427
54.478 5.85329
54.528 5.82348
54.5783 5.72122
54.6285 5.73449
54.6788 5.70839
54.7289 5.61506
54.7792 5.62056
54.8296 5.55701
54.8798 5.52647
54.9301 5.48338
54.9803 5.43246
55.0307 5.42367
55.0809 5.3691
55.1314 5.36237
55.1816 5.2523
55.232 5.22533
55.2823 5.1861
55.3328 5.13193
55.383 5.07982
55.4335 5.09358
55.4838 5.01379
55.5344 4.91838
55.5847 4.93321
55.6352 4.9654
55.6856 4.83972
55.7361 4.8119