File: XRD/Ni3Fe_FD0587.xy
TT I
1.27165 7.01862
1.31627 6.79537
1.36089 6.1126
1.40551 5.44487
1.45013 5.63152
1.49476 6.32618
1.53938 5.71392
1.584 5.03217
1.62863 5.01837
1.67325 5.11494
1.71787 5.58971
1.7625 4.85945
1.80712 4.71778
1.85174 4.47687
1.89636 4.58932
1.94099 4.81863
1.98562 4.59535
2.03025 4.78146
2.07487 4.72084
2.11949 4.44603
2.16411 4.49867
2.20874 9.13547
2.25338 12.8149
2.298 5.14155
2.34263 5.52033
2.38725 5.95408
2.43188 5.84019
2.4765 6.72071
2.52115 7.11378
2.56577 7.13426
2.6104 8.31946
2.65503 7.31048
2.69965 8.0752
2.7443 8.1388
2.78893 8.37544
2.83356 7.97615
2.87818 8.5963
2.92281 8.62918
2.96744 9.59429
3.01209 10.4254
3.05672 11.2685
3.10135 12.1601
3.14599 12.9393
3.19062 13.919
3.23527 15.1132
3.2799 15.6745
3.32454 16.9417
3.36917 17.9757
3.4138 19.0623
3.45844 19.3276
3.50309 21.1159
3.54773 21.5794
3.59237 23.2158
3.637 53.4719
3.68164 39.4092
3.7263 25.4562
3.77094 25.6299
3.81558 26.6222
3.86022 27.7691
3.90486 28.507
3.9495 29.9069
3.99416 30.8471
4.0388 32.4089
4.08344 33.6774
4.12809 34.4067
4.17273 36.1554
4.21738 40.0392
4.26204 131.851
4.30669 115.367
4.35133 45.0194
4.39598 43.9881
4.44063 49.7081
4.4853 55.4806
4.52995 54.3537
4.5746 54.9812
4.61925 54.1129
4.6639 56.3449
4.70855 58.3808
4.75322 62.3491
4.79788 67.3788
4.84253 68.8708
4.88719 74.2295
4.93184 77.14
4.97652 82.2762
5.02118 89.1205
5.06583 97.2393
5.11049 109.313
5.15515 162.369
5.19981 478.83
5.24449 3240.43
5.28916 12282.5
5.33382 2771.3
5.37848 201.217
5.42315 132.491
5.46783 119.204
5.5125 110.82
5.55716 103.363
5.60183 99.1987
5.6465 97.6462
5.69117 95.6344
5.73586 93.5918
5.78053 96.7855
5.8252 96.6119
5.86988 98.6606
5.91455 97.662
5.95924 108.676
6.00392 274.185
6.0486 1110.63
6.09328 4392.59
6.13795 3305.33
6.18263 239.703
6.22733 93.5544
6.27201 82.3042
6.3167 87.0552
6.36138 76.008
6.40606 69.5105
6.45075 68.6706
6.49545 66.0074
6.54014 63.957
6.58483 63.3148
6.62952 62.9848
6.67421 75.7528
6.71892 97.2407
6.76361 63.6993
6.8083 59.1258
6.853 59.1539
6.89769 57.1387
6.94239 56.4207
6.98711 56.0912
7.03181 55.7214
7.07651 55.2127
7.12121 55.0759
7.16591 56.142
7.21063 55.5514
7.25533 61.8909
7.30004 108.727
7.34475 70.4418
7.38945 55.5769
7.43416 54.1354
7.47889 54.314
7.5236 54.5866
7.56831 55.3944
7.61303 56.0273
7.65774 56.4065
7.70247 56.4884
7.74719 56.5702
7.79191 57.0811
7.83663 56.8046
7.88135 58.1537
7.92607 58.5949
7.97081 60.0006
8.01553 61.105
8.06026 62.6975
8.10498 64.2508
8.14971 71.0145
8.19446 70.6298
8.23919 70.1254
8.28392 72.4946
8.32865 75.3268
8.37339 79.2541
8.41812 85.1563
8.46288 107.467
8.50761 198.465
8.55235 439.487
8.59709 1244.03
8.64183 2216.82
8.68658 928.192
8.73134 159.21
8.77609 99.5539
8.82083 93.8267
8.86558 91.8841
8.91033 91.4616
8.9551 89.7588
8.99985 85.7089
9.04461 84.6855
9.08936 84.3385
9.13412 83.2324
9.17888 82.6256
9.22365 83.4642
9.26841 82.781
9.31318 84.7956
9.35794 85.7918
9.4027 85.6968
9.44749 85.4845
9.49226 85.8503
9.53703 86.6285
9.5818 89.3369
9.62657 93.2881
9.67134 95.8639
9.71614 93.5515
9.76091 95.6992
9.80569 99.3275
9.85047 101.751
9.89525 114.347
9.94005 132.326
9.98484 210.702
10.0296 382.503
10.0744 868.22
10.1192 1717.69
10.164 1531.98
10.2088 367.182
10.2536 125.257
10.2984 111.163
10.3432 110.157
10.388 107.031
10.4328 128.067
10.4776 171.921
10.5224 299.455
10.5672 518.399
10.612 482.112
10.6568 189.753
10.7017 95.3099
10.7465 86.8952
10.7913 84.1629
10.8361 81.7372
10.8809 79.4951
10.9257 78.5294
10.9706 78.5572
11.0154 75.5952
11.0602 73.0938
11.105 71.845
11.1499 73.0475
11.1947 75.6735
11.2395 70.8532
11.2844 69.0042
11.3292 67.6297
11.374 66.3627
11.4189 65.8208
11.4637 65.2966
11.5086 65.2208
11.5534 66.3018
11.5983 64.7532
11.6431 63.7918
11.688 63.2879
11.7328 63.2411
11.7777 63.2042
11.8225 62.8241
11.8674 62.9929
11.9122 63.4059
11.9571 63.7728
12.002 65.1714
12.0468 70.9386
12.0917 81.849
12.1366 106.485
12.1814 156.163
12.2263 202.531
12.2712 161.248
12.3161 89.3606
12.3609 67.8122
12.4058 64.4326
12.4507 64.4549
12.4956 64.9129
12.5405 65.3164
12.5853 65.7523
12.6302 69.0204
12.6751 72.0821
12.72 68.6173
12.7649 68.395
12.8098 68.9958
12.8547 70.1532
12.8996 71.9298
12.9445 73.6062
12.9894 75.0663
13.0343 77.1542
13.0792 81.3433
13.1242 95.5332
13.1691 117.908
13.214 158.619
13.2589 253.892
13.3038 375.337
13.3487 420.133
13.3937 249.61
13.4386 121.611
13.4835 111.114
13.5285 126.867
13.5734 168.534
13.6183 256.216
13.6633 352.327
13.7082 329.592
13.7531 180.116
13.7981 96.7345
13.843 82.469
13.888 80.4215
13.9329 77.9325
13.9779 76.6327
14.0228 74.9545
14.0678 73.6063
14.1127 73.1381
14.1577 72.4847
14.2027 71.87
14.2476 70.9595
14.2926 70.6937
14.3376 71.0396
14.3825 70.3678
14.4275 69.51
14.4725 69.2425
14.5175 69.5601
14.5624 69.7102
14.6074 70.5864
14.6524 71.1536
14.6974 71.3553
14.7424 74.9692
14.7874 82.0508
14.8324 92.7659
14.8774 116.427
14.9224 159.604
14.9674 210.317
15.0124 215.214
15.0574 144.934
15.1024 88.6693
15.1474 72.7198
15.1924 70.6729
15.2374 70.42
15.2824 69.6098
15.3274 67.9669
15.3725 67.2834
15.4175 66.9926
15.4625 66.6432
15.5076 66.5828
15.5526 66.4485
15.5976 66.6569
15.6426 69.5538
15.6877 75.01
15.7327 82.7683
15.7778 99.4346
15.8228 131.229
15.8679 173.088
15.9129 192.983
15.958 150.286
16.003 92.9087
16.0481 67.0254
16.0931 63.6639
16.1382 61.9332
16.1833 60.7195
16.2283 59.3399
16.2734 58.6478
16.3185 58.3774
16.3636 58.221
16.4086 57.3193
16.4537 56.3344
16.4988 55.6582
16.5439 55.7794
16.589 55.6056
16.6341 55.3622
16.6792 54.8524
16.7243 55.1906
16.7694 55.2024
16.8145 55.0914
16.8596 55.3756
16.9047 56.3196
16.9498 56.3548
16.9949 55.5806
17.04 56.6441
17.0851 57.977
17.1302 59.327
17.1754 62.6507
17.2205 68.0202
17.2656 75.4808
17.3108 82.8612
17.3559 81.8294
17.401 70.7472
17.4462 62.2368
17.4913 59.7062
17.5365 59.6694
17.5815 59.6683
17.6268 60.2023
17.6718 60.7841
17.7171 61.1912
17.7622 61.9802
17.8074 63.2393
17.8525 66.3106
17.8977 69.9852
17.9428 75.668
17.9881 85.4841
18.0331 103.282
18.0784 123.855
18.1237 141.895
18.1688 131.894
18.214 102.697
18.2591 87.5115
18.3044 92.2144
18.3495 101.581
18.3948 106.416
18.4399 95.3435
18.4852 76.5539
18.5303 65.7382
18.5756 62.5131
18.6207 61.6088
18.666 60.7054
18.7112 60.1703
18.7565 59.3877
18.8016 59.0013
18.8469 58.2984
18.892 58.156
18.9374 57.6197
18.9825 57.307
19.0278 57.375
19.073 57.4463
19.1183 58.0833
19.1635 58.639
19.2088 59.9984
19.254 63.0939
19.2993 67.7257
19.3447 73.029
19.3898 76.1287
19.4352 71.7349
19.4804 63.0339
19.5257 56.7384
19.5709 54.5041
19.6163 54.0871
19.6615 54.1613
19.7068 53.7994
19.752 53.8319
19.7974 54.3518
19.8426 55.0119
19.888 55.3647
19.9332 56.9129
19.9786 59.7972
20.0238 63.7037
20.0692 68.1426
20.1144 70.2642
20.1598 68.2577
20.205 63.8697
20.2504 62.5918
20.2957 64.0786
20.3411 66.0801
20.3863 64.0922
20.4318 58.423
20.477 53.4778
20.5224 51.4873
20.5677 51.0001
20.6131 50.5552
20.6586 49.876
20.7038 49.7531
20.7493 49.4829
20.7945 49.224
20.84 49.2341
20.8853 49.1987
20.9307 49.1411
20.976 49.0792
21.0215 48.8557
21.0668 49.343
21.1122 49.8459
21.1575 50.3889
21.203 51.2458
21.2483 51.8228
21.2938 51.6737
21.3391 50.2683
21.3846 49.2025
21.4299 48.7468
21.4754 48.8914
21.5207 48.9491
21.5662 49.4968
21.6116 49.8231
21.6571 50.4504
21.7024 51.5336
21.7479 53.438
21.7933 56.2518
21.8388 59.7235
21.8843 63.4398
21.9297 65.0501
21.9752 63.3221
22.0206 59.6641
22.0661 56.8211
22.1115 56.4002
22.157 56.1358
22.2024 54.4234
22.248 51.5978
22.2933 50.0464
22.3389 49.27
22.3843 49.0908
22.4299 49.0818
22.4753 49.0785
22.5208 48.9964
22.5662 48.9189
22.6118 49.2191
22.6572 49.3619
22.7028 49.8362
22.7483 50.1627
22.7939 51.0567
22.8393 52.8651
22.8849 54.8449
22.9303 56.6682
22.9759 58.2129
23.0214 57.4533
23.067 54.4167
23.1126 51.1341
23.1581 49.4892
23.2037 49.1498
23.2492 49.4569
23.2948 49.2383
23.3403 49.5362
23.3859 50.4669
23.4314 51.5059
23.477 53.2519
23.5225 55.261
23.5682 57.3015
23.6137 58.2668
23.6593 55.7827
23.7048 51.6014
23.7505 48.2663
23.796 46.7881
23.8417 46.3791
23.8872 45.7394
23.9329 45.586
23.9784 45.1769
24.0241 44.8908
24.0697 44.7754
24.1154 44.3679
24.1609 44.2355
24.2066 43.969
24.2522 44.0195
24.2979 43.6358
24.3434 43.4674
24.3892 43.4431
24.4349 43.3879
24.4805 43.2833
24.5262 43.2831
24.5718 43.3527
24.6175 43.0726
24.6631 43.0292
24.7089 42.7975
24.7545 42.685
24.8002 42.5825
24.8458 42.5942
24.8916 42.3296
24.9372 42.5769
24.983 42.8577
25.0286 43.3387
25.0744 43.7004
25.12 44.363
25.1658 44.7834
25.2114 45.0365
25.2572 45.2151
25.3029 45.0477
25.3487 45.1449
25.3943 44.7724
25.4402 43.6956
25.4858 42.6538
25.5316 41.7311
25.5773 41.1047
25.6231 41.0815
25.669 40.7991
25.7147 40.8496
25.7605 40.541
25.8062 40.7404
25.8521 40.9054
25.8977 40.9169
25.9436 41.1405
25.9893 41.4089
26.0352 41.7702
26.0809 41.7902
26.1268 41.9708
26.1725 41.7247
26.2184 41.1212
26.2641 40.5632
26.31 40.3719
26.3557 40.3518
26.4017 40.4705
26.4474 40.8195
26.4933 41.114
26.5391 41.5695
26.585 42.0429
26.6308 42.4316
26.6767 42.5367
26.7225 42.3638
26.7684 41.7332
26.8142 41.1435
26.8601 40.7299
26.9059 40.2264
26.9519 39.6915
26.9979 39.4721
27.0437 39.0754
27.0896 38.9036
27.1354 39.078
27.1814 38.7876
27.2272 38.8546
27.2732 38.8257
27.3191 38.5811
27.3651 38.7556
27.4109 38.6809
27.4569 38.8037
27.5027 38.8811
27.5488 38.9719
27.5946 38.8533
27.6407 38.3043
27.6865 38.3432
27.7326 38.1071
27.7784 38.2049
27.8245 38.1469
27.8703 38.3155
27.9164 38.6777
27.9623 38.826
28.0084 39.0798
28.0543 39.4114
28.1003 39.3066
28.1462 39.0845
28.1923 38.5913
28.2384 38.1126
28.2843 37.7984
28.3304 37.2676
28.3764 37.0098
28.4225 36.6449
28.4684 36.5197
28.5145 36.1418
28.5605 36.1727
28.6066 35.9152
28.6526 35.9305
28.6987 35.8699
28.7447 35.779
28.7908 35.7522
28.8368 35.6491
28.8829 35.6414
28.9289 35.5153
28.9751 35.3364
29.0211 35.1759
29.0673 34.9594
29.1133 34.6958
29.1595 34.6626
29.2055 34.6509
29.2517 34.5794
29.2977 34.4793
29.3439 34.5307
29.3899 34.5411
29.4361 34.2862
29.4824 34.1273
29.5284 33.8555
29.5746 33.5694
29.6207 33.3717
29.6669 33.2648
29.713 33.2203
29.7593 33.0188
29.8053 33.1535
29.8516 33.0093
29.8977 32.9721
29.9439 32.878
29.99 32.7828
30.0363 32.6055
30.0824 32.7562
30.1287 32.5992
30.1748 32.6425
30.2211 32.662
30.2673 32.5196
30.3136 32.4933
30.3597 32.5129
30.406 32.4823
30.4522 32.3412
30.4985 32.3281
30.5447 32.3925
30.591 32.4225
30.6372 32.4271
30.6835 32.4363
30.7297 32.4765
30.7761 32.3282
30.8224 32.2613
30.8686 32.085
30.915 31.8072
30.9612 31.7097
31.0076 31.6049
31.0538 31.4542
31.1002 31.2492
31.1464 31.2213
31.1928 31.092
31.2391 31.14
31.2855 31.1056
31.3317 31.2348
31.3781 31.2116
31.4244 31.0578
31.4708 31.0571
31.5171 31.0262
31.5636 31.025
31.6098 30.7863
31.6563 30.4663
31.7026 30.4757
31.7491 30.4039
31.7953 30.4619
31.8418 30.4495
31.8881 30.3717
31.9346 30.3421
31.9809 30.2653
32.0275 30.1666
32.074 30.0638
32.1203 29.7462
32.1668 29.7342
32.2132 29.5543
32.2597 29.4591
32.306 29.3236
32.3526 29.2312
32.399 29.1324
32.4455 28.9304
32.4919 28.9229
32.5385 28.924
32.5848 28.6833
32.6314 28.6414
32.6778 28.5963
32.7244 28.4392
32.7708 28.3803
32.8174 28.3317
32.8638 28.2045
32.9104 28.2433
32.9569 28.2293
33.0035 27.9689
33.0499 27.966
33.0966 27.9487
33.143 27.9923
33.1897 27.8885
33.2361 27.7769
33.2828 27.7086
33.3293 27.5627
33.3759 27.657
33.4226 27.4391
33.4691 27.3418
33.5158 27.2303
33.5623 27.0835
33.609 26.9292
33.6555 26.8551
33.7022 26.7612
33.7487 26.7786
33.7954 26.6734
33.842 26.6019
33.8887 26.4677
33.9353 26.3638
33.982 26.3048
34.0286 26.2501
34.0753 26.1817
34.1219 26.1269
34.1687 26.0024
34.2152 25.8921
34.262 25.8216
34.3086 25.673
34.3554 25.7325
34.402 25.5055
34.4488 25.5422
34.4954 25.325
34.5422 25.3711
34.5889 25.2064
34.6357 25.1284
34.6825 25.1186
34.7292 24.9841
34.776 24.9306
34.8227 24.8955
34.8695 24.823
34.9162 24.8406
34.9631 24.6929
35.0098 24.7815
35.0566 24.5508
35.1033 24.5291
35.1502 24.3983
35.1969 24.3874
35.2438 24.3037
35.2906 24.2617
35.3375 24.2061
35.3842 24.1565
35.4311 24.1393
35.4779 24.1318
35.5248 24.0969
35.5716 23.9479
35.6185 23.9524
35.6653 23.7299
35.7123 23.6245
35.759 23.5715
35.806 23.4847
35.8528 23.4816
35.8998 23.3926
35.9468 23.3425
35.9936 23.2622
36.0406 23.1665
36.0874 23.1709
36.1345 23.0835
36.1813 22.9867
36.2283 22.8719
36.2752 22.7841
36.3222 22.7995
36.3691 22.7276
36.4161 22.6177
36.463 22.6509
36.5101 22.6389
36.557 22.5336
36.6041 22.3346
36.651 22.3177
36.6981 22.3001
36.745 22.1837
36.7921 22.1205
36.839 22.001
36.8861 22.0269
36.9331 21.8308
36.9802 21.831
37.0272 21.7478
37.0743 21.6819
37.1213 21.609
37.1684 21.6599
37.2154 21.4605
37.2626 21.4065
37.3098 21.4058
37.3568 21.2432
37.404 21.2656
37.451 21.1269
37.4982 21.0689
37.5452 20.9613
37.5924 20.9638
37.6395 21.0657
37.6867 20.8399
37.7337 20.6786
37.781 20.6968
37.8281 20.6546
37.8753 20.5113
37.9224 20.4303
37.9697 20.3937
38.0168 20.3091
38.064 20.3034
38.1111 20.2477
38.1584 20.0812
38.2056 20.1144
38.2529 20.09
38.3 20.0251
38.3473 19.9611
38.3945 19.8406
38.4418 19.7651
38.489 19.7539
38.5363 19.6226
38.5837 19.5588
38.6309 19.5558
38.6782 19.4897
38.7254 19.3865
38.7728 19.3508
38.82 19.2571
38.8674 19.1808
38.9146 19.1289
38.9621 19.0951
39.0093 19.0686
39.0567 18.9593
39.104 18.9202
39.1514 18.8728
39.1987 18.8042
39.2461 18.7423
39.2934 18.7523
39.3409 18.5801
39.3882 18.5538
39.4356 18.476
39.483 18.449
39.5304 18.3801
39.5778 18.3767
39.6253 18.2807
39.6726 18.23
39.7201 18.1688
39.7675 18.098
39.815 17.9952
39.8624 17.9872
39.9099 17.9481
39.9575 17.853
40.0049 17.829
40.0525 17.67
40.0999 17.6572
40.1474 17.6479
40.1949 17.5483
40.2425 17.5011
40.2899 17.4762
40.3375 17.4216
40.385 17.3751
40.4326 17.2913
40.48 17.2213
40.5277 17.2032
40.5752 17.1758
40.6228 17.0813
40.6703 17.0865
40.718 16.9862
40.7655 16.9782
40.8132 16.8472
40.8607 16.8416
40.9084 16.8002
40.9559 16.7223
41.0036 16.598
41.0512 16.6152
41.0989 16.5495
41.1465 16.4993
41.1942 16.4316
41.242 16.3278
41.2896 16.3408
41.3373 16.2462
41.3849 16.1902
41.4327 16.1636
41.4803 16.0655
41.5281 16.0617
41.5758 15.9814
41.6236 15.9427
41.6712 15.8696
41.7191 15.8093
41.7667 15.7727
41.8146 15.7557
41.8622 15.7241
41.9101 15.643
41.9578 15.5735
42.0057 15.5193
42.0534 15.4656
42.1013 15.4054
42.149 15.3593
42.1969 15.2821
42.2446 15.224
42.2925 15.2174
42.3403 15.1922
42.3882 15.1226
42.436 15.1428
42.4839 15.007
42.5319 14.9603
42.5797 14.9254
42.6277 14.8374
42.6755 14.7426
42.7235 14.7933
42.7713 14.7085
42.8193 14.684
42.8671 14.6447
42.9152 14.5745
42.963 14.5192
43.0111 14.4079
43.0589 14.3979
43.107 14.3676
43.1549 14.3496
43.2029 14.2401
43.2508 14.2079
43.2989 14.1725
43.3468 14.0393
43.3949 13.9867
43.4429 14.0245
43.491 14.017
43.5389 13.8938
43.5871 13.8565
43.635 13.7974
43.6832 13.7869
43.7312 13.7273
43.7793 13.6535
43.8273 13.5862
43.8755 13.5658
43.9237 13.551
43.9717 13.5117
44.0199 13.4055
44.068 13.4318
44.1162 13.3433
44.1642 13.342
44.2125 13.2693
44.2606 13.2462
44.3088 13.1928
44.3569 13.1026
44.4052 13.0581
44.4533 13.0209
44.5016 12.9902
44.5497 12.9402
44.598 12.9323
44.6461 12.8261
44.6945 12.8306
44.7426 12.7262
44.791 12.6721
44.8391 12.6716
44.8875 12.6136
44.9357 12.6131
44.984 12.5543
45.0322 12.4933
45.0806 12.4519
45.1288 12.3998
45.1773 12.3896
45.2257 12.314
45.2739 12.2604
45.3224 12.2185
45.3706 12.1787
45.4191 12.1107
45.4673 12.1293
45.5158 12.0686
45.5641 11.9937
45.6126 11.9738
45.6609 11.9241
45.7094 11.8736
45.7577 11.8527
45.8063 11.7585
45.8546 11.7995
45.9031 11.7615
45.9515 11.6708
46.0001 11.672
46.0484 11.5958
46.097 11.533
46.1454 11.5181
46.194 11.5249
46.2424 11.4207
46.291 11.4031
46.3395 11.3648
46.3881 11.2937
46.4365 11.2691
46.4852 11.2089
46.5337 11.1504
46.5823 11.1553
46.631 11.1054
46.6795 11.0792
46.7282 11.0595
46.7767 10.9759
46.8254 10.9112
46.8739 10.8803
46.9226 10.8326
46.9712 10.8298
47.0199 10.7753
47.0685 10.6981
47.1173 10.6878
47.1658 10.6407
47.2146 10.6191
47.2632 10.5623
47.312 10.5552
47.3606 10.4581
47.4095 10.4295
47.4581 10.4282
47.5069 10.3869
47.5556 10.3188
47.6044 10.3016
47.6531 10.2795
47.702 10.2223
47.7507 10.1809
47.7996 10.142
47.8483 10.1007
47.8972 10.0685
47.9461 10.0328
47.9948 9.98318
48.0438 9.97122
48.0925 9.94881
48.1415 9.87506
48.1902 9.81699
48.2392 9.84543
48.288 9.81689
48.337 9.75347
48.3858 9.71349
48.4348 9.67656
48.4837 9.66775
48.5327 9.68825
48.5815 9.58169
48.6306 9.57641
48.6795 9.4879
48.7285 9.46394
48.7774 9.47711
48.8265 9.42353
48.8754 9.37334
48.9245 9.34036
48.9734 9.33389
49.0226 9.31378
49.0715 9.22182
49.1206 9.17476
49.1696 9.16905
49.2188 9.13003
49.2679 9.07661
49.3169 9.02927
49.3661 9.02617
49.4151 8.97757
49.4643 8.95045
49.5134 8.9422
49.5626 8.89332
49.6117 8.85751
49.6609 8.84326
49.71 8.75783
49.7592 8.70072
49.8083 8.69904
49.8576 8.71142
49.9067 8.62123
49.956 8.61544
50.0052 8.60585
50.0545 8.53402
50.1036 8.51366
50.153 8.48003
50.2022 8.45915
50.2515 8.43406
50.3007 8.35077
50.3501 8.36826
50.3993 8.32201
50.4487 8.28868
50.498 8.22771
50.5474 8.26825
50.5966 8.20089
50.6461 8.15548
50.6955 8.13347
50.7448 8.08533
50.7943 8.05485
50.8436 8.02893
50.8931 8.0143
50.9424 7.9729
50.9919 7.94321
51.0413 7.88842
51.0908 7.88286
51.1402 7.88046
51.1897 7.79494
51.2391 7.75506
51.2887 7.74898
51.3381 7.69124
51.3877 7.68971
51.4371 7.64445
51.4867 7.59154
51.5362 7.61132
51.5858 7.59801
51.6353 7.53772
51.6849 7.51615
51.7344 7.49413
51.7841 7.45231
51.8336 7.4405
51.8833 7.41083
51.9328 7.32511
51.9826 7.25861
52.0323 7.25635
52.0818 7.27341
52.1316 7.20615
52.1812 7.20043
52.231 7.17075
52.2806 7.16172
52.3304 7.12329
52.38 7.09388
52.4298 7.05186
52.4794 7.0027
52.5293 6.99695
52.5789 6.97871
52.6288 6.91718
52.6785 6.86889
52.7284 6.85888
52.7781 6.8427
52.828 6.82207
52.8777 6.77975
52.9276 6.77889
52.9774 6.73608
53.0273 6.71195
53.0771 6.68838
53.1271 6.68374
53.1769 6.65744
53.2269 6.58202
53.2767 6.56844
53.3267 6.56125
53.3765 6.4675
53.4266 6.50869
53.4766 6.45911
53.5265 6.41305
53.5765 6.41706
53.6264 6.37857
53.6765 6.34219
53.7264 6.33793
53.7765 6.24822
53.8265 6.27897
53.8766 6.22099
53.9266 6.19574
53.9767 6.18424
54.0267 6.1714
54.0769 6.11558
54.1269 6.06454
54.1771 6.03594
54.2271 6.00221
54.2773 5.98471
54.3274 6.04383
54.3776 5.93051
54.4277 5.88338
54.478 5.84961
54.528 5.85496
54.5783 5.80788
54.6285 5.78529
54.6788 5.7043
54.7289 5.71845
54.7792 5.58733
54.8296 5.58585
54.8798 5.58243
54.9301 5.50998
54.9803 5.49984
55.0307 5.45232
55.0809 5.44062
55.1314 5.36775
55.1816 5.40507
55.232 5.26275
55.2823 5.2401
55.3328 5.18061
55.383 5.09983
55.4335 5.12102
55.4838 5.0463
55.5344 4.99842
55.5847 4.97577
55.6352 4.95389
55.6856 4.92683
55.7361 4.87924