File: XRD/Ni3Fe_FD1018.xy
TT I
1.27165 7.32023
1.31627 6.56784
1.36089 6.60228
1.40551 5.92054
1.45013 6.06476
1.49476 5.39163
1.53938 5.10731
1.584 4.82358
1.62863 5.09634
1.67325 4.68319
1.71787 4.7441
1.7625 4.45932
1.80712 4.21839
1.85174 3.86639
1.89636 3.7422
1.94099 4.68826
1.98562 3.65633
2.03025 3.79422
2.07487 4.09734
2.11949 4.35313
2.16411 4.02058
2.20874 5.34331
2.25338 7.34043
2.298 4.71726
2.34263 5.10166
2.38725 5.83264
2.43188 6.12211
2.4765 7.05542
2.52115 7.17179
2.56577 7.70713
2.6104 8.71164
2.65503 8.61777
2.69965 8.75493
2.7443 8.04781
2.78893 8.24166
2.83356 8.65605
2.87818 8.96707
2.92281 9.02844
2.96744 9.88518
3.01209 10.3399
3.05672 10.8749
3.10135 12.1312
3.14599 13.387
3.19062 14.296
3.23527 14.733
3.2799 15.6024
3.32454 15.9862
3.36917 17.3456
3.4138 18.3409
3.45844 19.011
3.50309 20.0313
3.54773 20.5395
3.59237 21.5242
3.637 27.9386
3.68164 27.0161
3.7263 24.1664
3.77094 24.6219
3.81558 25.4207
3.86022 26.1695
3.90486 27.9108
3.9495 28.2497
3.99416 28.9804
4.0388 30.2354
4.08344 31.3575
4.12809 32.1386
4.17273 33.4432
4.21738 35.4775
4.26204 53.2303
4.30669 58.3914
4.35133 40.823
4.39598 40.8905
4.44063 42.8162
4.4853 45.5026
4.52995 46.4703
4.5746 47.9158
4.61925 50.4001
4.6639 52.3361
4.70855 54.733
4.75322 57.2498
4.79788 59.8221
4.84253 63.4733
4.88719 67.236
4.93184 70.702
4.97652 76.3525
5.02118 82.4724
5.06583 87.9836
5.11049 96.6667
5.15515 116.382
5.19981 225.058
5.24449 2306.13
5.28916 13458.0
5.33382 3459.57
5.37848 238.192
5.42315 125.831
5.46783 107.823
5.5125 101.07
5.55716 96.5549
5.60183 92.203
5.6465 90.3389
5.69117 88.842
5.73586 86.5191
5.78053 86.0449
5.8252 85.4715
5.86988 86.2812
5.91455 88.0297
5.95924 93.5091
6.00392 157.328
6.0486 801.329
6.09328 4333.15
6.13795 3516.82
6.18263 245.307
6.22733 87.1296
6.27201 75.5356
6.3167 72.4932
6.36138 68.1196
6.40606 63.9864
6.45075 62.8238
6.49545 61.2441
6.54014 59.6041
6.58483 58.305
6.62952 57.6083
6.67421 58.0161
6.71892 64.3239
6.76361 56.209
6.8083 53.832
6.853 53.319
6.89769 52.9128
6.94239 52.7505
6.98711 52.1267
7.03181 51.5461
7.07651 51.6608
7.12121 51.5598
7.16591 51.2916
7.21063 50.5204
7.25533 51.4122
7.30004 62.5024
7.34475 56.1871
7.38945 51.4763
7.43416 50.9343
7.47889 51.6413
7.5236 62.1459
7.56831 83.787
7.61303 58.965
7.65774 52.6422
7.70247 52.6861
7.74719 52.6951
7.79191 53.6799
7.83663 53.4902
7.88135 54.1472
7.92607 54.9929
7.97081 56.2889
8.01553 56.9588
8.06026 58.5451
8.10498 59.4492
8.14971 61.8665
8.19446 63.3522
8.23919 64.6806
8.28392 67.0576
8.32865 69.2601
8.37339 72.8067
8.41812 76.4322
8.46288 85.0665
8.50761 124.039
8.55235 334.497
8.59709 1048.48
8.64183 2293.09
8.68658 1110.64
8.73134 182.729
8.77609 94.6923
8.82083 87.6967
8.86558 84.4458
8.91033 82.8389
8.9551 81.588
8.99985 80.1244
9.04461 79.4981
9.08936 79.1834
9.13412 78.2273
9.17888 79.4059
9.22365 97.6565
9.26841 131.206
9.31318 94.6127
9.35794 80.2062
9.4027 79.4224
9.44749 80.132
9.49226 79.9144
9.53703 80.827
9.5818 82.1499
9.62657 83.0432
9.67134 85.7089
9.71614 86.6734
9.76091 88.5213
9.80569 90.2208
9.85047 92.6871
9.89525 97.5161
9.94005 104.866
9.98484 141.476
10.0296 316.734
10.0744 723.616
10.1192 1725.65
10.164 1703.2
10.2088 455.132
10.2536 126.678
10.2984 102.407
10.3432 99.7219
10.388 96.4719
10.4328 105.114
10.4776 150.631
10.5224 255.163
10.5672 489.5
10.612 527.242
10.6568 223.215
10.7017 107.865
10.7465 87.46
10.7913 79.2483
10.8361 76.9791
10.8809 75.0636
10.9257 72.5104
10.9706 71.6914
11.0154 69.9855
11.0602 68.4163
11.105 67.6797
11.1499 66.3556
11.1947 66.5996
11.2395 65.0654
11.2844 64.0638
11.3292 62.835
11.374 62.337
11.4189 61.8102
11.4637 61.1291
11.5086 60.46
11.5534 60.799
11.5983 60.2127
11.6431 60.0177
11.688 59.2154
11.7328 59.2769
11.7777 59.3694
11.8225 58.9977
11.8674 59.5303
11.9122 62.3695
11.9571 71.611
12.002 69.0586
12.0468 64.0674
12.0917 73.9001
12.1366 94.5221
12.1814 142.89
12.2263 200.013
12.2712 169.643
12.3161 94.2255
12.3609 63.7853
12.4058 60.6072
12.4507 60.4671
12.4956 60.5345
12.5405 60.7023
12.5853 61.1854
12.6302 61.8853
12.6751 63.0287
12.72 63.2083
12.7649 63.6525
12.8098 64.1185
12.8547 65.4096
12.8996 66.8167
12.9445 68.3383
12.9894 69.9279
13.0343 71.4162
13.0792 76.1339
13.1242 81.9551
13.1691 103.401
13.214 138.702
13.2589 217.929
13.3038 359.339
13.3487 440.428
13.3937 279.761
13.4386 127.7
13.4835 97.1867
13.5285 114.302
13.5734 148.429
13.6183 228.266
13.6633 353.373
13.7082 362.488
13.7531 205.656
13.7981 99.7089
13.843 78.8173
13.888 75.9733
13.9329 73.5841
13.9779 72.6395
14.0228 71.396
14.0678 70.233
14.1127 71.6179
14.1577 78.05
14.2027 75.6541
14.2476 68.9195
14.2926 66.9392
14.3376 66.3537
14.3825 66.154
14.4275 65.4987
14.4725 65.2856
14.5175 65.5354
14.5624 65.5517
14.6074 65.8679
14.6524 66.3044
14.6974 66.2978
14.7424 67.7036
14.7874 73.1508
14.8324 84.9408
14.8774 104.587
14.9224 143.104
14.9674 205.014
15.0124 224.893
15.0574 158.55
15.1024 94.4774
15.1474 70.9873
15.1924 67.3644
15.2374 65.6993
15.2824 64.9371
15.3274 64.0798
15.3725 63.597
15.4175 63.4346
15.4625 62.972
15.5076 62.5747
15.5526 62.913
15.5976 62.6051
15.6426 63.0323
15.6877 67.2929
15.7327 76.4845
15.7778 90.1444
15.8228 118.349
15.8679 166.883
15.9129 202.375
15.958 168.663
16.003 103.25
16.0481 69.6282
16.0931 63.3257
16.1382 59.7491
16.1833 57.8345
16.2283 56.509
16.2734 55.6597
16.3185 54.919
16.3636 54.5632
16.4086 53.5227
16.4537 53.3084
16.4988 52.8326
16.5439 52.644
16.589 52.3174
16.6341 52.3929
16.6792 52.0477
16.7243 52.0674
16.7694 51.892
16.8145 52.0071
16.8596 52.2764
16.9047 53.0766
16.9498 54.1045
16.9949 53.595
17.04 53.3114
17.0851 54.0898
17.1302 55.9441
17.1754 58.7076
17.2205 63.3104
17.2656 70.9976
17.3108 81.1539
17.3559 81.867
17.401 71.2276
17.4462 60.6295
17.4913 56.7577
17.5365 56.529
17.5815 56.4422
17.6268 56.9961
17.6718 57.5405
17.7171 58.1211
17.7622 59.4486
17.8074 60.249
17.8525 61.1161
17.8977 64.9771
17.9428 70.689
17.9881 78.7841
18.0331 94.3956
18.0784 118.661
18.1237 140.627
18.1688 137.008
18.214 108.284
18.2591 86.9076
18.3044 87.3087
18.3495 97.8585
18.3948 105.587
18.4399 97.9507
18.4852 78.5737
18.5303 65.7353
18.5756 61.137
18.6207 59.661
18.666 58.1509
18.7112 57.299
18.7565 56.634
18.8016 56.262
18.8469 55.7078
18.892 55.3778
18.9374 54.9005
18.9825 54.6833
19.0278 54.4172
19.073 54.4295
19.1183 54.5301
19.1635 55.4195
19.2088 57.0236
19.254 59.2445
19.2993 64.6579
19.3447 71.8171
19.3898 75.9552
19.4352 72.0669
19.4804 62.8773
19.5257 55.6822
19.5709 52.5282
19.6163 51.6669
19.6615 51.5898
19.7068 51.2014
19.752 51.0716
19.7974 51.2988
19.8426 52.1549
19.888 52.8054
19.9332 54.053
19.9786 56.3086
20.0238 59.9268
20.0692 65.5859
20.1144 69.4636
20.1598 68.3691
20.205 63.2715
20.2504 60.8023
20.2957 62.6608
20.3411 64.7616
20.3863 63.4779
20.4318 57.6707
20.477 52.4523
20.5224 49.2522
20.5677 48.6543
20.6131 48.2131
20.6586 47.7931
20.7038 47.7208
20.7493 47.5664
20.7945 47.8812
20.84 47.392
20.8853 46.7925
20.9307 46.7521
20.976 46.8675
21.0215 46.6453
21.0668 46.9893
21.1122 47.3974
21.1575 47.9342
21.203 48.8023
21.2483 49.645
21.2938 50.1281
21.3391 48.7275
21.3846 47.3871
21.4299 46.7835
21.4754 46.6907
21.5207 46.7635
21.5662 46.8323
21.6116 47.1569
21.6571 48.2302
21.7024 49.1179
21.7479 50.7561
21.7933 53.0486
21.8388 57.0628
21.8843 61.7919
21.9297 64.3623
21.9752 63.4936
22.0206 59.167
22.0661 55.8465
22.1115 55.4067
22.157 55.8137
22.2024 53.8477
22.248 50.6631
22.2933 48.6549
22.3389 47.4932
22.3843 47.2999
22.4299 46.7372
22.4753 46.9199
22.5208 46.884
22.5662 46.7699
22.6118 46.844
22.6572 46.9687
22.7028 47.6596
22.7483 48.0775
22.7939 48.8606
22.8393 50.195
22.8849 52.3767
22.9303 54.9308
22.9759 56.9977
23.0214 56.9622
23.067 54.0656
23.1126 50.5352
23.1581 48.0043
23.2037 47.2009
23.2492 47.1704
23.2948 47.2958
23.3403 47.8411
23.3859 48.4862
23.4314 49.5203
23.477 51.2635
23.5225 53.6535
23.5682 56.4346
23.6137 57.9186
23.6593 56.0192
23.7048 51.698
23.7505 47.7808
23.796 45.4141
23.8417 44.5795
23.8872 44.1739
23.9329 43.8632
23.9784 43.5325
24.0241 43.2322
24.0697 42.9965
24.1154 42.7478
24.1609 42.4212
24.2066 42.2512
24.2522 42.0829
24.2979 41.9515
24.3434 41.8555
24.3892 41.7669
24.4349 41.6251
24.4805 41.4339
24.5262 41.6204
24.5718 41.6631
24.6175 41.548
24.6631 41.56
24.7089 41.1546
24.7545 41.0055
24.8002 40.7138
24.8458 40.8483
24.8916 40.6683
24.9372 40.6998
24.983 41.1742
25.0286 41.2838
25.0744 41.9298
25.12 42.6865
25.1658 43.3283
25.2114 43.6177
25.2572 43.8021
25.3029 43.9601
25.3487 44.2569
25.3943 43.9775
25.4402 42.7284
25.4858 41.5704
25.5316 40.3223
25.5773 39.7564
25.6231 39.536
25.669 39.0265
25.7147 39.2063
25.7605 39.2246
25.8062 39.3094
25.8521 39.3546
25.8977 39.315
25.9436 39.4256
25.9893 39.6073
26.0352 40.2223
26.0809 40.384
26.1268 40.8578
26.1725 40.6539
26.2184 39.8034
26.2641 39.2546
26.31 39.018
26.3557 38.8858
26.4017 38.9328
26.4474 39.1803
26.4933 39.5417
26.5391 40.0729
26.585 40.804
26.6308 41.1771
26.6767 41.3504
26.7225 41.3782
26.7684 40.7231
26.8142 40.1347
26.8601 39.5923
26.9059 39.2801
26.9519 38.6302
26.9979 38.3105
27.0437 37.7966
27.0896 37.6555
27.1354 37.6076
27.1814 37.4712
27.2272 37.3626
27.2732 37.2897
27.3191 37.2078
27.3651 37.3773
27.4109 37.31
27.4569 37.4896
27.5027 37.6339
27.5488 37.5299
27.5946 37.4716
27.6407 37.2607
27.6865 37.0998
27.7326 36.8304
27.7784 36.8228
27.8245 36.7199
27.8703 36.8789
27.9164 37.3032
27.9623 37.5751
28.0084 37.8986
28.0543 38.4044
28.1003 38.4759
28.1462 38.2146
28.1923 37.9199
28.2384 37.3666
28.2843 36.9444
28.3304 36.3662
28.3764 35.8962
28.4225 35.388
28.4684 35.2241
28.5145 34.8744
28.5605 34.9077
28.6066 34.6461
28.6526 34.616
28.6987 34.5719
28.7447 34.574
28.7908 34.4733
28.8368 34.3566
28.8829 34.4685
28.9289 34.3607
28.9751 34.097
29.0211 34.04
29.0673 33.7125
29.1133 33.6025
29.1595 33.5028
29.2055 33.2896
29.2517 33.3052
29.2977 33.309
29.3439 33.3421
29.3899 33.3366
29.4361 33.3704
29.4824 33.135
29.5284 32.8544
29.5746 32.5722
29.6207 32.185
29.6669 32.1358
29.713 32.0562
29.7593 31.8898
29.8053 31.8854
29.8516 31.7679
29.8977 31.8302
29.9439 31.6182
29.99 31.6905
30.0363 31.4918
30.0824 31.5684
30.1287 31.4796
30.1748 31.5071
30.2211 31.4792
30.2673 31.4011
30.3136 31.5105
30.3597 31.3508
30.406 31.3011
30.4522 31.1326
30.4985 31.1533
30.5447 31.228
30.591 31.3596
30.6372 31.427
30.6835 31.4549
30.7297 31.358
30.7761 31.4172
30.8224 31.2463
30.8686 31.0054
30.915 30.8822
30.9612 30.7297
31.0076 30.3931
31.0538 30.4926
31.1002 30.3274
31.1464 30.148
31.1928 30.1011
31.2391 30.1601
31.2855 30.0047
31.3317 30.0079
31.3781 30.1471
31.4244 30.0842
31.4708 29.9768
31.5171 30.141
31.5636 30.1142
31.6098 29.7542
31.6563 29.6229
31.7026 29.5172
31.7491 29.3244
31.7953 29.4077
31.8418 29.373
31.8881 29.3131
31.9346 29.3697
31.9809 29.3608
32.0275 29.1554
32.074 29.1156
32.1203 28.8774
32.1668 28.7807
32.2132 28.6068
32.2597 28.5341
32.306 28.4234
32.3526 28.1673
32.399 28.1293
32.4455 28.0644
32.4919 27.9163
32.5385 27.9418
32.5848 27.6574
32.6314 27.7858
32.6778 27.621
32.7244 27.6002
32.7708 27.4056
32.8174 27.4122
32.8638 27.294
32.9104 27.271
32.9569 27.3823
33.0035 27.1494
33.0499 27.0256
33.0966 27.0756
33.143 27.1772
33.1897 27.0494
33.2361 26.9183
33.2828 26.8509
33.3293 26.7148
33.3759 26.6871
33.4226 26.5373
33.4691 26.4642
33.5158 26.3136
33.5623 26.2722
33.609 25.9949
33.6555 25.9391
33.7022 25.8507
33.7487 25.8238
33.7954 25.8073
33.842 25.6727
33.8887 25.6362
33.9353 25.5208
33.982 25.5093
34.0286 25.3635
34.0753 25.2359
34.1219 25.1806
34.1687 25.0615
34.2152 25.0578
34.262 25.015
34.3086 24.8582
34.3554 24.8575
34.402 24.73
34.4488 24.5719
34.4954 24.6165
34.5422 24.4495
34.5889 24.3322
34.6357 24.3016
34.6825 24.2192
34.7292 24.2397
34.776 24.0163
34.8227 24.0091
34.8695 23.9246
34.9162 23.9379
34.9631 23.8261
35.0098 23.7324
35.0566 23.6662
35.1033 23.7244
35.1502 23.5811
35.1969 23.5326
35.2438 23.5307
35.2906 23.4659
35.3375 23.4385
35.3842 23.3145
35.4311 23.391
35.4779 23.4031
35.5248 23.276
35.5716 23.2233
35.6185 23.1811
35.6653 23.0564
35.7123 22.9394
35.759 22.8352
35.806 22.7314
35.8528 22.5894
35.8998 22.6432
35.9468 22.5125
35.9936 22.5
36.0406 22.415
36.0874 22.4037
36.1345 22.3214
36.1813 22.2181
36.2283 22.1053
36.2752 22.0374
36.3222 22.0982
36.3691 22.0136
36.4161 21.8582
36.463 21.8205
36.5101 21.8279
36.557 21.7853
36.6041 21.6452
36.651 21.6111
36.6981 21.5846
36.745 21.4817
36.7921 21.3778
36.839 21.2969
36.8861 21.2471
36.9331 21.1134
36.9802 21.0703
37.0272 20.9758
37.0743 20.9956
37.1213 20.9645
37.1684 20.8147
37.2154 20.7122
37.2626 20.6786
37.3098 20.697
37.3568 20.5937
37.404 20.5539
37.451 20.3579
37.4982 20.3754
37.5452 20.2614
37.5924 20.2165
37.6395 20.25
37.6867 20.1333
37.7337 20.1083
37.781 20.0178
37.8281 19.9106
37.8753 19.8543
37.9224 19.727
37.9697 19.7293
38.0168 19.6641
38.064 19.5536
38.1111 19.5969
38.1584 19.5039
38.2056 19.4539
38.2529 19.3252
38.3 19.2872
38.3473 19.2526
38.3945 19.1684
38.4418 19.1655
38.489 19.0576
38.5363 19.0304
38.5837 18.946
38.6309 18.9263
38.6782 18.7658
38.7254 18.7418
38.7728 18.7441
38.82 18.6081
38.8674 18.508
38.9146 18.5631
38.9621 18.4669
39.0093 18.4458
39.0567 18.3331
39.104 18.254
39.1514 18.2045
39.1987 18.1229
39.2461 18.1354
39.2934 18.1202
39.3409 17.9651
39.3882 17.886
39.4356 17.8841
39.483 17.7872
39.5304 17.7385
39.5778 17.79
39.6253 17.6896
39.6726 17.6058
39.7201 17.5881
39.7675 17.5573
39.815 17.4603
39.8624 17.3728
39.9099 17.3557
39.9575 17.2811
40.0049 17.221
40.0525 17.1453
40.0999 17.133
40.1474 17.0771
40.1949 17.0152
40.2425 16.9474
40.2899 16.8943
40.3375 16.8293
40.385 16.7967
40.4326 16.7913
40.48 16.6979
40.5277 16.6516
40.5752 16.5965
40.6228 16.4955
40.6703 16.4755
40.718 16.4529
40.7655 16.425
40.8132 16.3273
40.8607 16.2885
40.9084 16.2419
40.9559 16.1445
41.0036 16.1112
41.0512 16.1
41.0989 16.0535
41.1465 15.9208
41.1942 15.9174
41.242 15.771
41.2896 15.7975
41.3373 15.7379
41.3849 15.6843
41.4327 15.6505
41.4803 15.5853
41.5281 15.4713
41.5758 15.476
41.6236 15.4082
41.6712 15.4476
41.7191 15.3275
41.7667 15.2899
41.8146 15.2153
41.8622 15.1987
41.9101 15.1079
41.9578 15.0402
42.0057 15.0263
42.0534 14.9522
42.1013 14.9234
42.149 14.8849
42.1969 14.8447
42.2446 14.7786
42.2925 14.6928
42.3403 14.6582
42.3882 14.6514
42.436 14.6236
42.4839 14.5263
42.5319 14.4718
42.5797 14.4211
42.6277 14.3752
42.6755 14.2825
42.7235 14.2644
42.7713 14.2069
42.8193 14.1897
42.8671 14.1316
42.9152 14.0669
42.963 14.0664
43.0111 13.9524
43.0589 13.9611
43.107 13.8913
43.1549 13.8654
43.2029 13.7714
43.2508 13.8038
43.2989 13.7242
43.3468 13.65
43.3949 13.6283
43.4429 13.526
43.491 13.5414
43.5389 13.4306
43.5871 13.4361
43.635 13.3259
43.6832 13.3593
43.7312 13.2606
43.7793 13.2091
43.8273 13.1807
43.8755 13.1464
43.9237 13.1081
43.9717 13.0592
44.0199 13.0265
44.068 12.9729
44.1162 12.8928
44.1642 12.9173
44.2125 12.8778
44.2606 12.7844
44.3088 12.7345
44.3569 12.7138
44.4052 12.6477
44.4533 12.5994
44.5016 12.5691
44.5497 12.5565
44.598 12.5078
44.6461 12.3819
44.6945 12.371
44.7426 12.3572
44.791 12.2713
44.8391 12.2439
44.8875 12.2047
44.9357 12.1567
44.984 12.1003
45.0322 12.101
45.0806 12.039
45.1288 11.9923
45.1773 11.9472
45.2257 11.9251
45.2739 11.8904
45.3224 11.8665
45.3706 11.806
45.4191 11.7321
45.4673 11.7355
45.5158 11.6872
45.5641 11.602
45.6126 11.5707
45.6609 11.5403
45.7094 11.5254
45.7577 11.4274
45.8063 11.38
45.8546 11.3951
45.9031 11.3376
45.9515 11.2993
46.0001 11.246
46.0484 11.2013
46.097 11.1866
46.1454 11.1345
46.194 11.0965
46.2424 11.0413
46.291 11.0408
46.3395 11.0403
46.3881 10.9156
46.4365 10.9059
46.4852 10.8346
46.5337 10.7718
46.5823 10.8526
46.631 10.703
46.6795 10.7129
46.7282 10.6767
46.7767 10.6523
46.8254 10.5623
46.8739 10.5497
46.9226 10.4681
46.9712 10.4676
47.0199 10.4479
47.0685 10.4005
47.1173 10.33
47.1658 10.3268
47.2146 10.2776
47.2632 10.2347
47.312 10.2023
47.3606 10.1485
47.4095 10.1358
47.4581 10.089
47.5069 10.0153
47.5556 9.99486
47.6044 9.96883
47.6531 9.94977
47.702 9.84105
47.7507 9.84763
47.7996 9.80801
47.8483 9.78401
47.8972 9.74058
47.9461 9.72029
47.9948 9.68502
48.0438 9.63303
48.0925 9.63464
48.1415 9.57711
48.1902 9.54124
48.2392 9.563
48.288 9.50713
48.337 9.44401
48.3858 9.40281
48.4348 9.40803
48.4837 9.39213
48.5327 9.32628
48.5815 9.27339
48.6306 9.2338
48.6795 9.20791
48.7285 9.17294
48.7774 9.13241
48.8265 9.10563
48.8754 9.023
48.9245 9.0683
48.9734 8.95311
49.0226 8.97997
49.0715 8.92726
49.1206 8.92116
49.1696 8.88924
49.2188 8.8246
49.2679 8.81088
49.3169 8.73447
49.3661 8.72023
49.4151 8.6855
49.4643 8.6638
49.5134 8.62184
49.5626 8.54982
49.6117 8.54628
49.6609 8.53301
49.71 8.4718
49.7592 8.45223
49.8083 8.41905
49.8576 8.42309
49.9067 8.36357
49.956 8.34609
50.0052 8.27156
50.0545 8.25359
50.1036 8.25057
50.153 8.24161
50.2022 8.15309
50.2515 8.12706
50.3007 8.11226
50.3501 8.05541
50.3993 8.07084
50.4487 8.02414
50.498 8.01886
50.5474 7.95241
50.5966 7.92302
50.6461 7.87635
50.6955 7.85337
50.7448 7.84524
50.7943 7.81491
50.8436 7.74489
50.8931 7.72832
50.9424 7.72215
50.9919 7.66555
51.0413 7.66393
51.0908 7.62594
51.1402 7.58332
51.1897 7.54193
51.2391 7.54657
51.2887 7.5167
51.3381 7.46604
51.3877 7.4701
51.4371 7.41119
51.4867 7.37644
51.5362 7.35757
51.5858 7.30718
51.6353 7.27128
51.6849 7.25279
51.7344 7.19664
51.7841 7.20911
51.8336 7.17616
51.8833 7.11064
51.9328 7.10869
51.9826 7.07383
52.0323 7.04643
52.0818 7.03754
52.1316 6.97136
52.1812 7.00092
52.231 6.94618
52.2806 6.92331
52.3304 6.87939
52.38 6.855
52.4298 6.82808
52.4794 6.78699
52.5293 6.73987
52.5789 6.67832
52.6288 6.73608
52.6785 6.657
52.7284 6.63397
52.7781 6.65333
52.828 6.58903
52.8777 6.58207
52.9276 6.56174
52.9774 6.51773
53.0273 6.49459
53.0771 6.47572
53.1271 6.44142
53.1769 6.38689
53.2269 6.38189
53.2767 6.35212
53.3267 6.32537
53.3765 6.311
53.4266 6.25065
53.4766 6.2771
53.5265 6.20697
53.5765 6.19527
53.6264 6.2003
53.6765 6.13564
53.7264 6.0993
53.7765 6.07848
53.8265 6.09172
53.8766 6.00097
53.9266 5.97919
53.9767 5.94569
54.0267 5.94695
54.0769 5.93261
54.1269 5.93896
54.1771 5.8816
54.2271 5.80608
54.2773 5.81093
54.3274 5.76777
54.3776 5.72288
54.4277 5.69708
54.478 5.70142
54.528 5.68912
54.5783 5.56718
54.6285 5.62332
54.6788 5.55045
54.7289 5.51797
54.7792 5.43838
54.8296 5.43891
54.8798 5.34959
54.9301 5.32061
54.9803 5.29812
55.0307 5.26306
55.0809 5.22286
55.1314 5.21673
55.1816 5.11017
55.232 5.09724
55.2823 5.06962
55.3328 5.00414
55.383 4.98796
55.4335 4.92764
55.4838 4.87636
55.5344 4.84567
55.5847 4.84399
55.6352 4.81593
55.6856 4.73347
55.7361 4.68512