File: XRD/Ni3Fe_FD0859.xy
TT I
1.27165 7.17099
1.31627 6.55856
1.36089 6.62548
1.40551 6.06898
1.45013 6.2451
1.49476 6.21716
1.53938 6.22219
1.584 4.95872
1.62863 4.56698
1.67325 4.66133
1.71787 5.06124
1.7625 4.57778
1.80712 4.68935
1.85174 4.7592
1.89636 4.41537
1.94099 4.4374
1.98562 4.79455
2.03025 4.93959
2.07487 5.33572
2.11949 5.44101
2.16411 5.11445
2.20874 14.3035
2.25338 22.8672
2.298 6.64917
2.34263 5.6862
2.38725 6.04474
2.43188 6.26875
2.4765 7.06437
2.52115 7.14886
2.56577 7.88644
2.6104 8.89989
2.65503 8.3294
2.69965 8.73364
2.7443 8.32808
2.78893 8.62338
2.83356 8.28577
2.87818 9.52725
2.92281 9.19275
2.96744 9.71747
3.01209 10.1295
3.05672 11.207
3.10135 12.451
3.14599 13.6581
3.19062 14.5114
3.23527 14.8807
3.2799 15.9741
3.32454 16.7925
3.36917 17.7815
3.4138 18.927
3.45844 19.2982
3.50309 20.6688
3.54773 21.9351
3.59237 23.9742
3.637 92.9369
3.68164 59.331
3.7263 26.4671
3.77094 26.1206
3.81558 27.1569
3.86022 27.648
3.90486 28.5733
3.9495 29.5512
3.99416 30.9855
4.0388 31.8688
4.08344 33.7404
4.12809 35.2143
4.17273 36.909
4.21738 42.4865
4.26204 249.929
4.30669 219.949
4.35133 48.3964
4.39598 44.1876
4.44063 53.2805
4.4853 65.9595
4.52995 49.8924
4.5746 50.4983
4.61925 52.6444
4.6639 54.3323
4.70855 57.6882
4.75322 60.5022
4.79788 62.938
4.84253 66.0453
4.88719 70.4026
4.93184 73.735
4.97652 79.1153
5.02118 85.1138
5.06583 92.0504
5.11049 101.897
5.15515 165.938
5.19981 296.008
5.24449 2487.23
5.28916 12359.4
5.33382 2722.6
5.37848 177.515
5.42315 125.018
5.46783 111.002
5.5125 104.007
5.55716 100.43
5.60183 96.844
5.6465 95.1252
5.69117 92.7637
5.73586 90.361
5.78053 90.1474
5.8252 88.9445
5.86988 89.5608
5.91455 91.1569
5.95924 96.9997
6.00392 174.658
6.0486 838.152
6.09328 4405.99
6.13795 3247.94
6.18263 222.506
6.22733 90.459
6.27201 81.4402
6.3167 101.191
6.36138 79.3806
6.40606 68.3949
6.45075 66.4089
6.49545 64.72
6.54014 63.1997
6.58483 62.3631
6.62952 62.4806
6.67421 93.0676
6.71892 142.389
6.76361 68.5232
6.8083 58.2805
6.853 57.1394
6.89769 56.1497
6.94239 56.2087
6.98711 55.2712
7.03181 55.3617
7.07651 54.6969
7.12121 54.8185
7.16591 54.3899
7.21063 55.0249
7.25533 70.5388
7.30004 177.667
7.34475 91.4927
7.38945 56.3144
7.43416 53.9632
7.47889 53.694
7.5236 54.1249
7.56831 54.5588
7.61303 56.7424
7.65774 56.9545
7.70247 55.5833
7.74719 55.7655
7.79191 56.1471
7.83663 56.115
7.88135 56.8333
7.92607 57.9917
7.97081 58.9637
8.01553 60.0224
8.06026 61.479
8.10498 63.1043
8.14971 72.5332
8.19446 71.6626
8.23919 68.3546
8.28392 70.5418
8.32865 72.6182
8.37339 77.365
8.41812 83.9711
8.46288 111.344
8.50761 146.314
8.55235 340.901
8.59709 1137.37
8.64183 2221.54
8.68658 934.956
8.73134 164.204
8.77609 97.2283
8.82083 90.9202
8.86558 88.2439
8.91033 88.4184
8.9551 90.6472
8.99985 84.2789
9.04461 82.0773
9.08936 81.7529
9.13412 80.9605
9.17888 80.7873
9.22365 81.7275
9.26841 80.9292
9.31318 81.4675
9.35794 81.9786
9.4027 81.5778
9.44749 83.1481
9.49226 83.6571
9.53703 83.9249
9.5818 85.9529
9.62657 90.7518
9.67134 97.0423
9.71614 92.518
9.76091 92.8746
9.80569 94.7148
9.85047 98.0938
9.89525 122.181
9.94005 132.915
9.98484 158.233
10.0296 305.276
10.0744 771.441
10.1192 1778.36
10.164 1566.93
10.2088 397.054
10.2536 124.152
10.2984 111.268
10.3432 112.923
10.388 102.662
10.4328 112.464
10.4776 149.024
10.5224 272.617
10.5672 525.128
10.612 502.768
10.6568 201.578
10.7017 95.5859
10.7465 85.3239
10.7913 82.0401
10.8361 79.9946
10.8809 77.7449
10.9257 77.3072
10.9706 78.1983
11.0154 74.1538
11.0602 71.8401
11.105 71.0374
11.1499 75.5815
11.1947 82.5458
11.2395 73.9514
11.2844 69.5133
11.3292 66.501
11.374 65.2976
11.4189 64.7427
11.4637 64.0053
11.5086 64.811
11.5534 67.6678
11.5983 64.8917
11.6431 62.7608
11.688 62.2017
11.7328 62.1256
11.7777 61.8885
11.8225 61.7177
11.8674 61.4185
11.9122 62.109
11.9571 62.013
12.002 62.3904
12.0468 65.8603
12.0917 75.7618
12.1366 98.8334
12.1814 153.622
12.2263 208.304
12.2712 167.821
12.3161 95.3219
12.3609 69.7107
12.4058 63.805
12.4507 63.3371
12.4956 63.6503
12.5405 63.5533
12.5853 64.5733
12.6302 72.2424
12.6751 78.0618
12.72 69.1055
12.7649 67.0858
12.8098 67.571
12.8547 68.659
12.8996 69.7702
12.9445 70.9571
12.9894 72.68
13.0343 74.3192
13.0792 77.3712
13.1242 84.4941
13.1691 105.211
13.214 139.71
13.2589 232.572
13.3038 375.284
13.3487 421.465
13.3937 257.428
13.4386 121.106
13.4835 100.86
13.5285 114.172
13.5734 151.736
13.6183 247.798
13.6633 359.195
13.7082 336.825
13.7531 181.349
13.7981 95.5684
13.843 80.3208
13.888 78.3191
13.9329 75.7205
13.9779 74.5972
14.0228 73.2393
14.0678 71.9657
14.1127 71.6183
14.1577 71.4217
14.2027 70.5964
14.2476 69.3596
14.2926 69.6319
14.3376 70.788
14.3825 69.5597
14.4275 68.0532
14.4725 67.8877
14.5175 67.827
14.5624 68.113
14.6074 70.2928
14.6524 70.8447
14.6974 69.1538
14.7424 70.2355
14.7874 75.6426
14.8324 84.8471
14.8774 106.169
14.9224 151.877
14.9674 211.59
15.0124 218.314
15.0574 147.703
15.1024 89.7648
15.1474 71.3669
15.1924 69.1868
15.2374 70.1351
15.2824 69.3651
15.3274 66.9802
15.3725 65.9186
15.4175 65.6891
15.4625 65.1258
15.5076 65.4583
15.5526 65.2377
15.5976 64.7047
15.6426 65.3128
15.6877 69.4658
15.7327 76.3363
15.7778 91.0568
15.8228 123.994
15.8679 170.941
15.9129 194.546
15.958 153.355
16.003 93.1608
16.0481 67.028
16.0931 63.9323
16.1382 61.8332
16.1833 59.9099
16.2283 58.0066
16.2734 57.5962
16.3185 58.005
16.3636 58.4797
16.4086 56.9119
16.4537 55.3863
16.4988 54.8447
16.5439 54.7866
16.589 54.1897
16.6341 54.0808
16.6792 53.6811
16.7243 54.1601
16.7694 54.3243
16.8145 54.1192
16.8596 54.315
16.9047 55.9098
16.9498 56.0848
16.9949 54.9485
17.04 54.8757
17.0851 55.7628
17.1302 57.3433
17.1754 60.4544
17.2205 65.4633
17.2656 73.6752
17.3108 84.1752
17.3559 81.8861
17.401 70.708
17.4462 61.1604
17.4913 58.0861
17.5365 58.3598
17.5815 58.1645
17.6268 58.6008
17.6718 59.4816
17.7171 59.9963
17.7622 60.2256
17.8074 60.7462
17.8525 62.4699
17.8977 66.3901
17.9428 71.2206
17.9881 80.1863
18.0331 98.0455
18.0784 121.271
18.1237 137.964
18.1688 127.614
18.214 100.68
18.2591 84.4067
18.3044 89.4429
18.3495 100.508
18.3948 104.497
18.4399 93.7639
18.4852 76.0902
18.5303 64.8187
18.5756 61.4857
18.6207 60.3841
18.666 59.5735
18.7112 58.8564
18.7565 58.1387
18.8016 57.7325
18.8469 57.1451
18.892 56.8379
18.9374 56.3037
18.9825 56.2157
19.0278 56.2522
19.073 56.132
19.1183 56.4076
19.1635 57.1782
19.2088 58.4725
19.254 61.0109
19.2993 65.644
19.3447 72.2865
19.3898 76.0435
19.4352 71.05
19.4804 62.2198
19.5257 55.9583
19.5709 53.5407
19.6163 53.2373
19.6615 52.8334
19.7068 52.5468
19.752 52.6772
19.7974 52.6729
19.8426 53.6092
19.888 54.1287
19.9332 55.1205
19.9786 57.44
20.0238 61.445
20.0692 66.6955
20.1144 68.953
20.1598 67.0293
20.205 62.2709
20.2504 61.4862
20.2957 63.6042
20.3411 65.2447
20.3863 63.275
20.4318 57.4694
20.477 53.0648
20.5224 50.8605
20.5677 50.3322
20.6131 49.4558
20.6586 49.0742
20.7038 49.0056
20.7493 48.4894
20.7945 48.341
20.84 48.1641
20.8853 47.9465
20.9307 47.8105
20.976 48.1256
21.0215 47.8934
21.0668 48.2501
21.1122 48.6626
21.1575 49.3802
21.203 50.1329
21.2483 50.7779
21.2938 50.658
21.3391 49.3082
21.3846 48.3428
21.4299 47.7696
21.4754 47.7099
21.5207 47.8067
21.5662 48.0634
21.6116 48.4394
21.6571 49.0731
21.7024 50.0353
21.7479 51.5465
21.7933 54.3466
21.8388 58.3247
21.8843 62.3404
21.9297 63.7359
21.9752 62.2563
22.0206 58.5238
22.0661 55.9144
22.1115 55.5511
22.157 55.0784
22.2024 53.3388
22.248 50.7528
22.2933 49.4435
22.3389 48.3735
22.3843 48.2816
22.4299 48.2345
22.4753 48.589
22.5208 47.9172
22.5662 47.7266
22.6118 47.9927
22.6572 48.0026
22.7028 48.4439
22.7483 48.8627
22.7939 49.6373
22.8393 51.1791
22.8849 53.3734
22.9303 55.6486
22.9759 57.2911
23.0214 56.6418
23.067 53.8896
23.1126 50.4609
23.1581 48.5405
23.2037 48.1705
23.2492 48.1092
23.2948 48.0552
23.3403 48.2663
23.3859 48.9866
23.4314 50.0521
23.477 52.0588
23.5225 54.3064
23.5682 56.541
23.6137 57.227
23.6593 54.7196
23.7048 50.8272
23.7505 47.7003
23.796 46.0409
23.8417 45.4122
23.8872 44.9498
23.9329 44.7499
23.9784 44.3099
24.0241 44.1595
24.0697 44.0235
24.1154 43.6194
24.1609 43.4614
24.2066 43.1794
24.2522 43.253
24.2979 42.8218
24.3434 42.8205
24.3892 42.5871
24.4349 42.522
24.4805 42.3869
24.5262 42.6998
24.5718 42.3696
24.6175 42.4068
24.6631 42.3018
24.7089 42.0108
24.7545 41.8565
24.8002 41.5597
24.8458 41.6918
24.8916 41.4856
24.9372 41.71
24.983 41.9333
25.0286 42.2248
25.0744 42.8184
25.12 43.0343
25.1658 43.7906
25.2114 44.0456
25.2572 44.2332
25.3029 44.3315
25.3487 44.4336
25.3943 44.1604
25.4402 42.9557
25.4858 41.9164
25.5316 40.9213
25.5773 40.3638
25.6231 40.383
25.669 40.05
25.7147 40.0975
25.7605 39.9175
25.8062 39.8866
25.8521 40.0892
25.8977 39.982
25.9436 40.2744
25.9893 40.5143
26.0352 41.0311
26.0809 41.1765
26.1268 41.1136
26.1725 40.8161
26.2184 40.2518
26.2641 39.8341
26.31 39.5738
26.3557 39.5063
26.4017 39.564
26.4474 39.9231
26.4933 40.2678
26.5391 40.6846
26.585 41.2122
26.6308 41.514
26.6767 41.5691
26.7225 41.4872
26.7684 40.9065
26.8142 40.3095
26.8601 39.843
26.9059 39.5482
26.9519 38.8903
26.9979 38.6938
27.0437 38.294
27.0896 38.2402
27.1354 38.2949
27.1814 37.9343
27.2272 37.9734
27.2732 37.9726
27.3191 37.7733
27.3651 37.942
27.4109 37.8728
27.4569 38.0182
27.5027 38.0701
27.5488 38.0949
27.5946 37.8895
27.6407 37.67
27.6865 37.5688
27.7326 37.3411
27.7784 37.2418
27.8245 37.3023
27.8703 37.5314
27.9164 37.8757
27.9623 37.9595
28.0084 38.3877
28.0543 38.7709
28.1003 38.5489
28.1462 38.3622
28.1923 38.1072
28.2384 37.3597
28.2843 37.0937
28.3304 36.7715
28.3764 36.186
28.4225 35.9954
28.4684 35.8199
28.5145 35.5072
28.5605 35.3805
28.6066 35.2
28.6526 35.0158
28.6987 35.2612
28.7447 34.9543
28.7908 34.9483
28.8368 35.0284
28.8829 34.8949
28.9289 34.8935
28.9751 34.7338
29.0211 34.3708
29.0673 34.3162
29.1133 34.1713
29.1595 34.0028
29.2055 33.8741
29.2517 33.92
29.2977 33.8354
29.3439 33.867
29.3899 33.8217
29.4361 33.769
29.4824 33.5186
29.5284 33.2424
29.5746 32.9843
29.6207 32.7058
29.6669 32.5977
29.713 32.4446
29.7593 32.4055
29.8053 32.4133
29.8516 32.3211
29.8977 32.4064
29.9439 32.1654
29.99 32.1787
30.0363 32.0507
30.0824 32.1122
30.1287 32.0267
30.1748 31.9313
30.2211 32.0245
30.2673 31.8696
30.3136 31.9392
30.3597 31.7784
30.406 31.6546
30.4522 31.6465
30.4985 31.6388
30.5447 31.754
30.591 31.7766
30.6372 31.9164
30.6835 31.7687
30.7297 31.8724
30.7761 31.7745
30.8224 31.6159
30.8686 31.4729
30.915 31.1906
30.9612 31.1259
31.0076 30.8939
31.0538 30.7356
31.1002 30.7294
31.1464 30.5623
31.1928 30.5033
31.2391 30.5245
31.2855 30.5112
31.3317 30.4333
31.3781 30.5625
31.4244 30.513
31.4708 30.4679
31.5171 30.443
31.5636 30.3769
31.6098 30.1469
31.6563 29.9202
31.7026 29.8817
31.7491 29.6601
31.7953 29.8581
31.8418 29.764
31.8881 29.8016
31.9346 29.7056
31.9809 29.6751
32.0275 29.4408
32.074 29.407
32.1203 29.318
32.1668 29.1991
32.2132 29.0555
32.2597 28.8891
32.306 28.7854
32.3526 28.6024
32.399 28.5561
32.4455 28.4165
32.4919 28.385
32.5385 28.2636
32.5848 28.1813
32.6314 28.2291
32.6778 28.0448
32.7244 28.015
32.7708 27.812
32.8174 27.8441
32.8638 27.6841
32.9104 27.7494
32.9569 27.7045
33.0035 27.4883
33.0499 27.5194
33.0966 27.5066
33.143 27.5167
33.1897 27.3473
33.2361 27.2969
33.2828 27.2611
33.3293 27.0485
33.3759 26.9552
33.4226 26.8851
33.4691 26.7786
33.5158 26.727
33.5623 26.5093
33.609 26.4292
33.6555 26.3839
33.7022 26.2593
33.7487 26.1189
33.7954 26.1784
33.842 26.1102
33.8887 25.9941
33.9353 25.9256
33.982 25.6993
34.0286 25.7975
34.0753 25.5967
34.1219 25.5741
34.1687 25.4495
34.2152 25.5028
34.262 25.3718
34.3086 25.3208
34.3554 25.2582
34.402 25.1394
34.4488 25.0433
34.4954 24.8809
34.5422 24.8158
34.5889 24.7856
34.6357 24.6555
34.6825 24.5979
34.7292 24.5543
34.776 24.4388
34.8227 24.3742
34.8695 24.3588
34.9162 24.3014
34.9631 24.2119
35.0098 24.1948
35.0566 23.997
35.1033 23.9906
35.1502 23.9343
35.1969 23.8888
35.2438 23.8779
35.2906 23.8459
35.3375 23.6802
35.3842 23.6502
35.4311 23.6586
35.4779 23.6789
35.5248 23.6606
35.5716 23.3891
35.6185 23.4195
35.6653 23.3275
35.7123 23.2334
35.759 23.2865
35.806 23.0514
35.8528 22.9744
35.8998 22.9571
35.9468 22.8559
35.9936 22.7692
36.0406 22.7448
36.0874 22.7474
36.1345 22.6823
36.1813 22.4951
36.2283 22.4184
36.2752 22.412
36.3222 22.3994
36.3691 22.3525
36.4161 22.1864
36.463 22.1437
36.5101 22.1591
36.557 22.0446
36.6041 21.9785
36.651 21.9302
36.6981 21.7676
36.745 21.7794
36.7921 21.7381
36.839 21.6306
36.8861 21.5785
36.9331 21.4669
36.9802 21.4235
37.0272 21.3748
37.0743 21.1618
37.1213 21.205
37.1684 21.1537
37.2154 21.0509
37.2626 20.9883
37.3098 20.9293
37.3568 20.8615
37.404 20.8537
37.451 20.728
37.4982 20.6656
37.5452 20.5814
37.5924 20.4734
37.6395 20.5857
37.6867 20.5077
37.7337 20.3277
37.781 20.2656
37.8281 20.269
37.8753 20.0888
37.9224 20.0996
37.9697 20.0381
38.0168 19.9306
38.064 19.8653
38.1111 19.8245
38.1584 19.7243
38.2056 19.6628
38.2529 19.674
38.3 19.6229
38.3473 19.578
38.3945 19.4002
38.4418 19.386
38.489 19.3914
38.5363 19.3042
38.5837 19.2401
38.6309 19.2013
38.6782 19.1569
38.7254 18.9659
38.7728 18.9555
38.82 18.8636
38.8674 18.8448
38.9146 18.7697
38.9621 18.6922
39.0093 18.7602
39.0567 18.6149
39.104 18.5783
39.1514 18.4867
39.1987 18.4542
39.2461 18.3814
39.2934 18.376
39.3409 18.2261
39.3882 18.1829
39.4356 18.1361
39.483 18.1091
39.5304 18.0523
39.5778 18.0126
39.6253 17.9538
39.6726 17.9163
39.7201 17.8102
39.7675 17.7879
39.815 17.6639
39.8624 17.6051
39.9099 17.6503
39.9575 17.5362
40.0049 17.4954
40.0525 17.4327
40.0999 17.3869
40.1474 17.3086
40.1949 17.2274
40.2425 17.1812
40.2899 17.136
40.3375 17.0815
40.385 16.9911
40.4326 16.9335
40.48 16.8839
40.5277 16.8875
40.5752 16.8759
40.6228 16.752
40.6703 16.7053
40.718 16.6636
40.7655 16.6333
40.8132 16.544
40.8607 16.5485
40.9084 16.4719
40.9559 16.4421
41.0036 16.377
41.0512 16.334
41.0989 16.2381
41.1465 16.2195
41.1942 16.1033
41.242 16.0743
41.2896 16.0617
41.3373 15.9581
41.3849 15.912
41.4327 15.9404
41.4803 15.8226
41.5281 15.8076
41.5758 15.7149
41.6236 15.6806
41.6712 15.5838
41.7191 15.5579
41.7667 15.4719
41.8146 15.4563
41.8622 15.364
41.9101 15.3591
41.9578 15.2841
42.0057 15.232
42.0534 15.2502
42.1013 15.1695
42.149 15.0577
42.1969 14.9977
42.2446 14.9753
42.2925 14.9485
42.3403 14.8536
42.3882 14.8403
42.436 14.794
42.4839 14.6926
42.5319 14.6755
42.5797 14.6786
42.6277 14.6479
42.6755 14.6291
42.7235 14.5155
42.7713 14.4415
42.8193 14.3938
42.8671 14.3537
42.9152 14.271
42.963 14.2614
43.0111 14.2012
43.0589 14.1409
43.107 14.0562
43.1549 14.0581
43.2029 13.9806
43.2508 14.0006
43.2989 13.8768
43.3468 13.8704
43.3949 13.8138
43.4429 13.745
43.491 13.7257
43.5389 13.6577
43.5871 13.6515
43.635 13.5871
43.6832 13.5302
43.7312 13.4614
43.7793 13.445
43.8273 13.402
43.8755 13.3364
43.9237 13.2848
43.9717 13.2119
44.0199 13.1823
44.068 13.1565
44.1162 13.0953
44.1642 13.0913
44.2125 13.0563
44.2606 13.0405
44.3088 12.9255
44.3569 12.8706
44.4052 12.8119
44.4533 12.7997
44.5016 12.7335
44.5497 12.7075
44.598 12.675
44.6461 12.5963
44.6945 12.5992
44.7426 12.5498
44.791 12.4478
44.8391 12.4827
44.8875 12.3863
44.9357 12.3208
44.984 12.3395
45.0322 12.3053
45.0806 12.2559
45.1288 12.1798
45.1773 12.1434
45.2257 12.1066
45.2739 12.0942
45.3224 12.005
45.3706 11.984
45.4191 11.9201
45.4673 11.9177
45.5158 11.8497
45.5641 11.7775
45.6126 11.7879
45.6609 11.7469
45.7094 11.6621
45.7577 11.676
45.8063 11.5739
45.8546 11.5774
45.9031 11.4856
45.9515 11.4523
46.0001 11.4253
46.0484 11.4164
46.097 11.3495
46.1454 11.3464
46.194 11.2501
46.2424 11.2396
46.291 11.2187
46.3395 11.1124
46.3881 11.0958
46.4365 11.1008
46.4852 11.0288
46.5337 10.9488
46.5823 10.9379
46.631 10.9139
46.6795 10.8702
46.7282 10.849
46.7767 10.7839
46.8254 10.7316
46.8739 10.7186
46.9226 10.6568
46.9712 10.6471
47.0199 10.6134
47.0685 10.5677
47.1173 10.4766
47.1658 10.4875
47.2146 10.4577
47.2632 10.356
47.312 10.3828
47.3606 10.2897
47.4095 10.2945
47.4581 10.2616
47.5069 10.2131
47.5556 10.1777
47.6044 10.1127
47.6531 10.0632
47.702 10.0471
47.7507 10.0089
47.7996 9.96355
47.8483 9.95149
47.8972 9.90128
47.9461 9.8726
47.9948 9.82319
48.0438 9.81013
48.0925 9.76686
48.1415 9.72343
48.1902 9.68391
48.2392 9.64756
48.288 9.65588
48.337 9.57037
48.3858 9.52129
48.4348 9.55294
48.4837 9.52634
48.5327 9.44729
48.5815 9.43516
48.6306 9.36275
48.6795 9.33965
48.7285 9.29496
48.7774 9.27009
48.8265 9.27776
48.8754 9.2119
48.9245 9.16213
48.9734 9.15374
49.0226 9.11829
49.0715 9.06861
49.1206 9.03207
49.1696 9.02628
49.2188 8.97298
49.2679 8.90926
49.3169 8.91352
49.3661 8.82492
49.4151 8.83767
49.4643 8.79611
49.5134 8.75796
49.5626 8.69882
49.6117 8.70189
49.6609 8.64917
49.71 8.61046
49.7592 8.62562
49.8083 8.54852
49.8576 8.5467
49.9067 8.5122
49.956 8.48925
50.0052 8.41136
50.0545 8.38121
50.1036 8.39138
50.153 8.34849
50.2022 8.29521
50.2515 8.29044
50.3007 8.20714
50.3501 8.2321
50.3993 8.1856
50.4487 8.17778
50.498 8.1168
50.5474 8.05228
50.5966 8.03108
50.6461 8.00577
50.6955 7.96572
50.7448 7.97359
50.7943 7.96204
50.8436 7.87105
50.8931 7.88952
50.9424 7.8411
50.9919 7.80224
51.0413 7.80741
51.0908 7.7708
51.1402 7.67764
51.1897 7.6471
51.2391 7.62209
51.2887 7.61333
51.3381 7.60686
51.3877 7.53991
51.4371 7.53932
51.4867 7.49341
51.5362 7.47697
51.5858 7.46634
51.6353 7.40419
51.6849 7.35523
51.7344 7.3389
51.7841 7.3281
51.8336 7.27196
51.8833 7.24255
51.9328 7.23066
51.9826 7.19724
52.0323 7.17694
52.0818 7.13785
52.1316 7.09145
52.1812 7.07898
52.231 7.05183
52.2806 7.01546
52.3304 7.03065
52.38 6.93913
52.4298 6.89935
52.4794 6.89108
52.5293 6.87115
52.5789 6.85785
52.6288 6.84268
52.6785 6.74793
52.7284 6.76122
52.7781 6.7856
52.828 6.69774
52.8777 6.61702
52.9276 6.62227
52.9774 6.63743
53.0273 6.58179
53.0771 6.59583
53.1271 6.57588
53.1769 6.49698
53.2269 6.47489
53.2767 6.44879
53.3267 6.41196
53.3765 6.40306
53.4266 6.39783
53.4766 6.31427
53.5265 6.27128
53.5765 6.28197
53.6264 6.22634
53.6765 6.20941
53.7264 6.20297
53.7765 6.1492
53.8265 6.15157
53.8766 6.14797
53.9266 6.11109
53.9767 6.0768
54.0267 6.08047
54.0769 6.00921
54.1269 5.98753
54.1771 5.96106
54.2271 5.94431
54.2773 5.88073
54.3274 5.84983
54.3776 5.8624
54.4277 5.86451
54.478 5.77512
54.528 5.71773
54.5783 5.70255
54.6285 5.70088
54.6788 5.6356
54.7289 5.58496
54.7792 5.49445
54.8296 5.52229
54.8798 5.43358
54.9301 5.40303
54.9803 5.41815
55.0307 5.35978
55.0809 5.32569
55.1314 5.2555
55.1816 5.21321
55.232 5.17435
55.2823 5.14445
55.3328 5.08847
55.383 5.05257
55.4335 4.98511
55.4838 4.93134
55.5344 4.88163
55.5847 4.89293
55.6352 4.85506
55.6856 4.79661
55.7361 4.77915