File: XRD/Ni3Fe_FD0590.xy
TT I
1.27165 7.62109
1.31627 7.35892
1.36089 7.04365
1.40551 6.18435
1.45013 5.89931
1.49476 6.55075
1.53938 5.72163
1.584 5.53527
1.62863 5.154
1.67325 4.89126
1.71787 4.79159
1.7625 4.88197
1.80712 4.94891
1.85174 4.19384
1.89636 4.51861
1.94099 4.74131
1.98562 4.49569
2.03025 4.97741
2.07487 4.58853
2.11949 5.155
2.16411 4.7627
2.20874 8.71408
2.25338 12.4909
2.298 5.78449
2.34263 5.57774
2.38725 4.80643
2.43188 5.83193
2.4765 6.86585
2.52115 6.82337
2.56577 7.67463
2.6104 8.52932
2.65503 7.75247
2.69965 8.1604
2.7443 7.74697
2.78893 7.818
2.83356 8.39861
2.87818 9.30661
2.92281 8.75421
2.96744 9.82448
3.01209 10.1975
3.05672 11.367
3.10135 12.4772
3.14599 12.8586
3.19062 14.433
3.23527 14.706
3.2799 15.8867
3.32454 17.0027
3.36917 18.1335
3.4138 18.5324
3.45844 19.212
3.50309 20.7631
3.54773 22.2453
3.59237 23.1086
3.637 52.3146
3.68164 38.1734
3.7263 25.6242
3.77094 25.608
3.81558 26.7942
3.86022 27.1739
3.90486 28.6062
3.9495 29.7323
3.99416 30.9701
4.0388 31.859
4.08344 33.8772
4.12809 34.5799
4.17273 36.3849
4.21738 39.8175
4.26204 129.316
4.30669 110.984
4.35133 44.8098
4.39598 43.666
4.44063 49.5375
4.4853 55.3761
4.52995 54.0764
4.5746 55.8102
4.61925 54.4312
4.6639 56.062
4.70855 58.7892
4.75322 62.4903
4.79788 67.7962
4.84253 69.0441
4.88719 75.0094
4.93184 77.3768
4.97652 82.8669
5.02118 89.2304
5.06583 97.0544
5.11049 109.899
5.15515 162.12
5.19981 482.638
5.24449 3271.77
5.28916 12327.4
5.33382 2749.04
5.37848 201.574
5.42315 132.957
5.46783 119.443
5.5125 111.511
5.55716 103.375
5.60183 99.7919
5.6465 97.692
5.69117 95.7428
5.73586 93.812
5.78053 97.3084
5.8252 97.1151
5.86988 99.3961
5.91455 97.8443
5.95924 109.387
6.00392 276.725
6.0486 1116.42
6.09328 4383.75
6.13795 3267.61
6.18263 235.463
6.22733 93.2958
6.27201 82.0544
6.3167 86.7029
6.36138 75.5927
6.40606 70.0161
6.45075 69.4713
6.49545 65.7754
6.54014 64.126
6.58483 63.1571
6.62952 63.0702
6.67421 75.7006
6.71892 95.9224
6.76361 62.997
6.8083 59.2822
6.853 59.2119
6.89769 56.8961
6.94239 56.4995
6.98711 55.9856
7.03181 56.1309
7.07651 55.2933
7.12121 54.7945
7.16591 55.8507
7.21063 55.7456
7.25533 61.9089
7.30004 106.726
7.34475 69.686
7.38945 55.8049
7.43416 54.2863
7.47889 54.4325
7.5236 54.9644
7.56831 55.4436
7.61303 55.9801
7.65774 56.5749
7.70247 56.941
7.74719 56.44
7.79191 57.2069
7.83663 56.7751
7.88135 58.1328
7.92607 58.9255
7.97081 60.0586
8.01553 61.5649
8.06026 62.9912
8.10498 64.8385
8.14971 70.9613
8.19446 70.6604
8.23919 70.1231
8.28392 72.3605
8.32865 74.8947
8.37339 79.8003
8.41812 85.5088
8.46288 107.246
8.50761 199.29
8.55235 441.913
8.59709 1254.24
8.64183 2213.03
8.68658 917.66
8.73134 158.187
8.77609 99.592
8.82083 93.4113
8.86558 92.2382
8.91033 91.6441
8.9551 89.7218
8.99985 85.8714
9.04461 84.5086
9.08936 84.3912
9.13412 83.5259
9.17888 83.1313
9.22365 83.2189
9.26841 82.9248
9.31318 85.1818
9.35794 86.4491
9.4027 85.8815
9.44749 85.6912
9.49226 85.6955
9.53703 86.5437
9.5818 89.6939
9.62657 93.6335
9.67134 96.2791
9.71614 93.7479
9.76091 96.1269
9.80569 100.075
9.85047 102.094
9.89525 114.502
9.94005 132.774
9.98484 211.463
10.0296 384.017
10.0744 874.45
10.1192 1726.03
10.164 1518.46
10.2088 363.202
10.2536 124.661
10.2984 111.43
10.3432 110.637
10.388 107.046
10.4328 128.171
10.4776 172.257
10.5224 301.336
10.5672 517.548
10.612 475.907
10.6568 188.493
10.7017 95.5493
10.7465 87.1295
10.7913 83.7679
10.8361 81.6503
10.8809 79.4298
10.9257 78.305
10.9706 78.4031
11.0154 75.5329
11.0602 73.2688
11.105 72.1328
11.1499 73.1309
11.1947 75.5284
11.2395 71.442
11.2844 69.3688
11.3292 67.5065
11.374 66.5751
11.4189 66.0652
11.4637 65.2059
11.5086 65.0961
11.5534 65.8869
11.5983 64.8751
11.6431 63.945
11.688 63.3637
11.7328 63.5819
11.7777 63.0746
11.8225 63.3339
11.8674 62.9804
11.9122 62.993
11.9571 63.5933
12.002 65.2287
12.0468 71.1261
12.0917 81.6106
12.1366 107.245
12.1814 156.882
12.2263 202.532
12.2712 160.838
12.3161 89.2689
12.3609 67.5868
12.4058 64.3424
12.4507 64.7007
12.4956 64.8454
12.5405 65.5885
12.5853 65.9514
12.6302 69.2423
12.6751 71.8223
12.72 68.6338
12.7649 68.1478
12.8098 69.0371
12.8547 70.5195
12.8996 72.1043
12.9445 73.296
12.9894 75.3966
13.0343 77.1479
13.0792 81.5159
13.1242 95.8488
13.1691 117.81
13.214 158.915
13.2589 254.308
13.3038 375.979
13.3487 418.194
13.3937 247.37
13.4386 121.079
13.4835 111.233
13.5285 126.724
13.5734 169.541
13.6183 257.316
13.6633 353.813
13.7082 328.116
13.7531 178.559
13.7981 96.4992
13.843 82.2218
13.888 80.3729
13.9329 77.734
13.9779 76.6025
14.0228 74.9671
14.0678 73.6407
14.1127 72.931
14.1577 72.7014
14.2027 72.1628
14.2476 70.9695
14.2926 70.6071
14.3376 70.9396
14.3825 70.342
14.4275 69.8161
14.4725 69.3591
14.5175 69.8786
14.5624 69.7933
14.6074 70.7147
14.6524 71.2902
14.6974 71.3107
14.7424 75.2429
14.7874 82.2908
14.8324 93.1068
14.8774 117.002
14.9224 160.106
14.9674 210.319
15.0124 213.889
15.0574 144.171
15.1024 88.4824
15.1474 72.4601
15.1924 70.6299
15.2374 70.2403
15.2824 69.3702
15.3274 68.3641
15.3725 67.3596
15.4175 66.7505
15.4625 66.6493
15.5076 66.316
15.5526 66.524
15.5976 66.5589
15.6426 69.7551
15.6877 75.1245
15.7327 82.8881
15.7778 99.7481
15.8228 131.496
15.8679 173.336
15.9129 192.325
15.958 149.746
16.003 92.3541
16.0481 67.0811
16.0931 63.7569
16.1382 62.1449
16.1833 60.75
16.2283 59.4337
16.2734 58.3673
16.3185 58.3259
16.3636 58.4602
16.4086 57.2271
16.4537 56.6246
16.4988 55.7356
16.5439 55.8579
16.589 55.6232
16.6341 55.3754
16.6792 54.9679
16.7243 55.2407
16.7694 55.1847
16.8145 55.0345
16.8596 55.2066
16.9047 56.17
16.9498 56.2743
16.9949 55.8173
17.04 56.7298
17.0851 58.1284
17.1302 59.3947
17.1754 62.8213
17.2205 68.1581
17.2656 75.3611
17.3108 82.7212
17.3559 82.0011
17.401 70.8673
17.4462 62.2642
17.4913 59.6834
17.5365 59.6806
17.5815 59.7405
17.6268 60.1351
17.6718 60.8136
17.7171 61.3419
17.7622 62.2911
17.8074 63.2073
17.8525 66.5197
17.8977 70.3235
17.9428 75.8728
17.9881 85.8349
18.0331 103.248
18.0784 124.027
18.1237 141.819
18.1688 131.3
18.214 102.382
18.2591 87.6504
18.3044 92.3302
18.3495 101.535
18.3948 105.986
18.4399 94.6042
18.4852 76.4043
18.5303 65.661
18.5756 62.4389
18.6207 61.6407
18.666 60.851
18.7112 60.0637
18.7565 59.4496
18.8016 58.8978
18.8469 58.4931
18.892 58.2554
18.9374 57.5957
18.9825 57.3953
19.0278 57.5073
19.073 57.6306
19.1183 58.0992
19.1635 58.7021
19.2088 60.0892
19.254 63.2642
19.2993 67.4538
19.3447 73.0264
19.3898 75.8257
19.4352 71.4458
19.4804 62.833
19.5257 56.7928
19.5709 54.4606
19.6163 54.1652
19.6615 54.0837
19.7068 53.6144
19.752 53.7109
19.7974 54.3786
19.8426 55.0496
19.888 55.5508
19.9332 57.0922
19.9786 59.7146
20.0238 63.6204
20.0692 68.1138
20.1144 70.1837
20.1598 68.0415
20.205 63.8462
20.2504 62.7392
20.2957 64.2556
20.3411 65.7557
20.3863 63.9154
20.4318 58.2119
20.477 53.5146
20.5224 51.7099
20.5677 50.9248
20.6131 50.6037
20.6586 50.0442
20.7038 49.9078
20.7493 49.4005
20.7945 49.2563
20.84 49.2276
20.8853 49.0718
20.9307 49.1387
20.976 49.2218
21.0215 48.9907
21.0668 49.3335
21.1122 50.0313
21.1575 50.5671
21.203 51.3249
21.2483 51.5766
21.2938 51.7076
21.3391 50.3133
21.3846 49.1892
21.4299 48.8787
21.4754 48.7485
21.5207 48.8538
21.5662 49.4829
21.6116 49.9022
21.6571 50.6782
21.7024 51.4987
21.7479 53.5381
21.7933 56.2774
21.8388 59.6535
21.8843 63.3561
21.9297 64.968
21.9752 63.1803
22.0206 59.5107
22.0661 56.7651
22.1115 56.2865
22.157 56.2141
22.2024 54.3376
22.248 51.5256
22.2933 49.9411
22.3389 49.5528
22.3843 49.1109
22.4299 49.1335
22.4753 49.0985
22.5208 49.0833
22.5662 48.8339
22.6118 49.1123
22.6572 49.4105
22.7028 49.7661
22.7483 50.2487
22.7939 51.1134
22.8393 52.5851
22.8849 54.7887
22.9303 56.4683
22.9759 58.0202
23.0214 57.3795
23.067 54.422
23.1126 51.0302
23.1581 49.3486
23.2037 49.1943
23.2492 49.3162
23.2948 49.3439
23.3403 49.645
23.3859 50.3343
23.4314 51.3792
23.477 53.3824
23.5225 55.3883
23.5682 57.3144
23.6137 57.9917
23.6593 55.4889
23.7048 51.5801
23.7505 48.2825
23.796 46.6619
23.8417 46.1947
23.8872 45.8179
23.9329 45.5354
23.9784 45.126
24.0241 44.886
24.0697 44.6877
24.1154 44.4005
24.1609 44.4035
24.2066 44.0408
24.2522 43.9413
24.2979 43.6794
24.3434 43.4575
24.3892 43.4195
24.4349 43.5242
24.4805 43.2067
24.5262 43.408
24.5718 43.2969
24.6175 43.2316
24.6631 43.08
24.7089 42.7462
24.7545 42.6699
24.8002 42.5396
24.8458 42.6317
24.8916 42.3972
24.9372 42.4801
24.983 42.9486
25.0286 43.3657
25.0744 43.6663
25.12 44.1651
25.1658 44.7153
25.2114 44.9327
25.2572 44.9894
25.3029 45.1007
25.3487 45.0875
25.3943 44.8874
25.4402 43.5343
25.4858 42.5002
25.5316 41.6547
25.5773 41.1963
25.6231 41.1115
25.669 40.887
25.7147 40.6953
25.7605 40.6898
25.8062 40.7279
25.8521 40.8539
25.8977 40.8689
25.9436 41.2395
25.9893 41.3485
26.0352 41.7458
26.0809 41.7824
26.1268 41.8846
26.1725 41.6778
26.2184 41.0386
26.2641 40.6228
26.31 40.3757
26.3557 40.37
26.4017 40.3944
26.4474 40.823
26.4933 41.037
26.5391 41.6279
26.585 42.0119
26.6308 42.5064
26.6767 42.4585
26.7225 42.1654
26.7684 41.6591
26.8142 40.881
26.8601 40.6756
26.9059 40.2556
26.9519 39.7489
26.9979 39.4339
27.0437 39.1957
27.0896 39.0921
27.1354 38.9461
27.1814 38.9456
27.2272 38.7999
27.2732 38.8053
27.3191 38.5501
27.3651 38.8663
27.4109 38.6686
27.4569 38.6974
27.5027 38.7516
27.5488 38.9663
27.5946 38.6134
27.6407 38.4665
27.6865 38.2881
27.7326 38.0241
27.7784 38.1207
27.8245 38.253
27.8703 38.1542
27.9164 38.529
27.9623 38.572
28.0084 39.048
28.0543 39.2915
28.1003 39.2106
28.1462 39.0654
28.1923 38.6166
28.2384 38.0401
28.2843 37.9513
28.3304 37.3568
28.3764 36.8616
28.4225 36.6172
28.4684 36.6624
28.5145 36.2436
28.5605 36.1507
28.6066 35.9312
28.6526 35.735
28.6987 35.8251
28.7447 35.6872
28.7908 35.6336
28.8368 35.6991
28.8829 35.5985
28.9289 35.6219
28.9751 35.3838
29.0211 35.0664
29.0673 34.9147
29.1133 34.6741
29.1595 34.5907
29.2055 34.4847
29.2517 34.5164
29.2977 34.5362
29.3439 34.4778
29.3899 34.5346
29.4361 34.2985
29.4824 34.1654
29.5284 33.9347
29.5746 33.6363
29.6207 33.3316
29.6669 33.4107
29.713 33.179
29.7593 33.165
29.8053 33.0836
29.8516 33.0545
29.8977 32.9142
29.9439 32.8441
29.99 32.8054
30.0363 32.667
30.0824 32.7578
30.1287 32.617
30.1748 32.6912
30.2211 32.6347
30.2673 32.4764
30.3136 32.6164
30.3597 32.5104
30.406 32.3846
30.4522 32.367
30.4985 32.3039
30.5447 32.3822
30.591 32.3762
30.6372 32.4216
30.6835 32.3401
30.7297 32.406
30.7761 32.3134
30.8224 32.1331
30.8686 32.0539
30.915 31.8373
30.9612 31.7032
31.0076 31.5161
31.0538 31.3572
31.1002 31.4215
31.1464 31.1486
31.1928 31.1263
31.2391 31.1723
31.2855 31.0803
31.3317 31.0006
31.3781 31.1669
31.4244 31.0401
31.4708 31.0097
31.5171 31.0833
31.5636 30.9286
31.6098 30.7952
31.6563 30.5525
31.7026 30.4127
31.7491 30.4607
31.7953 30.3189
31.8418 30.3192
31.8881 30.4189
31.9346 30.2282
31.9809 30.2295
32.0275 30.2103
32.074 29.9779
32.1203 29.8449
32.1668 29.8503
32.2132 29.5408
32.2597 29.3581
32.306 29.4641
32.3526 29.1948
32.399 29.1584
32.4455 28.9113
32.4919 28.848
32.5385 28.7857
32.5848 28.6278
32.6314 28.6983
32.6778 28.6184
32.7244 28.4474
32.7708 28.3841
32.8174 28.3624
32.8638 28.2025
32.9104 28.2602
32.9569 28.2469
33.0035 28.0335
33.0499 28.0624
33.0966 27.9312
33.143 27.9936
33.1897 27.8586
33.2361 27.6798
33.2828 27.7113
33.3293 27.5282
33.3759 27.57
33.4226 27.3601
33.4691 27.223
33.5158 27.1981
33.5623 27.0367
33.609 26.8726
33.6555 26.8764
33.7022 26.7939
33.7487 26.6904
33.7954 26.6926
33.842 26.577
33.8887 26.4783
33.9353 26.4536
33.982 26.4018
34.0286 26.2881
34.0753 26.1711
34.1219 26.0536
34.1687 25.9161
34.2152 25.9134
34.262 25.8498
34.3086 25.7128
34.3554 25.6887
34.402 25.5275
34.4488 25.4226
34.4954 25.3958
34.5422 25.3032
34.5889 25.267
34.6357 25.14
34.6825 25.1066
34.7292 25.0228
34.776 24.8107
34.8227 24.8034
34.8695 24.7365
34.9162 24.7377
34.9631 24.6059
35.0098 24.6633
35.0566 24.4886
35.1033 24.4389
35.1502 24.3994
35.1969 24.3863
35.2438 24.2031
35.2906 24.2481
35.3375 24.1631
35.3842 24.1814
35.4311 24.2028
35.4779 24.0929
35.5248 24.0446
35.5716 23.946
35.6185 23.7831
35.6653 23.7708
35.7123 23.7305
35.759 23.5782
35.806 23.4939
35.8528 23.3819
35.8998 23.3521
35.9468 23.2452
35.9936 23.2166
36.0406 23.1062
36.0874 23.1716
36.1345 22.9818
36.1813 23.0207
36.2283 22.854
36.2752 22.7327
36.3222 22.7899
36.3691 22.697
36.4161 22.6253
36.463 22.5018
36.5101 22.5349
36.557 22.4834
36.6041 22.3703
36.651 22.3539
36.6981 22.2975
36.745 22.1604
36.7921 22.1616
36.839 21.9656
36.8861 21.9624
36.9331 21.8306
36.9802 21.8042
37.0272 21.6779
37.0743 21.6231
37.1213 21.667
37.1684 21.5415
37.2154 21.4241
37.2626 21.3317
37.3098 21.3304
37.3568 21.2297
37.404 21.1953
37.451 21.1109
37.4982 21.0283
37.5452 21.0085
37.5924 20.9433
37.6395 20.8965
37.6867 20.8516
37.7337 20.7896
37.781 20.6745
37.8281 20.5976
37.8753 20.5046
37.9224 20.4472
37.9697 20.3749
38.0168 20.2948
38.064 20.2747
38.1111 20.1459
38.1584 20.1963
38.2056 20.0419
38.2529 20.0508
38.3 19.9915
38.3473 19.9669
38.3945 19.8447
38.4418 19.7651
38.489 19.718
38.5363 19.6499
38.5837 19.5599
38.6309 19.481
38.6782 19.4617
38.7254 19.3925
38.7728 19.297
38.82 19.2382
38.8674 19.1907
38.9146 19.1308
38.9621 19.0886
39.0093 19.052
39.0567 18.9558
39.104 18.8682
39.1514 18.8076
39.1987 18.8061
39.2461 18.7135
39.2934 18.6871
39.3409 18.5787
39.3882 18.4767
39.4356 18.487
39.483 18.4172
39.5304 18.3869
39.5778 18.3329
39.6253 18.2746
39.6726 18.2012
39.7201 18.104
39.7675 18.0816
39.815 18.0069
39.8624 17.912
39.9099 17.8981
39.9575 17.7826
40.0049 17.7708
40.0525 17.7241
40.0999 17.6774
40.1474 17.6148
40.1949 17.5819
40.2425 17.5114
40.2899 17.4586
40.3375 17.351
40.385 17.3221
40.4326 17.347
40.48 17.1901
40.5277 17.2297
40.5752 17.1327
40.6228 17.067
40.6703 17.0519
40.718 16.9212
40.7655 16.9609
40.8132 16.827
40.8607 16.8517
40.9084 16.7534
40.9559 16.7017
41.0036 16.6244
41.0512 16.5925
41.0989 16.5649
41.1465 16.5252
41.1942 16.4373
41.242 16.2815
41.2896 16.2898
41.3373 16.3193
41.3849 16.2021
41.4327 16.1547
41.4803 16.0647
41.5281 15.9958
41.5758 15.9689
41.6236 15.9416
41.6712 15.8711
41.7191 15.8445
41.7667 15.8305
41.8146 15.744
41.8622 15.6819
41.9101 15.5879
41.9578 15.5983
42.0057 15.532
42.0534 15.4525
42.1013 15.4087
42.149 15.3695
42.1969 15.3015
42.2446 15.2426
42.2925 15.2324
42.3403 15.152
42.3882 15.1596
42.436 15.066
42.4839 14.9713
42.5319 14.9393
42.5797 14.9016
42.6277 14.8137
42.6755 14.8084
42.7235 14.7633
42.7713 14.7518
42.8193 14.6447
42.8671 14.6119
42.9152 14.5146
42.963 14.5536
43.0111 14.4755
43.0589 14.4529
43.107 14.3704
43.1549 14.2993
43.2029 14.2681
43.2508 14.2296
43.2989 14.1251
43.3468 14.0687
43.3949 14.0683
43.4429 14.0069
43.491 13.9261
43.5389 13.9318
43.5871 13.8796
43.635 13.8196
43.6832 13.7723
43.7312 13.697
43.7793 13.6469
43.8273 13.6208
43.8755 13.5954
43.9237 13.5066
43.9717 13.5231
44.0199 13.4083
44.068 13.4409
44.1162 13.3247
44.1642 13.3184
44.2125 13.2962
44.2606 13.2153
44.3088 13.1041
44.3569 13.1266
44.4052 13.0972
44.4533 13.0174
44.5016 12.9723
44.5497 12.9169
44.598 12.8365
44.6461 12.8633
44.6945 12.8147
44.7426 12.7459
44.791 12.713
44.8391 12.6837
44.8875 12.6173
44.9357 12.6141
44.984 12.5693
45.0322 12.529
45.0806 12.388
45.1288 12.4119
45.1773 12.3478
45.2257 12.3086
45.2739 12.2795
45.3224 12.2073
45.3706 12.2384
45.4191 12.0904
45.4673 12.1403
45.5158 12.0145
45.5641 11.988
45.6126 11.93
45.6609 11.9153
45.7094 11.8585
45.7577 11.8063
45.8063 11.7678
45.8546 11.7259
45.9031 11.7235
45.9515 11.6751
46.0001 11.6107
46.0484 11.5948
46.097 11.521
46.1454 11.5271
46.194 11.4725
46.2424 11.4124
46.291 11.3713
46.3395 11.3528
46.3881 11.2769
46.4365 11.2569
46.4852 11.2281
46.5337 11.192
46.5823 11.1204
46.631 11.0475
46.6795 11.0477
46.7282 11.0077
46.7767 11.0132
46.8254 10.9339
46.8739 10.8653
46.9226 10.8628
46.9712 10.8332
47.0199 10.7804
47.0685 10.7107
47.1173 10.6808
47.1658 10.6217
47.2146 10.6166
47.2632 10.5687
47.312 10.5379
47.3606 10.5102
47.4095 10.4365
47.4581 10.3932
47.5069 10.4086
47.5556 10.3672
47.6044 10.2774
47.6531 10.2512
47.702 10.1991
47.7507 10.2059
47.7996 10.1484
47.8483 10.1158
47.8972 10.0808
47.9461 10.0837
47.9948 9.96457
48.0438 9.92945
48.0925 9.96976
48.1415 9.90077
48.1902 9.86158
48.2392 9.82472
48.288 9.81577
48.337 9.75683
48.3858 9.71629
48.4348 9.69148
48.4837 9.65228
48.5327 9.61779
48.5815 9.5819
48.6306 9.55366
48.6795 9.52966
48.7285 9.46255
48.7774 9.43018
48.8265 9.42463
48.8754 9.37909
48.9245 9.30342
48.9734 9.28954
49.0226 9.29884
49.0715 9.22732
49.1206 9.20585
49.1696 9.14542
49.2188 9.13049
49.2679 9.07804
49.3169 9.08361
49.3661 8.98418
49.4151 9.0113
49.4643 8.95954
49.5134 8.94875
49.5626 8.84506
49.6117 8.81262
49.6609 8.81098
49.71 8.77031
49.7592 8.78295
49.8083 8.68866
49.8576 8.70185
49.9067 8.63633
49.956 8.60045
50.0052 8.53674
50.0545 8.54401
50.1036 8.46597
50.153 8.50056
50.2022 8.43859
50.2515 8.40608
50.3007 8.37006
50.3501 8.3361
50.3993 8.28823
50.4487 8.30069
50.498 8.27664
50.5474 8.21877
50.5966 8.17206
50.6461 8.19718
50.6955 8.16029
50.7448 8.09186
50.7943 8.05347
50.8436 8.01778
50.8931 7.99875
50.9424 7.97642
50.9919 7.95016
51.0413 7.90155
51.0908 7.88055
51.1402 7.83976
51.1897 7.85251
51.2391 7.76176
51.2887 7.75261
51.3381 7.70834
51.3877 7.68535
51.4371 7.65974
51.4867 7.61252
51.5362 7.58652
51.5858 7.55433
51.6353 7.5279
51.6849 7.50223
51.7344 7.44494
51.7841 7.4504
51.8336 7.4107
51.8833 7.34663
51.9328 7.35752
51.9826 7.28248
52.0323 7.2615
52.0818 7.25745
52.1316 7.21044
52.1812 7.20717
52.231 7.16075
52.2806 7.085
52.3304 7.10485
52.38 7.07671
52.4298 7.06161
52.4794 7.02174
52.5293 6.98719
52.5789 6.99716
52.6288 6.91711
52.6785 6.90319
52.7284 6.87603
52.7781 6.79967
52.828 6.81232
52.8777 6.79987
52.9276 6.74847
52.9774 6.7325
53.0273 6.72885
53.0771 6.68162
53.1271 6.6711
53.1769 6.62579
53.2269 6.58268
53.2767 6.58742
53.3267 6.52391
53.3765 6.48981
53.4266 6.47106
53.4766 6.41427
53.5265 6.41129
53.5765 6.41305
53.6264 6.38763
53.6765 6.36702
53.7264 6.35046
53.7765 6.30399
53.8265 6.26674
53.8766 6.22655
53.9266 6.19634
53.9767 6.12823
54.0267 6.14304
54.0769 6.10656
54.1269 6.07861
54.1771 6.03212
54.2271 6.00657
54.2773 6.01678
54.3274 5.9586
54.3776 5.90258
54.4277 5.90792
54.478 5.88259
54.528 5.82358
54.5783 5.80469
54.6285 5.75319
54.6788 5.72722
54.7289 5.70437
54.7792 5.59488
54.8296 5.59996
54.8798 5.54871
54.9301 5.48483
54.9803 5.48156
55.0307 5.45203
55.0809 5.42828
55.1314 5.40941
55.1816 5.28926
55.232 5.26021
55.2823 5.28039
55.3328 5.19133
55.383 5.14293
55.4335 5.09885
55.4838 5.0507
55.5344 4.98412
55.5847 4.96404
55.6352 4.91025
55.6856 4.836
55.7361 4.86275