File: XRD/Ni3Fe_FD0657.xy
TT I
1.27165 7.2469
1.31627 6.69875
1.36089 7.01868
1.40551 6.28306
1.45013 6.22042
1.49476 6.20665
1.53938 5.92886
1.584 5.83129
1.62863 5.87556
1.67325 5.02467
1.71787 4.69293
1.7625 4.85661
1.80712 4.8911
1.85174 4.38448
1.89636 4.8648
1.94099 4.8154
1.98562 4.96963
2.03025 4.70496
2.07487 4.33027
2.11949 4.99003
2.16411 5.18245
2.20874 17.5841
2.25338 30.9302
2.298 6.47103
2.34263 5.38252
2.38725 6.32798
2.43188 5.63865
2.4765 6.58257
2.52115 6.52668
2.56577 7.96084
2.6104 7.60753
2.65503 7.72287
2.69965 7.38674
2.7443 8.53631
2.78893 8.15002
2.83356 8.30213
2.87818 9.07501
2.92281 9.52542
2.96744 10.0589
3.01209 10.5579
3.05672 11.294
3.10135 11.6549
3.14599 13.21
3.19062 14.2628
3.23527 15.2964
3.2799 15.7578
3.32454 16.465
3.36917 17.8
3.4138 19.0713
3.45844 20.254
3.50309 20.6266
3.54773 22.2703
3.59237 24.7175
3.637 118.524
3.68164 74.9052
3.7263 27.0794
3.77094 26.689
3.81558 27.1508
3.86022 27.7635
3.90486 29.3175
3.9495 30.255
3.99416 31.4211
4.0388 33.0205
4.08344 34.34
4.12809 35.3531
4.17273 37.4388
4.21738 44.4442
4.26204 326.425
4.30669 300.458
4.35133 51.932
4.39598 45.4882
4.44063 57.1218
4.4853 74.0933
4.52995 50.9626
4.5746 51.2993
4.61925 53.3226
4.6639 54.9288
4.70855 57.8086
4.75322 60.5816
4.79788 62.9446
4.84253 66.6573
4.88719 70.6621
4.93184 74.3
4.97652 79.5204
5.02118 85.7382
5.06583 93.1095
5.11049 103.824
5.15515 188.298
5.19981 324.117
5.24449 2500.14
5.28916 12661.6
5.33382 3356.13
5.37848 196.588
5.42315 130.559
5.46783 113.206
5.5125 105.556
5.55716 101.505
5.60183 98.5498
5.6465 96.8921
5.69117 93.4051
5.73586 91.2498
5.78053 90.7483
5.8252 90.1688
5.86988 90.4874
5.91455 92.6888
5.95924 99.0924
6.00392 183.544
6.0486 854.754
6.09328 4215.93
6.13795 3543.68
6.18263 270.677
6.22733 95.1218
6.27201 84.237
6.3167 112.995
6.36138 85.3302
6.40606 69.143
6.45075 67.7497
6.49545 65.4423
6.54014 63.9544
6.58483 63.3204
6.62952 63.367
6.67421 103.896
6.71892 182.696
6.76361 74.3497
6.8083 58.773
6.853 57.7263
6.89769 57.1393
6.94239 57.1139
6.98711 56.1861
7.03181 56.0846
7.07651 55.4734
7.12121 55.5157
7.16591 56.0221
7.21063 56.3231
7.25533 74.3348
7.30004 230.664
7.34475 110.431
7.38945 57.9488
7.43416 55.1061
7.47889 54.5567
7.5236 55.2517
7.56831 55.5931
7.61303 58.3046
7.65774 58.5931
7.70247 56.4296
7.74719 56.0678
7.79191 56.883
7.83663 56.9064
7.88135 58.0253
7.92607 58.8499
7.97081 59.9447
8.01553 60.7746
8.06026 62.2394
8.10498 64.0876
8.14971 75.9723
8.19446 74.7157
8.23919 69.572
8.28392 71.5209
8.32865 73.668
8.37339 77.7086
8.41812 85.283
8.46288 121.726
8.50761 155.608
8.55235 354.064
8.59709 1055.57
8.64183 2152.31
8.68658 1045.37
8.73134 181.141
8.77609 100.178
8.82083 92.6374
8.86558 89.4035
8.91033 90.3391
8.9551 94.0012
8.99985 85.6355
9.04461 83.1958
9.08936 82.3319
9.13412 81.9907
9.17888 81.704
9.22365 83.1382
9.26841 82.0693
9.31318 81.9309
9.35794 81.9655
9.4027 82.223
9.44749 83.2412
9.49226 83.9579
9.53703 85.1969
9.5818 86.3865
9.62657 92.1838
9.67134 102.403
9.71614 94.2336
9.76091 93.3779
9.80569 95.6859
9.85047 99.352
9.89525 130.397
9.94005 146.32
9.98484 164.431
10.0296 311.482
10.0744 728.527
10.1192 1650.66
10.164 1721.46
10.2088 458.803
10.2536 132.324
10.2984 115.69
10.3432 119.82
10.388 105.027
10.4328 114.388
10.4776 151.331
10.5224 259.131
10.5672 482.707
10.612 533.444
10.6568 225.805
10.7017 98.7147
10.7465 86.7288
10.7913 83.2854
10.8361 81.0159
10.8809 78.8483
10.9257 78.81
10.9706 80.6114
11.0154 75.1946
11.0602 72.8993
11.105 72.0905
11.1499 78.0673
11.1947 89.7251
11.2395 77.5247
11.2844 71.9198
11.3292 67.6945
11.374 65.9634
11.4189 65.6062
11.4637 65.1441
11.5086 65.8907
11.5534 70.276
11.5983 66.7907
11.6431 63.7353
11.688 62.9181
11.7328 62.805
11.7777 62.6727
11.8225 62.779
11.8674 62.4426
11.9122 62.9439
11.9571 63.0594
12.002 63.4852
12.0468 66.4537
12.0917 77.1684
12.1366 99.3751
12.1814 144.932
12.2263 203.415
12.2712 177.031
12.3161 105.576
12.3609 73.6629
12.4058 65.2636
12.4507 64.3817
12.4956 64.623
12.5405 64.5531
12.5853 65.7769
12.6302 75.8963
12.6751 84.692
12.72 72.215
12.7649 67.9732
12.8098 68.3148
12.8547 69.6843
12.8996 71.065
12.9445 71.8394
12.9894 73.6303
13.0343 75.2649
13.0792 78.3532
13.1242 85.4098
13.1691 107.96
13.214 141.386
13.2589 221.797
13.3038 352.643
13.3487 439.947
13.3937 289.676
13.4386 131.546
13.4835 103.779
13.5285 115.896
13.5734 149.939
13.6183 230.154
13.6633 335.975
13.7082 354.113
13.7531 204.929
13.7981 101.627
13.843 82.218
13.888 79.4937
13.9329 77.0817
13.9779 76.0666
14.0228 74.159
14.0678 72.9225
14.1127 72.6999
14.1577 72.9567
14.2027 71.765
14.2476 70.2939
14.2926 70.6631
14.3376 72.3504
14.3825 70.8728
14.4275 68.6118
14.4725 68.2978
14.5175 68.7313
14.5624 68.5953
14.6074 71.8026
14.6524 72.5572
14.6974 70.567
14.7424 71.0367
14.7874 77.0981
14.8324 86.1489
14.8774 104.944
14.9224 144.085
14.9674 196.173
15.0124 221.504
15.0574 159.522
15.1024 96.068
15.1474 73.0216
15.1924 70.8491
15.2374 72.238
15.2824 71.6185
15.3274 68.8417
15.3725 66.9547
15.4175 66.5332
15.4625 66.1729
15.5076 66.4784
15.5526 66.4659
15.5976 65.6723
15.6426 66.0545
15.6877 70.6023
15.7327 77.6874
15.7778 91.3196
15.8228 119.306
15.8679 161.795
15.9129 194.866
15.958 166.473
16.003 103.723
16.0481 69.9835
16.0931 65.7994
16.1382 63.6715
16.1833 61.1526
16.2283 59.2782
16.2734 58.5328
16.3185 58.9715
16.3636 60.5509
16.4086 58.7769
16.4537 56.3233
16.4988 55.6249
16.5439 55.6843
16.589 55.2503
16.6341 55.0131
16.6792 54.7039
16.7243 55.1226
16.7694 55.2812
16.8145 54.959
16.8596 55.3705
16.9047 57.6703
16.9498 57.8697
16.9949 56.1502
17.04 55.8137
17.0851 56.8598
17.1302 58.3248
17.1754 61.0506
17.2205 65.5302
17.2656 72.6096
17.3108 82.1233
17.3559 84.1989
17.401 72.6089
17.4462 62.7204
17.4913 59.112
17.5365 59.1953
17.5815 59.0135
17.6268 59.4996
17.6718 60.2723
17.7171 61.0383
17.7622 61.2907
17.8074 61.7726
17.8525 63.4346
17.8977 67.3712
17.9428 72.3241
17.9881 80.1967
18.0331 95.7375
18.0784 117.085
18.1237 138.713
18.1688 136.128
18.214 107.902
18.2591 87.2331
18.3044 88.6217
18.3495 98.1624
18.3948 106.665
18.4399 100.446
18.4852 80.606
18.5303 67.0117
18.5756 62.4419
18.6207 61.3863
18.666 60.5842
18.7112 59.7518
18.7565 59.1528
18.8016 58.5933
18.8469 58.1686
18.892 57.6449
18.9374 57.1574
18.9825 57.0581
19.0278 57.0932
19.073 57.1052
19.1183 57.3448
19.1635 58.2699
19.2088 59.4573
19.254 61.5028
19.2993 65.7094
19.3447 72.0157
19.3898 77.489
19.4352 74.4515
19.4804 65.0467
19.5257 57.4654
19.5709 54.4589
19.6163 53.9471
19.6615 53.7065
19.7068 53.151
19.752 53.3825
19.7974 53.6138
19.8426 54.5493
19.888 55.1806
19.9332 56.0562
19.9786 58.167
20.0238 61.3889
20.0692 66.4453
20.1144 69.9199
20.1598 69.2029
20.205 64.033
20.2504 61.9358
20.2957 63.0399
20.3411 65.5608
20.3863 64.9511
20.4318 59.2582
20.477 54.5096
20.5224 52.1556
20.5677 51.4924
20.6131 50.4714
20.6586 49.783
20.7038 49.724
20.7493 49.2012
20.7945 49.0242
20.84 48.9516
20.8853 48.7479
20.9307 48.572
20.976 48.6554
21.0215 48.6999
21.0668 49.1578
21.1122 49.5591
21.1575 49.972
21.203 50.8294
21.2483 51.4742
21.2938 51.7702
21.3391 50.2217
21.3846 49.141
21.4299 48.6707
21.4754 48.3863
21.5207 48.6706
21.5662 48.7666
21.6116 49.085
21.6571 49.8116
21.7024 50.613
21.7479 52.2623
21.7933 54.8788
21.8388 58.018
21.8843 61.9912
21.9297 64.6312
21.9752 64.3848
22.0206 60.5718
22.0661 56.8801
22.1115 56.0875
22.157 56.2316
22.2024 54.8768
22.248 51.8859
22.2933 50.3313
22.3389 49.3453
22.3843 49.1436
22.4299 49.2712
22.4753 49.1832
22.5208 48.81
22.5662 48.7096
22.6118 48.5564
22.6572 48.695
22.7028 49.3898
22.7483 49.6799
22.7939 50.1798
22.8393 51.5398
22.8849 53.5964
22.9303 55.7457
22.9759 57.7368
23.0214 58.0493
23.067 55.6676
23.1126 51.7483
23.1581 49.5662
23.2037 48.975
23.2492 48.9369
23.2948 48.8199
23.3403 49.1816
23.3859 49.5318
23.4314 50.6469
23.477 52.1089
23.5225 54.2389
23.5682 56.6292
23.6137 58.3309
23.6593 56.7159
23.7048 52.5532
23.7505 48.7421
23.796 46.9629
23.8417 46.1897
23.8872 45.6743
23.9329 45.3113
23.9784 44.8532
24.0241 44.8353
24.0697 44.7115
24.1154 44.297
24.1609 44.2904
24.2066 44.0552
24.2522 43.8443
24.2979 43.4291
24.3434 43.4231
24.3892 43.3039
24.4349 43.2719
24.4805 42.9913
24.5262 43.1019
24.5718 43.0787
24.6175 43.1616
24.6631 42.7993
24.7089 42.7182
24.7545 42.5467
24.8002 42.351
24.8458 42.3829
24.8916 41.9501
24.9372 42.1353
24.983 42.4196
25.0286 42.7834
25.0744 43.2118
25.12 43.6618
25.1658 44.2798
25.2114 44.6376
25.2572 44.7804
25.3029 44.8389
25.3487 45.1661
25.3943 44.7741
25.4402 44.1427
25.4858 42.9831
25.5316 41.8427
25.5773 41.0928
25.6231 41.0396
25.669 40.5421
25.7147 40.6633
25.7605 40.5896
25.8062 40.5828
25.8521 40.7151
25.8977 40.8604
25.9436 41.0249
25.9893 40.9667
26.0352 41.3663
26.0809 41.6893
26.1268 41.9847
26.1725 41.6536
26.2184 41.0239
26.2641 40.48
26.31 40.1182
26.3557 40.2918
26.4017 40.1755
26.4474 40.3313
26.4933 40.7298
26.5391 41.2697
26.585 41.6072
26.6308 42.0387
26.6767 42.2923
26.7225 42.3639
26.7684 41.6628
26.8142 41.011
26.8601 40.6555
26.9059 40.1726
26.9519 39.7317
26.9979 39.3831
27.0437 39.0002
27.0896 38.8641
27.1354 38.8626
27.1814 38.7452
27.2272 38.6817
27.2732 38.5987
27.3191 38.398
27.3651 38.501
27.4109 38.4709
27.4569 38.4931
27.5027 38.5912
27.5488 38.6001
27.5946 38.4932
27.6407 38.2926
27.6865 38.2512
27.7326 37.9348
27.7784 37.9223
27.8245 37.7364
27.8703 37.9571
27.9164 38.3574
27.9623 38.3554
28.0084 38.7469
28.0543 39.2134
28.1003 39.1877
28.1462 39.1024
28.1923 38.7495
28.2384 38.1127
28.2843 38.0247
28.3304 37.3636
28.3764 36.8462
28.4225 36.5586
28.4684 36.4505
28.5145 36.0506
28.5605 35.992
28.6066 35.8284
28.6526 35.834
28.6987 35.6455
28.7447 35.6503
28.7908 35.5669
28.8368 35.6871
28.8829 35.6027
28.9289 35.4573
28.9751 35.3417
29.0211 35.0456
29.0673 34.8602
29.1133 34.7761
29.1595 34.534
29.2055 34.4249
29.2517 34.5293
29.2977 34.4073
29.3439 34.3178
29.3899 34.3978
29.4361 34.2147
29.4824 34.1286
29.5284 33.8346
29.5746 33.6014
29.6207 33.3671
29.6669 33.1776
29.713 33.0427
29.7593 33.148
29.8053 33.0362
29.8516 32.9495
29.8977 32.8802
29.9439 32.6748
29.99 32.6689
30.0363 32.5408
30.0824 32.6594
30.1287 32.6004
30.1748 32.523
30.2211 32.5282
30.2673 32.4824
30.3136 32.4661
30.3597 32.3512
30.406 32.3798
30.4522 32.2344
30.4985 32.1122
30.5447 32.1509
30.591 32.231
30.6372 32.2682
30.6835 32.2188
30.7297 32.3829
30.7761 32.2856
30.8224 32.1708
30.8686 31.9844
30.915 31.7064
30.9612 31.5745
31.0076 31.403
31.0538 31.338
31.1002 31.165
31.1464 31.051
31.1928 31.0774
31.2391 31.017
31.2855 30.9512
31.3317 30.8814
31.3781 30.9865
31.4244 30.9507
31.4708 30.9442
31.5171 30.8208
31.5636 30.965
31.6098 30.6738
31.6563 30.3574
31.7026 30.3816
31.7491 30.1566
31.7953 30.338
31.8418 30.1773
31.8881 30.2267
31.9346 30.089
31.9809 30.1808
32.0275 30.0514
32.074 29.9964
32.1203 29.7158
32.1668 29.7359
32.2132 29.5268
32.2597 29.3718
32.306 29.2371
32.3526 29.0619
32.399 29.0273
32.4455 28.8654
32.4919 28.8566
32.5385 28.8187
32.5848 28.4691
32.6314 28.6462
32.6778 28.5191
32.7244 28.4405
32.7708 28.2252
32.8174 28.2982
32.8638 28.168
32.9104 28.1778
32.9569 28.0638
33.0035 27.9284
33.0499 28.0015
33.0966 27.8799
33.143 27.8034
33.1897 27.8314
33.2361 27.7721
33.2828 27.6832
33.3293 27.4535
33.3759 27.4476
33.4226 27.4216
33.4691 27.2959
33.5158 27.1974
33.5623 27.0143
33.609 26.8601
33.6555 26.7897
33.7022 26.6788
33.7487 26.6196
33.7954 26.6002
33.842 26.5331
33.8887 26.3707
33.9353 26.4137
33.982 26.286
34.0286 26.149
34.0753 26.0793
34.1219 25.9941
34.1687 25.9395
34.2152 25.9083
34.262 25.658
34.3086 25.6197
34.3554 25.6927
34.402 25.5756
34.4488 25.4266
34.4954 25.3256
34.5422 25.2426
34.5889 25.2588
34.6357 25.1322
34.6825 24.9897
34.7292 24.9477
34.776 24.8153
34.8227 24.7857
34.8695 24.68
34.9162 24.642
34.9631 24.6513
35.0098 24.5183
35.0566 24.454
35.1033 24.4443
35.1502 24.4709
35.1969 24.3327
35.2438 24.3087
35.2906 24.1951
35.3375 24.1593
35.3842 24.1889
35.4311 24.073
35.4779 24.0118
35.5248 24.0191
35.5716 23.9308
35.6185 23.8807
35.6653 23.7764
35.7123 23.6851
35.759 23.6151
35.806 23.4911
35.8528 23.3984
35.8998 23.3285
35.9468 23.2581
35.9936 23.208
36.0406 23.2086
36.0874 23.1177
36.1345 23.0125
36.1813 22.9203
36.2283 22.8104
36.2752 22.7564
36.3222 22.7954
36.3691 22.7287
36.4161 22.5409
36.463 22.5197
36.5101 22.5407
36.557 22.5026
36.6041 22.3295
36.651 22.2913
36.6981 22.3017
36.745 22.1937
36.7921 22.0556
36.839 21.9501
36.8861 21.9328
36.9331 21.8423
36.9802 21.7189
37.0272 21.7083
37.0743 21.5761
37.1213 21.5475
37.1684 21.5033
37.2154 21.3454
37.2626 21.3534
37.3098 21.3193
37.3568 21.2985
37.404 21.2024
37.451 21.0438
37.4982 21.0758
37.5452 20.971
37.5924 20.8825
37.6395 20.9619
37.6867 20.7694
37.7337 20.7194
37.781 20.5829
37.8281 20.5337
37.8753 20.5001
37.9224 20.3942
37.9697 20.3768
38.0168 20.3623
38.064 20.1681
38.1111 20.1665
38.1584 20.0758
38.2056 20.0464
38.2529 19.9891
38.3 19.8816
38.3473 19.8575
38.3945 19.7915
38.4418 19.7352
38.489 19.6679
38.5363 19.5739
38.5837 19.5151
38.6309 19.5018
38.6782 19.4216
38.7254 19.308
38.7728 19.3289
38.82 19.1953
38.8674 19.2311
38.9146 19.1478
38.9621 18.9582
39.0093 18.989
39.0567 18.9527
39.104 18.8831
39.1514 18.7865
39.1987 18.7936
39.2461 18.722
39.2934 18.6281
39.3409 18.5418
39.3882 18.4733
39.4356 18.4698
39.483 18.3413
39.5304 18.3131
39.5778 18.3075
39.6253 18.2194
39.6726 18.1556
39.7201 18.1138
39.7675 18.0629
39.815 18.0144
39.8624 17.9395
39.9099 17.908
39.9575 17.7801
40.0049 17.7585
40.0525 17.7105
40.0999 17.6798
40.1474 17.6337
40.1949 17.5207
40.2425 17.4884
40.2899 17.4392
40.3375 17.3729
40.385 17.2762
40.4326 17.212
40.48 17.1347
40.5277 17.1373
40.5752 17.1311
40.6228 17.021
40.6703 16.9814
40.718 16.9462
40.7655 16.9043
40.8132 16.8236
40.8607 16.8201
40.9084 16.7548
40.9559 16.7213
41.0036 16.6603
41.0512 16.6296
41.0989 16.5158
41.1465 16.4959
41.1942 16.3656
41.242 16.3017
41.2896 16.275
41.3373 16.2529
41.3849 16.1664
41.4327 16.1614
41.4803 16.0914
41.5281 16.0079
41.5758 15.9727
41.6236 15.9075
41.6712 15.8551
41.7191 15.8145
41.7667 15.7567
41.8146 15.7265
41.8622 15.6451
41.9101 15.5837
41.9578 15.6061
42.0057 15.5217
42.0534 15.4336
42.1013 15.3828
42.149 15.3511
42.1969 15.2509
42.2446 15.277
42.2925 15.2181
42.3403 15.1462
42.3882 15.0886
42.436 15.0574
42.4839 14.9874
42.5319 14.9323
42.5797 14.8766
42.6277 14.8624
42.6755 14.8487
42.7235 14.7067
42.7713 14.7005
42.8193 14.6132
42.8671 14.5475
42.9152 14.5269
42.963 14.4802
43.0111 14.3854
43.0589 14.3984
43.107 14.3396
43.1549 14.3113
43.2029 14.2571
43.2508 14.2063
43.2989 14.1271
43.3468 14.0692
43.3949 14.0003
43.4429 13.9659
43.491 13.9267
43.5389 13.9243
43.5871 13.9005
43.635 13.7924
43.6832 13.8048
43.7312 13.7225
43.7793 13.6076
43.8273 13.6195
43.8755 13.5499
43.9237 13.5202
43.9717 13.4544
44.0199 13.4479
44.068 13.4523
44.1162 13.3367
44.1642 13.3509
44.2125 13.2637
44.2606 13.2178
44.3088 13.132
44.3569 13.0956
44.4052 13.0919
44.4533 12.9706
44.5016 12.9679
44.5497 12.9335
44.598 12.8724
44.6461 12.8502
44.6945 12.764
44.7426 12.7503
44.791 12.6621
44.8391 12.6626
44.8875 12.6211
44.9357 12.6231
44.984 12.5174
45.0322 12.4773
45.0806 12.4519
45.1288 12.4323
45.1773 12.317
45.2257 12.3075
45.2739 12.2886
45.3224 12.2322
45.3706 12.1861
45.4191 12.1269
45.4673 12.0754
45.5158 12.0602
45.5641 12.0148
45.6126 11.9645
45.6609 11.9067
45.7094 11.8541
45.7577 11.8524
45.8063 11.7677
45.8546 11.7629
45.9031 11.6658
45.9515 11.6978
46.0001 11.6104
46.0484 11.6266
46.097 11.552
46.1454 11.5202
46.194 11.4712
46.2424 11.4252
46.291 11.3908
46.3395 11.3137
46.3881 11.291
46.4365 11.2744
46.4852 11.2114
46.5337 11.2035
46.5823 11.1383
46.631 11.0892
46.6795 11.0715
46.7282 11.0286
46.7767 11.0012
46.8254 10.932
46.8739 10.855
46.9226 10.8644
46.9712 10.7831
47.0199 10.7628
47.0685 10.731
47.1173 10.6886
47.1658 10.6648
47.2146 10.6101
47.2632 10.5832
47.312 10.5455
47.3606 10.4956
47.4095 10.4776
47.4581 10.4195
47.5069 10.3695
47.5556 10.3018
47.6044 10.3033
47.6531 10.2312
47.702 10.1714
47.7507 10.2167
47.7996 10.1289
47.8483 10.072
47.8972 10.0539
47.9461 10.0407
47.9948 9.97822
48.0438 9.96167
48.0925 9.94757
48.1415 9.92717
48.1902 9.85618
48.2392 9.87352
48.288 9.76984
48.337 9.77831
48.3858 9.70305
48.4348 9.65077
48.4837 9.66074
48.5327 9.62032
48.5815 9.56256
48.6306 9.59419
48.6795 9.52015
48.7285 9.42283
48.7774 9.42689
48.8265 9.42793
48.8754 9.38908
48.9245 9.33631
48.9734 9.29498
49.0226 9.27273
49.0715 9.21971
49.1206 9.19988
49.1696 9.13778
49.2188 9.16015
49.2679 9.07882
49.3169 9.02662
49.3661 8.97732
49.4151 8.96273
49.4643 8.95336
49.5134 8.87889
49.5626 8.82601
49.6117 8.82481
49.6609 8.7913
49.71 8.74956
49.7592 8.74336
49.8083 8.70523
49.8576 8.70604
49.9067 8.65315
49.956 8.61108
50.0052 8.57593
50.0545 8.56852
50.1036 8.52167
50.153 8.48078
50.2022 8.43213
50.2515 8.43062
50.3007 8.34847
50.3501 8.34728
50.3993 8.33608
50.4487 8.29005
50.498 8.2525
50.5474 8.20979
50.5966 8.18595
50.6461 8.15344
50.6955 8.17072
50.7448 8.12223
50.7943 8.05812
50.8436 8.03209
50.8931 7.9898
50.9424 7.94154
50.9919 7.93917
51.0413 7.92717
51.0908 7.87906
51.1402 7.84356
51.1897 7.78646
51.2391 7.78077
51.2887 7.78072
51.3381 7.73936
51.3877 7.71677
51.4371 7.65894
51.4867 7.6098
51.5362 7.59982
51.5858 7.57133
51.6353 7.52309
51.6849 7.48544
51.7344 7.46224
51.7841 7.44559
51.8336 7.36537
51.8833 7.37758
51.9328 7.30474
51.9826 7.28418
52.0323 7.2509
52.0818 7.25482
52.1316 7.19408
52.1812 7.20543
52.231 7.17084
52.2806 7.10609
52.3304 7.09168
52.38 7.06994
52.4298 7.02959
52.4794 6.99427
52.5293 6.98819
52.5789 6.94065
52.6288 6.9222
52.6785 6.89033
52.7284 6.87322
52.7781 6.85252
52.828 6.78866
52.8777 6.79188
52.9276 6.73355
52.9774 6.71209
53.0273 6.69235
53.0771 6.6772
53.1271 6.6461
53.1769 6.5883
53.2269 6.58565
53.2767 6.55732
53.3267 6.48058
53.3765 6.52927
53.4266 6.4743
53.4766 6.47144
53.5265 6.42117
53.5765 6.3825
53.6264 6.37897
53.6765 6.32976
53.7264 6.30953
53.7765 6.31182
53.8265 6.23788
53.8766 6.24108
53.9266 6.21227
53.9767 6.18209
54.0267 6.11953
54.0769 6.1431
54.1269 6.09707
54.1771 6.07302
54.2271 6.05116
54.2773 6.01793
54.3274 5.95844
54.3776 5.9001
54.4277 5.92287
54.478 5.88436
54.528 5.79397
54.5783 5.81299
54.6285 5.77
54.6788 5.70228
54.7289 5.6646
54.7792 5.63223
54.8296 5.58166
54.8798 5.52301
54.9301 5.52795
54.9803 5.48262
55.0307 5.42804
55.0809 5.38392
55.1314 5.40951
55.1816 5.30659
55.232 5.25743
55.2823 5.23208
55.3328 5.18506
55.383 5.12061
55.4335 5.08645
55.4838 5.03691
55.5344 4.95053
55.5847 4.97129
55.6352 4.93837
55.6856 4.86207
55.7361 4.83602