File: XRD/Ni3Fe_FD0140.xy
TT I
1.27165 8.1847
1.31627 7.28318
1.36089 6.69773
1.40551 6.226
1.45013 6.59831
1.49476 6.77281
1.53938 5.96652
1.584 6.14239
1.62863 5.0626
1.67325 5.57977
1.71787 5.95872
1.7625 5.08846
1.80712 5.21802
1.85174 4.52712
1.89636 5.09347
1.94099 5.33424
1.98562 5.20378
2.03025 4.65538
2.07487 4.46034
2.11949 5.55972
2.16411 4.35109
2.20874 4.56503
2.25338 5.02796
2.298 4.83751
2.34263 4.78867
2.38725 4.69195
2.43188 4.1243
2.4765 4.30287
2.52115 4.56685
2.56577 5.41167
2.6104 5.88384
2.65503 5.47507
2.69965 5.08823
2.7443 5.99709
2.78893 6.56179
2.83356 7.14333
2.87818 7.93987
2.92281 8.86689
2.96744 9.05599
3.01209 10.1596
3.05672 11.1418
3.10135 12.4388
3.14599 13.3742
3.19062 14.2112
3.23527 15.1911
3.2799 16.3342
3.32454 16.6244
3.36917 17.521
3.4138 18.5454
3.45844 19.309
3.50309 19.9683
3.54773 20.9195
3.59237 22.102
3.637 22.4821
3.68164 23.3083
3.7263 24.52
3.77094 24.5144
3.81558 26.0945
3.86022 26.2986
3.90486 27.8871
3.9495 28.6934
3.99416 29.538
4.0388 30.887
4.08344 31.8352
4.12809 32.5013
4.17273 34.1515
4.21738 34.9414
4.26204 35.8651
4.30669 37.5007
4.35133 39.8246
4.39598 41.1914
4.44063 43.061
4.4853 44.5686
4.52995 47.4891
4.5746 48.8804
4.61925 51.3826
4.6639 53.4434
4.70855 56.4826
4.75322 59.2837
4.79788 62.3841
4.84253 65.9083
4.88719 69.9091
4.93184 74.5364
4.97652 82.0516
5.02118 90.8112
5.06583 101.197
5.11049 117.347
5.15515 155.309
5.19981 555.329
5.24449 3758.78
5.28916 8076.89
5.33382 6367.31
5.37848 476.347
5.42315 164.798
5.46783 127.835
5.5125 113.828
5.55716 107.602
5.60183 100.999
5.6465 98.3503
5.69117 97.5353
5.73586 94.9771
5.78053 95.1208
5.8252 94.9951
5.86988 98.4248
5.91455 105.07
5.95924 124.532
6.00392 290.302
6.0486 1381.28
6.09328 2647.06
6.13795 4059.91
6.18263 741.567
6.22733 124.638
6.27201 89.184
6.3167 78.2487
6.36138 72.3638
6.40606 68.3003
6.45075 66.1397
6.49545 64.0468
6.54014 61.6792
6.58483 60.5802
6.62952 59.353
6.67421 58.108
6.71892 56.9236
6.76361 56.1647
6.8083 55.3327
6.853 54.8133
6.89769 54.4361
6.94239 53.9258
6.98711 53.2152
7.03181 52.5166
7.07651 52.8445
7.12121 52.1873
7.16591 51.9278
7.21063 51.8946
7.25533 51.7373
7.30004 51.5198
7.34475 51.7433
7.38945 52.2942
7.43416 51.6342
7.47889 51.9077
7.5236 56.0001
7.56831 63.8712
7.61303 55.3678
7.65774 53.262
7.70247 53.7068
7.74719 53.8396
7.79191 54.4241
7.83663 54.6398
7.88135 55.725
7.92607 56.717
7.97081 57.7611
8.01553 58.621
8.06026 60.2883
8.10498 61.4158
8.14971 63.3011
8.19446 65.011
8.23919 67.2933
8.28392 70.4315
8.32865 72.7857
8.37339 77.7772
8.41812 83.0836
8.46288 95.1905
8.50761 172.104
8.55235 604.598
8.59709 865.113
8.64183 1442.98
8.68658 1681.5
8.73134 449.304
8.77609 118.136
8.82083 97.105
8.86558 90.6799
8.91033 87.2307
8.9551 84.6211
8.99985 83.57
9.04461 82.8035
9.08936 81.9966
9.13412 81.1379
9.17888 81.1147
9.22365 86.7776
9.26841 99.009
9.31318 86.5855
9.35794 81.9698
9.4027 81.7872
9.44749 82.4129
9.49226 82.8075
9.53703 84.0015
9.5818 85.3827
9.62657 86.7366
9.67134 87.9972
9.71614 89.9795
9.76091 92.0664
9.80569 94.7406
9.85047 98.3213
9.89525 103.218
9.94005 113.465
9.98484 184.032
10.0296 547.143
10.0744 728.36
10.1192 992.261
10.164 1627.69
10.2088 1027.65
10.2536 225.61
10.2984 116.615
10.3432 107.761
10.388 103.971
10.4328 120.281
10.4776 214.857
10.5224 259.932
10.5672 321.535
10.612 485.052
10.6568 386.781
10.7017 136.934
10.7465 90.919
10.7913 83.1393
10.8361 80.2306
10.8809 77.6835
10.9257 75.1832
10.9706 74.1355
11.0154 72.4249
11.0602 70.8224
11.105 69.7512
11.1499 68.0252
11.1947 67.3566
11.2395 66.2064
11.2844 65.6592
11.3292 65.0041
11.374 64.2125
11.4189 63.6306
11.4637 62.9369
11.5086 62.3584
11.5534 62.1182
11.5983 61.7603
11.6431 61.8164
11.688 61.1144
11.7328 61.4831
11.7777 60.8101
11.8225 60.7669
11.8674 60.9541
11.9122 61.9604
11.9571 65.5877
12.002 65.5529
12.0468 67.5368
12.0917 90.1945
12.1366 107.158
12.1814 115.657
12.2263 147.224
12.2712 192.417
12.3161 143.663
12.3609 75.5664
12.4058 63.6775
12.4507 63.1682
12.4956 62.7943
12.5405 62.7257
12.5853 63.1177
12.6302 63.2866
12.6751 63.9674
12.72 64.8501
12.7649 65.6727
12.8098 66.5931
12.8547 67.7252
12.8996 69.003
12.9445 70.7476
12.9894 72.6022
13.0343 74.5657
13.0792 78.7927
13.1242 85.8499
13.1691 132.267
13.214 187.188
13.2589 201.78
13.3038 238.565
13.3487 341.57
13.3937 386.077
13.4386 219.43
13.4835 120.797
13.5285 154.534
13.5734 182.315
13.6183 189.454
13.6633 231.097
13.7082 324.292
13.7531 309.086
13.7981 157.465
13.843 88.4793
13.888 80.6863
13.9329 76.8903
13.9779 75.4419
14.0228 73.7471
14.0678 72.5862
14.1127 72.1738
14.1577 74.0797
14.2027 72.3451
14.2476 70.1754
14.2926 68.913
14.3376 68.4304
14.3825 68.3681
14.4275 68.094
14.4725 67.4627
14.5175 67.9489
14.5624 67.8811
14.6074 68.2738
14.6524 68.899
14.6974 69.3457
14.7424 70.9371
14.7874 80.1692
14.8324 107.044
14.8774 120.816
14.9224 125.015
14.9674 144.527
15.0124 187.052
15.0574 204.833
15.1024 140.687
15.1474 82.3464
15.1924 71.0777
15.2374 68.6065
15.2824 67.5059
15.3274 66.6559
15.3725 66.0776
15.4175 65.5333
15.4625 65.571
15.5076 65.1533
15.5526 65.0594
15.5976 65.2965
15.6426 66.0975
15.6877 73.1981
15.7327 95.0097
15.7778 107.397
15.8228 109.284
15.8679 121.712
15.9129 150.582
15.958 184.456
16.003 155.122
16.0481 90.6927
16.0931 66.6827
16.1382 61.5561
16.1833 60.0665
16.2283 58.448
16.2734 57.8204
16.3185 56.9108
16.3636 56.2557
16.4086 55.7411
16.4537 55.2382
16.4988 54.7979
16.5439 54.5462
16.589 54.3703
16.6341 54.1299
16.6792 53.6744
16.7243 53.8513
16.7694 53.8265
16.8145 53.7405
16.8596 54.0571
16.9047 54.335
16.9498 54.585
16.9949 54.6525
17.04 54.9462
17.0851 56.376
17.1302 60.5861
17.1754 64.0132
17.2205 64.612
17.2656 66.279
17.3108 71.3516
17.3559 78.198
17.401 81.0679
17.4462 71.5853
17.4913 61.6034
17.5365 58.9695
17.5815 58.7558
17.6268 58.9328
17.6718 59.4416
17.7171 59.8173
17.7622 60.9897
17.8074 61.8757
17.8525 63.4882
17.8977 71.6016
17.9428 83.6867
17.9881 88.0903
18.0331 90.2539
18.0784 96.4703
18.1237 112.45
18.1688 138.889
18.214 143.444
18.2591 112.588
18.3044 88.1069
18.3495 85.5914
18.3948 94.0549
18.4399 102.53
18.4852 96.0643
18.5303 76.9031
18.5756 64.6884
18.6207 61.9654
18.666 60.5898
18.7112 59.6712
18.7565 58.7878
18.8016 58.7091
18.8469 58.0693
18.892 57.5711
18.9374 56.9577
18.9825 56.7751
19.0278 56.5034
19.073 56.2856
19.1183 56.857
19.1635 59.4613
19.2088 61.6641
19.254 62.049
19.2993 62.5983
19.3447 64.8021
19.3898 68.4394
19.4352 73.4077
19.4804 72.5765
19.5257 64.3777
19.5709 56.4468
19.6163 54.0116
19.6615 53.5222
19.7068 53.1701
19.752 52.9182
19.7974 53.2409
19.8426 54.4035
19.888 56.503
19.9332 57.9035
19.9786 58.5256
20.0238 58.7101
20.0692 61.2643
20.1144 66.3179
20.1598 71.9771
20.205 71.0717
20.2504 65.1725
20.2957 60.795
20.3411 61.0093
20.3863 64.1672
20.4318 64.5579
20.477 59.4055
20.5224 53.3452
20.5677 50.8385
20.6131 50.0067
20.6586 49.6896
20.7038 49.3326
20.7493 49.0443
20.7945 48.935
20.84 48.8903
20.8853 48.5621
20.9307 48.3916
20.976 48.4172
21.0215 48.8051
21.0668 49.1426
21.1122 49.5178
21.1575 49.2879
21.203 49.3869
21.2483 49.8849
21.2938 51.1672
21.3391 51.2324
21.3846 50.3563
21.4299 49.3088
21.4754 48.243
21.5207 48.604
21.5662 48.5492
21.6116 49.2439
21.6571 51.0998
21.7024 52.9288
21.7479 53.8897
21.7933 54.2296
21.8388 55.3195
21.8843 58.0918
21.9297 61.5296
21.9752 65.3971
22.0206 65.563
22.0661 60.8904
22.1115 56.2928
22.157 55.3226
22.2024 56.1163
22.248 55.2028
22.2933 52.5252
22.3389 49.8631
22.3843 49.0928
22.4299 48.5734
22.4753 48.7106
22.5208 48.4968
22.5662 48.3947
22.6118 48.6077
22.6572 48.8643
22.7028 50.0104
22.7483 51.1731
22.7939 51.7318
22.8393 51.9283
22.8849 52.2903
22.9303 53.064
22.9759 54.6403
23.0214 56.6869
23.067 58.2461
23.1126 56.0692
23.1581 52.2623
23.2037 49.829
23.2492 49.1512
23.2948 49.545
23.3403 50.8317
23.3859 51.7313
23.4314 51.4041
23.477 51.4926
23.5225 52.0914
23.5682 53.0957
23.6137 55.4474
23.6593 57.3891
23.7048 57.1247
23.7505 53.2911
23.796 49.1306
23.8417 46.8536
23.8872 45.9062
23.9329 45.3549
23.9784 45.0169
24.0241 44.8157
24.0697 44.4863
24.1154 44.1445
24.1609 44.0182
24.2066 43.831
24.2522 43.6026
24.2979 43.3931
24.3434 43.1847
24.3892 43.225
24.4349 43.0407
24.4805 42.8125
24.5262 42.969
24.5718 42.7004
24.6175 42.8518
24.6631 43.1104
24.7089 42.7994
24.7545 42.5373
24.8002 42.3154
24.8458 42.2955
24.8916 42.2837
24.9372 42.4732
24.983 42.8495
25.0286 42.8744
25.0744 43.4536
25.12 43.6931
25.1658 44.0987
25.2114 44.4423
25.2572 44.761
25.3029 44.7547
25.3487 44.6184
25.3943 44.6597
25.4402 44.8237
25.4858 44.4849
25.5316 43.0467
25.5773 41.6905
25.6231 41.1756
25.669 40.8026
25.7147 40.6129
25.7605 40.658
25.8062 40.8607
25.8521 41.0059
25.8977 40.9797
25.9436 40.73
25.9893 40.7854
26.0352 40.984
26.0809 40.9798
26.1268 41.4815
26.1725 41.8747
26.2184 41.8887
26.2641 41.4739
26.31 40.8331
26.3557 40.7272
26.4017 40.697
26.4474 40.6887
26.4933 40.7279
26.5391 41.0749
26.585 41.2258
26.6308 41.4503
26.6767 41.8386
26.7225 42.5474
26.7684 42.4629
26.8142 41.9745
26.8601 41.2655
26.9059 40.707
26.9519 40.2403
26.9979 39.9899
27.0437 39.4577
27.0896 39.0151
27.1354 38.9227
27.1814 38.8838
27.2272 38.7645
27.2732 38.773
27.3191 38.5914
27.3651 38.6321
27.4109 38.5227
27.4569 38.4542
27.5027 38.5011
27.5488 38.6531
27.5946 38.606
27.6407 38.6675
27.6865 38.6005
27.7326 38.4911
27.7784 38.3729
27.8245 38.3185
27.8703 38.1093
27.9164 38.5294
27.9623 38.3713
28.0084 38.4865
28.0543 38.8948
28.1003 39.0743
28.1462 39.2239
28.1923 39.1659
28.2384 38.6953
28.2843 38.2752
28.3304 37.8979
28.3764 37.4894
28.4225 37.0986
28.4684 36.6597
28.5145 36.2232
28.5605 36.0081
28.6066 35.8216
28.6526 35.9453
28.6987 35.773
28.7447 35.6102
28.7908 35.4469
28.8368 35.5585
28.8829 35.4355
28.9289 35.3704
28.9751 35.2916
29.0211 35.198
29.0673 34.9592
29.1133 34.9312
29.1595 34.7086
29.2055 34.4418
29.2517 34.4503
29.2977 34.3455
29.3439 34.1931
29.3899 34.2047
29.4361 34.2555
29.4824 34.1701
29.5284 34.0919
29.5746 33.6756
29.6207 33.4931
29.6669 33.2143
29.713 33.0736
29.7593 32.9472
29.8053 32.9435
29.8516 32.8745
29.8977 32.9138
29.9439 32.662
29.99 32.6581
30.0363 32.5697
30.0824 32.4676
30.1287 32.3628
30.1748 32.4019
30.2211 32.4712
30.2673 32.1895
30.3136 32.4661
30.3597 32.5103
30.406 32.4379
30.4522 32.281
30.4985 32.2881
30.5447 32.3123
30.591 32.1653
30.6372 32.1561
30.6835 32.0679
30.7297 32.1822
30.7761 32.1825
30.8224 32.3206
30.8686 32.2259
30.915 31.9159
30.9612 31.9364
31.0076 31.6729
31.0538 31.4027
31.1002 31.279
31.1464 31.1754
31.1928 31.0791
31.2391 31.1647
31.2855 31.0599
31.3317 30.9212
31.3781 30.9604
31.4244 31.0154
31.4708 30.8505
31.5171 30.9002
31.5636 30.9389
31.6098 30.9395
31.6563 30.7405
31.7026 30.6378
31.7491 30.4169
31.7953 30.3738
31.8418 30.2086
31.8881 30.2848
31.9346 30.1567
31.9809 30.048
32.0275 30.0422
32.074 30.0611
32.1203 29.8556
32.1668 29.8436
32.2132 29.5914
32.2597 29.3677
32.306 29.3646
32.3526 29.0905
32.399 29.0688
32.4455 28.8816
32.4919 28.817
32.5385 28.7715
32.5848 28.6333
32.6314 28.6437
32.6778 28.6252
32.7244 28.4353
32.7708 28.2261
32.8174 28.2792
32.8638 28.126
32.9104 28.2373
32.9569 28.1056
33.0035 27.9945
33.0499 27.9456
33.0966 27.8316
33.143 27.7641
33.1897 27.8125
33.2361 27.7674
33.2828 27.7579
33.3293 27.5661
33.3759 27.5217
33.4226 27.384
33.4691 27.2914
33.5158 27.2343
33.5623 27.0954
33.609 26.8327
33.6555 26.7393
33.7022 26.669
33.7487 26.6626
33.7954 26.6019
33.842 26.4752
33.8887 26.4856
33.9353 26.4031
33.982 26.2819
34.0286 26.2219
34.0753 26.0964
34.1219 26.1005
34.1687 25.9328
34.2152 25.8257
34.262 25.7527
34.3086 25.5642
34.3554 25.6648
34.402 25.5448
34.4488 25.3457
34.4954 25.3201
34.5422 25.3004
34.5889 25.126
34.6357 25.0788
34.6825 24.9755
34.7292 24.9294
34.776 24.8444
34.8227 24.7268
34.8695 24.7304
34.9162 24.6396
34.9631 24.5564
35.0098 24.5744
35.0566 24.3711
35.1033 24.4213
35.1502 24.3227
35.1969 24.2939
35.2438 24.2365
35.2906 24.1397
35.3375 24.1232
35.3842 24.0554
35.4311 24.0063
35.4779 24.0472
35.5248 23.9218
35.5716 23.8916
35.6185 23.7974
35.6653 23.7521
35.7123 23.6862
35.759 23.6374
35.806 23.4398
35.8528 23.369
35.8998 23.2827
35.9468 23.1967
35.9936 23.1169
36.0406 23.1481
36.0874 23.0182
36.1345 23.0541
36.1813 22.9153
36.2283 22.8436
36.2752 22.8207
36.3222 22.7008
36.3691 22.6794
36.4161 22.4828
36.463 22.4912
36.5101 22.565
36.557 22.4262
36.6041 22.2733
36.651 22.2544
36.6981 22.2482
36.745 22.1552
36.7921 22.0797
36.839 21.9201
36.8861 21.8849
36.9331 21.8575
36.9802 21.7663
37.0272 21.7378
37.0743 21.5306
37.1213 21.5196
37.1684 21.4617
37.2154 21.5118
37.2626 21.3621
37.3098 21.3298
37.3568 21.2206
37.404 21.163
37.451 21.102
37.4982 20.9806
37.5452 20.9283
37.5924 20.9043
37.6395 20.9474
37.6867 20.7825
37.7337 20.7166
37.781 20.6393
37.8281 20.647
37.8753 20.4997
37.9224 20.4188
37.9697 20.3275
38.0168 20.33
38.064 20.2024
38.1111 20.152
38.1584 20.1194
38.2056 20.0089
38.2529 19.99
38.3 19.8557
38.3473 19.8823
38.3945 19.744
38.4418 19.8246
38.489 19.683
38.5363 19.6026
38.5837 19.4931
38.6309 19.452
38.6782 19.4562
38.7254 19.276
38.7728 19.2597
38.82 19.2541
38.8674 19.1795
38.9146 19.1178
38.9621 19.0453
39.0093 18.9598
39.0567 18.9155
39.104 18.8542
39.1514 18.7051
39.1987 18.7032
39.2461 18.6971
39.2934 18.6893
39.3409 18.5865
39.3882 18.5003
39.4356 18.447
39.483 18.3388
39.5304 18.3255
39.5778 18.2872
39.6253 18.2309
39.6726 18.1175
39.7201 18.0733
39.7675 18.0519
39.815 17.9259
39.8624 17.9244
39.9099 17.9438
39.9575 17.783
40.0049 17.7406
40.0525 17.6823
40.0999 17.6831
40.1474 17.5927
40.1949 17.526
40.2425 17.5163
40.2899 17.3762
40.3375 17.3196
40.385 17.2915
40.4326 17.2326
40.48 17.1325
40.5277 17.1386
40.5752 17.0906
40.6228 16.9505
40.6703 17.0017
40.718 16.9563
40.7655 16.8875
40.8132 16.7508
40.8607 16.8093
40.9084 16.726
40.9559 16.6441
41.0036 16.6269
41.0512 16.5855
41.0989 16.4925
41.1465 16.4643
41.1942 16.4359
41.242 16.357
41.2896 16.2596
41.3373 16.1762
41.3849 16.2418
41.4327 16.1467
41.4803 16.049
41.5281 15.9704
41.5758 15.9391
41.6236 15.8864
41.6712 15.8062
41.7191 15.8624
41.7667 15.7657
41.8146 15.7621
41.8622 15.6377
41.9101 15.5921
41.9578 15.4677
42.0057 15.4907
42.0534 15.4261
42.1013 15.3511
42.149 15.3008
42.1969 15.2241
42.2446 15.1977
42.2925 15.143
42.3403 15.1292
42.3882 15.0764
42.436 15.0581
42.4839 14.9867
42.5319 14.9246
42.5797 14.8723
42.6277 14.8307
42.6755 14.7794
42.7235 14.7121
42.7713 14.6863
42.8193 14.6012
42.8671 14.5687
42.9152 14.4971
42.963 14.4833
43.0111 14.3889
43.0589 14.3577
43.107 14.2796
43.1549 14.2742
43.2029 14.2295
43.2508 14.2108
43.2989 14.1068
43.3468 14.0761
43.3949 14.0371
43.4429 14.023
43.491 13.9165
43.5389 13.8931
43.5871 13.8193
43.635 13.7605
43.6832 13.7279
43.7312 13.6961
43.7793 13.6678
43.8273 13.6208
43.8755 13.5097
43.9237 13.4877
43.9717 13.4529
44.0199 13.4156
44.068 13.3947
44.1162 13.3396
44.1642 13.2897
44.2125 13.2505
44.2606 13.1974
44.3088 13.1335
44.3569 13.0476
44.4052 13.0335
44.4533 13.0158
44.5016 12.9562
44.5497 12.911
44.598 12.8178
44.6461 12.8113
44.6945 12.7262
44.7426 12.7366
44.791 12.7047
44.8391 12.6318
44.8875 12.5844
44.9357 12.5677
44.984 12.4975
45.0322 12.4429
45.0806 12.4571
45.1288 12.3574
45.1773 12.3075
45.2257 12.2684
45.2739 12.2452
45.3224 12.2004
45.3706 12.1481
45.4191 12.0448
45.4673 12.0969
45.5158 12.0487
45.5641 11.9577
45.6126 11.9662
45.6609 11.8823
45.7094 11.8189
45.7577 11.8193
45.8063 11.7189
45.8546 11.7358
45.9031 11.6453
45.9515 11.6437
46.0001 11.6024
46.0484 11.5398
46.097 11.5293
46.1454 11.477
46.194 11.4555
46.2424 11.3941
46.291 11.332
46.3395 11.3132
46.3881 11.241
46.4365 11.2416
46.4852 11.2038
46.5337 11.1288
46.5823 11.1276
46.631 11.0564
46.6795 11.0049
46.7282 11.0112
46.7767 10.9357
46.8254 10.8686
46.8739 10.8954
46.9226 10.7672
46.9712 10.7944
47.0199 10.7656
47.0685 10.6587
47.1173 10.653
47.1658 10.5737
47.2146 10.5927
47.2632 10.5353
47.312 10.4855
47.3606 10.4581
47.4095 10.4421
47.4581 10.3939
47.5069 10.3228
47.5556 10.3051
47.6044 10.2344
47.6531 10.2077
47.702 10.1884
47.7507 10.185
47.7996 10.1017
47.8483 10.0805
47.8972 10.0595
47.9461 10.0041
47.9948 9.98691
48.0438 9.96993
48.0925 9.92532
48.1415 9.86534
48.1902 9.83491
48.2392 9.79898
48.288 9.73369
48.337 9.76457
48.3858 9.71681
48.4348 9.68368
48.4837 9.6533
48.5327 9.60653
48.5815 9.56348
48.6306 9.55274
48.6795 9.47619
48.7285 9.43886
48.7774 9.42537
48.8265 9.40428
48.8754 9.34757
48.9245 9.31266
48.9734 9.29026
49.0226 9.27549
49.0715 9.20635
49.1206 9.21006
49.1696 9.15317
49.2188 9.11575
49.2679 9.08611
49.3169 9.02229
49.3661 8.95464
49.4151 8.93705
49.4643 8.90975
49.5134 8.91186
49.5626 8.81734
49.6117 8.83122
49.6609 8.80441
49.71 8.75116
49.7592 8.74824
49.8083 8.69498
49.8576 8.66153
49.9067 8.63105
49.956 8.65179
50.0052 8.56741
50.0545 8.54355
50.1036 8.46752
50.153 8.46193
50.2022 8.4511
50.2515 8.39919
50.3007 8.31849
50.3501 8.34556
50.3993 8.29181
50.4487 8.23423
50.498 8.22557
50.5474 8.20998
50.5966 8.17755
50.6461 8.16175
50.6955 8.09634
50.7448 8.10957
50.7943 8.04053
50.8436 8.03674
50.8931 7.98023
50.9424 7.9709
50.9919 7.91868
51.0413 7.89174
51.0908 7.8685
51.1402 7.84831
51.1897 7.80241
51.2391 7.77726
51.2887 7.73795
51.3381 7.69971
51.3877 7.6705
51.4371 7.62994
51.4867 7.62337
51.5362 7.57659
51.5858 7.56096
51.6353 7.49805
51.6849 7.46239
51.7344 7.46771
51.7841 7.43899
51.8336 7.3738
51.8833 7.35679
51.9328 7.33376
51.9826 7.30372
52.0323 7.29161
52.0818 7.2125
52.1316 7.2555
52.1812 7.22559
52.231 7.15975
52.2806 7.13113
52.3304 7.09982
52.38 7.03254
52.4298 7.05557
52.4794 7.00129
52.5293 6.96396
52.5789 6.94901
52.6288 6.93365
52.6785 6.90246
52.7284 6.85945
52.7781 6.85077
52.828 6.7986
52.8777 6.74719
52.9276 6.73735
52.9774 6.71724
53.0273 6.70147
53.0771 6.66419
53.1271 6.67626
53.1769 6.5815
53.2269 6.61734
53.2767 6.55385
53.3267 6.56606
53.3765 6.5109
53.4266 6.46647
53.4766 6.42111
53.5265 6.41218
53.5765 6.38037
53.6264 6.39186
53.6765 6.35416
53.7264 6.2961
53.7765 6.28106
53.8265 6.27609
53.8766 6.21792
53.9266 6.18368
53.9767 6.15842
54.0267 6.10496
54.0769 6.08305
54.1269 6.03711
54.1771 6.03937
54.2271 6.02413
54.2773 5.91276
54.3274 5.91558
54.3776 5.85424
54.4277 5.8775
54.478 5.81838
54.528 5.75799
54.5783 5.72331
54.6285 5.64918
54.6788 5.63155
54.7289 5.61548
54.7792 5.5291
54.8296 5.52736
54.8798 5.45598
54.9301 5.45433
54.9803 5.40454
55.0307 5.35659
55.0809 5.32213
55.1314 5.30229
55.1816 5.1808
55.232 5.16424
55.2823 5.12229
55.3328 5.01584
55.383 5.00709
55.4335 4.96891
55.4838 4.87293
55.5344 4.89329
55.5847 4.81804
55.6352 4.79428
55.6856 4.70944
55.7361 4.71893