File: XRD/Ni3Fe_FD0071.xy
TT I
1.27165 24.7053
1.31627 22.4099
1.36089 22.1074
1.40551 19.3436
1.45013 19.6052
1.49476 18.7809
1.53938 18.0764
1.584 17.0065
1.62863 16.3777
1.67325 15.4556
1.71787 15.0554
1.7625 14.7996
1.80712 14.9652
1.85174 14.2899
1.89636 14.4298
1.94099 14.784
1.98562 14.5549
2.03025 14.0506
2.07487 14.2592
2.11949 14.391
2.16411 13.97
2.20874 14.4329
2.25338 13.4322
2.298 14.1774
2.34263 14.3017
2.38725 14.4545
2.43188 14.455
2.4765 15.4167
2.52115 14.6557
2.56577 15.4015
2.6104 16.0452
2.65503 15.8122
2.69965 17.9053
2.7443 18.48
2.78893 19.4572
2.83356 21.5348
2.87818 23.6085
2.92281 26.9984
2.96744 30.8871
3.01209 35.8316
3.05672 40.5477
3.10135 45.0966
3.14599 45.8184
3.19062 43.4822
3.23527 39.2535
3.2799 34.1602
3.32454 29.61
3.36917 26.413
3.4138 24.9739
3.45844 23.7435
3.50309 22.7987
3.54773 22.4596
3.59237 22.6562
3.637 22.2465
3.68164 22.4509
3.7263 22.9308
3.77094 23.4038
3.81558 23.4783
3.86022 23.6292
3.90486 24.4156
3.9495 25.2011
3.99416 25.8768
4.0388 26.3011
4.08344 27.6217
4.12809 28.0904
4.17273 29.1836
4.21738 30.7247
4.26204 32.8244
4.30669 34.5273
4.35133 36.9311
4.39598 36.8476
4.44063 37.1155
4.4853 37.7241
4.52995 39.6326
4.5746 40.9159
4.61925 42.8722
4.6639 45.2899
4.70855 47.5416
4.75322 50.6275
4.79788 53.7475
4.84253 58.3973
4.88719 63.9826
4.93184 71.3274
4.97652 83.6023
5.02118 101.809
5.06583 120.124
5.11049 146.655
5.15515 206.543
5.19981 454.058
5.24449 1271.24
5.28916 2376.4
5.33382 4875.63
5.37848 2186.87
5.42315 497.091
5.46783 234.496
5.5125 166.097
5.55716 136.619
5.60183 118.514
5.6465 110.56
5.69117 105.564
5.73586 100.957
5.78053 100.328
5.8252 102.606
5.86988 110.152
5.91455 124.159
5.95924 155.947
6.00392 261.113
6.0486 529.874
6.09328 777.886
6.13795 1433.97
6.18263 1019.49
6.22733 349.12
6.27201 164.817
6.3167 107.267
6.36138 81.8327
6.40606 68.5206
6.45075 61.8727
6.49545 56.7092
6.54014 52.6184
6.58483 50.5941
6.62952 48.4229
6.67421 46.707
6.71892 45.2079
6.76361 44.4953
6.8083 43.1811
6.853 42.8276
6.89769 42.1878
6.94239 42.1939
6.98711 41.8937
7.03181 42.382
7.07651 43.0954
7.12121 42.7675
7.16591 41.9002
7.21063 40.5269
7.25533 39.9611
7.30004 40.0436
7.34475 40.3153
7.38945 40.7931
7.43416 41.1022
7.47889 44.8878
7.5236 71.6516
7.56831 180.209
7.61303 110.845
7.65774 50.612
7.70247 43.2328
7.74719 41.4774
7.79191 41.1944
7.83663 40.9366
7.88135 41.1132
7.92607 41.644
7.97081 42.3769
8.01553 43.1328
8.06026 43.9712
8.10498 44.8411
8.14971 46.2966
8.19446 47.8187
8.23919 50.0248
8.28392 52.9465
8.32865 55.8614
8.37339 60.2217
8.41812 65.7576
8.46288 78.6022
8.50761 116.997
8.55235 224.223
8.59709 257.45
8.64183 380.241
8.68658 813.025
8.73134 648.373
8.77609 229.263
8.82083 121.414
8.86558 90.1346
8.91033 78.9833
8.9551 72.4846
8.99985 69.5195
9.04461 67.4641
9.08936 66.7374
9.13412 67.2274
9.17888 72.537
9.22365 113.44
9.26841 289.694
9.31318 208.723
9.35794 83.9964
9.4027 67.5127
9.44749 63.5936
9.49226 62.5305
9.53703 62.0399
9.5818 62.4564
9.62657 62.6811
9.67134 63.0601
9.71614 64.5968
9.76091 66.278
9.80569 68.6954
9.85047 71.8649
9.89525 77.0921
9.94005 87.5381
9.98484 120.181
10.0296 209.484
10.0744 231.112
10.1192 262.071
10.164 536.695
10.2088 804.394
10.2536 425.688
10.2984 170.49
10.3432 111.969
10.388 90.9236
10.4328 89.6225
10.4776 109.445
10.5224 111.218
10.5672 112.259
10.612 177.903
10.6568 281.126
10.7017 226.636
10.7465 132.651
10.7913 75.5477
10.8361 61.9449
10.8809 57.3001
10.9257 54.471
10.9706 52.8232
11.0154 50.9144
11.0602 49.7487
11.105 48.611
11.1499 47.6611
11.1947 47.0039
11.2395 46.4824
11.2844 45.9593
11.3292 45.0375
11.374 44.6084
11.4189 44.288
11.4637 43.3692
11.5086 43.1424
11.5534 42.9663
11.5983 42.9249
11.6431 43.0061
11.688 42.6886
11.7328 42.7061
11.7777 42.8229
11.8225 43.2883
11.8674 44.6771
11.9122 50.9514
11.9571 81.9395
12.002 100.146
12.0468 65.5448
12.0917 55.4079
12.1366 56.1267
12.1814 55.5002
12.2263 61.6314
12.2712 80.9259
12.3161 96.8886
12.3609 74.5928
12.4058 55.3772
12.4507 48.1648
12.4956 45.5412
12.5405 44.1797
12.5853 43.6131
12.6302 43.3623
12.6751 43.4713
12.72 43.6335
12.7649 44.08
12.8098 44.3333
12.8547 45.1011
12.8996 45.7087
12.9445 46.7502
12.9894 48.2067
13.0343 49.8965
13.0792 55.5253
13.1242 67.8565
13.1691 76.938
13.214 84.595
13.2589 80.6113
13.3038 82.8287
13.3487 111.031
13.3937 178.723
13.4386 199.163
13.4835 130.743
13.5285 99.4181
13.5734 92.5214
13.6183 82.2881
13.6633 86.0661
13.7082 119.206
13.7531 179.607
13.7981 167.501
13.843 95.4498
13.888 67.1522
13.9329 58.0743
13.9779 54.4821
14.0228 52.779
14.0678 51.926
14.1127 55.9108
14.1577 77.5685
14.2027 92.7952
14.2476 66.2103
14.2926 51.1472
14.3376 47.8059
14.3825 46.841
14.4275 46.1039
14.4725 45.6131
14.5175 45.6016
14.5624 45.424
14.6074 45.436
14.6524 45.5481
14.6974 45.8306
14.7424 46.9808
14.7874 49.8565
14.8324 56.626
14.8774 59.0132
14.9224 56.7814
14.9674 59.0515
15.0124 71.1276
15.0574 100.138
15.1024 113.829
15.1474 84.6882
15.1924 62.5201
15.2374 52.2289
15.2824 47.7723
15.3274 45.8611
15.3725 44.951
15.4175 44.5076
15.4625 44.2824
15.5076 43.6753
15.5526 43.7067
15.5976 44.0231
15.6426 44.5951
15.6877 46.6449
15.7327 51.661
15.7778 54.4219
15.8228 52.3725
15.8679 53.0411
15.9129 59.6821
15.958 79.951
16.003 102.626
16.0481 94.174
16.0931 74.183
16.1382 58.6895
16.1833 47.3216
16.2283 42.5157
16.2734 40.6874
16.3185 39.4442
16.3636 38.5393
16.4086 37.8975
16.4537 37.3933
16.4988 37.1026
16.5439 36.7494
16.589 36.799
16.6341 36.3771
16.6792 36.0909
16.7243 36.258
16.7694 36.2357
16.8145 36.2765
16.8596 36.408
16.9047 37.5132
16.9498 41.0282
16.9949 42.0877
17.04 39.2187
17.0851 37.6026
17.1302 38.2108
17.1754 38.9679
17.2205 38.5878
17.2656 38.4441
17.3108 39.7974
17.3559 41.7998
17.401 46.7585
17.4462 49.9486
17.4913 45.8445
17.5365 41.421
17.5815 39.552
17.6268 38.9773
17.6718 39.0981
17.7171 39.6608
17.7622 41.8435
17.8074 44.9287
17.8525 44.4281
17.8977 44.1154
17.9428 46.7412
17.9881 46.9852
18.0331 46.0377
18.0784 46.4962
18.1237 50.5248
18.1688 60.2093
18.214 77.0252
18.2591 81.5207
18.3044 65.7421
18.3495 53.4671
18.3948 50.7022
18.4399 54.3915
18.4852 61.7045
18.5303 61.5994
18.5756 53.1772
18.6207 47.797
18.666 43.5127
18.7112 41.024
18.7565 39.6641
18.8016 39.1968
18.8469 38.7611
18.892 38.409
18.9374 37.9297
18.9825 37.7942
19.0278 37.7162
19.073 37.5882
19.1183 37.6761
19.1635 38.0043
19.2088 38.6493
19.254 38.84
19.2993 40.0127
19.3447 43.8238
19.3898 46.4616
19.4352 44.5666
19.4804 44.9732
19.5257 45.3339
19.5709 41.8385
19.6163 38.4241
19.6615 36.9448
19.7068 35.9218
19.752 35.4383
19.7974 35.3629
19.8426 35.4504
19.888 35.7656
19.9332 36.0556
19.9786 35.8334
20.0238 35.603
20.0692 36.1166
20.1144 36.9167
20.1598 39.1373
20.205 41.6884
20.2504 43.0678
20.2957 40.2793
20.3411 37.8846
20.3863 37.8595
20.4318 39.6165
20.477 40.8015
20.5224 38.6929
20.5677 35.8129
20.6131 34.4301
20.6586 33.6055
20.7038 33.2799
20.7493 33.4294
20.7945 34.3949
20.84 35.074
20.8853 33.6234
20.9307 32.6047
20.976 32.2661
21.0215 32.0319
21.0668 32.1455
21.1122 32.0041
21.1575 31.7698
21.203 31.7621
21.2483 31.9253
21.2938 32.047
21.3391 32.7067
21.3846 33.2375
21.4299 33.2249
21.4754 32.5952
21.5207 32.5791
21.5662 32.2422
21.6116 32.1186
21.6571 32.4243
21.7024 32.8351
21.7479 33.0855
21.7933 32.8354
21.8388 33.0018
21.8843 33.4337
21.9297 34.3183
21.9752 36.0294
22.0206 38.5261
22.0661 40.0365
22.1115 39.1505
22.157 37.2725
22.2024 36.848
22.248 36.6684
22.2933 36.0914
22.3389 34.8457
22.3843 33.3792
22.4299 32.3887
22.4753 32.1847
22.5208 31.9141
22.5662 31.9293
22.6118 31.8021
22.6572 31.7944
22.7028 32.122
22.7483 32.6337
22.7939 32.9402
22.8393 33.0162
22.8849 32.8904
22.9303 32.6267
22.9759 32.7913
23.0214 33.263
23.067 34.8421
23.1126 36.3823
23.1581 36.5767
23.2037 34.8062
23.2492 33.2281
23.2948 32.5554
23.3403 32.5316
23.3859 33.0318
23.4314 33.2996
23.477 33.4717
23.5225 32.9982
23.5682 32.4864
23.6137 32.6427
23.6593 33.5472
23.7048 35.353
23.7505 36.5804
23.796 35.3572
23.8417 33.1058
23.8872 31.6399
23.9329 30.8327
23.9784 30.4466
24.0241 30.0619
24.0697 30.0686
24.1154 29.8988
24.1609 29.4988
24.2066 29.2467
24.2522 29.0765
24.2979 28.9937
24.3434 28.7938
24.3892 28.6333
24.4349 28.444
24.4805 28.2772
24.5262 28.3629
24.5718 28.4364
24.6175 28.4574
24.6631 28.8079
24.7089 28.8483
24.7545 28.6127
24.8002 28.3246
24.8458 28.1478
24.8916 27.8634
24.9372 27.8873
24.983 27.8809
25.0286 27.749
25.0744 27.9086
25.12 27.9609
25.1658 27.9197
25.2114 28.0178
25.2572 28.2929
25.3029 28.6832
25.3487 28.8734
25.3943 28.5057
25.4402 28.4537
25.4858 29.0172
25.5316 29.091
25.5773 28.6119
25.6231 27.7249
25.669 27.2308
25.7147 27.0198
25.7605 26.815
25.8062 27.1416
25.8521 27.1365
25.8977 27.0901
25.9436 26.8399
25.9893 26.6274
26.0352 26.6564
26.0809 26.5
26.1268 26.5791
26.1725 26.6733
26.2184 27.0344
26.2641 27.218
26.31 27.1771
26.3557 26.9126
26.4017 26.6942
26.4474 26.6408
26.4933 26.4806
26.5391 26.3131
26.585 26.4263
26.6308 26.4214
26.6767 26.4627
26.7225 26.6101
26.7684 27.1134
26.8142 27.4501
26.8601 27.4187
26.9059 27.1689
26.9519 27.0543
26.9979 27.076
27.0437 26.6602
27.0896 26.2049
27.1354 25.9318
27.1814 25.8306
27.2272 25.6418
27.2732 25.6366
27.3191 25.5208
27.3651 25.4163
27.4109 25.3285
27.4569 25.2796
27.5027 25.2776
27.5488 25.3749
27.5946 25.2914
27.6407 25.2373
27.6865 25.4048
27.7326 25.3839
27.7784 25.3363
27.8245 25.0634
27.8703 25.0884
27.9164 24.8835
27.9623 24.7876
28.0084 25.1217
28.0543 25.1405
28.1003 25.1793
28.1462 25.2496
28.1923 25.3468
28.2384 25.4833
28.2843 25.3425
28.3304 25.1072
28.3764 24.9034
28.4225 24.8113
28.4684 24.6339
28.5145 24.3665
28.5605 24.1682
28.6066 23.9657
28.6526 23.8984
28.6987 23.6715
28.7447 23.5221
28.7908 23.414
28.8368 23.3656
28.8829 23.3506
28.9289 23.2895
28.9751 23.2458
29.0211 23.2317
29.0673 23.1963
29.1133 23.291
29.1595 23.0339
29.2055 22.9153
29.2517 22.7093
29.2977 22.6341
29.3439 22.634
29.3899 22.5133
29.4361 22.4038
29.4824 22.4141
29.5284 22.4441
29.5746 22.4903
29.6207 22.278
29.6669 22.2409
29.713 22.0695
29.7593 21.9194
29.8053 21.8485
29.8516 21.8986
29.8977 21.8415
29.9439 21.7152
29.99 21.6904
30.0363 21.5507
30.0824 21.7246
30.1287 21.6056
30.1748 21.5343
30.2211 21.4646
30.2673 21.3271
30.3136 21.4415
30.3597 21.4516
30.406 21.3391
30.4522 21.4224
30.4985 21.2337
30.5447 21.2478
30.591 21.173
30.6372 21.0813
30.6835 21.0792
30.7297 21.0987
30.7761 21.0676
30.8224 21.1597
30.8686 21.2058
30.915 21.179
30.9612 21.2118
31.0076 21.0747
31.0538 21.0401
31.1002 21.0105
31.1464 20.8127
31.1928 20.6319
31.2391 20.6363
31.2855 20.5102
31.3317 20.5117
31.3781 20.4986
31.4244 20.4569
31.4708 20.3839
31.5171 20.3495
31.5636 20.401
31.6098 20.3781
31.6563 20.3466
31.7026 20.219
31.7491 20.2378
31.7953 20.2095
31.8418 20.0923
31.8881 19.9665
31.9346 19.9906
31.9809 19.8898
32.0275 19.9091
32.074 19.8943
32.1203 19.8134
32.1668 19.8362
32.2132 19.7857
32.2597 19.6548
32.306 19.6407
32.3526 19.5293
32.399 19.4591
32.4455 19.3596
32.4919 19.2653
32.5385 19.1918
32.5848 19.0323
32.6314 19.1141
32.6778 19.0899
32.7244 18.9146
32.7708 18.8327
32.8174 18.8466
32.8638 18.7884
32.9104 18.8029
32.9569 18.8303
33.0035 18.701
33.0499 18.605
33.0966 18.5415
33.143 18.5181
33.1897 18.4202
33.2361 18.3872
33.2828 18.4647
33.3293 18.2646
33.3759 18.3989
33.4226 18.3069
33.4691 18.2888
33.5158 18.2002
33.5623 18.1296
33.609 17.9725
33.6555 17.9325
33.7022 17.8412
33.7487 17.8021
33.7954 17.7604
33.842 17.6374
33.8887 17.6675
33.9353 17.697
33.982 17.5185
34.0286 17.4972
34.0753 17.463
34.1219 17.4468
34.1687 17.3892
34.2152 17.2729
34.262 17.2229
34.3086 17.1582
34.3554 17.0829
34.402 17.0149
34.4488 17.0109
34.4954 16.963
34.5422 16.9803
34.5889 16.8414
34.6357 16.7822
34.6825 16.7094
34.7292 16.5755
34.776 16.6785
34.8227 16.652
34.8695 16.5864
34.9162 16.4463
34.9631 16.4589
35.0098 16.4797
35.0566 16.3204
35.1033 16.326
35.1502 16.217
35.1969 16.2555
35.2438 16.2187
35.2906 16.1606
35.3375 16.0859
35.3842 15.9899
35.4311 16.0587
35.4779 15.9113
35.5248 15.9745
35.5716 15.9142
35.6185 15.9371
35.6653 15.9162
35.7123 15.8673
35.759 15.8453
35.806 15.7345
35.8528 15.6225
35.8998 15.674
35.9468 15.5797
35.9936 15.5497
36.0406 15.4557
36.0874 15.5217
36.1345 15.3495
36.1813 15.3661
36.2283 15.2514
36.2752 15.264
36.3222 15.2874
36.3691 15.2258
36.4161 15.0981
36.463 15.057
36.5101 15.0763
36.557 15.0149
36.6041 14.9361
36.651 14.9465
36.6981 14.9249
36.745 14.8535
36.7921 14.887
36.839 14.7256
36.8861 14.6619
36.9331 14.6455
36.9802 14.6436
37.0272 14.5822
37.0743 14.5348
37.1213 14.4394
37.1684 14.3612
37.2154 14.34
37.2626 14.3508
37.3098 14.2937
37.3568 14.249
37.404 14.2416
37.451 14.1277
37.4982 14.1687
37.5452 14.0142
37.5924 13.9888
37.6395 14.1053
37.6867 13.9062
37.7337 13.9262
37.781 13.8604
37.8281 13.8431
37.8753 13.7723
37.9224 13.7465
37.9697 13.6687
38.0168 13.6449
38.064 13.6152
38.1111 13.5392
38.1584 13.4907
38.2056 13.4555
38.2529 13.4369
38.3 13.4164
38.3473 13.3546
38.3945 13.2871
38.4418 13.2777
38.489 13.2488
38.5363 13.1516
38.5837 13.1555
38.6309 13.1548
38.6782 13.0158
38.7254 13.0036
38.7728 13.0297
38.82 12.9158
38.8674 12.9418
38.9146 12.8538
38.9621 12.8373
39.0093 12.8125
39.0567 12.7538
39.104 12.7576
39.1514 12.6769
39.1987 12.6242
39.2461 12.6354
39.2934 12.5907
39.3409 12.5301
39.3882 12.4365
39.4356 12.4069
39.483 12.3992
39.5304 12.3353
39.5778 12.3645
39.6253 12.2922
39.6726 12.236
39.7201 12.2059
39.7675 12.2045
39.815 12.1617
39.8624 12.0698
39.9099 12.0859
39.9575 11.9945
40.0049 11.9541
40.0525 11.9585
40.0999 11.9224
40.1474 11.9464
40.1949 11.8672
40.2425 11.749
40.2899 11.7693
40.3375 11.7814
40.385 11.7014
40.4326 11.6257
40.48 11.5736
40.5277 11.6129
40.5752 11.5795
40.6228 11.5113
40.6703 11.5118
40.718 11.4561
40.7655 11.4556
40.8132 11.4401
40.8607 11.3862
40.9084 11.3692
40.9559 11.2923
41.0036 11.3126
41.0512 11.2023
41.0989 11.1547
41.1465 11.1221
41.1942 11.0894
41.242 11.0568
41.2896 10.9869
41.3373 10.9877
41.3849 10.9878
41.4327 10.8728
41.4803 10.9035
41.5281 10.8319
41.5758 10.8424
41.6236 10.7832
41.6712 10.7837
41.7191 10.6929
41.7667 10.6469
41.8146 10.6957
41.8622 10.5832
41.9101 10.5419
41.9578 10.5293
42.0057 10.4874
42.0534 10.4334
42.1013 10.4643
42.149 10.4014
42.1969 10.343
42.2446 10.3524
42.2925 10.3379
42.3403 10.2571
42.3882 10.2055
42.436 10.2025
42.4839 10.1443
42.5319 10.1792
42.5797 10.1119
42.6277 10.0582
42.6755 10.004
42.7235 9.98419
42.7713 9.97171
42.8193 10.0013
42.8671 9.90688
42.9152 9.83956
42.963 9.88376
43.0111 9.77046
43.0589 9.76438
43.107 9.73418
43.1549 9.73884
43.2029 9.68299
43.2508 9.6448
43.2989 9.60456
43.3468 9.54437
43.3949 9.51171
43.4429 9.51616
43.491 9.44374
43.5389 9.45735
43.5871 9.42863
43.635 9.368
43.6832 9.33517
43.7312 9.28423
43.7793 9.25459
43.8273 9.1978
43.8755 9.22226
43.9237 9.18203
43.9717 9.14268
44.0199 9.08406
44.068 9.11325
44.1162 9.01366
44.1642 9.03686
44.2125 9.00419
44.2606 8.95424
44.3088 8.90885
44.3569 8.90745
44.4052 8.87784
44.4533 8.83003
44.5016 8.80053
44.5497 8.77698
44.598 8.76504
44.6461 8.79196
44.6945 8.68457
44.7426 8.70145
44.791 8.64215
44.8391 8.61055
44.8875 8.60459
44.9357 8.58567
44.984 8.52103
45.0322 8.49854
45.0806 8.45889
45.1288 8.44527
45.1773 8.41578
45.2257 8.36586
45.2739 8.33217
45.3224 8.32662
45.3706 8.28667
45.4191 8.22915
45.4673 8.2172
45.5158 8.22137
45.5641 8.17263
45.6126 8.16466
45.6609 8.15259
45.7094 8.07021
45.7577 8.05562
45.8063 8.05362
45.8546 8.00014
45.9031 7.98104
45.9515 7.92814
46.0001 7.9456
46.0484 7.94729
46.097 7.88978
46.1454 7.87988
46.194 7.84783
46.2424 7.74644
46.291 7.75403
46.3395 7.74446
46.3881 7.66988
46.4365 7.70109
46.4852 7.65534
46.5337 7.64087
46.5823 7.60454
46.631 7.52567
46.6795 7.5198
46.7282 7.5297
46.7767 7.50741
46.8254 7.42821
46.8739 7.42112
46.9226 7.40913
46.9712 7.34211
47.0199 7.32453
47.0685 7.34709
47.1173 7.29965
47.1658 7.26176
47.2146 7.23618
47.2632 7.20938
47.312 7.21166
47.3606 7.16343
47.4095 7.11341
47.4581 7.09975
47.5069 7.0719
47.5556 7.01102
47.6044 7.03393
47.6531 7.00763
47.702 6.94679
47.7507 6.93887
47.7996 6.90989
47.8483 6.90935
47.8972 6.91075
47.9461 6.88579
47.9948 6.81011
48.0438 6.81714
48.0925 6.80422
48.1415 6.77609
48.1902 6.72407
48.2392 6.71431
48.288 6.68278
48.337 6.65717
48.3858 6.61821
48.4348 6.60478
48.4837 6.60553
48.5327 6.58831
48.5815 6.555
48.6306 6.50368
48.6795 6.51983
48.7285 6.47573
48.7774 6.43396
48.8265 6.44832
48.8754 6.40492
48.9245 6.39017
48.9734 6.36709
49.0226 6.3427
49.0715 6.34249
49.1206 6.29806
49.1696 6.25458
49.2188 6.25306
49.2679 6.21518
49.3169 6.18602
49.3661 6.14328
49.4151 6.12713
49.4643 6.13468
49.5134 6.11007
49.5626 6.07331
49.6117 6.07973
49.6609 6.02147
49.71 6.0055
49.7592 6.00619
49.8083 5.98284
49.8576 5.96741
49.9067 5.89767
49.956 5.937
50.0052 5.86857
50.0545 5.85086
50.1036 5.80715
50.153 5.80667
50.2022 5.83688
50.2515 5.75897
50.3007 5.74382
50.3501 5.72381
50.3993 5.73472
50.4487 5.67088
50.498 5.67846
50.5474 5.6831
50.5966 5.63357
50.6461 5.63636
50.6955 5.62504
50.7448 5.56964
50.7943 5.52151
50.8436 5.5447
50.8931 5.52557
50.9424 5.49092
50.9919 5.47815
51.0413 5.44219
51.0908 5.41808
51.1402 5.43073
51.1897 5.38258
51.2391 5.36838
51.2887 5.32668
51.3381 5.31888
51.3877 5.28827
51.4371 5.25454
51.4867 5.26317
51.5362 5.24147
51.5858 5.21022
51.6353 5.17686
51.6849 5.18315
51.7344 5.16741
51.7841 5.15583
51.8336 5.09763
51.8833 5.10473
51.9328 5.0875
51.9826 5.02138
52.0323 5.02343
52.0818 4.99959
52.1316 4.96887
52.1812 4.97716
52.231 4.95279
52.2806 4.93214
52.3304 4.92925
52.38 4.91562
52.4298 4.89277
52.4794 4.82592
52.5293 4.85226
52.5789 4.82121
52.6288 4.81129
52.6785 4.76828
52.7284 4.77556
52.7781 4.73775
52.828 4.73087
52.8777 4.70694
52.9276 4.68495
52.9774 4.72125
53.0273 4.66049
53.0771 4.59918
53.1271 4.6253
53.1769 4.59314
53.2269 4.59129
53.2767 4.54406
53.3267 4.5373
53.3765 4.52077
53.4266 4.51868
53.4766 4.4911
53.5265 4.45854
53.5765 4.45376
53.6264 4.45428
53.6765 4.40254
53.7264 4.36421
53.7765 4.39072
53.8265 4.33996
53.8766 4.36367
53.9266 4.32073
53.9767 4.22382
54.0267 4.27427
54.0769 4.23976
54.1269 4.18684
54.1771 4.16921
54.2271 4.16306
54.2773 4.13563
54.3274 4.14569
54.3776 4.10151
54.4277 4.06557
54.478 3.99646
54.528 3.97421
54.5783 3.91557
54.6285 3.88608
54.6788 3.88715
54.7289 3.88303
54.7792 3.82577
54.8296 3.7635
54.8798 3.76726
54.9301 3.71719
54.9803 3.67757
55.0307 3.66568
55.0809 3.64395
55.1314 3.61753
55.1816 3.55981
55.232 3.5076
55.2823 3.51911
55.3328 3.39627
55.383 3.35548
55.4335 3.336
55.4838 3.35018
55.5344 3.25592
55.5847 3.28002
55.6352 3.28906
55.6856 3.22249
55.7361 3.16904