File: XRD/Ni3Fe_FD0784.xy
TT I
1.27165 7.1344
1.31627 6.78975
1.36089 6.85458
1.40551 5.12781
1.45013 5.55775
1.49476 6.05108
1.53938 5.88712
1.584 5.1206
1.62863 4.97495
1.67325 4.47165
1.71787 5.45218
1.7625 4.7131
1.80712 4.93947
1.85174 4.23655
1.89636 4.44809
1.94099 5.16337
1.98562 4.56196
2.03025 4.15295
2.07487 4.91962
2.11949 4.36043
2.16411 4.90117
2.20874 12.0838
2.25338 17.2309
2.298 6.1072
2.34263 5.59628
2.38725 5.7294
2.43188 5.96376
2.4765 6.75346
2.52115 7.17164
2.56577 7.34325
2.6104 8.65687
2.65503 7.95528
2.69965 8.52998
2.7443 8.43209
2.78893 8.03123
2.83356 8.07736
2.87818 8.98003
2.92281 9.20653
2.96744 9.5323
3.01209 10.1581
3.05672 11.1192
3.10135 12.4531
3.14599 13.0426
3.19062 14.5337
3.23527 14.8626
3.2799 15.2718
3.32454 16.6825
3.36917 17.6936
3.4138 18.4425
3.45844 19.5139
3.50309 20.7133
3.54773 21.0865
3.59237 23.6103
3.637 74.2343
3.68164 49.2808
3.7263 25.7575
3.77094 25.6672
3.81558 26.6558
3.86022 27.3325
3.90486 28.6128
3.9495 29.5155
3.99416 30.5556
4.0388 31.9839
4.08344 33.2392
4.12809 34.2727
4.17273 36.4167
4.21738 40.8227
4.26204 195.402
4.30669 168.408
4.35133 46.2005
4.39598 43.6071
4.44063 51.6351
4.4853 60.1881
4.52995 49.4392
4.5746 51.0736
4.61925 52.6028
4.6639 54.7673
4.70855 58.2445
4.75322 60.4349
4.79788 63.5718
4.84253 67.0443
4.88719 70.9246
4.93184 74.6535
4.97652 80.2828
5.02118 85.7732
5.06583 93.9436
5.11049 104.764
5.15515 159.884
5.19981 343.618
5.24449 2786.22
5.28916 12759.4
5.33382 2635.9
5.37848 175.704
5.42315 124.304
5.46783 111.004
5.5125 104.075
5.55716 100.83
5.60183 97.0266
5.6465 96.0538
5.69117 93.3037
5.73586 91.6354
5.78053 90.9507
5.8252 90.0905
5.86988 91.1939
5.91455 93.3485
5.95924 101.67
6.00392 208.449
6.0486 948.41
6.09328 4518.75
6.13795 3183.95
6.18263 208.189
6.22733 89.8923
6.27201 80.8859
6.3167 94.2344
6.36138 77.3991
6.40606 68.1324
6.45075 66.7339
6.49545 64.1923
6.54014 63.3355
6.58483 62.3215
6.62952 61.7791
6.67421 85.6155
6.71892 120.377
6.76361 65.3467
6.8083 57.7185
6.853 56.8065
6.89769 56.3636
6.94239 56.1011
6.98711 55.2784
7.03181 54.8671
7.07651 54.7933
7.12121 54.3846
7.16591 54.591
7.21063 54.7382
7.25533 66.565
7.30004 145.292
7.34475 80.743
7.38945 55.2869
7.43416 53.6965
7.47889 53.7301
7.5236 53.9128
7.56831 54.8093
7.61303 55.6596
7.65774 56.379
7.70247 55.3705
7.74719 55.5032
7.79191 56.0615
7.83663 56.3334
7.88135 57.6537
7.92607 58.1508
7.97081 59.3807
8.01553 60.0649
8.06026 61.6486
8.10498 63.0442
8.14971 70.5881
8.19446 70.5046
8.23919 68.7178
8.28392 71.2855
8.32865 73.2455
8.37339 77.4799
8.41812 83.6592
8.46288 108.511
8.50761 165.482
8.55235 378.223
8.59709 1206.57
8.64183 2182.03
8.68658 849.566
8.73134 146.757
8.77609 96.8545
8.82083 90.9138
8.86558 88.6433
8.91033 88.2338
8.9551 89.3034
8.99985 84.1594
9.04461 82.5323
9.08936 82.2952
9.13412 80.9166
9.17888 81.1235
9.22365 81.6239
9.26841 80.7141
9.31318 82.1238
9.35794 82.163
9.4027 82.6597
9.44749 82.8731
9.49226 83.6983
9.53703 84.9734
9.5818 86.4214
9.62657 90.3616
9.67134 95.3639
9.71614 92.2398
9.76091 93.1982
9.80569 96.0055
9.85047 98.6382
9.89525 117.817
9.94005 130.491
9.98484 176.009
10.0296 338.616
10.0744 819.981
10.1192 1764.57
10.164 1504.25
10.2088 341.495
10.2536 119.55
10.2984 109.585
10.3432 110.323
10.388 102.967
10.4328 117.775
10.4776 159.215
10.5224 288.097
10.5672 534.086
10.612 478.784
10.6568 185.061
10.7017 93.8295
10.7465 84.9636
10.7913 81.7033
10.8361 79.8924
10.8809 77.6907
10.9257 76.9382
10.9706 77.1044
11.0154 73.6152
11.0602 71.7432
11.105 71.0935
11.1499 73.8693
11.1947 79.0233
11.2395 71.776
11.2844 68.8793
11.3292 66.1959
11.374 65.6032
11.4189 64.9801
11.4637 64.3807
11.5086 64.3795
11.5534 66.2268
11.5983 64.2497
11.6431 62.6502
11.688 62.3409
11.7328 62.2675
11.7777 62.0226
11.8225 61.8674
11.8674 61.4828
11.9122 62.1295
11.9571 62.3326
12.002 62.8703
12.0468 67.1394
12.0917 77.6783
12.1366 101.976
12.1814 156.507
12.2263 213.147
12.2712 167.536
12.3161 88.6881
12.3609 67.9677
12.4058 63.5583
12.4507 63.6366
12.4956 63.5638
12.5405 63.7734
12.5853 64.8868
12.6302 70.6901
12.6751 74.4842
12.72 68.3903
12.7649 67.0257
12.8098 67.52
12.8547 68.7618
12.8996 70.2025
12.9445 71.3874
12.9894 73.3254
13.0343 74.9626
13.0792 78.5115
13.1242 87.7511
13.1691 110.128
13.214 147.377
13.2589 243.503
13.3038 387.529
13.3487 425.8
13.3937 243.17
13.4386 116.746
13.4835 104.109
13.5285 118.709
13.5734 157.366
13.6183 254.636
13.6633 362.835
13.7082 331.809
13.7531 167.993
13.7981 92.5787
13.843 80.5157
13.888 78.446
13.9329 76.1144
13.9779 74.7627
14.0228 73.4314
14.0678 72.1488
14.1127 71.7036
14.1577 71.4117
14.2027 70.6911
14.2476 69.6003
14.2926 69.5386
14.3376 70.1866
14.3825 69.2529
14.4275 67.8041
14.4725 67.6671
14.5175 68.2105
14.5624 68.2561
14.6074 69.8949
14.6524 70.2808
14.6974 69.6513
14.7424 71.5015
14.7874 78.0762
14.8324 87.7532
14.8774 110.197
14.9224 156.457
14.9674 214.815
15.0124 219.974
15.0574 143.351
15.1024 86.055
15.1474 70.9958
15.1924 69.4426
15.2374 69.3549
15.2824 68.9523
15.3274 66.9453
15.3725 65.8089
15.4175 65.6299
15.4625 65.0839
15.5076 65.3691
15.5526 65.5273
15.5976 64.9551
15.6426 66.2221
15.6877 71.3682
15.7327 78.7054
15.7778 93.9122
15.8228 128.391
15.8679 178.429
15.9129 199.056
15.958 149.199
16.003 89.7398
16.0481 65.9297
16.0931 62.9702
16.1382 61.4846
16.1833 59.548
16.2283 58.1105
16.2734 57.4251
16.3185 57.5731
16.3636 58.0119
16.4086 56.7305
16.4537 55.3525
16.4988 54.8459
16.5439 55.0485
16.589 54.555
16.6341 54.1609
16.6792 53.7433
16.7243 54.1663
16.7694 54.056
16.8145 54.14
16.8596 54.4229
16.9047 55.7775
16.9498 55.6899
16.9949 55.101
17.04 55.0228
17.0851 56.5072
17.1302 58.0999
17.1754 61.2022
17.2205 66.4918
17.2656 74.9009
17.3108 82.8782
17.3559 81.3396
17.401 68.8454
17.4462 60.5104
17.4913 58.3381
17.5365 58.245
17.5815 58.3663
17.6268 58.8996
17.6718 59.637
17.7171 60.1697
17.7622 60.5937
17.8074 61.2875
17.8525 63.6716
17.8977 67.701
17.9428 72.8874
17.9881 81.8742
18.0331 100.803
18.0784 124.797
18.1237 141.567
18.1688 126.87
18.214 98.8414
18.2591 84.5441
18.3044 90.4584
18.3495 101.66
18.3948 105.794
18.4399 92.5624
18.4852 74.1782
18.5303 64.2506
18.5756 61.195
18.6207 60.3477
18.666 59.6978
18.7112 58.9179
18.7565 58.452
18.8016 57.8731
18.8469 57.4124
18.892 57.0842
18.9374 56.4337
18.9825 56.1617
19.0278 56.1775
19.073 56.2058
19.1183 56.7805
19.1635 57.4755
19.2088 58.7342
19.254 61.5621
19.2993 66.3391
19.3447 72.6782
19.3898 76.0231
19.4352 70.3623
19.4804 61.2417
19.5257 55.3973
19.5709 53.4846
19.6163 53.2376
19.6615 53.0307
19.7068 52.7925
19.752 52.5172
19.7974 52.9013
19.8426 53.7716
19.888 54.2409
19.9332 55.6878
19.9786 58.3107
20.0238 62.3437
20.0692 67.7996
20.1144 69.8646
20.1598 66.8559
20.205 62.2373
20.2504 61.5531
20.2957 63.8597
20.3411 65.2705
20.3863 62.7318
20.4318 56.7774
20.477 52.3619
20.5224 50.7064
20.5677 50.0907
20.6131 49.5662
20.6586 49.1703
20.7038 48.955
20.7493 48.4672
20.7945 48.538
20.84 48.1424
20.8853 48.3098
20.9307 47.9586
20.976 47.9377
21.0215 47.9721
21.0668 48.4338
21.1122 48.9402
21.1575 49.6592
21.203 50.489
21.2483 50.8716
21.2938 50.7425
21.3391 49.3801
21.3846 48.4041
21.4299 47.8745
21.4754 47.9317
21.5207 47.9418
21.5662 48.4122
21.6116 48.6812
21.6571 49.3809
21.7024 50.2888
21.7479 52.0899
21.7933 54.8672
21.8388 58.8335
21.8843 62.8022
21.9297 64.1005
21.9752 62.0058
22.0206 58.0182
22.0661 55.7345
22.1115 55.7368
22.157 55.496
22.2024 53.2486
22.248 50.5718
22.2933 49.1489
22.3389 48.4144
22.3843 48.4068
22.4299 48.1844
22.4753 48.2378
22.5208 48.1522
22.5662 47.9221
22.6118 48.1036
22.6572 48.5151
22.7028 48.7116
22.7483 49.2124
22.7939 49.8182
22.8393 51.6597
22.8849 53.8427
22.9303 55.9283
22.9759 57.784
23.0214 56.6262
23.067 53.2362
23.1126 50.0652
23.1581 48.5429
23.2037 48.0972
23.2492 48.3001
23.2948 48.3711
23.3403 48.6503
23.3859 49.301
23.4314 50.2758
23.477 52.4412
23.5225 54.7193
23.5682 56.988
23.6137 57.4536
23.6593 54.6271
23.7048 50.4934
23.7505 47.3645
23.796 46.0386
23.8417 45.478
23.8872 44.9189
23.9329 44.5969
23.9784 44.1968
24.0241 44.1443
24.0697 43.8913
24.1154 43.5018
24.1609 43.5147
24.2066 43.3974
24.2522 43.1057
24.2979 42.9557
24.3434 42.8415
24.3892 42.7447
24.4349 42.6079
24.4805 42.5175
24.5262 42.757
24.5718 42.4793
24.6175 42.2985
24.6631 42.3125
24.7089 41.8975
24.7545 41.9572
24.8002 41.7984
24.8458 41.8185
24.8916 41.6898
24.9372 41.6805
24.983 42.0653
25.0286 42.5291
25.0744 42.8728
25.12 43.4126
25.1658 44.0948
25.2114 44.1696
25.2572 44.2754
25.3029 44.2682
25.3487 44.5493
25.3943 44.1527
25.4402 43.0106
25.4858 41.6019
25.5316 40.9698
25.5773 40.4758
25.6231 40.4157
25.669 40.2281
25.7147 40.1423
25.7605 40.0256
25.8062 40.0805
25.8521 40.1047
25.8977 40.1481
25.9436 40.3957
25.9893 40.6384
26.0352 41.0689
26.0809 41.3033
26.1268 41.3077
26.1725 40.7423
26.2184 40.2974
26.2641 39.7249
26.31 39.6103
26.3557 39.6336
26.4017 39.6838
26.4474 39.8627
26.4933 40.407
26.5391 40.8494
26.585 41.3823
26.6308 41.6961
26.6767 41.7054
26.7225 41.3429
26.7684 40.8985
26.8142 40.2889
26.8601 40.0078
26.9059 39.5388
26.9519 39.0774
26.9979 38.8469
27.0437 38.4314
27.0896 38.3296
27.1354 38.3616
27.1814 38.1909
27.2272 38.0673
27.2732 38.1934
27.3191 37.9101
27.3651 38.0735
27.4109 38.0252
27.4569 38.129
27.5027 38.2389
27.5488 38.2478
27.5946 37.8932
27.6407 37.8362
27.6865 37.5737
27.7326 37.4661
27.7784 37.4485
27.8245 37.3589
27.8703 37.6054
27.9164 37.8589
27.9623 38.0407
28.0084 38.4266
28.0543 38.7377
28.1003 38.576
28.1462 38.3723
28.1923 37.9832
28.2384 37.5379
28.2843 37.2127
28.3304 36.7079
28.3764 36.2466
28.4225 36.0259
28.4684 35.8169
28.5145 35.6
28.5605 35.5339
28.6066 35.3131
28.6526 35.2956
28.6987 35.189
28.7447 35.1403
28.7908 35.0809
28.8368 34.9592
28.8829 35.1571
28.9289 35.0485
28.9751 34.8301
29.0211 34.597
29.0673 34.2358
29.1133 34.0481
29.1595 34.081
29.2055 33.8515
29.2517 33.9787
29.2977 33.8665
29.3439 33.8653
29.3899 33.8938
29.4361 33.821
29.4824 33.5765
29.5284 33.3942
29.5746 33.0801
29.6207 32.7281
29.6669 32.6844
29.713 32.6106
29.7593 32.5165
29.8053 32.5136
29.8516 32.4395
29.8977 32.4118
29.9439 32.2643
29.99 32.2208
30.0363 32.0865
30.0824 32.2022
30.1287 32.1133
30.1748 32.1459
30.2211 32.1147
30.2673 31.9853
30.3136 32.1226
30.3597 31.9353
30.406 31.9141
30.4522 31.6973
30.4985 31.7433
30.5447 31.8889
30.591 31.7147
30.6372 31.8782
30.6835 31.8956
30.7297 31.8916
30.7761 31.877
30.8224 31.721
30.8686 31.4903
30.915 31.1765
30.9612 31.2506
31.0076 30.9754
31.0538 30.8338
31.1002 30.7606
31.1464 30.65
31.1928 30.601
31.2391 30.7231
31.2855 30.5894
31.3317 30.5905
31.3781 30.5795
31.4244 30.5833
31.4708 30.5501
31.5171 30.5025
31.5636 30.4527
31.6098 30.1242
31.6563 30.0207
31.7026 29.7686
31.7491 29.787
31.7953 29.955
31.8418 29.8828
31.8881 29.9142
31.9346 29.8187
31.9809 29.8017
32.0275 29.5823
32.074 29.5436
32.1203 29.3168
32.1668 29.168
32.2132 29.0719
32.2597 28.9692
32.306 28.8089
32.3526 28.6713
32.399 28.6647
32.4455 28.482
32.4919 28.3882
32.5385 28.3779
32.5848 28.2579
32.6314 28.2024
32.6778 28.1133
32.7244 28.0073
32.7708 27.8081
32.8174 27.8932
32.8638 27.6816
32.9104 27.6359
32.9569 27.6116
33.0035 27.6655
33.0499 27.5845
33.0966 27.4798
33.143 27.4963
33.1897 27.4436
33.2361 27.187
33.2828 27.2691
33.3293 27.0992
33.3759 27.0636
33.4226 26.8949
33.4691 26.834
33.5158 26.7647
33.5623 26.6483
33.609 26.406
33.6555 26.4218
33.7022 26.2614
33.7487 26.216
33.7954 26.2112
33.842 26.1306
33.8887 26.1004
33.9353 26.0042
33.982 25.8405
34.0286 25.7886
34.0753 25.7446
34.1219 25.6827
34.1687 25.5128
34.2152 25.5093
34.262 25.3828
34.3086 25.2437
34.3554 25.2401
34.402 25.198
34.4488 25.0177
34.4954 24.9521
34.5422 24.893
34.5889 24.8198
34.6357 24.6929
34.6825 24.6159
34.7292 24.6299
34.776 24.4916
34.8227 24.5112
34.8695 24.4107
34.9162 24.3973
34.9631 24.2113
35.0098 24.2176
35.0566 24.0473
35.1033 24.0346
35.1502 24.0168
35.1969 23.9692
35.2438 23.9279
35.2906 23.8411
35.3375 23.7773
35.3842 23.7395
35.4311 23.7314
35.4779 23.7286
35.5248 23.636
35.5716 23.5983
35.6185 23.4708
35.6653 23.3555
35.7123 23.3093
35.759 23.2163
35.806 23.1251
35.8528 23.0048
35.8998 22.9653
35.9468 22.8445
35.9936 22.86
36.0406 22.7212
36.0874 22.7869
36.1345 22.6591
36.1813 22.5643
36.2283 22.455
36.2752 22.4108
36.3222 22.405
36.3691 22.4038
36.4161 22.2307
36.463 22.2756
36.5101 22.1865
36.557 22.1358
36.6041 21.9884
36.651 21.9022
36.6981 21.8664
36.745 21.8537
36.7921 21.7753
36.839 21.6289
36.8861 21.5778
36.9331 21.5012
36.9802 21.5142
37.0272 21.419
37.0743 21.2496
37.1213 21.2323
37.1684 21.1685
37.2154 21.1565
37.2626 20.9819
37.3098 20.9825
37.3568 20.9277
37.404 20.8555
37.451 20.7381
37.4982 20.7248
37.5452 20.6227
37.5924 20.5433
37.6395 20.5612
37.6867 20.4664
37.7337 20.4042
37.781 20.3073
37.8281 20.338
37.8753 20.1146
37.9224 20.0961
37.9697 19.9943
38.0168 20.0073
38.064 19.9009
38.1111 19.8705
38.1584 19.7877
38.2056 19.6915
38.2529 19.7002
38.3 19.6087
38.3473 19.6393
38.3945 19.4788
38.4418 19.434
38.489 19.3589
38.5363 19.309
38.5837 19.2324
38.6309 19.1931
38.6782 19.0962
38.7254 19.1073
38.7728 18.9894
38.82 18.979
38.8674 18.8871
38.9146 18.8489
38.9621 18.7401
39.0093 18.7134
39.0567 18.7022
39.104 18.6374
39.1514 18.4485
39.1987 18.4633
39.2461 18.4159
39.2934 18.3699
39.3409 18.335
39.3882 18.1852
39.4356 18.1319
39.483 18.0724
39.5304 17.9979
39.5778 18.0371
39.6253 17.9644
39.6726 17.9117
39.7201 17.8623
39.7675 17.8006
39.815 17.7099
39.8624 17.662
39.9099 17.6283
39.9575 17.5413
40.0049 17.4874
40.0525 17.4259
40.0999 17.3934
40.1474 17.3423
40.1949 17.2638
40.2425 17.1925
40.2899 17.1272
40.3375 17.1053
40.385 17.0804
40.4326 17.052
40.48 16.9224
40.5277 16.8804
40.5752 16.8379
40.6228 16.736
40.6703 16.7331
40.718 16.6886
40.7655 16.5961
40.8132 16.5754
40.8607 16.56
40.9084 16.488
40.9559 16.4266
41.0036 16.4115
41.0512 16.3462
41.0989 16.2413
41.1465 16.2312
41.1942 16.165
41.242 16.0415
41.2896 16.0925
41.3373 15.964
41.3849 15.9318
41.4327 15.8595
41.4803 15.8635
41.5281 15.7559
41.5758 15.7385
41.6236 15.6335
41.6712 15.6436
41.7191 15.533
41.7667 15.4825
41.8146 15.4817
41.8622 15.4275
41.9101 15.413
41.9578 15.3312
42.0057 15.249
42.0534 15.212
42.1013 15.213
42.149 15.0984
42.1969 15.0368
42.2446 15.0392
42.2925 14.9763
42.3403 14.9271
42.3882 14.8576
42.436 14.8484
42.4839 14.7682
42.5319 14.724
42.5797 14.6417
42.6277 14.5765
42.6755 14.5946
42.7235 14.4794
42.7713 14.5069
42.8193 14.3851
42.8671 14.3183
42.9152 14.2957
42.963 14.2333
43.0111 14.1784
43.0589 14.2103
43.107 14.087
43.1549 14.0913
43.2029 14.0043
43.2508 13.9738
43.2989 13.9056
43.3468 13.8228
43.3949 13.8651
43.4429 13.7962
43.491 13.7361
43.5389 13.6957
43.5871 13.6367
43.635 13.6152
43.6832 13.5529
43.7312 13.4996
43.7793 13.4413
43.8273 13.4041
43.8755 13.3693
43.9237 13.3083
43.9717 13.2914
44.0199 13.2384
44.068 13.1521
44.1162 13.1281
44.1642 13.1064
44.2125 13.0457
44.2606 13.0099
44.3088 12.9662
44.3569 12.9229
44.4052 12.9336
44.4533 12.8325
44.5016 12.7869
44.5497 12.7534
44.598 12.697
44.6461 12.6145
44.6945 12.5984
44.7426 12.5156
44.791 12.5099
44.8391 12.4967
44.8875 12.4086
44.9357 12.4276
44.984 12.303
45.0322 12.3202
45.0806 12.2698
45.1288 12.1792
45.1773 12.1737
45.2257 12.1102
45.2739 12.1087
45.3224 12.0441
45.3706 12.0139
45.4191 11.9352
45.4673 11.9419
45.5158 11.9089
45.5641 11.8159
45.6126 11.7679
45.6609 11.7393
45.7094 11.7089
45.7577 11.6334
45.8063 11.5852
45.8546 11.5935
45.9031 11.5133
45.9515 11.4343
46.0001 11.4704
46.0484 11.4621
46.097 11.3474
46.1454 11.3062
46.194 11.2953
46.2424 11.2522
46.291 11.1834
46.3395 11.1861
46.3881 11.1044
46.4365 11.0849
46.4852 11.0545
46.5337 11.0103
46.5823 10.9748
46.631 10.8692
46.6795 10.8703
46.7282 10.8395
46.7767 10.8144
46.8254 10.7536
46.8739 10.6978
46.9226 10.6597
46.9712 10.6449
47.0199 10.6031
47.0685 10.5597
47.1173 10.5001
47.1658 10.4553
47.2146 10.4658
47.2632 10.3725
47.312 10.366
47.3606 10.3144
47.4095 10.3015
47.4581 10.2651
47.5069 10.2006
47.5556 10.1792
47.6044 10.136
47.6531 10.1117
47.702 10.0527
47.7507 10.0385
47.7996 9.98145
47.8483 9.94135
47.8972 9.92483
47.9461 9.86944
47.9948 9.83425
48.0438 9.85254
48.0925 9.795
48.1415 9.73941
48.1902 9.66071
48.2392 9.67187
48.288 9.65881
48.337 9.63349
48.3858 9.5579
48.4348 9.50391
48.4837 9.52189
48.5327 9.465
48.5815 9.44146
48.6306 9.41042
48.6795 9.36483
48.7285 9.29163
48.7774 9.27582
48.8265 9.25013
48.8754 9.2251
48.9245 9.19757
48.9734 9.13636
49.0226 9.12653
49.0715 9.0741
49.1206 9.07113
49.1696 9.00606
49.2188 8.97367
49.2679 8.90036
49.3169 8.89968
49.3661 8.8706
49.4151 8.83277
49.4643 8.84831
49.5134 8.75022
49.5626 8.70309
49.6117 8.67335
49.6609 8.68289
49.71 8.62637
49.7592 8.61504
49.8083 8.52351
49.8576 8.52143
49.9067 8.5033
49.956 8.48158
50.0052 8.42807
50.0545 8.40075
50.1036 8.35954
50.153 8.32382
50.2022 8.30333
50.2515 8.2643
50.3007 8.21614
50.3501 8.20999
50.3993 8.18022
50.4487 8.16035
50.498 8.11695
50.5474 8.07138
50.5966 8.05812
50.6461 8.04161
50.6955 8.00303
50.7448 7.93539
50.7943 7.95238
50.8436 7.88705
50.8931 7.88635
50.9424 7.82714
50.9919 7.80602
51.0413 7.79439
51.0908 7.7583
51.1402 7.7232
51.1897 7.67251
51.2391 7.70291
51.2887 7.60229
51.3381 7.57292
51.3877 7.55845
51.4371 7.51438
51.4867 7.50721
51.5362 7.48837
51.5858 7.45255
51.6353 7.42041
51.6849 7.38854
51.7344 7.31302
51.7841 7.33695
51.8336 7.25658
51.8833 7.2827
51.9328 7.23336
51.9826 7.1729
52.0323 7.19908
52.0818 7.14467
52.1316 7.07925
52.1812 7.06187
52.231 7.05302
52.2806 7.03456
52.3304 6.98008
52.38 6.96406
52.4298 6.94861
52.4794 6.87217
52.5293 6.87797
52.5789 6.81231
52.6288 6.85395
52.6785 6.77179
52.7284 6.72822
52.7781 6.76214
52.828 6.70579
52.8777 6.6564
52.9276 6.65103
52.9774 6.62705
53.0273 6.63178
53.0771 6.53933
53.1271 6.54947
53.1769 6.52226
53.2269 6.50541
53.2767 6.45378
53.3267 6.41479
53.3765 6.4662
53.4266 6.37461
53.4766 6.31286
53.5265 6.31116
53.5765 6.31365
53.6264 6.27529
53.6765 6.25443
53.7264 6.20387
53.7765 6.15395
53.8265 6.1591
53.8766 6.18283
53.9266 6.07242
53.9767 6.0528
54.0267 6.05748
54.0769 6.02981
54.1269 6.01878
54.1771 5.92635
54.2271 5.93447
54.2773 5.88939
54.3274 5.88323
54.3776 5.83572
54.4277 5.80224
54.478 5.77481
54.528 5.7367
54.5783 5.71604
54.6285 5.6557
54.6788 5.61949
54.7289 5.56281
54.7792 5.54865
54.8296 5.4799
54.8798 5.48131
54.9301 5.40218
54.9803 5.41911
55.0307 5.36681
55.0809 5.31214
55.1314 5.27446
55.1816 5.21601
55.232 5.16359
55.2823 5.13665
55.3328 5.0925
55.383 5.04965
55.4335 5.01085
55.4838 4.93748
55.5344 4.89467
55.5847 4.83549
55.6352 4.84877
55.6856 4.76238
55.7361 4.73839