File: XRD/Ni3Fe_FD0513.xy
TT I
1.27165 8.13476
1.31627 7.04407
1.36089 6.64164
1.40551 5.81445
1.45013 6.29395
1.49476 5.84912
1.53938 6.07226
1.584 5.39461
1.62863 5.22722
1.67325 5.89687
1.71787 5.17574
1.7625 5.16025
1.80712 4.79743
1.85174 4.9447
1.89636 4.86886
1.94099 5.05841
1.98562 4.46268
2.03025 5.03245
2.07487 4.81756
2.11949 5.06271
2.16411 5.21375
2.20874 15.3169
2.25338 24.6242
2.298 6.16064
2.34263 5.53445
2.38725 6.28095
2.43188 6.01179
2.4765 7.00637
2.52115 6.70877
2.56577 6.69456
2.6104 7.67265
2.65503 7.41069
2.69965 7.23119
2.7443 8.43626
2.78893 8.05037
2.83356 8.29149
2.87818 8.92652
2.92281 8.67897
2.96744 9.51549
3.01209 10.1071
3.05672 11.353
3.10135 12.4431
3.14599 12.9159
3.19062 14.1618
3.23527 15.133
3.2799 15.8222
3.32454 16.9174
3.36917 17.9324
3.4138 18.8463
3.45844 20.0203
3.50309 21.2064
3.54773 22.1587
3.59237 24.0995
3.637 100.691
3.68164 63.1194
3.7263 26.8012
3.77094 26.3363
3.81558 27.2574
3.86022 27.8383
3.90486 29.469
3.9495 30.2496
3.99416 30.9546
4.0388 32.6034
4.08344 33.8216
4.12809 35.5004
4.17273 37.9425
4.21738 44.0933
4.26204 269.178
4.30669 232.795
4.35133 49.771
4.39598 44.9444
4.44063 55.3733
4.4853 67.9804
4.52995 51.5575
4.5746 51.6556
4.61925 53.601
4.6639 56.4352
4.70855 58.8405
4.75322 61.3703
4.79788 64.1136
4.84253 68.2533
4.88719 72.0249
4.93184 75.5349
4.97652 81.8206
5.02118 88.3688
5.06583 95.9456
5.11049 108.536
5.15515 183.143
5.19981 389.503
5.24449 2943.17
5.28916 11906.0
5.33382 3232.87
5.37848 204.86
5.42315 134.224
5.46783 116.69
5.5125 107.756
5.55716 103.813
5.60183 100.548
5.6465 98.3019
5.69117 95.3918
5.73586 93.8071
5.78053 92.8598
5.8252 92.5268
5.86988 93.2634
5.91455 96.1821
5.95924 104.512
6.00392 216.447
6.0486 1011.99
6.09328 4083.63
6.13795 3439.62
6.18263 294.43
6.22733 97.1661
6.27201 84.5727
6.3167 105.99
6.36138 82.3742
6.40606 70.0369
6.45075 68.5304
6.49545 66.4604
6.54014 64.4882
6.58483 63.7674
6.62952 63.9945
6.67421 98.2861
6.71892 152.924
6.76361 70.2991
6.8083 59.5941
6.853 57.9598
6.89769 57.7364
6.94239 57.6164
6.98711 56.4923
7.03181 55.9597
7.07651 55.7005
7.12121 55.8518
7.16591 56.5121
7.21063 56.4263
7.25533 72.6759
7.30004 191.528
7.34475 95.9233
7.38945 57.6284
7.43416 55.2522
7.47889 55.1039
7.5236 55.5509
7.56831 56.1181
7.61303 57.9922
7.65774 58.2891
7.70247 56.8429
7.74719 56.8262
7.79191 57.3568
7.83663 57.6902
7.88135 58.6442
7.92607 59.4502
7.97081 60.6516
8.01553 61.6355
8.06026 62.7559
8.10498 64.8559
8.14971 75.3313
8.19446 73.855
8.23919 70.5841
8.28392 72.4058
8.32865 74.9665
8.37339 79.2375
8.41812 86.2852
8.46288 117.94
8.50761 168.167
8.55235 396.397
8.59709 1140.82
8.64183 2155.81
8.68658 1076.23
8.73134 183.498
8.77609 102.023
8.82083 93.8998
8.86558 91.1826
8.91033 91.3268
8.9551 93.0578
8.99985 86.4525
9.04461 84.2363
9.08936 83.8992
9.13412 82.6054
9.17888 83.1562
9.22365 83.7733
9.26841 83.0403
9.31318 83.4776
9.35794 83.841
9.4027 84.1769
9.44749 85.0699
9.49226 85.2613
9.53703 86.2079
9.5818 88.0565
9.62657 93.0187
9.67134 100.365
9.71614 94.9901
9.76091 95.1096
9.80569 97.9385
9.85047 100.946
9.89525 127.272
9.94005 140.642
9.98484 180.161
10.0296 351.14
10.0744 792.719
10.1192 1645.75
10.164 1647.61
10.2088 449.178
10.2536 135.212
10.2984 116.232
10.3432 117.591
10.388 106.189
10.4328 119.765
10.4776 161.585
10.5224 279.606
10.5672 494.026
10.612 515.21
10.6568 227.284
10.7017 100.772
10.7465 88.0487
10.7913 84.4633
10.8361 82.5787
10.8809 79.9433
10.9257 79.6428
10.9706 80.3782
11.0154 75.8559
11.0602 73.3872
11.105 72.5934
11.1499 77.784
11.1947 85.4961
11.2395 75.9492
11.2844 71.5368
11.3292 67.9663
11.374 66.8397
11.4189 66.3982
11.4637 65.6461
11.5086 66.3902
11.5534 69.5492
11.5983 66.7259
11.6431 64.4356
11.688 63.6286
11.7328 63.6478
11.7777 63.603
11.8225 63.5991
11.8674 63.0636
11.9122 63.6909
11.9571 63.8726
12.002 64.3642
12.0468 68.5138
12.0917 80.5642
12.1366 104.347
12.1814 153.767
12.2263 204.948
12.2712 174.97
12.3161 102.784
12.3609 72.3964
12.4058 65.7567
12.4507 65.2985
12.4956 65.2628
12.5405 65.5758
12.5853 66.4862
12.6302 74.6674
12.6751 81.1112
12.72 71.3234
12.7649 68.475
12.8098 69.37
12.8547 70.468
12.8996 71.8477
12.9445 73.2007
12.9894 74.9455
13.0343 76.5282
13.0792 79.7979
13.1242 89.071
13.1691 113.958
13.214 150.897
13.2589 234.427
13.3038 356.608
13.3487 429.413
13.3937 283.347
13.4386 131.77
13.4835 107.538
13.5285 122.541
13.5734 159.775
13.6183 241.074
13.6633 332.891
13.7082 339.536
13.7531 201.292
13.7981 103.326
13.843 83.2273
13.888 80.6776
13.9329 78.0229
13.9779 76.8985
14.0228 75.3816
14.0678 73.8925
14.1127 73.4453
14.1577 73.279
14.2027 72.4796
14.2476 71.3218
14.2926 71.5126
14.3376 72.6467
14.3825 71.2354
14.4275 69.7587
14.4725 69.376
14.5175 69.7266
14.5624 69.9284
14.6074 72.3354
14.6524 72.8526
14.6974 71.3853
14.7424 72.6294
14.7874 79.6428
14.8324 90.1929
14.8774 110.901
14.9224 151.154
14.9674 200.115
15.0124 216.459
15.0574 155.439
15.1024 95.0988
15.1474 73.7179
15.1924 71.6054
15.2374 72.2618
15.2824 71.5833
15.3274 69.3281
15.3725 67.8207
15.4175 67.3834
15.4625 67.0042
15.5076 67.2329
15.5526 66.9148
15.5976 66.5493
15.6426 67.4516
15.6877 72.8339
15.7327 80.8874
15.7778 95.6417
15.8228 124.959
15.8679 166.149
15.9129 192.105
15.958 161.315
16.003 103.412
16.0481 70.2527
16.0931 65.8844
16.1382 63.8025
16.1833 61.5536
16.2283 59.8826
16.2734 59.1798
16.3185 59.6778
16.3636 60.5474
16.4086 58.6149
16.4537 57.1517
16.4988 56.4216
16.5439 56.341
16.589 55.9332
16.6341 55.6231
16.6792 55.2503
16.7243 55.767
16.7694 55.6495
16.8145 55.5676
16.8596 56.0225
16.9047 57.5493
16.9498 57.9255
16.9949 56.4447
17.04 56.6768
17.0851 57.9836
17.1302 59.4893
17.1754 62.3843
17.2205 67.1479
17.2656 74.1386
17.3108 81.4048
17.3559 82.2568
17.401 72.5072
17.4462 63.4323
17.4913 60.0834
17.5365 59.9413
17.5815 60.1153
17.6268 60.2265
17.6718 61.0306
17.7171 61.68
17.7622 62.1846
17.8074 62.4515
17.8525 65.0092
17.8977 68.99
17.9428 74.7836
17.9881 83.1393
18.0331 98.7844
18.0784 119.285
18.1237 137.417
18.1688 133.963
18.214 107.82
18.2591 88.7815
18.3044 90.7208
18.3495 99.445
18.3948 105.923
18.4399 99.2728
18.4852 80.7931
18.5303 67.7187
18.5756 63.2234
18.6207 62.1628
18.666 61.3656
18.7112 60.4618
18.7565 59.8115
18.8016 59.399
18.8469 58.7759
18.892 58.5346
18.9374 57.9283
18.9825 57.8186
19.0278 57.8153
19.073 57.6373
19.1183 58.3818
19.1635 59.1139
19.2088 60.4043
19.254 62.9212
19.2993 67.0828
19.3447 72.7461
19.3898 76.8632
19.4352 73.5697
19.4804 64.9923
19.5257 58.0801
19.5709 55.0167
19.6163 54.6789
19.6615 54.4087
19.7068 54.0537
19.752 53.9408
19.7974 54.3374
19.8426 55.216
19.888 55.8416
19.9332 56.8308
19.9786 59.3349
20.0238 62.5671
20.0692 67.29
20.1144 70.3694
20.1598 69.4971
20.205 64.8144
20.2504 62.8868
20.2957 64.0063
20.3411 66.0355
20.3863 64.9216
20.4318 59.724
20.477 54.8209
20.5224 52.5816
20.5677 51.7341
20.6131 51.1177
20.6586 50.3007
20.7038 50.2014
20.7493 49.8819
20.7945 49.7042
20.84 49.4944
20.8853 49.4142
20.9307 49.0814
20.976 49.5619
21.0215 49.2009
21.0668 49.6642
21.1122 50.1482
21.1575 50.8176
21.203 51.5108
21.2483 51.9132
21.2938 52.0769
21.3391 50.9489
21.3846 49.6333
21.4299 48.9532
21.4754 49.0789
21.5207 49.1489
21.5662 49.3743
21.6116 49.843
21.6571 50.5945
21.7024 51.5424
21.7479 53.2124
21.7933 55.9039
21.8388 59.1793
21.8843 62.7848
21.9297 64.967
21.9752 64.4886
22.0206 61.0093
22.0661 57.4657
22.1115 56.3786
22.157 56.7667
22.2024 55.3977
22.248 52.4341
22.2933 50.6234
22.3389 49.7699
22.3843 49.7057
22.4299 49.7288
22.4753 49.5701
22.5208 49.2857
22.5662 49.0931
22.6118 49.4531
22.6572 49.5891
22.7028 49.8909
22.7483 50.4386
22.7939 51.1522
22.8393 52.3758
22.8849 54.4282
22.9303 56.2097
22.9759 58.0678
23.0214 58.316
23.067 55.6761
23.1126 52.0952
23.1581 49.9505
23.2037 49.458
23.2492 49.4852
23.2948 49.5466
23.3403 49.6912
23.3859 50.4283
23.4314 51.3905
23.477 53.0489
23.5225 55.0135
23.5682 57.0108
23.6137 58.1481
23.6593 56.5153
23.7048 52.8422
23.7505 49.4327
23.796 47.3905
23.8417 46.6445
23.8872 46.1607
23.9329 45.8366
23.9784 45.3616
24.0241 45.2213
24.0697 45.1537
24.1154 44.6838
24.1609 44.5775
24.2066 44.4598
24.2522 44.2212
24.2979 44.0828
24.3434 43.935
24.3892 43.6665
24.4349 43.7111
24.4805 43.5624
24.5262 43.6968
24.5718 43.5796
24.6175 43.5905
24.6631 43.58
24.7089 43.0536
24.7545 42.8528
24.8002 42.8232
24.8458 42.7794
24.8916 42.5896
24.9372 42.8027
24.983 43.0804
25.0286 43.4166
25.0744 43.8313
25.12 44.2283
25.1658 44.8914
25.2114 45.2319
25.2572 45.1568
25.3029 45.3357
25.3487 45.462
25.3943 45.2015
25.4402 44.173
25.4858 43.2188
25.5316 42.198
25.5773 41.4643
25.6231 41.5315
25.669 41.1292
25.7147 41.0158
25.7605 41.0301
25.8062 40.9545
25.8521 41.1733
25.8977 41.2187
25.9436 41.345
25.9893 41.4251
26.0352 41.8758
26.0809 41.9817
26.1268 42.1179
26.1725 41.9728
26.2184 41.3862
26.2641 40.83
26.31 40.718
26.3557 40.6613
26.4017 40.7167
26.4474 40.9635
26.4933 41.3133
26.5391 41.7317
26.585 42.2148
26.6308 42.4895
26.6767 42.6638
26.7225 42.4821
26.7684 42.0785
26.8142 41.4216
26.8601 40.9505
26.9059 40.5614
26.9519 40.0932
26.9979 39.786
27.0437 39.4418
27.0896 39.2663
27.1354 39.1441
27.1814 39.2202
27.2272 39.0739
27.2732 38.9526
27.3191 38.9445
27.3651 38.9887
27.4109 39.0051
27.4569 39.0504
27.5027 38.8951
27.5488 39.1031
27.5946 38.83
27.6407 38.7764
27.6865 38.5665
27.7326 38.3795
27.7784 38.3298
27.8245 38.2061
27.8703 38.5265
27.9164 38.8173
27.9623 38.9373
28.0084 39.1753
28.0543 39.5293
28.1003 39.403
28.1462 39.3053
28.1923 39.0138
28.2384 38.4671
28.2843 38.0782
28.3304 37.6158
28.3764 37.3301
28.4225 36.8988
28.4684 36.7402
28.5145 36.4147
28.5605 36.3255
28.6066 36.1325
28.6526 36.1908
28.6987 36.1848
28.7447 35.9293
28.7908 35.9488
28.8368 35.9295
28.8829 35.9116
28.9289 35.8804
28.9751 35.7276
29.0211 35.5886
29.0673 35.0981
29.1133 35.1459
29.1595 34.9272
29.2055 34.7596
29.2517 34.7865
29.2977 34.7618
29.3439 34.6655
29.3899 34.7574
29.4361 34.6837
29.4824 34.3864
29.5284 34.1955
29.5746 33.9695
29.6207 33.6688
29.6669 33.5882
29.713 33.5144
29.7593 33.2889
29.8053 33.3095
29.8516 33.2344
29.8977 33.2701
29.9439 33.0752
29.99 32.9672
30.0363 32.8766
30.0824 32.9149
30.1287 32.8403
30.1748 32.8492
30.2211 32.7415
30.2673 32.6338
30.3136 32.7667
30.3597 32.6634
30.406 32.5155
30.4522 32.435
30.4985 32.4037
30.5447 32.5949
30.591 32.5568
30.6372 32.5361
30.6835 32.5979
30.7297 32.6725
30.7761 32.5976
30.8224 32.4805
30.8686 32.2975
30.915 32.0195
30.9612 31.992
31.0076 31.7618
31.0538 31.6303
31.1002 31.5251
31.1464 31.3337
31.1928 31.3375
31.2391 31.4255
31.2855 31.1507
31.3317 31.1731
31.3781 31.3557
31.4244 31.1859
31.4708 31.1948
31.5171 31.2094
31.5636 31.2547
31.6098 30.9389
31.6563 30.8036
31.7026 30.5341
31.7491 30.5373
31.7953 30.6012
31.8418 30.5809
31.8881 30.5654
31.9346 30.4711
31.9809 30.4198
32.0275 30.3156
32.074 30.2105
32.1203 30.0242
32.1668 29.9775
32.2132 29.7719
32.2597 29.7012
32.306 29.5442
32.3526 29.3107
32.399 29.2954
32.4455 29.1907
32.4919 29.1653
32.5385 29.0463
32.5848 28.876
32.6314 28.9351
32.6778 28.8315
32.7244 28.7185
32.7708 28.449
32.8174 28.5086
32.8638 28.3719
32.9104 28.4599
32.9569 28.3457
33.0035 28.2068
33.0499 28.1066
33.0966 28.1642
33.143 28.1386
33.1897 27.9485
33.2361 28.0509
33.2828 27.8608
33.3293 27.8275
33.3759 27.7435
33.4226 27.6308
33.4691 27.4861
33.5158 27.3127
33.5623 27.2678
33.609 27.1693
33.6555 26.9859
33.7022 26.9875
33.7487 26.7948
33.7954 26.7621
33.842 26.7655
33.8887 26.6065
33.9353 26.6299
33.982 26.5039
34.0286 26.4193
34.0753 26.3539
34.1219 26.2242
34.1687 26.1145
34.2152 26.1551
34.262 25.9445
34.3086 25.9019
34.3554 25.8335
34.402 25.66
34.4488 25.6011
34.4954 25.5955
34.5422 25.5157
34.5889 25.3466
34.6357 25.2495
34.6825 25.2441
34.7292 25.2388
34.776 25.03
34.8227 25.0655
34.8695 25.0418
34.9162 24.976
34.9631 24.7222
35.0098 24.8558
35.0566 24.6693
35.1033 24.6245
35.1502 24.5465
35.1969 24.492
35.2438 24.5201
35.2906 24.4211
35.3375 24.3619
35.3842 24.2853
35.4311 24.3059
35.4779 24.2522
35.5248 24.2048
35.5716 24.1099
35.6185 23.9921
35.6653 24.0
35.7123 23.8298
35.759 23.7801
35.806 23.6512
35.8528 23.5673
35.8998 23.4476
35.9468 23.4745
35.9936 23.4197
36.0406 23.3387
36.0874 23.3341
36.1345 23.1433
36.1813 23.1096
36.2283 23.0219
36.2752 22.9438
36.3222 23.0052
36.3691 22.8328
36.4161 22.7045
36.463 22.7353
36.5101 22.7825
36.557 22.627
36.6041 22.4725
36.651 22.5025
36.6981 22.4161
36.745 22.3171
36.7921 22.2259
36.839 22.1911
36.8861 22.0556
36.9331 22.0509
36.9802 21.9226
37.0272 21.8775
37.0743 21.8617
37.1213 21.7477
37.1684 21.7226
37.2154 21.6794
37.2626 21.5291
37.3098 21.4851
37.3568 21.3639
37.404 21.3577
37.451 21.2971
37.4982 21.1705
37.5452 21.0989
37.5924 21.0607
37.6395 21.0852
37.6867 20.9677
37.7337 20.928
37.781 20.7212
37.8281 20.7761
37.8753 20.7573
37.9224 20.6839
37.9697 20.5427
38.0168 20.4362
38.064 20.3881
38.1111 20.4697
38.1584 20.233
38.2056 20.2131
38.2529 20.1803
38.3 20.0625
38.3473 20.0469
38.3945 19.9027
38.4418 19.8581
38.489 19.8504
38.5363 19.7808
38.5837 19.738
38.6309 19.6703
38.6782 19.524
38.7254 19.5746
38.7728 19.4653
38.82 19.395
38.8674 19.3595
38.9146 19.2473
38.9621 19.2538
39.0093 19.2094
39.0567 19.1349
39.104 19.0166
39.1514 19.0239
39.1987 18.9522
39.2461 18.9194
39.2934 18.7966
39.3409 18.732
39.3882 18.7004
39.4356 18.6434
39.483 18.5711
39.5304 18.5468
39.5778 18.4663
39.6253 18.4273
39.6726 18.3646
39.7201 18.3126
39.7675 18.2212
39.815 18.2294
39.8624 18.0726
39.9099 18.0319
39.9575 17.9315
40.0049 17.9507
40.0525 17.8508
40.0999 17.8512
40.1474 17.7608
40.1949 17.706
40.2425 17.6351
40.2899 17.5802
40.3375 17.5582
40.385 17.4979
40.4326 17.3977
40.48 17.3603
40.5277 17.2774
40.5752 17.2326
40.6228 17.1724
40.6703 17.1163
40.718 17.1023
40.7655 17.0574
40.8132 17.0098
40.8607 16.9438
40.9084 16.9434
40.9559 16.8272
41.0036 16.7809
41.0512 16.765
41.0989 16.6775
41.1465 16.5782
41.1942 16.5536
41.242 16.4641
41.2896 16.4569
41.3373 16.4077
41.3849 16.3507
41.4327 16.2596
41.4803 16.2214
41.5281 16.2136
41.5758 16.0971
41.6236 16.0758
41.6712 16.013
41.7191 15.9321
41.7667 15.9227
41.8146 15.8503
41.8622 15.7717
41.9101 15.8162
41.9578 15.6193
42.0057 15.6666
42.0534 15.572
42.1013 15.4945
42.149 15.5123
42.1969 15.4024
42.2446 15.3892
42.2925 15.3463
42.3403 15.2834
42.3882 15.1984
42.436 15.251
42.4839 15.1405
42.5319 15.0646
42.5797 15.0644
42.6277 14.9891
42.6755 14.9377
42.7235 14.8639
42.7713 14.7918
42.8193 14.7672
42.8671 14.7048
42.9152 14.6679
42.963 14.5801
43.0111 14.5568
43.0589 14.4823
43.107 14.5041
43.1549 14.4205
43.2029 14.3767
43.2508 14.3002
43.2989 14.2827
43.3468 14.184
43.3949 14.1584
43.4429 14.1184
43.491 14.0485
43.5389 14.0208
43.5871 13.9958
43.635 13.9523
43.6832 13.9151
43.7312 13.833
43.7793 13.7278
43.8273 13.7516
43.8755 13.7072
43.9237 13.5952
43.9717 13.6121
44.0199 13.5254
44.068 13.5323
44.1162 13.4185
44.1642 13.445
44.2125 13.4093
44.2606 13.3212
44.3088 13.2644
44.3569 13.2189
44.4052 13.1724
44.4533 13.0872
44.5016 13.0789
44.5497 13.0624
44.598 12.9682
44.6461 12.9926
44.6945 12.8859
44.7426 12.8752
44.791 12.7931
44.8391 12.782
44.8875 12.7103
44.9357 12.6837
44.984 12.6278
45.0322 12.5922
45.0806 12.5422
45.1288 12.4864
45.1773 12.4627
45.2257 12.3885
45.2739 12.3733
45.3224 12.311
45.3706 12.3032
45.4191 12.2341
45.4673 12.1913
45.5158 12.1598
45.5641 12.1032
45.6126 12.0707
45.6609 12.0101
45.7094 11.9516
45.7577 11.9467
45.8063 11.8969
45.8546 11.8586
45.9031 11.7941
45.9515 11.7744
46.0001 11.7027
46.0484 11.6654
46.097 11.6782
46.1454 11.5815
46.194 11.5993
46.2424 11.5084
46.291 11.4787
46.3395 11.4321
46.3881 11.3658
46.4365 11.3198
46.4852 11.2812
46.5337 11.2879
46.5823 11.2563
46.631 11.1852
46.6795 11.1641
46.7282 11.0815
46.7767 11.0508
46.8254 11.0327
46.8739 10.977
46.9226 10.8892
46.9712 10.8808
47.0199 10.8409
47.0685 10.7907
47.1173 10.752
47.1658 10.7256
47.2146 10.7023
47.2632 10.6456
47.312 10.6332
47.3606 10.5554
47.4095 10.4929
47.4581 10.5148
47.5069 10.4306
47.5556 10.3994
47.6044 10.4043
47.6531 10.3878
47.702 10.2981
47.7507 10.2697
47.7996 10.2407
47.8483 10.1569
47.8972 10.175
47.9461 10.1205
47.9948 10.0644
48.0438 10.0243
48.0925 9.97666
48.1415 9.97541
48.1902 9.941
48.2392 9.90924
48.288 9.89134
48.337 9.86713
48.3858 9.79912
48.4348 9.77122
48.4837 9.7554
48.5327 9.66161
48.5815 9.66584
48.6306 9.61744
48.6795 9.6037
48.7285 9.52662
48.7774 9.53596
48.8265 9.52165
48.8754 9.48705
48.9245 9.458
48.9734 9.3401
49.0226 9.36124
49.0715 9.29047
49.1206 9.26832
49.1696 9.23374
49.2188 9.21239
49.2679 9.21126
49.3169 9.10122
49.3661 9.06911
49.4151 9.07621
49.4643 9.02477
49.5134 8.98829
49.5626 8.95085
49.6117 8.92855
49.6609 8.93593
49.71 8.83469
49.7592 8.79047
49.8083 8.80539
49.8576 8.79437
49.9067 8.70988
49.956 8.68332
50.0052 8.68218
50.0545 8.66735
50.1036 8.56034
50.153 8.55588
50.2022 8.54814
50.2515 8.48989
50.3007 8.43949
50.3501 8.41309
50.3993 8.39829
50.4487 8.38658
50.498 8.34393
50.5474 8.2948
50.5966 8.22107
50.6461 8.25144
50.6955 8.20805
50.7448 8.20137
50.7943 8.13248
50.8436 8.10543
50.8931 8.06602
50.9424 8.04696
50.9919 8.01226
51.0413 7.99035
51.0908 7.9626
51.1402 7.89638
51.1897 7.86213
51.2391 7.849
51.2887 7.82625
51.3381 7.77826
51.3877 7.74873
51.4371 7.72651
51.4867 7.68602
51.5362 7.65702
51.5858 7.66818
51.6353 7.61295
51.6849 7.56389
51.7344 7.5495
51.7841 7.46297
51.8336 7.50684
51.8833 7.43903
51.9328 7.41622
51.9826 7.35054
52.0323 7.3618
52.0818 7.30821
52.1316 7.27914
52.1812 7.28608
52.231 7.24091
52.2806 7.18544
52.3304 7.18247
52.38 7.16106
52.4298 7.09697
52.4794 7.08829
52.5293 7.0688
52.5789 7.0357
52.6288 6.99118
52.6785 6.92964
52.7284 6.94712
52.7781 6.91748
52.828 6.89642
52.8777 6.82951
52.9276 6.8492
52.9774 6.7986
53.0273 6.78369
53.0771 6.72105
53.1271 6.70953
53.1769 6.64823
53.2269 6.68822
53.2767 6.58417
53.3267 6.61764
53.3765 6.54779
53.4266 6.54954
53.4766 6.50079
53.5265 6.48513
53.5765 6.46876
53.6264 6.40277
53.6765 6.40522
53.7264 6.34678
53.7765 6.32288
53.8265 6.31724
53.8766 6.30895
53.9266 6.25849
53.9767 6.20468
54.0267 6.19128
54.0769 6.15572
54.1269 6.13536
54.1771 6.13556
54.2271 6.08429
54.2773 5.99543
54.3274 6.01368
54.3776 5.94206
54.4277 5.9568
54.478 5.95761
54.528 5.88469
54.5783 5.80849
54.6285 5.80199
54.6788 5.76281
54.7289 5.72631
54.7792 5.70884
54.8296 5.66599
54.8798 5.58518
54.9301 5.57642
54.9803 5.52049
55.0307 5.48357
55.0809 5.413
55.1314 5.46744
55.1816 5.35998
55.232 5.32391
55.2823 5.28108
55.3328 5.25667
55.383 5.16206
55.4335 5.15037
55.4838 5.09391
55.5344 5.01216
55.5847 5.02269
55.6352 4.96383
55.6856 4.90759
55.7361 4.85257