File: XRD/Ni3Fe_FD0616.xy
TT I
1.27165 7.93208
1.31627 7.12429
1.36089 6.08751
1.40551 6.55545
1.45013 6.28381
1.49476 6.27903
1.53938 5.90332
1.584 5.72865
1.62863 5.57895
1.67325 4.67627
1.71787 4.92093
1.7625 5.30787
1.80712 4.35962
1.85174 4.88771
1.89636 4.44532
1.94099 4.6104
1.98562 5.11237
2.03025 4.74915
2.07487 4.72592
2.11949 4.70227
2.16411 4.83934
2.20874 13.714
2.25338 21.6583
2.298 5.79119
2.34263 5.68728
2.38725 5.99672
2.43188 5.61394
2.4765 7.03533
2.52115 6.99135
2.56577 7.51133
2.6104 7.31486
2.65503 7.17773
2.69965 7.91089
2.7443 7.65406
2.78893 8.0245
2.83356 8.5827
2.87818 8.79366
2.92281 9.01845
2.96744 9.66333
3.01209 9.92637
3.05672 10.6775
3.10135 12.403
3.14599 12.9746
3.19062 13.9961
3.23527 14.9378
3.2799 16.2527
3.32454 17.3981
3.36917 17.6973
3.4138 18.7611
3.45844 19.5458
3.50309 21.0084
3.54773 21.7389
3.59237 24.2513
3.637 87.6779
3.68164 56.8629
3.7263 26.2206
3.77094 26.3721
3.81558 26.5361
3.86022 27.8717
3.90486 29.4572
3.9495 29.8627
3.99416 30.9458
4.0388 32.5608
4.08344 33.7763
4.12809 34.9295
4.17273 37.1857
4.21738 42.8267
4.26204 232.053
4.30669 201.512
4.35133 48.5441
4.39598 44.1826
4.44063 53.8144
4.4853 64.5599
4.52995 50.6876
4.5746 51.4961
4.61925 53.7723
4.6639 55.1821
4.70855 58.3821
4.75322 60.7966
4.79788 63.7974
4.84253 67.7139
4.88719 71.7859
4.93184 75.2428
4.97652 80.5249
5.02118 87.4659
5.06583 94.7806
5.11049 106.225
5.15515 171.05
5.19981 354.96
5.24449 2912.08
5.28916 12614.9
5.33382 3025.97
5.37848 195.372
5.42315 129.673
5.46783 114.219
5.5125 106.929
5.55716 102.786
5.60183 99.5716
5.6465 97.3738
5.69117 95.0176
5.73586 93.3747
5.78053 92.3286
5.8252 91.1946
5.86988 92.5497
5.91455 94.9991
5.95924 102.776
6.00392 206.434
6.0486 985.368
6.09328 4353.31
6.13795 3517.49
6.18263 256.618
6.22733 94.6158
6.27201 83.6635
6.3167 100.815
6.36138 80.4721
6.40606 69.5347
6.45075 67.3168
6.49545 65.7334
6.54014 64.1864
6.58483 63.2925
6.62952 62.9996
6.67421 92.3843
6.71892 138.288
6.76361 68.2188
6.8083 58.9004
6.853 57.7459
6.89769 57.2356
6.94239 56.7032
6.98711 55.7053
7.03181 56.4573
7.07651 55.7661
7.12121 55.2446
7.16591 55.3846
7.21063 55.605
7.25533 69.8008
7.30004 170.693
7.34475 89.2793
7.38945 56.9506
7.43416 54.883
7.47889 54.5358
7.5236 55.2423
7.56831 55.5277
7.61303 57.2912
7.65774 57.9958
7.70247 56.3811
7.74719 56.4822
7.79191 57.1805
7.83663 57.0876
7.88135 57.8329
7.92607 58.7279
7.97081 60.0592
8.01553 60.9877
8.06026 62.4794
8.10498 64.138
8.14971 73.0257
8.19446 72.1925
8.23919 70.0583
8.28392 72.1165
8.32865 74.2203
8.37339 78.5311
8.41812 85.2907
8.46288 112.72
8.50761 163.059
8.55235 391.576
8.59709 1194.5
8.64183 2195.4
8.68658 999.63
8.73134 178.966
8.77609 100.519
8.82083 93.3499
8.86558 90.1501
8.91033 89.97
8.9551 91.5884
8.99985 85.7151
9.04461 84.237
9.08936 83.0773
9.13412 82.2251
9.17888 82.074
9.22365 82.9737
9.26841 82.6884
9.31318 82.8073
9.35794 83.0044
9.4027 83.596
9.44749 84.3482
9.49226 84.8531
9.53703 85.8205
9.5818 87.2625
9.62657 91.9512
9.67134 98.3853
9.71614 93.7159
9.76091 94.4114
9.80569 96.6667
9.85047 100.535
9.89525 122.958
9.94005 134.773
9.98484 174.173
10.0296 342.383
10.0744 825.503
10.1192 1709.39
10.164 1580.41
10.2088 419.176
10.2536 129.116
10.2984 113.911
10.3432 114.728
10.388 105.04
10.4328 117.981
10.4776 161.677
10.5224 284.989
10.5672 504.707
10.612 495.856
10.6568 205.4
10.7017 97.5285
10.7465 86.9861
10.7913 83.6499
10.8361 81.5944
10.8809 79.0204
10.9257 78.742
10.9706 79.312
11.0154 75.1956
11.0602 73.1208
11.105 72.224
11.1499 76.2443
11.1947 82.6863
11.2395 74.411
11.2844 70.4815
11.3292 67.8609
11.374 66.633
11.4189 66.0603
11.4637 65.264
11.5086 65.692
11.5534 68.3308
11.5983 65.5884
11.6431 63.8264
11.688 63.2948
11.7328 63.0745
11.7777 63.0799
11.8225 62.7105
11.8674 62.6124
11.9122 63.0577
11.9571 63.2081
12.002 63.7402
12.0468 67.7915
12.0917 79.1106
12.1366 104.006
12.1814 153.016
12.2263 201.073
12.2712 169.71
12.3161 98.1456
12.3609 70.7465
12.4058 64.9449
12.4507 64.576
12.4956 64.6978
12.5405 64.8006
12.5853 65.8608
12.6302 73.1894
12.6751 78.2182
12.72 69.9637
12.7649 68.3371
12.8098 68.6337
12.8547 69.9943
12.8996 71.564
12.9445 72.5256
12.9894 74.2948
13.0343 76.1992
13.0792 79.1843
13.1242 88.0352
13.1691 111.921
13.214 150.037
13.2589 240.912
13.3038 366.021
13.3487 421.427
13.3937 272.604
13.4386 128.771
13.4835 105.872
13.5285 120.861
13.5734 159.987
13.6183 248.665
13.6633 344.157
13.7082 340.832
13.7531 193.435
13.7981 100.132
13.843 82.3849
13.888 80.0608
13.9329 77.5748
13.9779 76.0111
14.0228 74.4701
14.0678 73.2775
14.1127 73.0083
14.1577 72.8031
14.2027 71.77
14.2476 70.7907
14.2926 71.1193
14.3376 71.8253
14.3825 70.5264
14.4275 69.4256
14.4725 68.949
14.5175 69.2732
14.5624 69.2309
14.6074 71.3714
14.6524 71.899
14.6974 70.9194
14.7424 72.0641
14.7874 78.8442
14.8324 89.3397
14.8774 111.926
14.9224 154.749
14.9674 205.488
15.0124 215.612
15.0574 152.734
15.1024 93.8237
15.1474 73.2317
15.1924 70.6945
15.2374 71.2779
15.2824 70.4344
15.3274 68.6427
15.3725 67.2865
15.4175 66.7835
15.4625 66.3306
15.5076 66.486
15.5526 66.6607
15.5976 65.9957
15.6426 67.0215
15.6877 72.332
15.7327 80.3153
15.7778 95.9765
15.8228 127.091
15.8679 168.572
15.9129 190.52
15.958 155.634
16.003 98.8696
16.0481 68.9557
16.0931 64.9804
16.1382 63.0617
16.1833 60.8969
16.2283 59.4474
16.2734 58.6798
16.3185 58.8853
16.3636 59.5276
16.4086 57.9695
16.4537 56.7145
16.4988 55.8954
16.5439 55.8076
16.589 55.5219
16.6341 55.191
16.6792 54.8347
16.7243 55.2751
16.7694 55.4518
16.8145 55.2725
16.8596 55.4116
16.9047 56.8216
16.9498 57.2075
16.9949 55.9697
17.04 55.9587
17.0851 57.2264
17.1302 58.8688
17.1754 62.0776
17.2205 67.3452
17.2656 75.0009
17.3108 82.2621
17.3559 82.3983
17.401 72.7767
17.4462 63.0589
17.4913 59.5634
17.5365 59.4901
17.5815 59.5742
17.6268 59.9313
17.6718 60.729
17.7171 61.265
17.7622 61.8214
17.8074 62.0487
17.8525 64.3292
17.8977 68.4659
17.9428 74.2744
17.9881 83.1479
18.0331 100.71
18.0784 121.851
18.1237 139.168
18.1688 131.793
18.214 105.615
18.2591 88.4292
18.3044 91.2836
18.3495 100.157
18.3948 105.346
18.4399 97.2206
18.4852 78.5909
18.5303 66.8443
18.5756 62.7191
18.6207 61.5516
18.666 60.9661
18.7112 60.1239
18.7565 59.3777
18.8016 58.9981
18.8469 58.3704
18.892 58.0369
18.9374 57.5887
18.9825 57.4349
19.0278 57.12
19.073 57.2901
19.1183 57.6574
19.1635 58.5042
19.2088 60.0625
19.254 62.4774
19.2993 66.9898
19.3447 73.2211
19.3898 76.4213
19.4352 72.5277
19.4804 64.1128
19.5257 57.2719
19.5709 54.4181
19.6163 54.1723
19.6615 53.8888
19.7068 53.596
19.752 53.6256
19.7974 53.8487
19.8426 54.5928
19.888 55.3144
19.9332 56.5304
19.9786 59.0969
20.0238 62.5853
20.0692 67.5225
20.1144 69.7816
20.1598 68.4013
20.205 64.2125
20.2504 62.7457
20.2957 64.0218
20.3411 65.7681
20.3863 64.614
20.4318 59.2676
20.477 54.1847
20.5224 52.0872
20.5677 51.3593
20.6131 50.6056
20.6586 49.933
20.7038 49.7739
20.7493 49.4051
20.7945 49.2211
20.84 48.9439
20.8853 48.9836
20.9307 48.7979
20.976 49.0035
21.0215 48.8385
21.0668 49.4164
21.1122 49.7525
21.1575 50.4351
21.203 51.0015
21.2483 51.5387
21.2938 51.6318
21.3391 50.1949
21.3846 49.1699
21.4299 48.6529
21.4754 48.6136
21.5207 48.7462
21.5662 49.1453
21.6116 49.5261
21.6571 50.2069
21.7024 51.1494
21.7479 52.8662
21.7933 55.7103
21.8388 59.3008
21.8843 62.6072
21.9297 64.5008
21.9752 63.5043
22.0206 60.3175
22.0661 57.2398
22.1115 56.266
22.157 56.0146
22.2024 54.6072
22.248 51.8172
22.2933 50.2548
22.3389 49.4929
22.3843 49.1897
22.4299 49.0696
22.4753 49.0741
22.5208 48.826
22.5662 48.7907
22.6118 48.835
22.6572 49.1193
22.7028 49.5185
22.7483 49.9902
22.7939 50.7619
22.8393 52.145
22.8849 54.3093
22.9303 56.4107
22.9759 57.8572
23.0214 57.6113
23.067 54.857
23.1126 51.5781
23.1581 49.4817
23.2037 49.0767
23.2492 49.1172
23.2948 49.0327
23.3403 49.3187
23.3859 50.0671
23.4314 51.1166
23.477 52.9084
23.5225 55.0477
23.5682 56.9871
23.6137 57.8349
23.6593 55.9004
23.7048 52.1375
23.7505 48.7202
23.796 46.8798
23.8417 46.2881
23.8872 45.7903
23.9329 45.3836
23.9784 45.0085
24.0241 44.9077
24.0697 44.8117
24.1154 44.2963
24.1609 44.1954
24.2066 44.2652
24.2522 44.0203
24.2979 43.5682
24.3434 43.6035
24.3892 43.3811
24.4349 43.3701
24.4805 43.1425
24.5262 43.3489
24.5718 43.2824
24.6175 43.0862
24.6631 43.0812
24.7089 42.8163
24.7545 42.6864
24.8002 42.6216
24.8458 42.4999
24.8916 42.2684
24.9372 42.3852
24.983 42.7544
25.0286 43.1135
25.0744 43.5881
25.12 43.926
25.1658 44.4486
25.2114 44.8577
25.2572 45.0586
25.3029 45.086
25.3487 45.0794
25.3943 44.749
25.4402 43.791
25.4858 42.769
25.5316 41.7273
25.5773 41.2177
25.6231 41.0578
25.669 40.675
25.7147 40.8517
25.7605 40.6827
25.8062 40.8473
25.8521 40.7952
25.8977 40.8146
25.9436 40.9984
25.9893 41.2177
26.0352 41.5426
26.0809 41.6707
26.1268 41.9252
26.1725 41.6697
26.2184 41.0051
26.2641 40.5478
26.31 40.3828
26.3557 40.3328
26.4017 40.3293
26.4474 40.7296
26.4933 41.0401
26.5391 41.4982
26.585 42.0402
26.6308 42.2449
26.6767 42.3703
26.7225 42.2311
26.7684 41.8202
26.8142 41.1625
26.8601 40.6483
26.9059 40.3161
26.9519 39.6942
26.9979 39.4546
27.0437 39.2065
27.0896 38.9799
27.1354 38.9612
27.1814 38.8668
27.2272 38.834
27.2732 38.8903
27.3191 38.4505
27.3651 38.871
27.4109 38.6111
27.4569 38.7576
27.5027 38.8306
27.5488 38.7589
27.5946 38.5948
27.6407 38.3778
27.6865 38.2722
27.7326 38.0416
27.7784 38.0436
27.8245 38.0059
27.8703 38.208
27.9164 38.4564
27.9623 38.6917
28.0084 38.8809
28.0543 39.2996
28.1003 39.253
28.1462 38.9836
28.1923 38.6051
28.2384 38.2068
28.2843 37.909
28.3304 37.4042
28.3764 36.9373
28.4225 36.6853
28.4684 36.4144
28.5145 36.0561
28.5605 36.0539
28.6066 36.0163
28.6526 35.7495
28.6987 35.8376
28.7447 35.7476
28.7908 35.6977
28.8368 35.661
28.8829 35.7802
28.9289 35.5324
28.9751 35.285
29.0211 35.0928
29.0673 34.8368
29.1133 34.7358
29.1595 34.5744
29.2055 34.6075
29.2517 34.541
29.2977 34.6057
29.3439 34.4984
29.3899 34.3256
29.4361 34.2688
29.4824 34.2174
29.5284 33.8722
29.5746 33.6457
29.6207 33.3127
29.6669 33.2933
29.713 33.2233
29.7593 33.0918
29.8053 33.1445
29.8516 32.957
29.8977 32.9559
29.9439 32.676
29.99 32.6768
30.0363 32.6445
30.0824 32.6358
30.1287 32.5733
30.1748 32.5235
30.2211 32.6984
30.2673 32.4568
30.3136 32.5945
30.3597 32.3269
30.406 32.452
30.4522 32.3718
30.4985 32.2603
30.5447 32.2697
30.591 32.3
30.6372 32.3691
30.6835 32.3265
30.7297 32.4692
30.7761 32.2637
30.8224 32.1496
30.8686 32.1318
30.915 31.7939
30.9612 31.6603
31.0076 31.4989
31.0538 31.4099
31.1002 31.4004
31.1464 31.2063
31.1928 31.1465
31.2391 31.178
31.2855 30.9989
31.3317 31.031
31.3781 31.096
31.4244 31.1047
31.4708 31.021
31.5171 30.8904
31.5636 30.8634
31.6098 30.7951
31.6563 30.6019
31.7026 30.4871
31.7491 30.3673
31.7953 30.3027
31.8418 30.3667
31.8881 30.3026
31.9346 30.2112
31.9809 30.2536
32.0275 30.1099
32.074 29.9519
32.1203 29.7563
32.1668 29.6926
32.2132 29.6137
32.2597 29.5188
32.306 29.3819
32.3526 29.1362
32.399 29.1576
32.4455 28.8444
32.4919 28.8761
32.5385 28.8834
32.5848 28.6666
32.6314 28.5795
32.6778 28.5692
32.7244 28.4115
32.7708 28.372
32.8174 28.3501
32.8638 28.116
32.9104 28.2582
32.9569 28.1868
33.0035 28.0444
33.0499 27.9403
33.0966 27.9371
33.143 27.9647
33.1897 27.9023
33.2361 27.7602
33.2828 27.7662
33.3293 27.6168
33.3759 27.5941
33.4226 27.3809
33.4691 27.207
33.5158 27.2278
33.5623 27.0482
33.609 26.944
33.6555 26.8762
33.7022 26.7848
33.7487 26.6583
33.7954 26.6119
33.842 26.5748
33.8887 26.5235
33.9353 26.3998
33.982 26.2994
34.0286 26.2691
34.0753 26.2044
34.1219 26.0441
34.1687 25.9633
34.2152 25.9164
34.262 25.8213
34.3086 25.6948
34.3554 25.7221
34.402 25.5617
34.4488 25.4713
34.4954 25.3586
34.5422 25.3245
34.5889 25.2609
34.6357 25.096
34.6825 25.1611
34.7292 25.0141
34.776 24.9074
34.8227 24.8706
34.8695 24.7513
34.9162 24.742
34.9631 24.566
35.0098 24.6481
35.0566 24.4753
35.1033 24.4083
35.1502 24.4523
35.1969 24.2831
35.2438 24.2906
35.2906 24.2092
35.3375 24.1788
35.3842 24.2224
35.4311 24.0815
35.4779 24.1059
35.5248 24.0578
35.5716 23.9516
35.6185 23.7549
35.6653 23.7361
35.7123 23.6704
35.759 23.6533
35.806 23.4663
35.8528 23.3898
35.8998 23.382
35.9468 23.257
35.9936 23.1907
36.0406 23.0939
36.0874 23.1226
36.1345 23.0232
36.1813 22.941
36.2283 22.8699
36.2752 22.7631
36.3222 22.7328
36.3691 22.703
36.4161 22.5825
36.463 22.6369
36.5101 22.5294
36.557 22.4806
36.6041 22.2769
36.651 22.3333
36.6981 22.2229
36.745 22.1783
36.7921 22.0689
36.839 22.0199
36.8861 21.9888
36.9331 21.862
36.9802 21.7912
37.0272 21.7205
37.0743 21.6328
37.1213 21.6345
37.1684 21.5634
37.2154 21.4585
37.2626 21.3704
37.3098 21.3477
37.3568 21.2532
37.404 21.2817
37.451 21.0615
37.4982 21.0665
37.5452 20.9953
37.5924 20.9753
37.6395 20.9811
37.6867 20.8941
37.7337 20.7711
37.781 20.6074
37.8281 20.59
37.8753 20.5083
37.9224 20.4812
37.9697 20.3722
38.0168 20.297
38.064 20.1981
38.1111 20.2506
38.1584 20.1676
38.2056 20.0882
38.2529 20.0319
38.3 19.933
38.3473 19.9292
38.3945 19.8544
38.4418 19.7626
38.489 19.7757
38.5363 19.6864
38.5837 19.5219
38.6309 19.574
38.6782 19.4314
38.7254 19.3347
38.7728 19.3621
38.82 19.2698
38.8674 19.2524
38.9146 19.1173
38.9621 19.097
39.0093 19.0085
39.0567 18.9894
39.104 18.9233
39.1514 18.8544
39.1987 18.8025
39.2461 18.7396
39.2934 18.7335
39.3409 18.5509
39.3882 18.4503
39.4356 18.4643
39.483 18.3589
39.5304 18.3543
39.5778 18.374
39.6253 18.263
39.6726 18.1757
39.7201 18.1778
39.7675 18.0869
39.815 18.049
39.8624 18.0066
39.9099 17.9071
39.9575 17.8846
40.0049 17.8189
40.0525 17.7329
40.0999 17.6858
40.1474 17.6569
40.1949 17.6262
40.2425 17.5058
40.2899 17.4375
40.3375 17.4211
40.385 17.3621
40.4326 17.3138
40.48 17.2508
40.5277 17.1587
40.5752 17.1318
40.6228 17.0335
40.6703 17.0053
40.718 16.9976
40.7655 16.9193
40.8132 16.8108
40.8607 16.8566
40.9084 16.8275
40.9559 16.7261
41.0036 16.6229
41.0512 16.589
41.0989 16.564
41.1465 16.5232
41.1942 16.4076
41.242 16.349
41.2896 16.3289
41.3373 16.2615
41.3849 16.1903
41.4327 16.1184
41.4803 16.0895
41.5281 16.0412
41.5758 15.9554
41.6236 15.9875
41.6712 15.8649
41.7191 15.8465
41.7667 15.7344
41.8146 15.7246
41.8622 15.7071
41.9101 15.6584
41.9578 15.594
42.0057 15.5015
42.0534 15.4628
42.1013 15.4477
42.149 15.3666
42.1969 15.2923
42.2446 15.2242
42.2925 15.2209
42.3403 15.1774
42.3882 15.1312
42.436 15.0716
42.4839 14.9807
42.5319 15.0042
42.5797 14.9104
42.6277 14.9097
42.6755 14.8286
42.7235 14.7816
42.7713 14.7266
42.8193 14.6834
42.8671 14.6325
42.9152 14.5811
42.963 14.5245
43.0111 14.4597
43.0589 14.4202
43.107 14.3573
43.1549 14.3378
43.2029 14.2306
43.2508 14.2631
43.2989 14.1877
43.3468 14.0684
43.3949 14.0773
43.4429 14.0413
43.491 13.9687
43.5389 13.915
43.5871 13.8632
43.635 13.8347
43.6832 13.7873
43.7312 13.6918
43.7793 13.7146
43.8273 13.6742
43.8755 13.6097
43.9237 13.5615
43.9717 13.5579
44.0199 13.4669
44.068 13.4014
44.1162 13.369
44.1642 13.3128
44.2125 13.2609
44.2606 13.1758
44.3088 13.1912
44.3569 13.1212
44.4052 13.1142
44.4533 13.0695
44.5016 13.0016
44.5497 12.908
44.598 12.9244
44.6461 12.835
44.6945 12.7867
44.7426 12.7954
44.791 12.7112
44.8391 12.6797
44.8875 12.6682
44.9357 12.5367
44.984 12.5232
45.0322 12.4965
45.0806 12.438
45.1288 12.4259
45.1773 12.304
45.2257 12.2945
45.2739 12.3116
45.3224 12.2525
45.3706 12.1947
45.4191 12.1347
45.4673 12.1412
45.5158 12.0606
45.5641 12.0042
45.6126 11.9682
45.6609 11.9009
45.7094 11.8567
45.7577 11.8869
45.8063 11.7664
45.8546 11.7381
45.9031 11.7411
45.9515 11.6849
46.0001 11.6437
46.0484 11.599
46.097 11.5684
46.1454 11.5474
46.194 11.4744
46.2424 11.4148
46.291 11.396
46.3395 11.3598
46.3881 11.2748
46.4365 11.2581
46.4852 11.2146
46.5337 11.1811
46.5823 11.1708
46.631 11.1054
46.6795 11.0716
46.7282 11.0512
46.7767 10.987
46.8254 10.9443
46.8739 10.9018
46.9226 10.8496
46.9712 10.7879
47.0199 10.8138
47.0685 10.7292
47.1173 10.7169
47.1658 10.6467
47.2146 10.6389
47.2632 10.6024
47.312 10.5301
47.3606 10.4787
47.4095 10.4545
47.4581 10.4713
47.5069 10.376
47.5556 10.3226
47.6044 10.3225
47.6531 10.2645
47.702 10.2417
47.7507 10.1862
47.7996 10.173
47.8483 10.1201
47.8972 10.0684
47.9461 10.0545
47.9948 10.0407
48.0438 9.96461
48.0925 9.95041
48.1415 9.94271
48.1902 9.84841
48.2392 9.84114
48.288 9.81575
48.337 9.76684
48.3858 9.73584
48.4348 9.69227
48.4837 9.68965
48.5327 9.64419
48.5815 9.58603
48.6306 9.56586
48.6795 9.51868
48.7285 9.46332
48.7774 9.48377
48.8265 9.43935
48.8754 9.37962
48.9245 9.33513
48.9734 9.25294
49.0226 9.27277
49.0715 9.27853
49.1206 9.1874
49.1696 9.14911
49.2188 9.1321
49.2679 9.10311
49.3169 9.05213
49.3661 9.00154
49.4151 8.97739
49.4643 8.96099
49.5134 8.91656
49.5626 8.87706
49.6117 8.86174
49.6609 8.78734
49.71 8.75797
49.7592 8.75314
49.8083 8.7174
49.8576 8.69586
49.9067 8.62007
49.956 8.61322
50.0052 8.57438
50.0545 8.5621
50.1036 8.53372
50.153 8.47388
50.2022 8.42801
50.2515 8.39283
50.3007 8.36535
50.3501 8.3478
50.3993 8.31727
50.4487 8.27647
50.498 8.29445
50.5474 8.20531
50.5966 8.1936
50.6461 8.15603
50.6955 8.13198
50.7448 8.11676
50.7943 8.0953
50.8436 8.02865
50.8931 7.97812
50.9424 7.96268
50.9919 7.94429
51.0413 7.92943
51.0908 7.8808
51.1402 7.83945
51.1897 7.81737
51.2391 7.77827
51.2887 7.78453
51.3381 7.72457
51.3877 7.71022
51.4371 7.64937
51.4867 7.60215
51.5362 7.58324
51.5858 7.56128
51.6353 7.50118
51.6849 7.48146
51.7344 7.46602
51.7841 7.45141
51.8336 7.44803
51.8833 7.39796
51.9328 7.37428
51.9826 7.30992
52.0323 7.27416
52.0818 7.2413
52.1316 7.21538
52.1812 7.20695
52.231 7.18568
52.2806 7.09898
52.3304 7.12283
52.38 7.08261
52.4298 7.0298
52.4794 6.99973
52.5293 6.98425
52.5789 6.97523
52.6288 6.94179
52.6785 6.88288
52.7284 6.87313
52.7781 6.84199
52.828 6.81789
52.8777 6.75451
52.9276 6.76217
52.9774 6.75311
53.0273 6.66649
53.0771 6.68237
53.1271 6.67498
53.1769 6.64571
53.2269 6.6066
53.2767 6.54204
53.3267 6.5384
53.3765 6.50198
53.4266 6.47132
53.4766 6.41134
53.5265 6.41226
53.5765 6.40186
53.6264 6.37547
53.6765 6.34923
53.7264 6.29162
53.7765 6.29992
53.8265 6.25146
53.8766 6.19988
53.9266 6.1768
53.9767 6.14472
54.0267 6.16838
54.0769 6.06544
54.1269 6.13207
54.1771 6.05001
54.2271 5.98765
54.2773 5.99144
54.3274 5.98868
54.3776 5.94064
54.4277 5.89467
54.478 5.87366
54.528 5.77397
54.5783 5.75887
54.6285 5.74417
54.6788 5.70898
54.7289 5.66646
54.7792 5.66075
54.8296 5.58561
54.8798 5.58471
54.9301 5.50564
54.9803 5.48609
55.0307 5.44011
55.0809 5.4181
55.1314 5.35906
55.1816 5.33156
55.232 5.2987
55.2823 5.2637
55.3328 5.17964
55.383 5.12937
55.4335 5.08202
55.4838 5.02753
55.5344 4.98871
55.5847 4.97796
55.6352 4.93498
55.6856 4.88112
55.7361 4.86855