File: XRD/Ni3Fe_FD0335.xy
TT I
1.27165 7.76048
1.31627 7.33736
1.36089 7.29198
1.40551 6.11336
1.45013 6.18143
1.49476 5.66832
1.53938 6.09866
1.584 4.93022
1.62863 5.5823
1.67325 5.25048
1.71787 4.93933
1.7625 5.09138
1.80712 4.99802
1.85174 4.82036
1.89636 4.93406
1.94099 4.88679
1.98562 4.56756
2.03025 4.84066
2.07487 4.47046
2.11949 4.81057
2.16411 4.5878
2.20874 11.0975
2.25338 16.8898
2.298 4.93418
2.34263 4.90768
2.38725 5.27027
2.43188 4.92148
2.4765 5.46867
2.52115 6.6427
2.56577 6.76677
2.6104 6.91041
2.65503 6.99019
2.69965 7.3651
2.7443 7.51539
2.78893 7.78584
2.83356 7.94722
2.87818 8.66312
2.92281 8.73621
2.96744 9.26459
3.01209 10.3457
3.05672 11.1806
3.10135 12.3122
3.14599 13.3859
3.19062 14.1616
3.23527 15.1933
3.2799 16.3117
3.32454 16.5683
3.36917 18.0529
3.4138 19.3558
3.45844 19.7916
3.50309 21.0221
3.54773 22.0744
3.59237 23.9906
3.637 71.1769
3.68164 48.1043
3.7263 26.1399
3.77094 26.5056
3.81558 26.9688
3.86022 28.0501
3.90486 29.494
3.9495 30.0908
3.99416 31.3166
4.0388 32.5831
4.08344 34.0934
4.12809 35.729
4.17273 37.3692
4.21738 42.0201
4.26204 187.226
4.30669 160.401
4.35133 47.3855
4.39598 45.6126
4.44063 51.9534
4.4853 60.5481
4.52995 52.5181
4.5746 53.3455
4.61925 54.2833
4.6639 57.0186
4.70855 60.0098
4.75322 62.6485
4.79788 66.1067
4.84253 69.4374
4.88719 74.1876
4.93184 78.3332
4.97652 83.8627
5.02118 91.6055
5.06583 101.122
5.11049 115.521
5.15515 180.605
5.19981 566.54
5.24449 3584.13
5.28916 11418.6
5.33382 3509.38
5.37848 226.206
5.42315 139.95
5.46783 121.088
5.5125 110.816
5.55716 106.549
5.60183 102.468
5.6465 100.199
5.69117 98.2387
5.73586 96.0944
5.78053 96.6961
5.8252 96.7723
5.86988 97.8005
5.91455 101.632
5.95924 115.57
6.00392 303.777
6.0486 1249.01
6.09328 4072.34
6.13795 3463.48
6.18263 296.1
6.22733 101.19
6.27201 85.8473
6.3167 96.6022
6.36138 80.1772
6.40606 71.5218
6.45075 69.662
6.49545 67.1028
6.54014 65.4417
6.58483 64.7478
6.62952 64.3917
6.67421 84.6843
6.71892 118.269
6.76361 67.3247
6.8083 60.3246
6.853 58.853
6.89769 58.5681
6.94239 58.1815
6.98711 56.9484
7.03181 56.9604
7.07651 56.7066
7.12121 56.3975
7.16591 56.4662
7.21063 56.4994
7.25533 66.6208
7.30004 142.36
7.34475 81.2661
7.38945 57.2265
7.43416 55.8016
7.47889 55.2029
7.5236 55.7554
7.56831 56.4509
7.61303 57.6818
7.65774 58.2187
7.70247 57.5502
7.74719 57.3736
7.79191 58.1507
7.83663 58.3558
7.88135 59.4357
7.92607 60.0623
7.97081 61.624
8.01553 62.2824
8.06026 63.9279
8.10498 65.3471
8.14971 73.1965
8.19446 72.7974
8.23919 71.6087
8.28392 74.0402
8.32865 76.763
8.37339 81.5554
8.41812 88.8875
8.46288 115.458
8.50761 213.909
8.55235 487.33
8.59709 1162.17
8.64183 2115.9
8.68658 1055.55
8.73134 184.563
8.77609 104.862
8.82083 96.4791
8.86558 92.4616
8.91033 92.0816
8.9551 92.6176
8.99985 87.8749
9.04461 86.0934
9.08936 85.6217
9.13412 84.6508
9.17888 84.6533
9.22365 85.1374
9.26841 84.7837
9.31318 85.9098
9.35794 85.4694
9.4027 85.7824
9.44749 86.364
9.49226 87.2368
9.53703 87.961
9.5818 90.5102
9.62657 93.6285
9.67134 98.8859
9.71614 96.2855
9.76091 97.7278
9.80569 99.7379
9.85047 103.545
9.89525 122.194
9.94005 139.133
9.98484 223.467
10.0296 429.029
10.0744 855.269
10.1192 1595.02
10.164 1674.8
10.2088 495.746
10.2536 138.023
10.2984 116.696
10.3432 115.644
10.388 109.138
10.4328 133.824
10.4776 184.434
10.5224 293.179
10.5672 483.272
10.612 528.26
10.6568 216.596
10.7017 100.318
10.7465 89.6626
10.7913 85.7106
10.8361 83.6585
10.8809 81.3613
10.9257 80.1847
10.9706 80.3019
11.0154 76.7865
11.0602 74.8724
11.105 73.7006
11.1499 76.1165
11.1947 81.0128
11.2395 74.1974
11.2844 71.302
11.3292 69.0192
11.374 68.0404
11.4189 67.3513
11.4637 66.6091
11.5086 66.9235
11.5534 68.6251
11.5983 66.6254
11.6431 65.3415
11.688 64.6847
11.7328 64.6625
11.7777 64.2119
11.8225 64.1828
11.8674 64.3286
11.9122 64.5044
11.9571 64.8243
12.002 66.0214
12.0468 73.0269
12.0917 85.9659
12.1366 108.57
12.1814 148.275
12.2263 198.302
12.2712 174.89
12.3161 100.055
12.3609 71.6714
12.4058 66.56
12.4507 66.0127
12.4956 66.3326
12.5405 66.2857
12.5853 67.1593
12.6302 72.6743
12.6751 76.9484
12.72 70.8368
12.7649 69.8639
12.8098 70.4449
12.8547 71.9621
12.8996 73.1768
12.9445 74.8818
12.9894 76.5172
13.0343 78.6288
13.0792 82.552
13.1242 97.2658
13.1691 125.706
13.214 165.871
13.2589 243.963
13.3038 349.112
13.3487 424.158
13.3937 284.296
13.4386 133.066
13.4835 116.796
13.5285 134.905
13.5734 171.738
13.6183 240.906
13.6633 330.837
13.7082 343.706
13.7531 202.169
13.7981 102.702
13.843 84.3958
13.888 81.9207
13.9329 79.4245
13.9779 78.1665
14.0228 76.6201
14.0678 75.1613
14.1127 74.6468
14.1577 74.2403
14.2027 73.4236
14.2476 72.5254
14.2926 72.3283
14.3376 73.1374
14.3825 71.9828
14.4275 71.0016
14.4725 70.9365
14.5175 71.0951
14.5624 71.1826
14.6074 72.453
14.6524 73.2526
14.6974 72.7594
14.7424 75.9212
14.7874 85.3744
14.8324 97.4565
14.8774 118.347
14.9224 153.347
14.9674 199.135
15.0124 219.933
15.0574 156.413
15.1024 95.0235
15.1474 74.6474
15.1924 72.5267
15.2374 72.2825
15.2824 71.6046
15.3274 69.7553
15.3725 68.6366
15.4175 68.2388
15.4625 67.9344
15.5076 68.0792
15.5526 68.3163
15.5976 67.9697
15.6426 70.2603
15.6877 77.9013
15.7327 86.7682
15.7778 101.665
15.8228 127.867
15.8679 162.731
15.9129 192.254
15.958 165.309
16.003 103.64
16.0481 70.371
16.0931 65.7365
16.1382 63.7921
16.1833 62.3616
16.2283 60.7438
16.2734 60.1368
16.3185 60.0329
16.3636 60.2107
16.4086 58.908
16.4537 57.6104
16.4988 57.0101
16.5439 57.2621
16.589 56.9914
16.6341 56.4519
16.6792 56.1167
16.7243 56.4858
16.7694 56.3868
16.8145 56.1713
16.8596 56.8686
16.9047 57.9996
16.9498 58.3752
16.9949 57.2525
17.04 57.7864
17.0851 59.2989
17.1302 61.1079
17.1754 64.4822
17.2205 68.9847
17.2656 74.797
17.3108 82.6901
17.3559 84.3677
17.401 74.474
17.4462 64.6203
17.4913 60.9803
17.5365 60.9291
17.5815 60.9505
17.6268 61.4117
17.6718 62.1773
17.7171 62.6978
17.7622 63.0742
17.8074 64.0631
17.8525 67.9777
17.8977 72.6398
17.9428 78.5057
17.9881 87.4357
18.0331 101.395
18.0784 119.538
18.1237 140.186
18.1688 138.886
18.214 111.505
18.2591 91.5852
18.3044 91.6077
18.3495 99.204
18.3948 106.629
18.4399 99.481
18.4852 80.7215
18.5303 68.0729
18.5756 64.067
18.6207 63.1252
18.666 62.1742
18.7112 61.5752
18.7565 60.7625
18.8016 60.2555
18.8469 59.7127
18.892 59.365
18.9374 59.1545
18.9825 58.7777
19.0278 58.6286
19.073 58.9013
19.1183 59.5709
19.1635 60.3207
19.2088 62.0157
19.254 64.1076
19.2993 67.6789
19.3447 72.6033
19.3898 77.342
19.4352 75.1353
19.4804 66.0164
19.5257 58.6235
19.5709 55.9104
19.6163 55.5644
19.6615 55.3793
19.7068 54.9294
19.752 54.8728
19.7974 55.51
19.8426 56.5215
19.888 57.206
19.9332 58.3852
19.9786 60.8466
20.0238 63.8221
20.0692 67.8135
20.1144 71.3771
20.1598 71.2745
20.205 66.4173
20.2504 63.4988
20.2957 64.5517
20.3411 66.6904
20.3863 66.0616
20.4318 60.6315
20.477 55.3857
20.5224 53.1267
20.5677 52.4918
20.6131 51.7493
20.6586 51.1136
20.7038 51.1458
20.7493 50.652
20.7945 50.4829
20.84 50.3597
20.8853 50.4324
20.9307 50.2384
20.976 50.3655
21.0215 50.2348
21.0668 50.5787
21.1122 51.0762
21.1575 51.4892
21.203 52.1649
21.2483 52.7218
21.2938 53.2184
21.3391 51.7705
21.3846 50.5776
21.4299 49.8796
21.4754 49.8499
21.5207 50.1761
21.5662 50.4895
21.6116 51.2008
21.6571 51.9176
21.7024 52.9988
21.7479 54.6341
21.7933 56.9695
21.8388 60.0648
21.8843 63.5837
21.9297 66.4538
21.9752 65.7574
22.0206 61.8672
22.0661 58.0956
22.1115 57.1024
22.157 57.4826
22.2024 56.1739
22.248 53.377
22.2933 51.4681
22.3389 50.6819
22.3843 50.3822
22.4299 50.3294
22.4753 50.3333
22.5208 50.0185
22.5662 50.0047
22.6118 50.3649
22.6572 50.599
22.7028 50.981
22.7483 51.673
22.7939 52.3623
22.8393 53.531
22.8849 55.2773
22.9303 56.971
22.9759 58.87
23.0214 58.9612
23.067 56.4705
23.1126 52.8815
23.1581 50.7684
23.2037 50.485
23.2492 50.4116
23.2948 50.6174
23.3403 50.9595
23.3859 51.6423
23.4314 52.5548
23.477 54.093
23.5225 55.7212
23.5682 57.687
23.6137 59.2519
23.6593 57.5063
23.7048 53.5947
23.7505 49.9103
23.796 48.2074
23.8417 47.3712
23.8872 46.7595
23.9329 46.6641
23.9784 46.2538
24.0241 46.0817
24.0697 45.8596
24.1154 45.3089
24.1609 45.5599
24.2066 45.2572
24.2522 45.0077
24.2979 44.6362
24.3434 44.6052
24.3892 44.4969
24.4349 44.596
24.4805 44.2003
24.5262 44.2978
24.5718 44.2726
24.6175 44.2187
24.6631 44.1629
24.7089 43.713
24.7545 43.7153
24.8002 43.543
24.8458 43.5724
24.8916 43.445
24.9372 43.595
24.983 44.0491
25.0286 44.2844
25.0744 44.6524
25.12 44.9847
25.1658 45.6439
25.2114 45.9783
25.2572 46.1302
25.3029 45.9241
25.3487 46.091
25.3943 46.0939
25.4402 44.9729
25.4858 44.0203
25.5316 42.7199
25.5773 42.0928
25.6231 42.0615
25.669 41.8891
25.7147 41.9577
25.7605 41.6307
25.8062 41.7992
25.8521 41.891
25.8977 41.8955
25.9436 42.1594
25.9893 42.1657
26.0352 42.5885
26.0809 42.589
26.1268 42.7709
26.1725 42.6936
26.2184 42.1167
26.2641 41.6493
26.31 41.4481
26.3557 41.4751
26.4017 41.3935
26.4474 41.7224
26.4933 41.962
26.5391 42.5215
26.585 42.7311
26.6308 43.1382
26.6767 43.5212
26.7225 43.2996
26.7684 42.7135
26.8142 42.1476
26.8601 41.5932
26.9059 41.3248
26.9519 40.6087
26.9979 40.4681
27.0437 40.118
27.0896 39.9687
27.1354 40.0016
27.1814 39.7952
27.2272 39.5861
27.2732 39.6925
27.3191 39.5309
27.3651 39.6268
27.4109 39.4664
27.4569 39.6615
27.5027 39.6014
27.5488 39.6226
27.5946 39.4849
27.6407 39.3904
27.6865 39.2531
27.7326 38.9358
27.7784 39.051
27.8245 38.9745
27.8703 39.1008
27.9164 39.3199
27.9623 39.5187
28.0084 39.7268
28.0543 40.2229
28.1003 40.2076
28.1462 39.9429
28.1923 39.5799
28.2384 39.1245
28.2843 38.8217
28.3304 38.4202
28.3764 37.84
28.4225 37.4915
28.4684 37.269
28.5145 37.02
28.5605 36.9468
28.6066 36.822
28.6526 36.7899
28.6987 36.5784
28.7447 36.5245
28.7908 36.4762
28.8368 36.5048
28.8829 36.3478
28.9289 36.2503
28.9751 36.1466
29.0211 36.0021
29.0673 35.68
29.1133 35.5875
29.1595 35.5615
29.2055 35.4464
29.2517 35.4222
29.2977 35.3376
29.3439 35.2757
29.3899 35.1986
29.4361 35.1861
29.4824 34.9656
29.5284 34.6938
29.5746 34.5021
29.6207 34.0544
29.6669 33.9941
29.713 34.0166
29.7593 33.9572
29.8053 33.987
29.8516 33.7185
29.8977 33.7905
29.9439 33.5436
29.99 33.6429
30.0363 33.5339
30.0824 33.5024
30.1287 33.2285
30.1748 33.4451
30.2211 33.3659
30.2673 33.2929
30.3136 33.4198
30.3597 33.1248
30.406 33.1691
30.4522 33.0994
30.4985 33.0196
30.5447 33.063
30.591 33.1262
30.6372 33.2028
30.6835 33.0854
30.7297 33.1071
30.7761 33.0504
30.8224 33.055
30.8686 32.8515
30.915 32.6393
30.9612 32.4786
31.0076 32.2129
31.0538 32.1068
31.1002 32.0388
31.1464 31.8532
31.1928 31.9002
31.2391 31.9402
31.2855 31.8293
31.3317 31.7858
31.3781 31.8336
31.4244 31.8089
31.4708 31.7347
31.5171 31.7358
31.5636 31.6714
31.6098 31.5011
31.6563 31.2839
31.7026 31.1141
31.7491 31.0481
31.7953 31.1039
31.8418 31.0497
31.8881 31.0427
31.9346 31.0115
31.9809 30.9107
32.0275 30.7969
32.074 30.8068
32.1203 30.5152
32.1668 30.5667
32.2132 30.328
32.2597 30.2093
32.306 29.981
32.3526 29.8403
32.399 29.8267
32.4455 29.5992
32.4919 29.4836
32.5385 29.4178
32.5848 29.2756
32.6314 29.2866
32.6778 29.261
32.7244 29.1844
32.7708 28.9314
32.8174 29.128
32.8638 28.8311
32.9104 28.8211
32.9569 28.8596
33.0035 28.6943
33.0499 28.6428
33.0966 28.669
33.143 28.5743
33.1897 28.519
33.2361 28.4826
33.2828 28.3456
33.3293 28.2182
33.3759 28.3075
33.4226 28.0715
33.4691 27.9464
33.5158 27.7871
33.5623 27.7069
33.609 27.5372
33.6555 27.4415
33.7022 27.4468
33.7487 27.2512
33.7954 27.3787
33.842 27.1856
33.8887 26.9975
33.9353 26.9677
33.982 26.857
34.0286 26.875
34.0753 26.7252
34.1219 26.593
34.1687 26.5587
34.2152 26.5022
34.262 26.4035
34.3086 26.3092
34.3554 26.2964
34.402 26.1599
34.4488 26.1147
34.4954 25.9869
34.5422 25.9227
34.5889 25.7775
34.6357 25.6895
34.6825 25.6219
34.7292 25.5905
34.776 25.519
34.8227 25.3675
34.8695 25.2919
34.9162 25.2571
34.9631 25.2122
35.0098 25.2276
35.0566 25.0574
35.1033 25.0216
35.1502 25.0395
35.1969 24.8591
35.2438 24.7919
35.2906 24.8091
35.3375 24.7415
35.3842 24.6673
35.4311 24.6668
35.4779 24.615
35.5248 24.6226
35.5716 24.4659
35.6185 24.4324
35.6653 24.2797
35.7123 24.1706
35.759 24.2069
35.806 24.0539
35.8528 23.89
35.8998 23.8529
35.9468 23.7441
35.9936 23.8245
36.0406 23.6348
36.0874 23.687
36.1345 23.5881
36.1813 23.4659
36.2283 23.3883
36.2752 23.2868
36.3222 23.3157
36.3691 23.2641
36.4161 23.0758
36.463 23.1068
36.5101 23.097
36.557 22.9727
36.6041 22.7925
36.651 22.8794
36.6981 22.8021
36.745 22.7
36.7921 22.595
36.839 22.5221
36.8861 22.4194
36.9331 22.3191
36.9802 22.303
37.0272 22.2435
37.0743 22.1091
37.1213 22.1512
37.1684 22.069
37.2154 21.9567
37.2626 21.8891
37.3098 21.8431
37.3568 21.7362
37.404 21.7478
37.451 21.6064
37.4982 21.5735
37.5452 21.4496
37.5924 21.3685
37.6395 21.4373
37.6867 21.319
37.7337 21.1881
37.781 21.2752
37.8281 21.0419
37.8753 20.9527
37.9224 20.9238
37.9697 20.857
38.0168 20.8511
38.064 20.7386
38.1111 20.6701
38.1584 20.5915
38.2056 20.5447
38.2529 20.5021
38.3 20.4158
38.3473 20.4463
38.3945 20.2691
38.4418 20.2063
38.489 20.1347
38.5363 20.0795
38.5837 20.043
38.6309 19.9189
38.6782 19.9005
38.7254 19.776
38.7728 19.7005
38.82 19.6412
38.8674 19.6559
38.9146 19.5975
38.9621 19.4909
39.0093 19.3821
39.0567 19.3941
39.104 19.3782
39.1514 19.2429
39.1987 19.2478
39.2461 19.1383
39.2934 19.1129
39.3409 19.016
39.3882 18.8742
39.4356 18.8674
39.483 18.8635
39.5304 18.7245
39.5778 18.7152
39.6253 18.7059
39.6726 18.6002
39.7201 18.5974
39.7675 18.5034
39.815 18.4125
39.8624 18.4029
39.9099 18.3519
39.9575 18.2273
40.0049 18.2222
40.0525 18.1077
40.0999 18.0855
40.1474 18.1435
40.1949 17.9705
40.2425 17.9294
40.2899 17.877
40.3375 17.8034
40.385 17.7515
40.4326 17.6921
40.48 17.6335
40.5277 17.6208
40.5752 17.5429
40.6228 17.4142
40.6703 17.4083
40.718 17.3826
40.7655 17.2944
40.8132 17.2576
40.8607 17.2451
40.9084 17.2031
40.9559 17.0724
41.0036 17.041
41.0512 16.9863
41.0989 16.9258
41.1465 16.8606
41.1942 16.7965
41.242 16.7163
41.2896 16.7229
41.3373 16.6236
41.3849 16.5811
41.4327 16.5134
41.4803 16.4522
41.5281 16.4376
41.5758 16.3203
41.6236 16.2931
41.6712 16.2104
41.7191 16.2071
41.7667 16.176
41.8146 16.1396
41.8622 16.0807
41.9101 15.9866
41.9578 15.8693
42.0057 15.8708
42.0534 15.7474
42.1013 15.7746
42.149 15.69
42.1969 15.6532
42.2446 15.628
42.2925 15.5701
42.3403 15.4413
42.3882 15.4777
42.436 15.4087
42.4839 15.3418
42.5319 15.2514
42.5797 15.2564
42.6277 15.1602
42.6755 15.1404
42.7235 15.0515
42.7713 15.0641
42.8193 14.9841
42.8671 14.9116
42.9152 14.8758
42.963 14.803
43.0111 14.7522
43.0589 14.7417
43.107 14.6832
43.1549 14.6644
43.2029 14.576
43.2508 14.5219
43.2989 14.4813
43.3468 14.408
43.3949 14.4347
43.4429 14.3286
43.491 14.2954
43.5389 14.2449
43.5871 14.1893
43.635 14.0977
43.6832 14.1189
43.7312 14.0437
43.7793 13.9802
43.8273 13.9511
43.8755 13.9117
43.9237 13.8591
43.9717 13.7626
44.0199 13.7336
44.068 13.6891
44.1162 13.6271
44.1642 13.6203
44.2125 13.5524
44.2606 13.5512
44.3088 13.4469
44.3569 13.4666
44.4052 13.3912
44.4533 13.3123
44.5016 13.2529
44.5497 13.2729
44.598 13.1635
44.6461 13.1526
44.6945 13.1145
44.7426 13.0655
44.791 13.0013
44.8391 12.9861
44.8875 12.9109
44.9357 12.8559
44.984 12.8582
45.0322 12.7585
45.0806 12.7328
45.1288 12.6776
45.1773 12.6331
45.2257 12.5548
45.2739 12.5436
45.3224 12.4913
45.3706 12.4597
45.4191 12.3882
45.4673 12.3743
45.5158 12.3369
45.5641 12.2918
45.6126 12.2312
45.6609 12.2163
45.7094 12.1401
45.7577 12.1238
45.8063 12.0384
45.8546 12.0489
45.9031 11.9717
45.9515 11.9478
46.0001 11.8809
46.0484 11.8033
46.097 11.8391
46.1454 11.7781
46.194 11.7538
46.2424 11.6943
46.291 11.6528
46.3395 11.6028
46.3881 11.5737
46.4365 11.5124
46.4852 11.4528
46.5337 11.4213
46.5823 11.3647
46.631 11.3123
46.6795 11.3183
46.7282 11.256
46.7767 11.2196
46.8254 11.1597
46.8739 11.1106
46.9226 11.0823
46.9712 11.0333
47.0199 10.983
47.0685 10.9677
47.1173 10.9247
47.1658 10.8671
47.2146 10.8676
47.2632 10.7919
47.312 10.7787
47.3606 10.7436
47.4095 10.6616
47.4581 10.6262
47.5069 10.6053
47.5556 10.542
47.6044 10.5248
47.6531 10.4863
47.702 10.38
47.7507 10.4452
47.7996 10.3572
47.8483 10.3871
47.8972 10.2685
47.9461 10.2817
47.9948 10.2267
48.0438 10.1655
48.0925 10.1394
48.1415 10.1377
48.1902 10.0556
48.2392 10.0491
48.288 10.0516
48.337 9.98561
48.3858 9.90376
48.4348 9.88949
48.4837 9.90724
48.5327 9.85951
48.5815 9.81298
48.6306 9.79186
48.6795 9.70373
48.7285 9.69925
48.7774 9.6279
48.8265 9.63546
48.8754 9.57017
48.9245 9.57765
48.9734 9.52182
49.0226 9.47141
49.0715 9.46857
49.1206 9.37987
49.1696 9.37571
49.2188 9.33802
49.2679 9.30129
49.3169 9.2758
49.3661 9.22354
49.4151 9.18754
49.4643 9.12859
49.5134 9.10859
49.5626 9.07942
49.6117 9.01497
49.6609 9.06103
49.71 8.97932
49.7592 8.93054
49.8083 8.87672
49.8576 8.87531
49.9067 8.81752
49.956 8.81726
50.0052 8.74496
50.0545 8.76934
50.1036 8.69492
50.153 8.7006
50.2022 8.59633
50.2515 8.59175
50.3007 8.52425
50.3501 8.51884
50.3993 8.51487
50.4487 8.47579
50.498 8.4245
50.5474 8.4221
50.5966 8.36198
50.6461 8.36021
50.6955 8.27031
50.7448 8.27764
50.7943 8.24355
50.8436 8.19724
50.8931 8.17887
50.9424 8.13739
50.9919 8.12837
51.0413 8.11471
51.0908 8.04252
51.1402 8.0093
51.1897 7.98448
51.2391 7.96313
51.2887 7.9347
51.3381 7.88403
51.3877 7.86678
51.4371 7.84166
51.4867 7.76768
51.5362 7.73315
51.5858 7.72185
51.6353 7.66466
51.6849 7.65589
51.7344 7.64106
51.7841 7.64277
51.8336 7.57595
51.8833 7.52515
51.9328 7.50259
51.9826 7.44581
52.0323 7.43106
52.0818 7.41729
52.1316 7.36855
52.1812 7.35664
52.231 7.32375
52.2806 7.25325
52.3304 7.26167
52.38 7.25855
52.4298 7.22709
52.4794 7.15072
52.5293 7.12317
52.5789 7.10489
52.6288 7.1062
52.6785 7.03563
52.7284 6.98644
52.7781 6.98436
52.828 6.96299
52.8777 6.93356
52.9276 6.87302
52.9774 6.9035
53.0273 6.91468
53.0771 6.81349
53.1271 6.83106
53.1769 6.76908
53.2269 6.72146
53.2767 6.72779
53.3267 6.68126
53.3765 6.68056
53.4266 6.63894
53.4766 6.56797
53.5265 6.56578
53.5765 6.54673
53.6264 6.55394
53.6765 6.47445
53.7264 6.42147
53.7765 6.43871
53.8265 6.39332
53.8766 6.31822
53.9266 6.32445
53.9767 6.33989
54.0267 6.25598
54.0769 6.27509
54.1269 6.23343
54.1771 6.18934
54.2271 6.16013
54.2773 6.13754
54.3274 6.09077
54.3776 6.06799
54.4277 6.02758
54.478 5.9481
54.528 5.96017
54.5783 5.89869
54.6285 5.90106
54.6788 5.81616
54.7289 5.76894
54.7792 5.75701
54.8296 5.67836
54.8798 5.65352
54.9301 5.62603
54.9803 5.58446
55.0307 5.58587
55.0809 5.47095
55.1314 5.48548
55.1816 5.42819
55.232 5.32903
55.2823 5.38024
55.3328 5.32171
55.383 5.2148
55.4335 5.1915
55.4838 5.11538
55.5344 5.06671
55.5847 5.11001
55.6352 5.08053
55.6856 4.99311
55.7361 4.96298