File: XRD/Ni3Fe_FD0113.xy
TT I
1.27165 8.32155
1.31627 7.54815
1.36089 6.91706
1.40551 6.53329
1.45013 6.95549
1.49476 6.98615
1.53938 6.41985
1.584 5.99276
1.62863 6.02183
1.67325 5.22183
1.71787 5.47433
1.7625 5.70219
1.80712 5.20927
1.85174 5.20941
1.89636 4.97099
1.94099 4.94271
1.98562 5.1466
2.03025 5.36828
2.07487 4.6693
2.11949 5.18926
2.16411 4.77641
2.20874 4.71705
2.25338 4.91221
2.298 4.60885
2.34263 4.34904
2.38725 4.38096
2.43188 3.67222
2.4765 4.1239
2.52115 4.03652
2.56577 4.33837
2.6104 3.95196
2.65503 4.55408
2.69965 5.19805
2.7443 5.18012
2.78893 5.57132
2.83356 7.56761
2.87818 6.97039
2.92281 8.30087
2.96744 8.56662
3.01209 10.0597
3.05672 10.9423
3.10135 12.196
3.14599 12.7081
3.19062 13.8382
3.23527 15.1225
3.2799 15.8563
3.32454 16.3451
3.36917 17.1446
3.4138 18.5308
3.45844 19.0427
3.50309 20.0629
3.54773 20.7526
3.59237 21.6531
3.637 22.0461
3.68164 22.6792
3.7263 23.9795
3.77094 24.7809
3.81558 25.6709
3.86022 26.01
3.90486 27.173
3.9495 28.1986
3.99416 29.3334
4.0388 30.0547
4.08344 30.9985
4.12809 32.1898
4.17273 33.995
4.21738 35.1211
4.26204 35.9131
4.30669 37.277
4.35133 39.3802
4.39598 40.9785
4.44063 42.24
4.4853 44.2861
4.52995 46.977
4.5746 49.0762
4.61925 51.4293
4.6639 53.8055
4.70855 56.1842
4.75322 58.7902
4.79788 62.7478
4.84253 66.3656
4.88719 70.6814
4.93184 75.639
4.97652 83.1603
5.02118 92.1808
5.06583 103.489
5.11049 121.597
5.15515 164.295
5.19981 622.705
5.24449 3786.61
5.28916 7358.48
5.33382 6670.42
5.37848 562.49
5.42315 177.144
5.46783 133.147
5.5125 117.447
5.55716 109.225
5.60183 102.843
5.6465 100.46
5.69117 98.9325
5.73586 96.9298
5.78053 96.5236
5.8252 96.8356
5.86988 100.525
5.91455 108.493
5.95924 131.271
6.00392 318.206
6.0486 1422.5
6.09328 2418.67
6.13795 3920.02
6.18263 828.171
6.22733 134.31
6.27201 92.5782
6.3167 79.5871
6.36138 72.8124
6.40606 68.7353
6.45075 66.5025
6.49545 63.9483
6.54014 62.0071
6.58483 60.4616
6.62952 59.4495
6.67421 58.3063
6.71892 57.5621
6.76361 56.4832
6.8083 55.2795
6.853 54.5444
6.89769 54.2013
6.94239 53.5776
6.98711 52.8425
7.03181 52.8195
7.07651 52.5102
7.12121 52.1899
7.16591 51.9867
7.21063 51.4213
7.25533 51.4469
7.30004 51.5707
7.34475 51.5963
7.38945 51.9227
7.43416 51.5017
7.47889 51.4704
7.5236 57.2197
7.56831 69.2031
7.61303 56.9644
7.65774 53.3289
7.70247 53.5242
7.74719 53.7052
7.79191 54.3877
7.83663 54.6291
7.88135 55.9102
7.92607 56.9179
7.97081 57.7162
8.01553 58.6556
8.06026 60.2845
8.10498 61.6904
8.14971 63.2174
8.19446 64.9091
8.23919 67.7392
8.28392 70.6472
8.32865 73.3886
8.37339 78.3221
8.41812 83.6374
8.46288 97.382
8.50761 183.913
8.55235 631.756
8.59709 812.217
8.64183 1305.59
8.68658 1692.79
8.73134 475.988
8.77609 122.222
8.82083 98.9308
8.86558 91.5857
8.91033 87.9204
8.9551 85.1586
8.99985 83.6177
9.04461 82.8848
9.08936 81.9707
9.13412 81.1021
9.17888 81.49
9.22365 89.3742
9.26841 106.807
9.31318 90.2409
9.35794 82.3834
9.4027 81.8874
9.44749 82.7128
9.49226 82.9241
9.53703 83.6947
9.5818 85.3657
9.62657 86.7145
9.67134 88.2623
9.71614 90.354
9.76091 92.5335
9.80569 95.0723
9.85047 98.4469
9.89525 104.265
9.94005 115.715
9.98484 196.353
10.0296 572.758
10.0744 696.519
10.1192 884.352
10.164 1545.87
10.2088 1099.95
10.2536 243.672
10.2984 119.292
10.3432 108.886
10.388 104.651
10.4328 123.727
10.4776 222.51
10.5224 251.713
10.5672 292.435
10.612 463.413
10.6568 399.745
10.7017 147.341
10.7465 92.5355
10.7913 83.3461
10.8361 80.29
10.8809 77.3701
10.9257 75.1296
10.9706 73.7756
11.0154 72.3309
11.0602 70.8021
11.105 69.5293
11.1499 68.143
11.1947 67.3574
11.2395 66.4903
11.2844 65.5539
11.3292 64.8479
11.374 64.2483
11.4189 63.71
11.4637 62.9843
11.5086 62.3817
11.5534 61.6814
11.5983 61.4098
11.6431 61.9338
11.688 61.0315
11.7328 60.9588
11.7777 60.9716
11.8225 60.6967
11.8674 60.8717
11.9122 62.3783
11.9571 67.7208
12.002 67.0931
12.0468 68.4263
12.0917 92.2968
12.1366 107.099
12.1814 109.728
12.2263 137.148
12.2712 185.671
12.3161 152.817
12.3609 78.3932
12.4058 63.9027
12.4507 63.101
12.4956 62.6744
12.5405 62.7823
12.5853 63.0825
12.6302 63.1672
12.6751 63.7677
12.72 64.4147
12.7649 65.5858
12.8098 66.3517
12.8547 67.7083
12.8996 69.0469
12.9445 70.6849
12.9894 72.6059
13.0343 74.5533
13.0792 78.9123
13.1242 87.2556
13.1691 136.788
13.214 190.652
13.2589 192.721
13.3038 217.836
13.3487 317.403
13.3937 387.223
13.4386 230.584
13.4835 124.372
13.5285 159.387
13.5734 182.761
13.6183 177.86
13.6633 211.705
13.7082 307.082
13.7531 317.231
13.7981 168.754
13.843 90.0027
13.888 80.7298
13.9329 77.4442
13.9779 75.3668
14.0228 73.9053
14.0678 72.3827
14.1127 72.6752
14.1577 75.13
14.2027 73.6008
14.2476 70.5515
14.2926 68.988
14.3376 68.5764
14.3825 68.11
14.4275 67.5148
14.4725 67.8679
14.5175 67.8546
14.5624 67.723
14.6074 68.0994
14.6524 68.4658
14.6974 69.2373
14.7424 71.0991
14.7874 81.0071
14.8324 109.299
14.8774 120.081
14.9224 118.895
14.9674 134.496
15.0124 177.024
15.0574 205.721
15.1024 148.599
15.1474 84.7159
15.1924 71.3521
15.2374 68.5391
15.2824 67.4254
15.3274 66.4115
15.3725 66.1054
15.4175 65.7624
15.4625 65.059
15.5076 64.7712
15.5526 64.9495
15.5976 65.0797
15.6426 66.254
15.6877 74.0784
15.7327 96.712
15.7778 107.238
15.8228 105.181
15.8679 113.679
15.9129 141.315
15.958 181.719
16.003 160.13
16.0481 94.4065
16.0931 67.3087
16.1382 61.9549
16.1833 59.9544
16.2283 58.5074
16.2734 57.5436
16.3185 56.8894
16.3636 56.0467
16.4086 55.5783
16.4537 55.0345
16.4988 54.3745
16.5439 54.5452
16.589 54.089
16.6341 53.9239
16.6792 53.4394
16.7243 54.0597
16.7694 53.753
16.8145 53.4951
16.8596 53.7013
16.9047 54.2769
16.9498 54.5743
16.9949 54.4775
17.04 54.8004
17.0851 56.2387
17.1302 60.7423
17.1754 64.1578
17.2205 63.9642
17.2656 64.9782
17.3108 69.3434
17.3559 76.2631
17.401 81.106
17.4462 72.4676
17.4913 61.5975
17.5365 58.7853
17.5815 58.5724
17.6268 58.8383
17.6718 59.1893
17.7171 59.6439
17.7622 61.0132
17.8074 61.6226
17.8525 63.4098
17.8977 72.1956
17.9428 84.7049
17.9881 87.7674
18.0331 87.107
18.0784 91.9333
18.1237 106.541
18.1688 134.552
18.214 145.435
18.2591 114.942
18.3044 86.9658
18.3495 82.8621
18.3948 90.1621
18.4399 100.805
18.4852 97.1209
18.5303 78.9176
18.5756 65.3494
18.6207 61.8306
18.666 60.521
18.7112 59.3065
18.7565 58.9011
18.8016 58.4537
18.8469 57.4539
18.892 57.2682
18.9374 56.8654
18.9825 56.5469
19.0278 56.228
19.073 56.4272
19.1183 56.9162
19.1635 59.4481
19.2088 61.5706
19.254 61.6735
19.2993 61.5084
19.3447 63.346
19.3898 66.8218
19.4352 72.0012
19.4804 72.5768
19.5257 64.8404
19.5709 56.6808
19.6163 53.9075
19.6615 53.4922
19.7068 53.1181
19.752 52.8048
19.7974 52.9796
19.8426 54.4477
19.888 56.5315
19.9332 57.682
19.9786 57.6421
20.0238 57.7496
20.0692 60.1806
20.1144 64.8456
20.1598 70.8432
20.205 70.9209
20.2504 65.1832
20.2957 60.0984
20.3411 59.7932
20.3863 62.9653
20.4318 64.268
20.477 59.6459
20.5224 53.5634
20.5677 50.7243
20.6131 49.9249
20.6586 49.434
20.7038 49.3019
20.7493 49.0147
20.7945 48.9823
20.84 48.6721
20.8853 48.558
20.9307 48.1805
20.976 48.5828
21.0215 48.6065
21.0668 49.0222
21.1122 48.9698
21.1575 48.863
21.203 49.0187
21.2483 49.4084
21.2938 50.5525
21.3391 50.8368
21.3846 50.3227
21.4299 48.9854
21.4754 48.3474
21.5207 48.3791
21.5662 48.4557
21.6116 48.9595
21.6571 51.0509
21.7024 52.8399
21.7479 53.5811
21.7933 53.4363
21.8388 54.3885
21.8843 56.9329
21.9297 60.3086
21.9752 64.0971
22.0206 65.2488
22.0661 61.0039
22.1115 55.6424
22.157 54.6111
22.2024 55.794
22.248 54.8743
22.2933 52.6265
22.3389 49.9002
22.3843 48.7544
22.4299 48.4404
22.4753 48.4163
22.5208 48.3162
22.5662 48.2363
22.6118 48.538
22.6572 48.5937
22.7028 50.0313
22.7483 51.0362
22.7939 51.5822
22.8393 51.2683
22.8849 51.5448
22.9303 52.2226
22.9759 53.6513
23.0214 55.7251
23.067 57.6083
23.1126 56.3138
23.1581 52.5161
23.2037 49.7913
23.2492 48.9156
23.2948 49.3389
23.3403 50.6665
23.3859 51.5194
23.4314 51.2243
23.477 50.9933
23.5225 51.1808
23.5682 52.2717
23.6137 54.2541
23.6593 56.4668
23.7048 57.0585
23.7505 53.8517
23.796 49.3108
23.8417 46.9457
23.8872 45.668
23.9329 45.4156
23.9784 44.8012
24.0241 44.5979
24.0697 44.3792
24.1154 44.038
24.1609 43.8698
24.2066 43.5642
24.2522 43.4558
24.2979 43.2469
24.3434 43.0993
24.3892 42.9447
24.4349 42.8482
24.4805 42.6194
24.5262 42.7389
24.5718 42.5563
24.6175 42.6151
24.6631 42.7594
24.7089 42.7403
24.7545 42.5445
24.8002 41.9982
24.8458 42.1297
24.8916 42.118
24.9372 42.3412
24.983 42.4351
25.0286 42.6111
25.0744 43.0875
25.12 43.3802
25.1658 43.7101
25.2114 43.9669
25.2572 44.2936
25.3029 44.2382
25.3487 44.3015
25.3943 44.0936
25.4402 44.4569
25.4858 44.3725
25.5316 42.9949
25.5773 41.6011
25.6231 41.1356
25.669 40.513
25.7147 40.5047
25.7605 40.5181
25.8062 40.6684
25.8521 40.8052
25.8977 40.6175
25.9436 40.6376
25.9893 40.3444
26.0352 40.8168
26.0809 40.649
26.1268 41.0741
26.1725 41.3025
26.2184 41.6439
26.2641 41.3056
26.31 40.6575
26.3557 40.5773
26.4017 40.4593
26.4474 40.5834
26.4933 40.397
26.5391 40.586
26.585 40.9293
26.6308 41.0629
26.6767 41.3811
26.7225 42.1495
26.7684 42.255
26.8142 41.865
26.8601 40.9523
26.9059 40.5052
26.9519 40.2341
26.9979 39.9623
27.0437 39.2125
27.0896 38.8607
27.1354 38.8876
27.1814 38.716
27.2272 38.5937
27.2732 38.6519
27.3191 38.4007
27.3651 38.4762
27.4109 38.2782
27.4569 38.3243
27.5027 38.2117
27.5488 38.4069
27.5946 38.2856
27.6407 38.3869
27.6865 38.4094
27.7326 38.3216
27.7784 38.3379
27.8245 38.1064
27.8703 38.036
27.9164 38.1061
27.9623 38.0754
28.0084 38.1639
28.0543 38.4962
28.1003 38.6173
28.1462 38.9109
28.1923 39.0588
28.2384 38.5209
28.2843 38.0655
28.3304 37.6643
28.3764 37.2961
28.4225 36.92
28.4684 36.4963
28.5145 36.0528
28.5605 35.7651
28.6066 35.7309
28.6526 35.7506
28.6987 35.5802
28.7447 35.5213
28.7908 35.2729
28.8368 35.2549
28.8829 35.1411
28.9289 35.1184
28.9751 35.1264
29.0211 35.0534
29.0673 34.8778
29.1133 34.7973
29.1595 34.4351
29.2055 34.304
29.2517 34.2851
29.2977 33.9939
29.3439 33.9317
29.3899 33.9605
29.4361 33.9792
29.4824 33.7593
29.5284 33.9638
29.5746 33.5837
29.6207 33.3646
29.6669 33.0503
29.713 32.8549
29.7593 32.7704
29.8053 32.787
29.8516 32.6363
29.8977 32.6673
29.9439 32.4828
29.99 32.4274
30.0363 32.3391
30.0824 32.4536
30.1287 32.1993
30.1748 32.2472
30.2211 32.2288
30.2673 32.1278
30.3136 32.268
30.3597 32.412
30.406 32.286
30.4522 32.097
30.4985 31.943
30.5447 32.0396
30.591 31.8281
30.6372 31.9967
30.6835 31.7738
30.7297 31.8707
30.7761 31.9797
30.8224 32.0431
30.8686 32.0654
30.915 31.8002
30.9612 31.7256
31.0076 31.4318
31.0538 31.2562
31.1002 31.1905
31.1464 31.061
31.1928 30.9208
31.2391 31.034
31.2855 30.8008
31.3317 30.7266
31.3781 30.8033
31.4244 30.7241
31.4708 30.6911
31.5171 30.6094
31.5636 30.8095
31.6098 30.6805
31.6563 30.5324
31.7026 30.3835
31.7491 30.1175
31.7953 30.1439
31.8418 30.1102
31.8881 30.0502
31.9346 29.9489
31.9809 29.8653
32.0275 29.9495
32.074 29.817
32.1203 29.7229
32.1668 29.6886
32.2132 29.5115
32.2597 29.3199
32.306 29.2209
32.3526 29.0207
32.399 28.9222
32.4455 28.7224
32.4919 28.7261
32.5385 28.5409
32.5848 28.4495
32.6314 28.4401
32.6778 28.3696
32.7244 28.2586
32.7708 28.0467
32.8174 28.1037
32.8638 27.9568
32.9104 28.1287
32.9569 27.9023
33.0035 27.7671
33.0499 27.8008
33.0966 27.6929
33.143 27.5774
33.1897 27.586
33.2361 27.4905
33.2828 27.5924
33.3293 27.3632
33.3759 27.4122
33.4226 27.4025
33.4691 27.1557
33.5158 27.0234
33.5623 26.9014
33.609 26.7426
33.6555 26.6165
33.7022 26.5858
33.7487 26.3682
33.7954 26.4425
33.842 26.2555
33.8887 26.2558
33.9353 26.2716
33.982 26.0398
34.0286 26.0125
34.0753 25.9267
34.1219 25.8155
34.1687 25.7321
34.2152 25.6478
34.262 25.4905
34.3086 25.474
34.3554 25.4137
34.402 25.2644
34.4488 25.2115
34.4954 25.1441
34.5422 25.1112
34.5889 24.9574
34.6357 24.9474
34.6825 24.8753
34.7292 24.7482
34.776 24.6477
34.8227 24.6614
34.8695 24.5754
34.9162 24.5065
34.9631 24.3908
35.0098 24.3705
35.0566 24.2537
35.1033 24.2445
35.1502 24.2632
35.1969 24.1917
35.2438 24.154
35.2906 24.0383
35.3375 23.8997
35.3842 23.8852
35.4311 23.8757
35.4779 23.8045
35.5248 23.7866
35.5716 23.7311
35.6185 23.6818
35.6653 23.6498
35.7123 23.5307
35.759 23.4772
35.806 23.3588
35.8528 23.2559
35.8998 23.1998
35.9468 23.0459
35.9936 22.9979
36.0406 22.9205
36.0874 22.8818
36.1345 22.8027
36.1813 22.7206
36.2283 22.6584
36.2752 22.6235
36.3222 22.6043
36.3691 22.4733
36.4161 22.3384
36.463 22.4703
36.5101 22.3052
36.557 22.3499
36.6041 22.0655
36.651 22.1576
36.6981 22.0438
36.745 22.0718
36.7921 21.8975
36.839 21.8122
36.8861 21.8138
36.9331 21.6627
36.9802 21.6623
37.0272 21.539
37.0743 21.3977
37.1213 21.4332
37.1684 21.3103
37.2154 21.2484
37.2626 21.2086
37.3098 21.1566
37.3568 21.0287
37.404 21.036
37.451 20.9154
37.4982 20.9379
37.5452 20.8367
37.5924 20.693
37.6395 20.7393
37.6867 20.6811
37.7337 20.5246
37.781 20.51
37.8281 20.4564
37.8753 20.3194
37.9224 20.2463
37.9697 20.2125
38.0168 20.1199
38.064 20.0917
38.1111 20.0666
38.1584 19.9027
38.2056 19.8789
38.2529 19.8055
38.3 19.7225
38.3473 19.7411
38.3945 19.641
38.4418 19.5857
38.489 19.5515
38.5363 19.4649
38.5837 19.3832
38.6309 19.3586
38.6782 19.244
38.7254 19.1951
38.7728 19.1063
38.82 19.0883
38.8674 19.1499
38.9146 19.0125
38.9621 18.9027
39.0093 18.8006
39.0567 18.8016
39.104 18.7673
39.1514 18.6465
39.1987 18.6478
39.2461 18.6159
39.2934 18.5756
39.3409 18.4126
39.3882 18.3783
39.4356 18.3138
39.483 18.2879
39.5304 18.2477
39.5778 18.1901
39.6253 18.1673
39.6726 18.0363
39.7201 18.0509
39.7675 17.9498
39.815 17.9132
39.8624 17.8023
39.9099 17.7928
39.9575 17.6344
40.0049 17.6505
40.0525 17.5341
40.0999 17.5367
40.1474 17.4997
40.1949 17.4021
40.2425 17.3237
40.2899 17.2798
40.3375 17.2349
40.385 17.1705
40.4326 17.2038
40.48 17.0351
40.5277 17.0643
40.5752 16.9591
40.6228 16.8845
40.6703 16.8664
40.718 16.8379
40.7655 16.8028
40.8132 16.7509
40.8607 16.6876
40.9084 16.6026
40.9559 16.6325
41.0036 16.4992
41.0512 16.4093
41.0989 16.4074
41.1465 16.3479
41.1942 16.3744
41.242 16.2068
41.2896 16.2002
41.3373 16.125
41.3849 16.1145
41.4327 16.0132
41.4803 15.9159
41.5281 15.8793
41.5758 15.7968
41.6236 15.799
41.6712 15.7123
41.7191 15.6547
41.7667 15.6521
41.8146 15.595
41.8622 15.5009
41.9101 15.5226
41.9578 15.4128
42.0057 15.3874
42.0534 15.3079
42.1013 15.3084
42.149 15.2243
42.1969 15.21
42.2446 15.1248
42.2925 15.03
42.3403 15.0199
42.3882 14.9761
42.436 14.9574
42.4839 14.7811
42.5319 14.7983
42.5797 14.7853
42.6277 14.7092
42.6755 14.7204
42.7235 14.5978
42.7713 14.617
42.8193 14.58
42.8671 14.5076
42.9152 14.4144
42.963 14.3975
43.0111 14.3227
43.0589 14.2483
43.107 14.2091
43.1549 14.2216
43.2029 14.1139
43.2508 14.0946
43.2989 14.0452
43.3468 13.9818
43.3949 13.951
43.4429 13.948
43.491 13.783
43.5389 13.8267
43.5871 13.7306
43.635 13.7386
43.6832 13.6636
43.7312 13.5642
43.7793 13.5437
43.8273 13.4982
43.8755 13.4699
43.9237 13.4108
43.9717 13.3733
44.0199 13.3344
44.068 13.2739
44.1162 13.2168
44.1642 13.2182
44.2125 13.1428
44.2606 13.0837
44.3088 13.0692
44.3569 12.9654
44.4052 12.9715
44.4533 12.9528
44.5016 12.8601
44.5497 12.8058
44.598 12.7836
44.6461 12.7086
44.6945 12.6964
44.7426 12.6489
44.791 12.5469
44.8391 12.5193
44.8875 12.488
44.9357 12.4786
44.984 12.4134
45.0322 12.4079
45.0806 12.3112
45.1288 12.3007
45.1773 12.212
45.2257 12.1981
45.2739 12.16
45.3224 12.0653
45.3706 12.0956
45.4191 12.0382
45.4673 11.9949
45.5158 11.9453
45.5641 11.8867
45.6126 11.8478
45.6609 11.8304
45.7094 11.7972
45.7577 11.7031
45.8063 11.6286
45.8546 11.6543
45.9031 11.6342
45.9515 11.6009
46.0001 11.542
46.0484 11.4792
46.097 11.4604
46.1454 11.3978
46.194 11.3667
46.2424 11.3151
46.291 11.2894
46.3395 11.2169
46.3881 11.166
46.4365 11.1617
46.4852 11.0992
46.5337 11.0986
46.5823 11.0524
46.631 10.9717
46.6795 10.935
46.7282 10.9215
46.7767 10.9269
46.8254 10.8474
46.8739 10.7752
46.9226 10.7509
46.9712 10.6997
47.0199 10.6779
47.0685 10.6144
47.1173 10.5784
47.1658 10.5111
47.2146 10.5608
47.2632 10.4747
47.312 10.4332
47.3606 10.395
47.4095 10.3584
47.4581 10.3617
47.5069 10.2314
47.5556 10.2463
47.6044 10.2178
47.6531 10.1832
47.702 10.1225
47.7507 10.0888
47.7996 10.0493
47.8483 9.97948
47.8972 9.99976
47.9461 9.94914
47.9948 9.87631
48.0438 9.86263
48.0925 9.84352
48.1415 9.85015
48.1902 9.76389
48.2392 9.7735
48.288 9.7321
48.337 9.65466
48.3858 9.65659
48.4348 9.59464
48.4837 9.57764
48.5327 9.55365
48.5815 9.48499
48.6306 9.49291
48.6795 9.43784
48.7285 9.38387
48.7774 9.36924
48.8265 9.31134
48.8754 9.29012
48.9245 9.301
48.9734 9.2409
49.0226 9.20796
49.0715 9.14885
49.1206 9.10563
49.1696 9.07834
49.2188 9.05258
49.2679 8.99897
49.3169 8.98881
49.3661 8.92209
49.4151 8.94549
49.4643 8.89344
49.5134 8.84819
49.5626 8.78352
49.6117 8.7889
49.6609 8.76786
49.71 8.69988
49.7592 8.67888
49.8083 8.64189
49.8576 8.6123
49.9067 8.5756
49.956 8.60766
50.0052 8.48189
50.0545 8.5214
50.1036 8.46673
50.153 8.44078
50.2022 8.41052
50.2515 8.34411
50.3007 8.33434
50.3501 8.298
50.3993 8.29986
50.4487 8.22389
50.498 8.19465
50.5474 8.1688
50.5966 8.13661
50.6461 8.10034
50.6955 8.04612
50.7448 8.02517
50.7943 8.04331
50.8436 7.98282
50.8931 7.94079
50.9424 7.90879
50.9919 7.89881
51.0413 7.89878
51.0908 7.81165
51.1402 7.77882
51.1897 7.75879
51.2391 7.74105
51.2887 7.70029
51.3381 7.67279
51.3877 7.65535
51.4371 7.58111
51.4867 7.53575
51.5362 7.52525
51.5858 7.51874
51.6353 7.46497
51.6849 7.41571
51.7344 7.39711
51.7841 7.38311
51.8336 7.36611
51.8833 7.32993
51.9328 7.28875
51.9826 7.25476
52.0323 7.21586
52.0818 7.20178
52.1316 7.16213
52.1812 7.15545
52.231 7.12833
52.2806 7.08815
52.3304 7.05957
52.38 7.03271
52.4298 6.98564
52.4794 6.96697
52.5293 6.93617
52.5789 6.89986
52.6288 6.92988
52.6785 6.84933
52.7284 6.82341
52.7781 6.78214
52.828 6.74472
52.8777 6.73538
52.9276 6.72558
52.9774 6.68071
53.0273 6.63462
53.0771 6.65415
53.1271 6.61641
53.1769 6.58234
53.2269 6.54169
53.2767 6.54919
53.3267 6.50414
53.3765 6.46472
53.4266 6.44287
53.4766 6.42419
53.5265 6.38152
53.5765 6.31955
53.6264 6.30145
53.6765 6.32519
53.7264 6.24354
53.7765 6.23018
53.8265 6.18315
53.8766 6.14968
53.9266 6.14075
53.9767 6.12268
54.0267 6.08269
54.0769 6.05489
54.1269 6.02173
54.1771 5.99097
54.2271 5.96671
54.2773 5.88703
54.3274 5.90753
54.3776 5.82267
54.4277 5.79804
54.478 5.75055
54.528 5.7571
54.5783 5.67269
54.6285 5.67434
54.6788 5.58884
54.7289 5.54149
54.7792 5.49551
54.8296 5.47176
54.8798 5.43652
54.9301 5.376
54.9803 5.31461
55.0307 5.3076
55.0809 5.28891
55.1314 5.25076
55.1816 5.17859
55.232 5.1043
55.2823 5.06982
55.3328 5.00908
55.383 4.93544
55.4335 4.93343
55.4838 4.91296
55.5344 4.82298
55.5847 4.74948
55.6352 4.75801
55.6856 4.77317
55.7361 4.724