File: XRD/Ni3Fe_FD0181.xy
TT I
1.27165 8.28845
1.31627 7.20986
1.36089 6.4477
1.40551 6.17488
1.45013 6.33829
1.49476 6.63581
1.53938 6.02709
1.584 6.02422
1.62863 5.7508
1.67325 5.34474
1.71787 5.21326
1.7625 5.57668
1.80712 5.15284
1.85174 4.80321
1.89636 4.72896
1.94099 5.34562
1.98562 5.15963
2.03025 4.70401
2.07487 4.41419
2.11949 4.84489
2.16411 4.40404
2.20874 4.4181
2.25338 3.99123
2.298 3.92871
2.34263 4.08012
2.38725 4.43683
2.43188 4.80623
2.4765 4.31015
2.52115 4.43118
2.56577 5.1699
2.6104 5.49905
2.65503 5.3032
2.69965 6.25866
2.7443 6.56668
2.78893 6.78193
2.83356 7.33583
2.87818 7.71279
2.92281 8.66745
2.96744 9.47388
3.01209 10.4697
3.05672 11.555
3.10135 12.7115
3.14599 13.5616
3.19062 14.1773
3.23527 15.0179
3.2799 15.9788
3.32454 17.3096
3.36917 17.9133
3.4138 18.7429
3.45844 19.4579
3.50309 21.1737
3.54773 21.0944
3.59237 21.8904
3.637 22.6933
3.68164 23.7454
3.7263 24.9734
3.77094 25.5079
3.81558 26.0701
3.86022 26.761
3.90486 27.8308
3.9495 28.9818
3.99416 29.9161
4.0388 30.7023
4.08344 32.1403
4.12809 33.556
4.17273 34.1604
4.21738 35.594
4.26204 36.6426
4.30669 38.0304
4.35133 40.0439
4.39598 41.4496
4.44063 43.4405
4.4853 45.0738
4.52995 47.4614
4.5746 49.85
4.61925 51.8069
4.6639 54.0922
4.70855 57.1842
4.75322 59.8498
4.79788 62.798
4.84253 66.5546
4.88719 70.7883
4.93184 75.3517
4.97652 81.7824
5.02118 90.6216
5.06583 101.026
5.11049 115.711
5.15515 151.671
5.19981 517.063
5.24449 3738.69
5.28916 8554.48
5.33382 6161.7
5.37848 407.313
5.42315 159.136
5.46783 126.374
5.5125 113.477
5.55716 107.739
5.60183 101.387
5.6465 98.7884
5.69117 97.307
5.73586 95.3682
5.78053 95.0304
5.8252 95.3049
5.86988 98.2962
5.91455 104.439
5.95924 122.072
6.00392 277.642
6.0486 1366.4
6.09328 2871.89
6.13795 4013.61
6.18263 633.176
6.22733 118.477
6.27201 88.2084
6.3167 78.4859
6.36138 72.7072
6.40606 69.0608
6.45075 66.7031
6.49545 64.8618
6.54014 62.5936
6.58483 61.3496
6.62952 60.2714
6.67421 58.6685
6.71892 57.5237
6.76361 57.1467
6.8083 56.0573
6.853 55.2784
6.89769 54.9126
6.94239 54.2916
6.98711 53.5554
7.03181 53.1105
7.07651 53.3228
7.12121 52.5641
7.16591 52.7635
7.21063 52.184
7.25533 52.2508
7.30004 52.2171
7.34475 52.3911
7.38945 52.7085
7.43416 52.2625
7.47889 52.3488
7.5236 55.7198
7.56831 61.1631
7.61303 55.1534
7.65774 53.8845
7.70247 54.3435
7.74719 54.5881
7.79191 55.5576
7.83663 55.5366
7.88135 56.3853
7.92607 57.5191
7.97081 58.5531
8.01553 59.484
8.06026 61.1629
8.10498 62.0364
8.14971 63.9697
8.19446 65.7011
8.23919 68.4676
8.28392 71.2757
8.32865 73.8462
8.37339 78.3253
8.41812 83.6561
8.46288 95.1355
8.50761 170.054
8.55235 587.569
8.59709 921.864
8.64183 1588.44
8.68658 1624.65
8.73134 395.517
8.77609 114.526
8.82083 97.2734
8.86558 91.2509
8.91033 87.8836
8.9551 85.4708
8.99985 84.4654
9.04461 83.7121
9.08936 82.6446
9.13412 81.8231
9.17888 81.775
9.22365 86.6134
9.26841 94.5402
9.31318 86.0787
9.35794 82.7545
9.4027 82.7437
9.44749 83.036
9.49226 84.1663
9.53703 84.983
9.5818 86.7778
9.62657 87.4401
9.67134 89.0922
9.71614 91.3652
9.76091 93.2714
9.80569 95.8961
9.85047 99.0537
9.89525 104.206
9.94005 113.673
9.98484 183.575
10.0296 533.499
10.0744 754.868
10.1192 1092.45
10.164 1701.86
10.2088 937.441
10.2536 205.051
10.2984 116.093
10.3432 108.239
10.388 104.706
10.4328 120.727
10.4776 211.823
10.5224 266.325
10.5672 345.272
10.612 509.601
10.6568 366.008
10.7017 130.953
10.7465 90.3729
10.7913 84.1189
10.8361 80.7903
10.8809 78.5226
10.9257 76.1745
10.9706 74.9605
11.0154 73.098
11.0602 71.8942
11.105 70.8198
11.1499 68.9336
11.1947 68.1736
11.2395 67.1169
11.2844 66.3957
11.3292 65.8466
11.374 64.7529
11.4189 64.2762
11.4637 63.6893
11.5086 63.0722
11.5534 62.72
11.5983 62.5753
11.6431 62.5793
11.688 62.2059
11.7328 61.8339
11.7777 61.6716
11.8225 61.5606
11.8674 61.7008
11.9122 62.5484
11.9571 65.3327
12.002 65.2426
12.0468 67.4151
12.0917 90.0261
12.1366 108.514
12.1814 121.549
12.2263 156.842
12.2712 194.431
12.3161 135.286
12.3609 74.0875
12.4058 64.3259
12.4507 63.9861
12.4956 63.6675
12.5405 63.4728
12.5853 63.989
12.6302 64.1626
12.6751 65.0824
12.72 65.7637
12.7649 66.5219
12.8098 67.4144
12.8547 68.6256
12.8996 70.3663
12.9445 71.552
12.9894 73.5832
13.0343 75.5293
13.0792 79.3759
13.1242 86.6016
13.1691 131.711
13.214 185.188
13.2589 209.871
13.3038 257.76
13.3487 365.785
13.3937 377.067
13.4386 200.942
13.4835 117.532
13.5285 152.729
13.5734 181.869
13.6183 199.323
13.6633 250.005
13.7082 339.002
13.7531 301.443
13.7981 149.876
13.843 87.7391
13.888 81.0288
13.9329 78.0133
13.9779 76.4579
14.0228 74.9106
14.0678 73.2293
14.1127 72.9886
14.1577 74.1537
14.2027 72.4954
14.2476 70.7246
14.2926 69.7801
14.3376 69.4426
14.3825 68.8415
14.4275 68.5531
14.4725 68.6193
14.5175 68.6322
14.5624 68.5873
14.6074 69.1172
14.6524 69.5795
14.6974 70.0654
14.7424 71.7574
14.7874 80.4306
14.8324 106.326
14.8774 121.598
14.9224 130.428
14.9674 154.994
15.0124 199.519
15.0574 204.874
15.1024 133.549
15.1474 81.3492
15.1924 71.5533
15.2374 69.4398
15.2824 68.0575
15.3274 67.2782
15.3725 67.1251
15.4175 66.5175
15.4625 66.0663
15.5076 65.743
15.5526 65.8836
15.5976 65.8194
15.6426 66.6772
15.6877 73.9497
15.7327 94.1964
15.7778 107.581
15.8228 113.337
15.8679 129.442
15.9129 161.022
15.958 187.169
16.003 148.922
16.0481 87.3668
16.0931 66.2033
16.1382 61.9397
16.1833 60.7481
16.2283 59.1354
16.2734 58.5229
16.3185 57.613
16.3636 56.7269
16.4086 56.3191
16.4537 55.9713
16.4988 55.3126
16.5439 55.3471
16.589 55.1398
16.6341 54.767
16.6792 54.6433
16.7243 54.4942
16.7694 54.3317
16.8145 54.4302
16.8596 54.7708
16.9047 54.9625
16.9498 55.2425
16.9949 55.3651
17.04 55.7603
17.0851 57.0793
17.1302 61.1955
17.1754 64.5675
17.2205 65.9154
17.2656 68.1176
17.3108 74.0538
17.3559 80.7281
17.401 81.7318
17.4462 70.9137
17.4913 61.5893
17.5365 59.3089
17.5815 59.3686
17.6268 59.3893
17.6718 60.1463
17.7171 60.5378
17.7622 61.5534
17.8074 62.5265
17.8525 64.1239
17.8977 72.1666
17.9428 83.6813
17.9881 88.7061
18.0331 92.6902
18.0784 101.514
18.1237 118.626
18.1688 143.291
18.214 141.031
18.2591 109.793
18.3044 89.4227
18.3495 88.3677
18.3948 97.14
18.4399 104.915
18.4852 94.7459
18.5303 75.4199
18.5756 65.0687
18.6207 62.4011
18.666 61.1124
18.7112 60.3495
18.7565 59.5883
18.8016 59.2347
18.8469 58.5036
18.892 58.2135
18.9374 57.6178
18.9825 57.285
19.0278 57.2199
19.073 57.0728
19.1183 57.4611
19.1635 59.8423
19.2088 62.0079
19.254 62.9136
19.2993 64.0178
19.3447 66.3988
19.3898 70.0436
19.4352 74.7228
19.4804 72.4337
19.5257 63.6266
19.5709 56.4921
19.6163 54.6897
19.6615 54.334
19.7068 53.6446
19.752 53.7397
19.7974 53.7497
19.8426 55.0803
19.888 57.0918
19.9332 58.4474
19.9786 59.1833
20.0238 59.7778
20.0692 62.8515
20.1144 67.9277
20.1598 73.2413
20.205 71.336
20.2504 65.5176
20.2957 61.6224
20.3411 62.7203
20.3863 65.4199
20.4318 64.6263
20.477 58.9435
20.5224 53.7257
20.5677 51.2738
20.6131 50.7126
20.6586 50.202
20.7038 49.9754
20.7493 49.4556
20.7945 49.5273
20.84 49.2879
20.8853 49.0712
20.9307 48.9446
20.976 49.1646
21.0215 49.4069
21.0668 49.858
21.1122 49.942
21.1575 49.9954
21.203 50.2813
21.2483 50.9295
21.2938 51.9109
21.3391 51.6695
21.3846 50.7673
21.4299 49.5665
21.4754 48.9724
21.5207 49.0375
21.5662 49.271
21.6116 49.8582
21.6571 51.5159
21.7024 53.4017
21.7479 54.4403
21.7933 55.2233
21.8388 56.6071
21.8843 59.5363
21.9297 63.1626
21.9752 66.6085
22.0206 65.8511
22.0661 60.6728
22.1115 56.8577
22.157 56.4072
22.2024 56.8525
22.248 55.2735
22.2933 52.711
22.3389 50.5507
22.3843 49.5571
22.4299 49.1763
22.4753 49.2482
22.5208 49.002
22.5662 49.0312
22.6118 49.3729
22.6572 49.5119
22.7028 50.7121
22.7483 51.7365
22.7939 52.1983
22.8393 52.558
22.8849 53.1817
22.9303 54.2157
22.9759 55.6802
23.0214 57.7846
23.067 58.9931
23.1126 55.9661
23.1581 52.3898
23.2037 50.1682
23.2492 49.6781
23.2948 50.1037
23.3403 51.3175
23.3859 52.0771
23.4314 52.2213
23.477 52.68
23.5225 53.214
23.5682 54.4144
23.6137 56.7543
23.6593 58.6226
23.7048 57.3418
23.7505 53.3665
23.796 49.1618
23.8417 47.2276
23.8872 46.338
23.9329 46.0457
23.9784 45.619
24.0241 45.3982
24.0697 45.2031
24.1154 44.6969
24.1609 44.4845
24.2066 44.227
24.2522 44.2386
24.2979 43.947
24.3434 43.8744
24.3892 43.779
24.4349 43.5819
24.4805 43.2642
24.5262 43.4179
24.5718 43.3605
24.6175 43.4052
24.6631 43.4835
24.7089 43.2773
24.7545 43.0403
24.8002 42.7835
24.8458 42.9363
24.8916 42.7782
24.9372 42.9362
24.983 43.1999
25.0286 43.4166
25.0744 43.9293
25.12 44.3896
25.1658 44.7495
25.2114 45.1837
25.2572 45.3688
25.3029 45.3382
25.3487 45.1834
25.3943 45.3843
25.4402 45.3264
25.4858 44.7197
25.5316 43.3
25.5773 42.0851
25.6231 41.7168
25.669 41.193
25.7147 41.1369
25.7605 41.0718
25.8062 41.2052
25.8521 41.3253
25.8977 41.3408
25.9436 41.3582
25.9893 41.3761
26.0352 41.5967
26.0809 41.5701
26.1268 42.0902
26.1725 42.4243
26.2184 42.2464
26.2641 41.7344
26.31 41.1809
26.3557 41.1792
26.4017 41.0197
26.4474 41.3096
26.4933 41.3208
26.5391 41.5891
26.585 41.8926
26.6308 42.0965
26.6767 42.5174
26.7225 43.093
26.7684 43.0545
26.8142 42.4127
26.8601 41.6441
26.9059 41.2134
26.9519 40.7655
26.9979 40.3642
27.0437 39.8801
27.0896 39.4723
27.1354 39.5937
27.1814 39.3388
27.2272 39.3458
27.2732 39.3718
27.3191 39.1185
27.3651 39.0351
27.4109 38.982
27.4569 38.8769
27.5027 38.9891
27.5488 39.1634
27.5946 38.9874
27.6407 39.0153
27.6865 39.0976
27.7326 38.8946
27.7784 38.8329
27.8245 38.5158
27.8703 38.808
27.9164 38.9263
27.9623 38.7703
28.0084 39.0451
28.0543 39.3195
28.1003 39.5301
28.1462 39.686
28.1923 39.6672
28.2384 39.1652
28.2843 38.6954
28.3304 38.3831
28.3764 37.8819
28.4225 37.4614
28.4684 37.1107
28.5145 36.6822
28.5605 36.5201
28.6066 36.2542
28.6526 36.299
28.6987 36.1817
28.7447 36.0824
28.7908 35.8755
28.8368 35.9273
28.8829 35.9304
28.9289 35.8858
28.9751 35.7433
29.0211 35.72
29.0673 35.3844
29.1133 35.3601
29.1595 35.1306
29.2055 34.984
29.2517 34.8613
29.2977 34.696
29.3439 34.6805
29.3899 34.5662
29.4361 34.5997
29.4824 34.6345
29.5284 34.5671
29.5746 34.2145
29.6207 33.8397
29.6669 33.7688
29.713 33.4944
29.7593 33.4323
29.8053 33.4101
29.8516 33.3346
29.8977 33.1965
29.9439 33.2355
29.99 33.14
30.0363 33.0077
30.0824 32.9769
30.1287 32.9087
30.1748 32.8655
30.2211 32.8792
30.2673 32.7371
30.3136 32.9633
30.3597 32.9705
30.406 32.8958
30.4522 32.763
30.4985 32.6204
30.5447 32.7334
30.591 32.6414
30.6372 32.6459
30.6835 32.5817
30.7297 32.7387
30.7761 32.7399
30.8224 32.8213
30.8686 32.6722
30.915 32.38
30.9612 32.2857
31.0076 31.9307
31.0538 31.8856
31.1002 31.6866
31.1464 31.6164
31.1928 31.543
31.2391 31.5811
31.2855 31.3693
31.3317 31.369
31.3781 31.4494
31.4244 31.3932
31.4708 31.2863
31.5171 31.2742
31.5636 31.3877
31.6098 31.1953
31.6563 31.0745
31.7026 30.9162
31.7491 30.762
31.7953 30.6652
31.8418 30.5441
31.8881 30.657
31.9346 30.6117
31.9809 30.6555
32.0275 30.451
32.074 30.4857
32.1203 30.2862
32.1668 30.1387
32.2132 30.038
32.2597 29.8841
32.306 29.8046
32.3526 29.5131
32.399 29.374
32.4455 29.3502
32.4919 29.2096
32.5385 29.1175
32.5848 28.9958
32.6314 29.025
32.6778 28.871
32.7244 28.8217
32.7708 28.5824
32.8174 28.5743
32.8638 28.4897
32.9104 28.4975
32.9569 28.4717
33.0035 28.337
33.0499 28.3998
33.0966 28.2606
33.143 28.2351
33.1897 28.1605
33.2361 28.0602
33.2828 28.0658
33.3293 27.9253
33.3759 27.8487
33.4226 27.8893
33.4691 27.7194
33.5158 27.6124
33.5623 27.429
33.609 27.2487
33.6555 27.1137
33.7022 27.0165
33.7487 26.9127
33.7954 26.9347
33.842 26.7672
33.8887 26.8072
33.9353 26.6928
33.982 26.6413
34.0286 26.5613
34.0753 26.456
34.1219 26.3645
34.1687 26.1955
34.2152 26.1968
34.262 26.0527
34.3086 25.9617
34.3554 26.0391
34.402 25.8404
34.4488 25.7734
34.4954 25.6742
34.5422 25.6367
34.5889 25.5148
34.6357 25.4819
34.6825 25.3583
34.7292 25.2753
34.776 25.1607
34.8227 25.177
34.8695 25.058
34.9162 25.0457
34.9631 24.8528
35.0098 24.9137
35.0566 24.7372
35.1033 24.6853
35.1502 24.653
35.1969 24.6061
35.2438 24.5881
35.2906 24.5269
35.3375 24.4799
35.3842 24.4544
35.4311 24.2823
35.4779 24.3295
35.5248 24.2125
35.5716 24.1798
35.6185 24.1604
35.6653 24.0708
35.7123 24.0299
35.759 23.9122
35.806 23.7953
35.8528 23.6349
35.8998 23.6436
35.9468 23.5009
35.9936 23.4838
36.0406 23.4343
36.0874 23.4466
36.1345 23.3651
36.1813 23.2083
36.2283 23.1121
36.2752 23.066
36.3222 23.1056
36.3691 22.9231
36.4161 22.8051
36.463 22.8627
36.5101 22.8084
36.557 22.7133
36.6041 22.5822
36.651 22.5731
36.6981 22.4865
36.745 22.3816
36.7921 22.3023
36.839 22.3434
36.8861 22.1326
36.9331 22.1269
36.9802 22.0406
37.0272 21.9468
37.0743 21.8751
37.1213 21.8243
37.1684 21.753
37.2154 21.6513
37.2626 21.5811
37.3098 21.5564
37.3568 21.4946
37.404 21.4553
37.451 21.3326
37.4982 21.2942
37.5452 21.1962
37.5924 21.2235
37.6395 21.197
37.6867 21.057
37.7337 20.8966
37.781 20.904
37.8281 20.9043
37.8753 20.6965
37.9224 20.6409
37.9697 20.5883
38.0168 20.5139
38.064 20.5913
38.1111 20.3927
38.1584 20.3001
38.2056 20.2234
38.2529 20.2212
38.3 20.1206
38.3473 20.0936
38.3945 20.0766
38.4418 20.0159
38.489 19.9102
38.5363 19.8613
38.5837 19.793
38.6309 19.6678
38.6782 19.6177
38.7254 19.6039
38.7728 19.5466
38.82 19.5035
38.8674 19.47
38.9146 19.3851
38.9621 19.2421
39.0093 19.2199
39.0567 19.1688
39.104 19.1276
39.1514 19.0274
39.1987 19.0383
39.2461 18.9796
39.2934 18.8424
39.3409 18.8262
39.3882 18.6549
39.4356 18.6786
39.483 18.6243
39.5304 18.5035
39.5778 18.5663
39.6253 18.4798
39.6726 18.3932
39.7201 18.3931
39.7675 18.2818
39.815 18.2081
39.8624 18.1415
39.9099 18.158
39.9575 18.0549
40.0049 17.9279
40.0525 17.9675
40.0999 17.9126
40.1474 17.7901
40.1949 17.7292
40.2425 17.718
40.2899 17.6683
40.3375 17.5902
40.385 17.4909
40.4326 17.488
40.48 17.4053
40.5277 17.3533
40.5752 17.3134
40.6228 17.2279
40.6703 17.2381
40.718 17.1821
40.7655 17.1246
40.8132 17.0632
40.8607 17.0354
40.9084 16.9674
40.9559 16.8607
41.0036 16.8933
41.0512 16.7865
41.0989 16.7244
41.1465 16.6957
41.1942 16.5769
41.242 16.5513
41.2896 16.4666
41.3373 16.4802
41.3849 16.2986
41.4327 16.3286
41.4803 16.2431
41.5281 16.1927
41.5758 16.1133
41.6236 16.0927
41.6712 16.0826
41.7191 15.9627
41.7667 15.9348
41.8146 15.9167
41.8622 15.8871
41.9101 15.8353
41.9578 15.7189
42.0057 15.5936
42.0534 15.6305
42.1013 15.6228
42.149 15.4826
42.1969 15.4851
42.2446 15.4042
42.2925 15.4153
42.3403 15.3222
42.3882 15.2885
42.436 15.217
42.4839 15.1588
42.5319 15.131
42.5797 15.1031
42.6277 14.9943
42.6755 15.0145
42.7235 14.8531
42.7713 14.8535
42.8193 14.8306
42.8671 14.7035
42.9152 14.7206
42.963 14.6612
43.0111 14.6347
43.0589 14.5655
43.107 14.4783
43.1549 14.4001
43.2029 14.375
43.2508 14.346
43.2989 14.3038
43.3468 14.2482
43.3949 14.2195
43.4429 14.1775
43.491 14.1245
43.5389 14.0552
43.5871 14.0142
43.635 14.0222
43.6832 13.9001
43.7312 13.8761
43.7793 13.7711
43.8273 13.8089
43.8755 13.7369
43.9237 13.638
43.9717 13.6966
44.0199 13.5893
44.068 13.5497
44.1162 13.5005
44.1642 13.455
44.2125 13.3977
44.2606 13.3651
44.3088 13.2995
44.3569 13.2157
44.4052 13.1942
44.4533 13.174
44.5016 13.1355
44.5497 13.0587
44.598 13.0251
44.6461 12.9478
44.6945 12.9425
44.7426 12.8642
44.791 12.8141
44.8391 12.7838
44.8875 12.7613
44.9357 12.6711
44.984 12.6791
45.0322 12.6325
45.0806 12.5791
45.1288 12.5435
45.1773 12.4672
45.2257 12.4453
45.2739 12.3435
45.3224 12.3372
45.3706 12.2965
45.4191 12.2577
45.4673 12.2425
45.5158 12.1673
45.5641 12.103
45.6126 12.0701
45.6609 12.044
45.7094 11.9935
45.7577 11.9562
45.8063 11.8974
45.8546 11.8946
45.9031 11.822
45.9515 11.8058
46.0001 11.7223
46.0484 11.6673
46.097 11.6472
46.1454 11.6303
46.194 11.5591
46.2424 11.5505
46.291 11.4943
46.3395 11.4659
46.3881 11.4424
46.4365 11.3906
46.4852 11.3591
46.5337 11.2904
46.5823 11.2354
46.631 11.2069
46.6795 11.1671
46.7282 11.1283
46.7767 11.0678
46.8254 11.0309
46.8739 11.0053
46.9226 10.9472
46.9712 10.889
47.0199 10.9059
47.0685 10.8388
47.1173 10.7754
47.1658 10.7536
47.2146 10.6886
47.2632 10.6641
47.312 10.6733
47.3606 10.6222
47.4095 10.525
47.4581 10.5305
47.5069 10.4992
47.5556 10.4208
47.6044 10.4241
47.6531 10.3771
47.702 10.2766
47.7507 10.2888
47.7996 10.2414
47.8483 10.1847
47.8972 10.1751
47.9461 10.1595
47.9948 10.1167
48.0438 10.0531
48.0925 10.0213
48.1415 9.98766
48.1902 9.96405
48.2392 9.95395
48.288 9.92757
48.337 9.86265
48.3858 9.80155
48.4348 9.78221
48.4837 9.74626
48.5327 9.76886
48.5815 9.68919
48.6306 9.65563
48.6795 9.5804
48.7285 9.57409
48.7774 9.52248
48.8265 9.48598
48.8754 9.45454
48.9245 9.45227
48.9734 9.42882
49.0226 9.38913
49.0715 9.32142
49.1206 9.24137
49.1696 9.2645
49.2188 9.22605
49.2679 9.21934
49.3169 9.11332
49.3661 9.1299
49.4151 9.06652
49.4643 9.06012
49.5134 9.0098
49.5626 8.94772
49.6117 8.91455
49.6609 8.86969
49.71 8.86255
49.7592 8.81764
49.8083 8.77586
49.8576 8.74197
49.9067 8.72063
49.956 8.7163
50.0052 8.65315
50.0545 8.68769
50.1036 8.57714
50.153 8.56653
50.2022 8.54002
50.2515 8.52357
50.3007 8.45543
50.3501 8.45424
50.3993 8.4035
50.4487 8.3878
50.498 8.35559
50.5474 8.33246
50.5966 8.27751
50.6461 8.24116
50.6955 8.24059
50.7448 8.20826
50.7943 8.16372
50.8436 8.12596
50.8931 8.07164
50.9424 8.08111
50.9919 8.02099
51.0413 8.00609
51.0908 7.96663
51.1402 7.93615
51.1897 7.87032
51.2391 7.91413
51.2887 7.86103
51.3381 7.78871
51.3877 7.76494
51.4371 7.73389
51.4867 7.72387
51.5362 7.68881
51.5858 7.66865
51.6353 7.60968
51.6849 7.56402
51.7344 7.55809
51.7841 7.53134
51.8336 7.4888
51.8833 7.49303
51.9328 7.45452
51.9826 7.35635
52.0323 7.3425
52.0818 7.3253
52.1316 7.29892
52.1812 7.29662
52.231 7.24516
52.2806 7.24479
52.3304 7.15315
52.38 7.14865
52.4298 7.1449
52.4794 7.07177
52.5293 7.05645
52.5789 7.0458
52.6288 7.03692
52.6785 6.97831
52.7284 7.00956
52.7781 6.93573
52.828 6.89313
52.8777 6.86641
52.9276 6.84224
52.9774 6.80487
53.0273 6.77789
53.0771 6.72656
53.1271 6.69399
53.1769 6.68134
53.2269 6.66068
53.2767 6.59287
53.3267 6.60331
53.3765 6.59391
53.4266 6.51382
53.4766 6.53861
53.5265 6.506
53.5765 6.44379
53.6264 6.44345
53.6765 6.43871
53.7264 6.38482
53.7765 6.382
53.8265 6.32151
53.8766 6.33272
53.9266 6.2653
53.9767 6.24481
54.0267 6.21993
54.0769 6.17062
54.1269 6.12637
54.1771 6.11544
54.2271 6.08707
54.2773 6.02775
54.3274 6.05714
54.3776 5.91667
54.4277 5.97126
54.478 5.9071
54.528 5.8161
54.5783 5.80647
54.6285 5.77156
54.6788 5.73142
54.7289 5.70344
54.7792 5.66124
54.8296 5.65686
54.8798 5.52409
54.9301 5.51339
54.9803 5.4275
55.0307 5.44784
55.0809 5.39589
55.1314 5.37815
55.1816 5.29928
55.232 5.25186
55.2823 5.22927
55.3328 5.15602
55.383 5.1236
55.4335 5.05367
55.4838 5.0117
55.5344 4.9262
55.5847 4.89289
55.6352 4.87772
55.6856 4.84723
55.7361 4.87913