File: XRD/Ni3Fe_FD0792.xy
TT I
1.27165 7.95044
1.31627 5.92706
1.36089 6.60901
1.40551 5.60376
1.45013 6.18259
1.49476 7.00973
1.53938 6.66444
1.584 5.2165
1.62863 5.39606
1.67325 5.00791
1.71787 5.24777
1.7625 5.11448
1.80712 4.83146
1.85174 4.63717
1.89636 4.3384
1.94099 4.35057
1.98562 4.64563
2.03025 4.00154
2.07487 4.62198
2.11949 4.56609
2.16411 5.507
2.20874 10.3303
2.25338 15.2594
2.298 5.8742
2.34263 5.9008
2.38725 5.45529
2.43188 6.83578
2.4765 6.81538
2.52115 7.65159
2.56577 7.91078
2.6104 8.68918
2.65503 7.79778
2.69965 8.4843
2.7443 8.4228
2.78893 7.60176
2.83356 8.84935
2.87818 9.0541
2.92281 9.32735
2.96744 9.44283
3.01209 10.4454
3.05672 10.7947
3.10135 11.902
3.14599 13.2254
3.19062 14.0627
3.23527 15.1094
3.2799 15.3958
3.32454 17.0767
3.36917 17.4323
3.4138 18.6285
3.45844 19.8768
3.50309 20.5707
3.54773 21.2368
3.59237 23.6635
3.637 65.984
3.68164 45.1223
3.7263 25.8452
3.77094 25.7129
3.81558 26.7165
3.86022 26.9671
3.90486 28.5601
3.9495 29.5003
3.99416 30.4675
4.0388 31.595
4.08344 33.4192
4.12809 34.2898
4.17273 36.0703
4.21738 40.5166
4.26204 168.36
4.30669 146.674
4.35133 45.4466
4.39598 43.5445
4.44063 50.4697
4.4853 58.3308
4.52995 51.3031
4.5746 52.6611
4.61925 52.4737
4.6639 55.1858
4.70855 57.9952
4.75322 60.7197
4.79788 64.7176
4.84253 67.4127
4.88719 71.657
4.93184 74.6951
4.97652 79.8045
5.02118 86.149
5.06583 93.8238
5.11049 104.26
5.15515 158.09
5.19981 364.175
5.24449 2807.47
5.28916 12452.9
5.33382 2557.55
5.37848 177.969
5.42315 126.117
5.46783 112.881
5.5125 106.267
5.55716 100.566
5.60183 96.8929
5.6465 94.9909
5.69117 92.9763
5.73586 91.2602
5.78053 92.0639
5.8252 92.0262
5.86988 93.6037
5.91455 93.7102
5.95924 102.805
6.00392 221.056
6.0486 959.853
6.09328 4543.24
6.13795 3093.42
6.18263 203.685
6.22733 89.5828
6.27201 80.265
6.3167 90.0165
6.36138 76.206
6.40606 68.2862
6.45075 67.1625
6.49545 64.6857
6.54014 62.9326
6.58483 61.878
6.62952 61.8872
6.67421 80.6694
6.71892 109.804
6.76361 64.0566
6.8083 57.631
6.853 57.2773
6.89769 56.1917
6.94239 55.9465
6.98711 55.261
7.03181 54.8959
7.07651 54.5554
7.12121 54.4436
7.16591 54.7776
7.21063 54.462
7.25533 64.7332
7.30004 129.625
7.34475 76.5442
7.38945 55.0968
7.43416 53.414
7.47889 53.1908
7.5236 54.0292
7.56831 54.2231
7.61303 55.5539
7.65774 56.2209
7.70247 55.6719
7.74719 55.4208
7.79191 55.9824
7.83663 55.9179
7.88135 57.3002
7.92607 57.8463
7.97081 59.1075
8.01553 59.8899
8.06026 61.7821
8.10498 63.542
8.14971 70.4728
8.19446 70.2545
8.23919 68.5509
8.28392 71.1383
8.32865 73.2985
8.37339 77.4119
8.41812 83.4467
8.46288 105.663
8.50761 171.672
8.55235 381.476
8.59709 1213.66
8.64183 2187.83
8.68658 854.621
8.73134 146.776
8.77609 97.0009
8.82083 90.9407
8.86558 89.45
8.91033 89.0974
8.9551 88.7097
8.99985 84.102
9.04461 82.6532
9.08936 82.2318
9.13412 81.143
9.17888 81.2881
9.22365 81.2489
9.26841 81.4639
9.31318 82.4642
9.35794 82.6852
9.4027 83.4727
9.44749 83.248
9.49226 83.9131
9.53703 84.6174
9.5818 86.328
9.62657 91.2768
9.67134 94.7056
9.71614 91.8818
9.76091 93.36
9.80569 96.2974
9.85047 99.1929
9.89525 115.065
9.94005 128.766
9.98484 182.874
10.0296 342.734
10.0744 823.963
10.1192 1778.58
10.164 1505.37
10.2088 341.999
10.2536 119.36
10.2984 109.18
10.3432 109.403
10.388 103.478
10.4328 119.465
10.4776 160.841
10.5224 289.557
10.5672 538.822
10.612 485.927
10.6568 185.183
10.7017 93.6564
10.7465 85.3146
10.7913 81.8519
10.8361 80.03
10.8809 78.0789
10.9257 76.9964
10.9706 77.1864
11.0154 73.9411
11.0602 71.8611
11.105 71.093
11.1499 73.052
11.1947 77.189
11.2395 71.3055
11.2844 68.4201
11.3292 66.4786
11.374 65.4502
11.4189 64.6242
11.4637 64.079
11.5086 64.1307
11.5534 65.6225
11.5983 64.086
11.6431 62.8394
11.688 62.1636
11.7328 62.1319
11.7777 62.11
11.8225 61.8231
11.8674 61.7241
11.9122 62.1347
11.9571 62.1178
12.002 63.2741
12.0468 67.8743
12.0917 77.7847
12.1366 102.116
12.1814 157.568
12.2263 213.105
12.2712 165.973
12.3161 88.0944
12.3609 67.3658
12.4058 63.5408
12.4507 63.383
12.4956 63.7695
12.5405 63.7613
12.5853 64.6171
12.6302 69.31
12.6751 72.802
12.72 67.815
12.7649 66.8562
12.8098 67.8204
12.8547 68.8752
12.8996 70.185
12.9445 71.6956
12.9894 73.6348
13.0343 75.0694
13.0792 78.9463
13.1242 89.1864
13.1691 110.846
13.214 148.265
13.2589 245.832
13.3038 385.827
13.3487 420.384
13.3937 240.057
13.4386 116.885
13.4835 105.008
13.5285 119.387
13.5734 158.744
13.6183 255.119
13.6633 361.012
13.7082 327.084
13.7531 168.86
13.7981 92.7666
13.843 80.436
13.888 78.6598
13.9329 76.0386
13.9779 75.1324
14.0228 73.7833
14.0678 72.2301
14.1127 71.5536
14.1577 71.1849
14.2027 70.6364
14.2476 69.5762
14.2926 69.5787
14.3376 70.2441
14.3825 69.1664
14.4275 67.9661
14.4725 68.0096
14.5175 68.1239
14.5624 68.2123
14.6074 69.2943
14.6524 69.9006
14.6974 69.6054
14.7424 72.0121
14.7874 79.0146
14.8324 88.0714
14.8774 111.055
14.9224 157.125
14.9674 214.416
15.0124 219.5
15.0574 141.67
15.1024 85.9576
15.1474 70.9139
15.1924 69.2426
15.2374 69.0892
15.2824 68.6235
15.3274 66.8085
15.3725 66.1174
15.4175 65.5224
15.4625 65.3407
15.5076 65.4651
15.5526 65.4763
15.5976 65.2692
15.6426 66.7986
15.6877 72.1036
15.7327 79.2541
15.7778 94.386
15.8228 128.914
15.8679 177.862
15.9129 196.32
15.958 147.165
16.003 89.1465
16.0481 65.5562
16.0931 62.9306
16.1382 61.0363
16.1833 59.6345
16.2283 58.2119
16.2734 57.5514
16.3185 57.5118
16.3636 57.5934
16.4086 56.5863
16.4537 55.5532
16.4988 54.824
16.5439 54.7237
16.589 54.5115
16.6341 54.3334
16.6792 53.8833
16.7243 54.1163
16.7694 54.2674
16.8145 53.9191
16.8596 54.3819
16.9047 55.146
16.9498 55.5968
16.9949 54.8897
17.04 55.4621
17.0851 56.5291
17.1302 58.0225
17.1754 61.4042
17.2205 66.7227
17.2656 74.818
17.3108 83.4544
17.3559 81.1935
17.401 69.0596
17.4462 60.5411
17.4913 58.5798
17.5365 58.6727
17.5815 58.411
17.6268 58.8822
17.6718 59.6656
17.7171 60.1345
17.7622 60.5978
17.8074 61.4548
17.8525 64.0926
17.8977 67.8033
17.9428 73.222
17.9881 82.5341
18.0331 101.213
18.0784 125.052
18.1237 141.557
18.1688 126.852
18.214 98.4648
18.2591 84.4204
18.3044 91.1532
18.3495 101.489
18.3948 105.67
18.4399 92.7551
18.4852 74.285
18.5303 64.4478
18.5756 61.1673
18.6207 60.4497
18.666 59.645
18.7112 59.1318
18.7565 58.3613
18.8016 57.9808
18.8469 57.1819
18.892 57.2343
18.9374 56.6468
18.9825 56.3959
19.0278 56.012
19.073 56.1983
19.1183 56.9065
19.1635 57.2433
19.2088 58.6349
19.254 61.6725
19.2993 66.6683
19.3447 72.5658
19.3898 76.138
19.4352 70.3241
19.4804 61.3635
19.5257 55.5272
19.5709 53.5049
19.6163 53.1824
19.6615 53.0217
19.7068 52.6513
19.752 52.7894
19.7974 53.0694
19.8426 53.867
19.888 54.3484
19.9332 55.7729
19.9786 58.3979
20.0238 62.4238
20.0692 67.6645
20.1144 69.829
20.1598 66.9343
20.205 62.2141
20.2504 61.5646
20.2957 64.0808
20.3411 65.5258
20.3863 62.8525
20.4318 56.7128
20.477 52.4818
20.5224 50.8738
20.5677 50.3718
20.6131 49.7202
20.6586 49.1533
20.7038 48.9458
20.7493 48.5823
20.7945 48.4098
20.84 48.4115
20.8853 48.2141
20.9307 48.0113
20.976 48.0853
21.0215 47.9724
21.0668 48.3913
21.1122 49.0112
21.1575 49.6265
21.203 50.3864
21.2483 50.978
21.2938 50.8342
21.3391 49.2396
21.3846 48.3829
21.4299 48.0304
21.4754 48.0703
21.5207 48.0524
21.5662 48.3802
21.6116 48.8194
21.6571 49.3139
21.7024 50.3138
21.7479 52.3489
21.7933 55.374
21.8388 59.1141
21.8843 62.8493
21.9297 64.1736
21.9752 61.7935
22.0206 58.0721
22.0661 55.8535
22.1115 55.7795
22.157 55.2298
22.2024 53.0686
22.248 50.5758
22.2933 49.0789
22.3389 48.5504
22.3843 48.3512
22.4299 48.1873
22.4753 48.3841
22.5208 48.0524
22.5662 47.9022
22.6118 48.1015
22.6572 48.3458
22.7028 48.887
22.7483 49.1689
22.7939 49.9338
22.8393 51.6288
22.8849 53.8595
22.9303 56.1828
22.9759 57.4433
23.0214 56.5317
23.067 53.4862
23.1126 50.1599
23.1581 48.4788
23.2037 48.2795
23.2492 48.532
23.2948 48.3755
23.3403 48.7142
23.3859 49.2048
23.4314 50.4556
23.477 52.3828
23.5225 54.7493
23.5682 57.1259
23.6137 57.4431
23.6593 54.4363
23.7048 50.4724
23.7505 47.3433
23.796 46.0915
23.8417 45.4518
23.8872 44.8957
23.9329 44.7801
23.9784 44.3514
24.0241 44.0294
24.0697 43.9315
24.1154 43.5706
24.1609 43.4456
24.2066 43.3624
24.2522 43.3212
24.2979 42.9146
24.3434 42.9374
24.3892 42.7044
24.4349 42.4961
24.4805 42.5118
24.5262 42.6895
24.5718 42.6055
24.6175 42.4309
24.6631 42.3259
24.7089 42.0795
24.7545 41.9885
24.8002 41.9169
24.8458 41.7186
24.8916 41.5647
24.9372 41.8386
24.983 42.1361
25.0286 42.4578
25.0744 42.8969
25.12 43.3907
25.1658 44.0512
25.2114 44.4824
25.2572 44.3213
25.3029 44.4306
25.3487 44.6471
25.3943 44.0909
25.4402 42.8339
25.4858 41.7949
25.5316 40.8627
25.5773 40.514
25.6231 40.4226
25.669 40.1357
25.7147 40.1764
25.7605 40.0619
25.8062 39.941
25.8521 40.0889
25.8977 40.1099
25.9436 40.5137
25.9893 40.5431
26.0352 41.2032
26.0809 41.2472
26.1268 41.4358
26.1725 40.9961
26.2184 40.1961
26.2641 39.7986
26.31 39.7518
26.3557 39.7035
26.4017 39.6995
26.4474 40.0385
26.4933 40.333
26.5391 40.9483
26.585 41.4156
26.6308 41.8267
26.6767 41.7796
26.7225 41.4111
26.7684 40.9073
26.8142 40.2976
26.8601 39.9362
26.9059 39.4919
26.9519 38.9509
26.9979 38.6294
27.0437 38.4326
27.0896 38.3729
27.1354 38.3964
27.1814 38.2003
27.2272 38.0158
27.2732 38.088
27.3191 38.0274
27.3651 38.0976
27.4109 38.1172
27.4569 38.2883
27.5027 38.2993
27.5488 38.231
27.5946 38.073
27.6407 37.8098
27.6865 37.7741
27.7326 37.5115
27.7784 37.4738
27.8245 37.5524
27.8703 37.6067
27.9164 38.0664
27.9623 38.1423
28.0084 38.4768
28.0543 38.7211
28.1003 38.6375
28.1462 38.3851
28.1923 38.0013
28.2384 37.5914
28.2843 37.2005
28.3304 36.7861
28.3764 36.2459
28.4225 35.9566
28.4684 35.8631
28.5145 35.5828
28.5605 35.5162
28.6066 35.3263
28.6526 35.2508
28.6987 35.1836
28.7447 35.061
28.7908 35.0095
28.8368 35.211
28.8829 35.008
28.9289 35.0019
28.9751 34.9229
29.0211 34.4306
29.0673 34.2255
29.1133 34.2356
29.1595 34.0045
29.2055 34.0363
29.2517 33.9259
29.2977 33.9391
29.3439 33.8892
29.3899 33.787
29.4361 33.7722
29.4824 33.5557
29.5284 33.2341
29.5746 33.024
29.6207 32.8017
29.6669 32.6541
29.713 32.5881
29.7593 32.4932
29.8053 32.5033
29.8516 32.4771
29.8977 32.4479
29.9439 32.3024
29.99 32.139
30.0363 32.1396
30.0824 32.1403
30.1287 32.1261
30.1748 32.1032
30.2211 32.1262
30.2673 31.8938
30.3136 32.0414
30.3597 31.8273
30.406 31.8494
30.4522 31.8185
30.4985 31.6795
30.5447 31.7974
30.591 31.8286
30.6372 31.8989
30.6835 31.8694
30.7297 31.8652
30.7761 31.866
30.8224 31.6307
30.8686 31.4919
30.915 31.2261
30.9612 31.1185
31.0076 30.9725
31.0538 30.8264
31.1002 30.7977
31.1464 30.6296
31.1928 30.6615
31.2391 30.7429
31.2855 30.5692
31.3317 30.5127
31.3781 30.6243
31.4244 30.621
31.4708 30.6136
31.5171 30.4567
31.5636 30.4873
31.6098 30.1669
31.6563 29.9407
31.7026 29.9541
31.7491 29.8324
31.7953 29.8682
31.8418 29.854
31.8881 29.7866
31.9346 29.8222
31.9809 29.8254
32.0275 29.5486
32.074 29.4861
32.1203 29.3108
32.1668 29.2247
32.2132 29.0391
32.2597 28.9009
32.306 28.883
32.3526 28.7451
32.399 28.582
32.4455 28.5353
32.4919 28.3541
32.5385 28.3711
32.5848 28.2194
32.6314 28.1215
32.6778 28.0526
32.7244 28.0016
32.7708 27.8444
32.8174 27.9172
32.8638 27.7551
32.9104 27.7923
32.9569 27.7344
33.0035 27.6122
33.0499 27.5391
33.0966 27.5531
33.143 27.5418
33.1897 27.3472
33.2361 27.2581
33.2828 27.2038
33.3293 27.0168
33.3759 27.1521
33.4226 26.9594
33.4691 26.8906
33.5158 26.783
33.5623 26.6429
33.609 26.4638
33.6555 26.3727
33.7022 26.3772
33.7487 26.1456
33.7954 26.2227
33.842 26.1204
33.8887 25.9853
33.9353 26.0045
33.982 25.9362
34.0286 25.766
34.0753 25.745
34.1219 25.5878
34.1687 25.5672
34.2152 25.5239
34.262 25.3964
34.3086 25.3447
34.3554 25.2075
34.402 25.0702
34.4488 24.9734
34.4954 24.9257
34.5422 24.8569
34.5889 24.8777
34.6357 24.7666
34.6825 24.6929
34.7292 24.5442
34.776 24.5146
34.8227 24.4483
34.8695 24.4312
34.9162 24.2931
34.9631 24.231
35.0098 24.2621
35.0566 24.018
35.1033 24.049
35.1502 23.9836
35.1969 23.9534
35.2438 23.8633
35.2906 23.8625
35.3375 23.7939
35.3842 23.7256
35.4311 23.7324
35.4779 23.6759
35.5248 23.6704
35.5716 23.5812
35.6185 23.5553
35.6653 23.4023
35.7123 23.3135
35.759 23.2493
35.806 23.0438
35.8528 23.0061
35.8998 22.9905
35.9468 22.9096
35.9936 22.8209
36.0406 22.7799
36.0874 22.6802
36.1345 22.6471
36.1813 22.5471
36.2283 22.4809
36.2752 22.3509
36.3222 22.4285
36.3691 22.3235
36.4161 22.1374
36.463 22.2243
36.5101 22.1504
36.557 22.085
36.6041 21.9197
36.651 22.0037
36.6981 21.8878
36.745 21.8054
36.7921 21.7348
36.839 21.6092
36.8861 21.5212
36.9331 21.4677
36.9802 21.5042
37.0272 21.4004
37.0743 21.2892
37.1213 21.211
37.1684 21.1911
37.2154 21.1433
37.2626 21.0983
37.3098 21.0149
37.3568 20.956
37.404 20.8672
37.451 20.8065
37.4982 20.7527
37.5452 20.66
37.5924 20.5919
37.6395 20.5834
37.6867 20.4829
37.7337 20.3633
37.781 20.3121
37.8281 20.3165
37.8753 20.1539
37.9224 20.0684
37.9697 20.0788
38.0168 19.9957
38.064 19.8969
38.1111 19.849
38.1584 19.7669
38.2056 19.7763
38.2529 19.6412
38.3 19.624
38.3473 19.5778
38.3945 19.523
38.4418 19.5192
38.489 19.4792
38.5363 19.284
38.5837 19.2887
38.6309 19.21
38.6782 19.1102
38.7254 19.0656
38.7728 18.989
38.82 18.9237
38.8674 18.8438
38.9146 18.8469
38.9621 18.7573
39.0093 18.7013
39.0567 18.6204
39.104 18.6296
39.1514 18.5042
39.1987 18.484
39.2461 18.4749
39.2934 18.3737
39.3409 18.3181
39.3882 18.2162
39.4356 18.1035
39.483 18.1414
39.5304 18.0113
39.5778 18.0233
39.6253 17.9571
39.6726 17.8666
39.7201 17.9184
39.7675 17.7727
39.815 17.7346
39.8624 17.6733
39.9099 17.6373
39.9575 17.5214
40.0049 17.4966
40.0525 17.4071
40.0999 17.3888
40.1474 17.3781
40.1949 17.3129
40.2425 17.207
40.2899 17.159
40.3375 17.0942
40.385 16.9804
40.4326 17.0182
40.48 16.9542
40.5277 16.9431
40.5752 16.8465
40.6228 16.7454
40.6703 16.8033
40.718 16.6753
40.7655 16.6333
40.8132 16.5554
40.8607 16.5262
40.9084 16.4682
40.9559 16.4502
41.0036 16.3946
41.0512 16.2917
41.0989 16.2717
41.1465 16.1714
41.1942 16.1943
41.242 16.0757
41.2896 16.0257
41.3373 15.9705
41.3849 15.968
41.4327 15.8537
41.4803 15.8249
41.5281 15.7813
41.5758 15.7142
41.6236 15.6992
41.6712 15.6475
41.7191 15.5581
41.7667 15.5145
41.8146 15.4816
41.8622 15.4585
41.9101 15.3125
41.9578 15.3012
42.0057 15.3017
42.0534 15.2303
42.1013 15.2136
42.149 15.0943
42.1969 15.1394
42.2446 15.0036
42.2925 14.9549
42.3403 14.9429
42.3882 14.8566
42.436 14.8297
42.4839 14.7716
42.5319 14.7308
42.5797 14.6796
42.6277 14.6179
42.6755 14.5931
42.7235 14.5014
42.7713 14.5161
42.8193 14.4016
42.8671 14.3925
42.9152 14.3611
42.963 14.2387
43.0111 14.1633
43.0589 14.2187
43.107 14.1105
43.1549 14.0468
43.2029 13.9913
43.2508 14.0015
43.2989 13.9262
43.3468 13.8814
43.3949 13.843
43.4429 13.8305
43.491 13.7616
43.5389 13.698
43.5871 13.6589
43.635 13.5923
43.6832 13.5725
43.7312 13.4717
43.7793 13.4646
43.8273 13.4398
43.8755 13.3705
43.9237 13.3146
43.9717 13.323
44.0199 13.2367
44.068 13.1849
44.1162 13.1546
44.1642 13.1188
44.2125 13.0805
44.2606 13.0028
44.3088 12.9485
44.3569 12.881
44.4052 12.9298
44.4533 12.8218
44.5016 12.7621
44.5497 12.7246
44.598 12.674
44.6461 12.6368
44.6945 12.6314
44.7426 12.5695
44.791 12.5124
44.8391 12.4743
44.8875 12.424
44.9357 12.3865
44.984 12.3306
45.0322 12.2847
45.0806 12.2334
45.1288 12.2059
45.1773 12.1413
45.2257 12.1055
45.2739 12.07
45.3224 12.0306
45.3706 11.9932
45.4191 11.9197
45.4673 11.9239
45.5158 11.8482
45.5641 11.8168
45.6126 11.7924
45.6609 11.7312
45.7094 11.7069
45.7577 11.6797
45.8063 11.6149
45.8546 11.6258
45.9031 11.5262
45.9515 11.4653
46.0001 11.4276
46.0484 11.4173
46.097 11.3815
46.1454 11.3414
46.194 11.3107
46.2424 11.2292
46.291 11.23
46.3395 11.1111
46.3881 11.074
46.4365 11.0876
46.4852 10.9895
46.5337 11.016
46.5823 10.9835
46.631 10.8727
46.6795 10.87
46.7282 10.8262
46.7767 10.8039
46.8254 10.7391
46.8739 10.7043
46.9226 10.6838
46.9712 10.6447
47.0199 10.5868
47.0685 10.565
47.1173 10.5374
47.1658 10.4451
47.2146 10.4554
47.2632 10.4009
47.312 10.3505
47.3606 10.3355
47.4095 10.2914
47.4581 10.2687
47.5069 10.2089
47.5556 10.169
47.6044 10.1178
47.6531 10.0865
47.702 10.0408
47.7507 10.0356
47.7996 9.98754
47.8483 9.97902
47.8972 9.95234
47.9461 9.88477
47.9948 9.81848
48.0438 9.84986
48.0925 9.78692
48.1415 9.74816
48.1902 9.67693
48.2392 9.71128
48.288 9.64557
48.337 9.57537
48.3858 9.56615
48.4348 9.53466
48.4837 9.49252
48.5327 9.48256
48.5815 9.45178
48.6306 9.40102
48.6795 9.36541
48.7285 9.33566
48.7774 9.28052
48.8265 9.28704
48.8754 9.21063
48.9245 9.20697
48.9734 9.15563
49.0226 9.16443
49.0715 9.06841
49.1206 9.00258
49.1696 9.03163
49.2188 8.97384
49.2679 8.95786
49.3169 8.89639
49.3661 8.85972
49.4151 8.84151
49.4643 8.83035
49.5134 8.77454
49.5626 8.73351
49.6117 8.69313
49.6609 8.66101
49.71 8.65095
49.7592 8.61445
49.8083 8.5842
49.8576 8.51173
49.9067 8.49875
49.956 8.46728
50.0052 8.4673
50.0545 8.39204
50.1036 8.39507
50.153 8.34741
50.2022 8.31944
50.2515 8.27862
50.3007 8.21737
50.3501 8.22296
50.3993 8.17342
50.4487 8.16933
50.498 8.11043
50.5474 8.07735
50.5966 8.05448
50.6461 8.02425
50.6955 7.99283
50.7448 7.93826
50.7943 7.94962
50.8436 7.90097
50.8931 7.86962
50.9424 7.83939
50.9919 7.78486
51.0413 7.76496
51.0908 7.71913
51.1402 7.71919
51.1897 7.68061
51.2391 7.6315
51.2887 7.64424
51.3381 7.62122
51.3877 7.56918
51.4371 7.5338
51.4867 7.5222
51.5362 7.46986
51.5858 7.42097
51.6353 7.41376
51.6849 7.35915
51.7344 7.34902
51.7841 7.35402
51.8336 7.27935
51.8833 7.24303
51.9328 7.21987
51.9826 7.19845
52.0323 7.19499
52.0818 7.12615
52.1316 7.08468
52.1812 7.10356
52.231 7.03545
52.2806 7.00997
52.3304 7.01492
52.38 6.9964
52.4298 6.97947
52.4794 6.89578
52.5293 6.86813
52.5789 6.88398
52.6288 6.83907
52.6785 6.7765
52.7284 6.77062
52.7781 6.72714
52.828 6.72964
52.8777 6.66865
52.9276 6.65069
52.9774 6.65883
53.0273 6.58865
53.0771 6.57386
53.1271 6.57714
53.1769 6.52953
53.2269 6.46402
53.2767 6.4352
53.3267 6.44839
53.3765 6.40986
53.4266 6.3937
53.4766 6.34193
53.5265 6.29342
53.5765 6.32057
53.6264 6.26652
53.6765 6.23953
53.7264 6.24536
53.7765 6.1757
53.8265 6.19438
53.8766 6.11335
53.9266 6.11197
53.9767 6.09972
54.0267 6.06203
54.0769 6.01868
54.1269 5.95838
54.1771 5.97563
54.2271 5.93469
54.2773 5.92973
54.3274 5.86032
54.3776 5.84184
54.4277 5.84558
54.478 5.82077
54.528 5.72985
54.5783 5.71035
54.6285 5.68131
54.6788 5.63666
54.7289 5.61653
54.7792 5.59244
54.8296 5.51006
54.8798 5.40568
54.9301 5.43202
54.9803 5.41357
55.0307 5.35276
55.0809 5.28607
55.1314 5.33995
55.1816 5.20277
55.232 5.19746
55.2823 5.15775
55.3328 5.07917
55.383 5.02189
55.4335 4.99128
55.4838 4.94675
55.5344 4.9261
55.5847 4.92857
55.6352 4.82973
55.6856 4.80667
55.7361 4.77872