File: XRD/Ni3Fe_FD0160.xy
TT I
1.27165 8.28085
1.31627 7.21886
1.36089 7.19564
1.40551 6.69598
1.45013 6.36607
1.49476 6.41059
1.53938 5.96527
1.584 5.85221
1.62863 5.44913
1.67325 5.2596
1.71787 5.15529
1.7625 4.68546
1.80712 5.30866
1.85174 4.66866
1.89636 5.2325
1.94099 4.4034
1.98562 5.26048
2.03025 5.21923
2.07487 4.7328
2.11949 5.32211
2.16411 4.8694
2.20874 4.58034
2.25338 4.42941
2.298 4.68001
2.34263 4.4299
2.38725 4.07039
2.43188 3.97164
2.4765 4.62519
2.52115 4.13532
2.56577 4.41659
2.6104 5.25383
2.65503 5.30144
2.69965 5.82156
2.7443 6.29141
2.78893 6.6339
2.83356 7.06169
2.87818 8.18377
2.92281 9.00081
2.96744 10.0146
3.01209 10.7728
3.05672 11.2656
3.10135 12.0407
3.14599 13.1699
3.19062 14.7132
3.23527 15.1691
3.2799 15.6128
3.32454 16.4105
3.36917 17.3594
3.4138 18.6206
3.45844 19.3983
3.50309 20.656
3.54773 21.17
3.59237 21.8786
3.637 22.6024
3.68164 23.2125
3.7263 24.2937
3.77094 24.9915
3.81558 25.6746
3.86022 26.4147
3.90486 28.3002
3.9495 28.416
3.99416 29.6347
4.0388 31.0139
4.08344 32.2201
4.12809 32.6373
4.17273 34.2419
4.21738 35.8813
4.26204 36.5419
4.30669 38.2542
4.35133 39.6625
4.39598 41.5374
4.44063 42.8701
4.4853 44.6275
4.52995 47.0595
4.5746 49.0568
4.61925 51.9286
4.6639 53.732
4.70855 56.7288
4.75322 59.4475
4.79788 62.5498
4.84253 65.6707
4.88719 70.6664
4.93184 75.0704
4.97652 82.3426
5.02118 90.7832
5.06583 101.169
5.11049 117.088
5.15515 153.536
5.19981 537.879
5.24449 3762.68
5.28916 8476.91
5.33382 6289.03
5.37848 437.347
5.42315 161.915
5.46783 127.184
5.5125 113.534
5.55716 107.095
5.60183 101.553
5.6465 99.5819
5.69117 97.2349
5.73586 95.5842
5.78053 95.2602
5.8252 95.4609
5.86988 98.251
5.91455 104.994
5.95924 123.525
6.00392 284.58
6.0486 1378.39
6.09328 2788.07
6.13795 4103.35
6.18263 700.934
6.22733 121.342
6.27201 88.9193
6.3167 78.1213
6.36138 72.5839
6.40606 68.778
6.45075 66.9307
6.49545 64.5744
6.54014 62.4099
6.58483 61.2824
6.62952 60.1028
6.67421 58.6022
6.71892 57.6503
6.76361 56.6053
6.8083 55.7669
6.853 55.2729
6.89769 54.4179
6.94239 54.1183
6.98711 53.547
7.03181 53.1212
7.07651 52.8684
7.12121 52.6035
7.16591 52.7002
7.21063 51.757
7.25533 51.5987
7.30004 51.9038
7.34475 52.1657
7.38945 52.5125
7.43416 51.8573
7.47889 52.2168
7.5236 56.0056
7.56831 62.6363
7.61303 55.4175
7.65774 53.2865
7.70247 53.9689
7.74719 53.9628
7.79191 55.0769
7.83663 55.1585
7.88135 55.9294
7.92607 57.1027
7.97081 58.3598
8.01553 59.2321
8.06026 60.8051
8.10498 62.2945
8.14971 63.7437
8.19446 65.585
8.23919 67.789
8.28392 70.7344
8.32865 73.5805
8.37339 78.0589
8.41812 83.7676
8.46288 95.6391
8.50761 171.892
8.55235 599.285
8.59709 897.528
8.64183 1508.5
8.68658 1610.56
8.73134 401.032
8.77609 115.496
8.82083 97.253
8.86558 91.0562
8.91033 87.6036
8.9551 85.4342
8.99985 83.909
9.04461 83.0368
9.08936 82.5223
9.13412 81.2039
9.17888 81.7496
9.22365 86.5911
9.26841 96.2785
9.31318 85.8832
9.35794 82.5397
9.4027 82.0076
9.44749 83.3614
9.49226 83.6819
9.53703 84.7228
9.5818 86.562
9.62657 87.0817
9.67134 88.7572
9.71614 90.9541
9.76091 92.9334
9.80569 95.4544
9.85047 98.7462
9.89525 104.061
9.94005 113.763
9.98484 184.375
10.0296 542.743
10.0744 739.222
10.1192 1048.38
10.164 1684.01
10.2088 971.486
10.2536 214.386
10.2984 116.418
10.3432 107.841
10.388 104.721
10.4328 121.221
10.4776 214.334
10.5224 262.812
10.5672 336.58
10.612 497.484
10.6568 374.133
10.7017 136.902
10.7465 90.18
10.7913 83.19
10.8361 80.4108
10.8809 78.226
10.9257 75.9332
10.9706 74.7159
11.0154 72.7161
11.0602 71.3521
11.105 70.4367
11.1499 68.8123
11.1947 68.1146
11.2395 66.6485
11.2844 66.213
11.3292 65.4981
11.374 64.8717
11.4189 64.2016
11.4637 63.4848
11.5086 62.7668
11.5534 62.3278
11.5983 62.0845
11.6431 62.52
11.688 61.7571
11.7328 61.4147
11.7777 61.4072
11.8225 61.3943
11.8674 61.4256
11.9122 62.6778
11.9571 65.7679
12.002 64.9125
12.0468 67.8306
12.0917 90.1899
12.1366 108.147
12.1814 119.438
12.2263 151.805
12.2712 190.167
12.3161 136.98
12.3609 74.8373
12.4058 64.1081
12.4507 63.5542
12.4956 63.0396
12.5405 63.2757
12.5853 63.6564
12.6302 63.8277
12.6751 64.7375
12.72 65.178
12.7649 66.2072
12.8098 67.1207
12.8547 68.4874
12.8996 69.9342
12.9445 71.2356
12.9894 73.1469
13.0343 75.1388
13.0792 79.1236
13.1242 86.5676
13.1691 132.846
13.214 186.668
13.2589 206.658
13.3038 248.278
13.3487 352.986
13.3937 381.379
13.4386 206.919
13.4835 118.91
13.5285 153.444
13.5734 182.279
13.6183 194.647
13.6633 240.793
13.7082 334.175
13.7531 306.184
13.7981 153.182
13.843 88.5556
13.888 80.775
13.9329 77.6972
13.9779 76.1617
14.0228 74.672
14.0678 72.9382
14.1127 72.7138
14.1577 74.2461
14.2027 72.5096
14.2476 70.565
14.2926 69.7086
14.3376 69.1657
14.3825 68.7168
14.4275 68.2442
14.4725 68.0038
14.5175 68.5677
14.5624 68.215
14.6074 68.6911
14.6524 69.3048
14.6974 69.6865
14.7424 71.3994
14.7874 80.4864
14.8324 106.738
14.8774 121.437
14.9224 128.245
14.9674 150.394
15.0124 193.868
15.0574 205.335
15.1024 138.442
15.1474 81.7706
15.1924 71.2866
15.2374 69.0922
15.2824 68.3077
15.3274 67.0934
15.3725 66.3493
15.4175 66.3252
15.4625 65.9755
15.5076 65.5535
15.5526 65.4331
15.5976 65.6675
15.6426 66.6608
15.6877 73.6376
15.7327 94.6843
15.7778 107.519
15.8228 111.911
15.8679 126.085
15.9129 156.877
15.958 186.032
16.003 150.362
16.0481 88.1786
16.0931 66.2301
16.1382 61.6952
16.1833 60.532
16.2283 58.7567
16.2734 58.095
16.3185 57.4971
16.3636 56.6896
16.4086 56.1367
16.4537 55.6054
16.4988 55.0889
16.5439 54.8855
16.589 54.827
16.6341 54.4029
16.6792 54.1676
16.7243 54.5457
16.7694 54.2504
16.8145 54.1923
16.8596 54.4474
16.9047 54.6464
16.9498 55.1855
16.9949 54.7811
17.04 55.2521
17.0851 56.8103
17.1302 61.1251
17.1754 64.3671
17.2205 65.3129
17.2656 67.4456
17.3108 72.6605
17.3559 79.802
17.401 80.8652
17.4462 71.0646
17.4913 61.3577
17.5365 59.1719
17.5815 59.1669
17.6268 59.3427
17.6718 59.8982
17.7171 60.2225
17.7622 61.1177
17.8074 62.2485
17.8525 63.9317
17.8977 72.0334
17.9428 83.6065
17.9881 88.5328
18.0331 91.5985
18.0784 98.9345
18.1237 115.935
18.1688 141.659
18.214 141.281
18.2591 110.548
18.3044 88.6027
18.3495 87.1523
18.3948 95.786
18.4399 103.301
18.4852 94.7703
18.5303 75.9078
18.5756 64.8683
18.6207 62.2383
18.666 61.0134
18.7112 59.9444
18.7565 59.3172
18.8016 59.0027
18.8469 58.3408
18.892 57.9257
18.9374 57.3405
18.9825 57.1885
19.0278 56.8631
19.073 56.8676
19.1183 57.2644
19.1635 59.6451
19.2088 61.7584
19.254 62.4504
19.2993 63.5484
19.3447 65.7243
19.3898 69.4537
19.4352 74.2412
19.4804 72.3303
19.5257 63.6238
19.5709 56.2955
19.6163 54.3035
19.6615 54.0461
19.7068 53.4878
19.752 53.2502
19.7974 53.4265
19.8426 54.6753
19.888 56.9555
19.9332 58.2744
19.9786 58.7617
20.0238 59.3365
20.0692 62.1301
20.1144 67.2857
20.1598 72.4577
20.205 71.0724
20.2504 65.5264
20.2957 61.1999
20.3411 61.9968
20.3863 64.7749
20.4318 64.5746
20.477 59.0677
20.5224 53.328
20.5677 51.0856
20.6131 50.4439
20.6586 50.0425
20.7038 49.6461
20.7493 49.4156
20.7945 49.2127
20.84 49.0568
20.8853 48.9794
20.9307 48.618
20.976 48.9923
21.0215 49.2087
21.0668 49.4864
21.1122 49.6281
21.1575 49.5366
21.203 49.9924
21.2483 50.5068
21.2938 51.7159
21.3391 51.6172
21.3846 50.6224
21.4299 49.3339
21.4754 48.8435
21.5207 48.8554
21.5662 49.0944
21.6116 49.4116
21.6571 51.4422
21.7024 53.2198
21.7479 54.2438
21.7933 54.8136
21.8388 56.0579
21.8843 58.8959
21.9297 62.4152
21.9752 66.224
22.0206 65.7927
22.0661 60.6025
22.1115 56.4252
22.157 55.7621
22.2024 56.5847
22.248 55.1908
22.2933 52.4241
22.3389 50.2698
22.3843 49.2674
22.4299 49.0574
22.4753 48.976
22.5208 48.9752
22.5662 48.9409
22.6118 49.0615
22.6572 49.3004
22.7028 50.3375
22.7483 51.5332
22.7939 52.1803
22.8393 52.1826
22.8849 52.8933
22.9303 53.5972
22.9759 55.3241
23.0214 57.3645
23.067 58.4608
23.1126 55.8842
23.1581 52.2763
23.2037 50.0909
23.2492 49.4181
23.2948 49.8118
23.3403 50.9924
23.3859 51.8871
23.4314 51.8771
23.477 52.0993
23.5225 52.6905
23.5682 53.8518
23.6137 56.2621
23.6593 58.0435
23.7048 57.2706
23.7505 53.1428
23.796 49.0396
23.8417 47.0067
23.8872 46.2536
23.9329 45.7493
23.9784 45.3569
24.0241 45.2075
24.0697 44.8709
24.1154 44.4638
24.1609 44.2175
24.2066 44.0849
24.2522 43.8517
24.2979 43.5981
24.3434 43.8027
24.3892 43.3319
24.4349 43.4525
24.4805 43.1499
24.5262 43.2283
24.5718 42.9753
24.6175 43.1678
24.6631 43.2554
24.7089 42.9942
24.7545 42.871
24.8002 42.5371
24.8458 42.6743
24.8916 42.6017
24.9372 42.7513
24.983 43.0001
25.0286 43.154
25.0744 43.6875
25.12 43.9312
25.1658 44.261
25.2114 44.6654
25.2572 45.0814
25.3029 45.047
25.3487 44.9681
25.3943 44.9782
25.4402 45.0206
25.4858 44.691
25.5316 43.1744
25.5773 41.91
25.6231 41.4977
25.669 41.0158
25.7147 40.8773
25.7605 40.6905
25.8062 41.0653
25.8521 41.0861
25.8977 41.117
25.9436 41.0784
25.9893 41.0985
26.0352 41.3263
26.0809 41.3045
26.1268 41.8389
26.1725 42.1497
26.2184 42.1392
26.2641 41.5855
26.31 40.99
26.3557 40.902
26.4017 40.93
26.4474 41.1722
26.4933 40.9896
26.5391 41.3197
26.585 41.5551
26.6308 41.9084
26.6767 42.2275
26.7225 42.7682
26.7684 42.7641
26.8142 42.1568
26.8601 41.5063
26.9059 40.9732
26.9519 40.5087
26.9979 40.2275
27.0437 39.718
27.0896 39.3611
27.1354 39.2261
27.1814 39.0854
27.2272 39.0679
27.2732 39.0145
27.3191 38.8528
27.3651 38.9437
27.4109 38.747
27.4569 38.8129
27.5027 38.7191
27.5488 38.8309
27.5946 38.7351
27.6407 38.9382
27.6865 38.9791
27.7326 38.679
27.7784 38.4924
27.8245 38.4452
27.8703 38.4785
27.9164 38.6022
27.9623 38.5943
28.0084 38.927
28.0543 39.0581
28.1003 39.1403
28.1462 39.5649
28.1923 39.4471
28.2384 38.9435
28.2843 38.5171
28.3304 38.161
28.3764 37.693
28.4225 37.2811
28.4684 36.8432
28.5145 36.3891
28.5605 36.2205
28.6066 36.1222
28.6526 35.9808
28.6987 36.0456
28.7447 35.8738
28.7908 35.6594
28.8368 35.6775
28.8829 35.6904
28.9289 35.6446
28.9751 35.524
29.0211 35.5868
29.0673 35.2809
29.1133 35.0979
29.1595 34.8493
29.2055 34.6967
29.2517 34.6646
29.2977 34.517
29.3439 34.4814
29.3899 34.4044
29.4361 34.3801
29.4824 34.3878
29.5284 34.3069
29.5746 34.0441
29.6207 33.613
29.6669 33.4878
29.713 33.3549
29.7593 33.121
29.8053 33.127
29.8516 33.1179
29.8977 33.0463
29.9439 32.9106
29.99 32.8579
30.0363 32.72
30.0824 32.7944
30.1287 32.62
30.1748 32.7005
30.2211 32.652
30.2673 32.5844
30.3136 32.7223
30.3597 32.6376
30.406 32.6788
30.4522 32.4743
30.4985 32.3935
30.5447 32.5443
30.591 32.4366
30.6372 32.4074
30.6835 32.3805
30.7297 32.5376
30.7761 32.4886
30.8224 32.5796
30.8686 32.435
30.915 32.2097
30.9612 32.1566
31.0076 31.7736
31.0538 31.6969
31.1002 31.465
31.1464 31.3039
31.1928 31.3052
31.2391 31.3645
31.2855 31.2218
31.3317 31.0802
31.3781 31.209
31.4244 31.134
31.4708 31.2014
31.5171 31.1908
31.5636 31.1694
31.6098 31.1298
31.6563 30.9677
31.7026 30.7732
31.7491 30.5655
31.7953 30.5651
31.8418 30.4773
31.8881 30.448
31.9346 30.4133
31.9809 30.389
32.0275 30.2332
32.074 30.2271
32.1203 30.1883
32.1668 30.0366
32.2132 29.7896
32.2597 29.6977
32.306 29.6167
32.3526 29.3064
32.399 29.2013
32.4455 29.0381
32.4919 28.9613
32.5385 29.0041
32.5848 28.7671
32.6314 28.7815
32.6778 28.6501
32.7244 28.5639
32.7708 28.3976
32.8174 28.4952
32.8638 28.3099
32.9104 28.4754
32.9569 28.3543
33.0035 28.1322
33.0499 28.1366
33.0966 28.0707
33.143 28.0911
33.1897 27.8834
33.2361 27.9565
33.2828 27.8895
33.3293 27.6524
33.3759 27.7328
33.4226 27.6697
33.4691 27.4137
33.5158 27.3418
33.5623 27.2673
33.609 27.042
33.6555 27.0907
33.7022 26.8735
33.7487 26.7215
33.7954 26.8664
33.842 26.5941
33.8887 26.5438
33.9353 26.5145
33.982 26.5681
34.0286 26.2921
34.0753 26.2798
34.1219 26.1794
34.1687 26.0567
34.2152 25.9545
34.262 25.8984
34.3086 25.7819
34.3554 25.7229
34.402 25.7157
34.4488 25.6116
34.4954 25.5529
34.5422 25.3774
34.5889 25.2983
34.6357 25.1434
34.6825 25.2265
34.7292 25.0537
34.776 24.9701
34.8227 24.8959
34.8695 24.933
34.9162 24.8133
34.9631 24.6878
35.0098 24.8239
35.0566 24.5733
35.1033 24.4882
35.1502 24.5456
35.1969 24.4068
35.2438 24.4087
35.2906 24.4075
35.3375 24.2958
35.3842 24.2182
35.4311 24.1105
35.4779 24.1429
35.5248 24.1022
35.5716 24.0361
35.6185 23.9561
35.6653 23.9452
35.7123 23.8169
35.759 23.7176
35.806 23.6073
35.8528 23.5288
35.8998 23.4597
35.9468 23.415
35.9936 23.3188
36.0406 23.231
36.0874 23.2483
36.1345 23.1616
36.1813 23.0994
36.2283 22.982
36.2752 22.9323
36.3222 22.9234
36.3691 22.8373
36.4161 22.713
36.463 22.7179
36.5101 22.5724
36.557 22.4978
36.6041 22.44
36.651 22.4265
36.6981 22.3857
36.745 22.3601
36.7921 22.1866
36.839 22.1411
36.8861 21.9989
36.9331 21.9587
36.9802 21.8809
37.0272 21.8389
37.0743 21.7471
37.1213 21.7265
37.1684 21.6068
37.2154 21.5911
37.2626 21.4797
37.3098 21.4245
37.3568 21.4179
37.404 21.3564
37.451 21.2265
37.4982 21.1054
37.5452 21.0407
37.5924 20.9829
37.6395 21.0792
37.6867 20.9184
37.7337 20.8677
37.781 20.7759
37.8281 20.7082
37.8753 20.5854
37.9224 20.605
37.9697 20.5025
38.0168 20.403
38.064 20.3245
38.1111 20.3244
38.1584 20.1591
38.2056 20.1317
38.2529 20.0893
38.3 20.0735
38.3473 20.0717
38.3945 19.8914
38.4418 19.8954
38.489 19.7487
38.5363 19.7131
38.5837 19.626
38.6309 19.6208
38.6782 19.4856
38.7254 19.4848
38.7728 19.4314
38.82 19.3913
38.8674 19.215
38.9146 19.2248
38.9621 19.1361
39.0093 19.1186
39.0567 19.0778
39.104 18.9659
39.1514 18.8342
39.1987 18.9246
39.2461 18.8804
39.2934 18.6972
39.3409 18.6671
39.3882 18.6223
39.4356 18.5734
39.483 18.4883
39.5304 18.4596
39.5778 18.4267
39.6253 18.2853
39.6726 18.3094
39.7201 18.2233
39.7675 18.1235
39.815 18.085
39.8624 18.0355
39.9099 17.9755
39.9575 17.9419
40.0049 17.924
40.0525 17.8907
40.0999 17.774
40.1474 17.7294
40.1949 17.6347
40.2425 17.5557
40.2899 17.5419
40.3375 17.5088
40.385 17.3777
40.4326 17.4111
40.48 17.2356
40.5277 17.2767
40.5752 17.2465
40.6228 17.1436
40.6703 17.0647
40.718 16.9935
40.7655 16.9657
40.8132 16.9432
40.8607 16.9127
40.9084 16.8965
40.9559 16.7292
41.0036 16.732
41.0512 16.669
41.0989 16.6738
41.1465 16.547
41.1942 16.537
41.242 16.4283
41.2896 16.3845
41.3373 16.3362
41.3849 16.2978
41.4327 16.1877
41.4803 16.1173
41.5281 16.1691
41.5758 16.0179
41.6236 16.0272
41.6712 15.9479
41.7191 15.8709
41.7667 15.8476
41.8146 15.7694
41.8622 15.7514
41.9101 15.7168
41.9578 15.5624
42.0057 15.5377
42.0534 15.5426
42.1013 15.4892
42.149 15.4433
42.1969 15.3682
42.2446 15.2722
42.2925 15.271
42.3403 15.2237
42.3882 15.1679
42.436 15.1073
42.4839 15.0755
42.5319 14.957
42.5797 15.0273
42.6277 14.8934
42.6755 14.9479
42.7235 14.746
42.7713 14.7358
42.8193 14.7255
42.8671 14.6434
42.9152 14.5946
42.963 14.5819
43.0111 14.5262
43.0589 14.4478
43.107 14.3889
43.1549 14.3441
43.2029 14.3128
43.2508 14.275
43.2989 14.1699
43.3468 14.1275
43.3949 14.0819
43.4429 14.0569
43.491 14.057
43.5389 13.9645
43.5871 13.9209
43.635 13.8291
43.6832 13.849
43.7312 13.7666
43.7793 13.7297
43.8273 13.6779
43.8755 13.6328
43.9237 13.6064
43.9717 13.5258
44.0199 13.4864
44.068 13.5015
44.1162 13.4202
44.1642 13.3733
44.2125 13.2876
44.2606 13.2643
44.3088 13.1815
44.3569 13.1692
44.4052 13.1292
44.4533 13.1197
44.5016 12.9919
44.5497 13.0054
44.598 12.9283
44.6461 12.8668
44.6945 12.8738
44.7426 12.8289
44.791 12.7919
44.8391 12.7222
44.8875 12.6751
44.9357 12.6186
44.984 12.5935
45.0322 12.5752
45.0806 12.4846
45.1288 12.4257
45.1773 12.37
45.2257 12.3816
45.2739 12.3157
45.3224 12.2768
45.3706 12.2436
45.4191 12.2046
45.4673 12.1896
45.5158 12.073
45.5641 12.0487
45.6126 12.0519
45.6609 11.9709
45.7094 11.9319
45.7577 11.9125
45.8063 11.8128
45.8546 11.7944
45.9031 11.7697
45.9515 11.7315
46.0001 11.7037
46.0484 11.6357
46.097 11.6186
46.1454 11.5688
46.194 11.5113
46.2424 11.4506
46.291 11.4379
46.3395 11.386
46.3881 11.3543
46.4365 11.2679
46.4852 11.2604
46.5337 11.2154
46.5823 11.1881
46.631 11.1377
46.6795 11.1121
46.7282 11.0745
46.7767 10.9784
46.8254 10.9833
46.8739 10.9259
46.9226 10.8504
46.9712 10.836
47.0199 10.8239
47.0685 10.7572
47.1173 10.7968
47.1658 10.6901
47.2146 10.6475
47.2632 10.5957
47.312 10.5987
47.3606 10.5555
47.4095 10.4972
47.4581 10.4586
47.5069 10.4384
47.5556 10.3738
47.6044 10.3137
47.6531 10.3055
47.702 10.2209
47.7507 10.2019
47.7996 10.1747
47.8483 10.1541
47.8972 10.0676
47.9461 10.0886
47.9948 10.056
48.0438 10.0073
48.0925 9.98054
48.1415 9.92161
48.1902 9.86761
48.2392 9.8748
48.288 9.83083
48.337 9.80431
48.3858 9.76064
48.4348 9.72443
48.4837 9.71372
48.5327 9.68201
48.5815 9.59066
48.6306 9.59504
48.6795 9.57127
48.7285 9.49787
48.7774 9.49525
48.8265 9.4438
48.8754 9.35237
48.9245 9.39598
48.9734 9.33827
49.0226 9.33083
49.0715 9.26817
49.1206 9.20427
49.1696 9.24485
49.2188 9.17754
49.2679 9.15325
49.3169 9.09315
49.3661 9.05605
49.4151 9.02364
49.4643 8.97806
49.5134 8.98527
49.5626 8.8672
49.6117 8.89908
49.6609 8.86755
49.71 8.78154
49.7592 8.77939
49.8083 8.72921
49.8576 8.7341
49.9067 8.67588
49.956 8.67085
50.0052 8.66507
50.0545 8.59029
50.1036 8.57059
50.153 8.49973
50.2022 8.51814
50.2515 8.45692
50.3007 8.40525
50.3501 8.39071
50.3993 8.34738
50.4487 8.31175
50.498 8.33188
50.5474 8.29051
50.5966 8.237
50.6461 8.16429
50.6955 8.16102
50.7448 8.15994
50.7943 8.10402
50.8436 8.08842
50.8931 8.0361
50.9424 8.01682
50.9919 7.97986
51.0413 7.95667
51.0908 7.94029
51.1402 7.88634
51.1897 7.81901
51.2391 7.84917
51.2887 7.80529
51.3381 7.74701
51.3877 7.76265
51.4371 7.68896
51.4867 7.61114
51.5362 7.63875
51.5858 7.60851
51.6353 7.61095
51.6849 7.51771
51.7344 7.51441
51.7841 7.50811
51.8336 7.46475
51.8833 7.41231
51.9328 7.40167
51.9826 7.35814
52.0323 7.32556
52.0818 7.31031
52.1316 7.21147
52.1812 7.20254
52.231 7.18699
52.2806 7.18087
52.3304 7.1278
52.38 7.11369
52.4298 7.05987
52.4794 7.04863
52.5293 7.01024
52.5789 7.00936
52.6288 6.94532
52.6785 6.92168
52.7284 6.90931
52.7781 6.89507
52.828 6.8736
52.8777 6.82857
52.9276 6.77956
52.9774 6.74736
53.0273 6.73442
53.0771 6.71257
53.1271 6.71696
53.1769 6.66851
53.2269 6.63847
53.2767 6.6082
53.3267 6.6017
53.3765 6.55648
53.4266 6.52499
53.4766 6.47072
53.5265 6.45205
53.5765 6.42225
53.6264 6.38773
53.6765 6.36977
53.7264 6.29457
53.7765 6.34114
53.8265 6.26404
53.8766 6.27141
53.9266 6.25321
53.9767 6.21227
54.0267 6.21057
54.0769 6.15374
54.1269 6.07756
54.1771 6.06977
54.2271 6.05784
54.2773 5.96545
54.3274 5.95421
54.3776 5.92358
54.4277 5.90473
54.478 5.85333
54.528 5.82261
54.5783 5.75222
54.6285 5.74742
54.6788 5.69125
54.7289 5.67081
54.7792 5.54375
54.8296 5.54809
54.8798 5.48722
54.9301 5.4815
54.9803 5.4337
55.0307 5.45189
55.0809 5.35017
55.1314 5.32954
55.1816 5.24881
55.232 5.21435
55.2823 5.1914
55.3328 5.08739
55.383 5.0212
55.4335 5.05157
55.4838 4.95339
55.5344 4.89372
55.5847 4.87327
55.6352 4.84637
55.6856 4.81636
55.7361 4.83712