File: XRD/Ni3Fe_FD0966.xy
TT I
1.27165 7.2929
1.31627 6.68423
1.36089 6.4063
1.40551 5.80663
1.45013 6.01174
1.49476 5.90106
1.53938 6.0234
1.584 5.4342
1.62863 5.33335
1.67325 5.6445
1.71787 4.89893
1.7625 4.847
1.80712 4.6942
1.85174 5.00495
1.89636 4.25113
1.94099 5.0065
1.98562 5.12953
2.03025 5.10286
2.07487 4.19419
2.11949 4.91094
2.16411 5.18863
2.20874 13.5705
2.25338 21.5084
2.298 6.92552
2.34263 5.92831
2.38725 5.98358
2.43188 6.38205
2.4765 7.83388
2.52115 7.21658
2.56577 8.06786
2.6104 8.58562
2.65503 8.06375
2.69965 8.67294
2.7443 8.76038
2.78893 8.57308
2.83356 9.24301
2.87818 8.87009
2.92281 9.1284
2.96744 9.91683
3.01209 10.2838
3.05672 11.0385
3.10135 12.569
3.14599 13.5236
3.19062 14.4535
3.23527 14.9472
3.2799 16.1403
3.32454 16.8531
3.36917 17.2917
3.4138 18.9923
3.45844 20.0892
3.50309 20.7794
3.54773 21.5142
3.59237 23.6156
3.637 84.7935
3.68164 54.6953
3.7263 26.1027
3.77094 26.3517
3.81558 26.2669
3.86022 27.2326
3.90486 28.4875
3.9495 29.6534
3.99416 30.6924
4.0388 31.7899
4.08344 33.0209
4.12809 33.9984
4.17273 36.5044
4.21738 42.2299
4.26204 223.945
4.30669 195.484
4.35133 47.8411
4.39598 44.141
4.44063 53.0135
4.4853 62.8973
4.52995 49.4205
4.5746 50.7266
4.61925 52.3685
4.6639 54.8703
4.70855 57.2962
4.75322 60.0405
4.79788 62.8759
4.84253 66.7696
4.88719 70.1505
4.93184 73.2939
4.97652 79.1585
5.02118 84.6722
5.06583 91.5381
5.11049 101.505
5.15515 160.412
5.19981 281.377
5.24449 2453.9
5.28916 13486.4
5.33382 2856.62
5.37848 172.743
5.42315 124.247
5.46783 110.37
5.5125 103.728
5.55716 99.4857
5.60183 96.7038
5.6465 94.9163
5.69117 92.2773
5.73586 90.3171
5.78053 89.3959
5.8252 89.1404
5.86988 89.8269
5.91455 90.5695
5.95924 97.0443
6.00392 174.654
6.0486 815.62
6.09328 4642.73
6.13795 3152.46
6.18263 210.361
6.22733 88.601
6.27201 80.4285
6.3167 97.4095
6.36138 78.2248
6.40606 67.8644
6.45075 66.5255
6.49545 64.6664
6.54014 63.2173
6.58483 61.7719
6.62952 61.7412
6.67421 89.7144
6.71892 132.434
6.76361 66.9267
6.8083 57.5373
6.853 56.5279
6.89769 55.8481
6.94239 55.851
6.98711 55.1273
7.03181 54.5217
7.07651 54.2618
7.12121 54.1173
7.16591 54.6052
7.21063 54.344
7.25533 68.9346
7.30004 162.821
7.34475 86.477
7.38945 55.542
7.43416 53.9478
7.47889 53.6121
7.5236 54.0458
7.56831 54.5098
7.61303 56.0958
7.65774 56.0662
7.70247 55.344
7.74719 55.2843
7.79191 55.8644
7.83663 55.8728
7.88135 56.9336
7.92607 57.5897
7.97081 58.6599
8.01553 59.885
8.06026 61.0606
8.10498 62.6123
8.14971 71.3535
8.19446 70.6109
8.23919 68.4247
8.28392 70.7296
8.32865 72.4272
8.37339 76.2604
8.41812 83.2998
8.46288 107.753
8.50761 144.357
8.55235 337.163
8.59709 1153.3
8.64183 2291.31
8.68658 914.117
8.73134 158.149
8.77609 96.2599
8.82083 90.5184
8.86558 87.8492
8.91033 88.5508
8.9551 89.543
8.99985 83.6968
9.04461 81.9626
9.08936 81.9142
9.13412 80.4924
9.17888 80.7467
9.22365 81.4214
9.26841 80.478
9.31318 81.0595
9.35794 81.4621
9.4027 81.8209
9.44749 82.6537
9.49226 82.9211
9.53703 83.8477
9.5818 85.871
9.62657 89.9415
9.67134 95.754
9.71614 91.5852
9.76091 92.1384
9.80569 94.5932
9.85047 97.8853
9.89525 119.068
9.94005 129.24
9.98484 157.201
10.0296 303.231
10.0744 780.765
10.1192 1796.83
10.164 1523.58
10.2088 358.784
10.2536 122.041
10.2984 109.79
10.3432 110.963
10.388 101.972
10.4328 111.118
10.4776 149.63
10.5224 273.418
10.5672 525.43
10.612 499.266
10.6568 197.235
10.7017 94.5675
10.7465 84.8999
10.7913 81.4851
10.8361 79.5324
10.8809 77.3561
10.9257 76.9495
10.9706 76.9286
11.0154 73.6178
11.0602 71.4352
11.105 70.4949
11.1499 74.459
11.1947 80.1639
11.2395 72.327
11.2844 68.9458
11.3292 66.0404
11.374 64.8772
11.4189 64.4598
11.4637 63.7421
11.5086 64.2385
11.5534 66.7331
11.5983 64.0511
11.6431 62.5237
11.688 61.6164
11.7328 61.6953
11.7777 61.7735
11.8225 61.285
11.8674 61.3133
11.9122 61.5801
11.9571 61.7275
12.002 62.2358
12.0468 65.6664
12.0917 75.21
12.1366 98.5526
12.1814 155.231
12.2263 208.63
12.2712 160.656
12.3161 94.7883
12.3609 68.4655
12.4058 63.0767
12.4507 62.9868
12.4956 63.2719
12.5405 63.2958
12.5853 64.3157
12.6302 71.283
12.6751 75.5974
12.72 68.2344
12.7649 66.3106
12.8098 66.7713
12.8547 68.291
12.8996 69.4649
12.9445 70.6704
12.9894 72.2639
13.0343 74.1454
13.0792 77.1617
13.1242 84.0084
13.1691 104.757
13.214 139.878
13.2589 234.811
13.3038 381.129
13.3487 420.113
13.3937 246.307
13.4386 118.88
13.4835 100.06
13.5285 113.257
13.5734 150.944
13.6183 248.46
13.6633 359.562
13.7082 327.209
13.7531 177.651
13.7981 94.1577
13.843 79.8305
13.888 77.9835
13.9329 75.5216
13.9779 74.526
14.0228 72.8972
14.0678 71.5601
14.1127 71.169
14.1577 71.1176
14.2027 70.1062
14.2476 69.001
14.2926 69.1564
14.3376 70.0603
14.3825 68.755
14.4275 67.2708
14.4725 67.1147
14.5175 67.5679
14.5624 67.8011
14.6074 69.7984
14.6524 69.8925
14.6974 68.7575
14.7424 69.947
14.7874 75.0285
14.8324 84.6236
14.8774 106.571
14.9224 152.995
14.9674 214.26
15.0124 217.682
15.0574 145.845
15.1024 87.0922
15.1474 70.5982
15.1924 68.9594
15.2374 69.3902
15.2824 68.6498
15.3274 66.7214
15.3725 65.4531
15.4175 64.923
15.4625 64.8267
15.5076 64.9656
15.5526 64.9093
15.5976 64.4613
15.6426 65.0885
15.6877 69.0854
15.7327 76.0559
15.7778 91.0154
15.8228 124.749
15.8679 173.916
15.9129 195.392
15.958 149.33
16.003 92.863
16.0481 66.5583
16.0931 63.1287
16.1382 61.1342
16.1833 59.4584
16.2283 57.8862
16.2734 57.0851
16.3185 57.4352
16.3636 57.863
16.4086 56.4857
16.4537 55.2857
16.4988 54.5059
16.5439 54.3638
16.589 54.0233
16.6341 53.7513
16.6792 53.5001
16.7243 53.6717
16.7694 53.8989
16.8145 53.7845
16.8596 54.0163
16.9047 55.544
16.9498 55.634
16.9949 54.5003
17.04 54.554
17.0851 55.5202
17.1302 57.0015
17.1754 59.8948
17.2205 65.2868
17.2656 74.0603
17.3108 82.6686
17.3559 80.0389
17.401 68.9863
17.4462 60.5124
17.4913 57.9289
17.5365 57.9109
17.5815 57.9045
17.6268 58.2675
17.6718 59.2511
17.7171 59.7603
17.7622 59.9885
17.8074 60.7379
17.8525 62.3642
17.8977 65.9282
17.9428 71.1356
17.9881 79.9373
18.0331 98.5662
18.0784 123.124
18.1237 137.095
18.1688 124.696
18.214 99.2294
18.2591 84.0078
18.3044 89.8504
18.3495 100.869
18.3948 104.97
18.4399 93.1487
18.4852 74.9851
18.5303 64.3789
18.5756 60.8515
18.6207 60.0603
18.666 59.2495
18.7112 58.2805
18.7565 57.7897
18.8016 57.6303
18.8469 56.9642
18.892 56.6085
18.9374 56.0869
18.9825 55.9529
19.0278 55.7139
19.073 55.8497
19.1183 56.2605
19.1635 56.7453
19.2088 57.9549
19.254 60.6407
19.2993 65.863
19.3447 71.909
19.3898 74.8409
19.4352 69.9195
19.4804 61.3661
19.5257 55.4735
19.5709 53.2037
19.6163 52.9161
19.6615 52.742
19.7068 52.262
19.752 52.0214
19.7974 52.4652
19.8426 53.0897
19.888 53.7221
19.9332 54.8888
19.9786 57.7371
20.0238 61.7
20.0692 66.6805
20.1144 68.6369
20.1598 66.0666
20.205 61.8085
20.2504 61.1814
20.2957 63.4991
20.3411 64.9521
20.3863 62.4433
20.4318 57.1536
20.477 52.3833
20.5224 50.6819
20.5677 49.9919
20.6131 49.3193
20.6586 48.7824
20.7038 48.6085
20.7493 48.1344
20.7945 48.1173
20.84 47.9965
20.8853 47.7669
20.9307 47.641
20.976 47.7412
21.0215 47.6177
21.0668 48.0402
21.1122 48.5451
21.1575 49.1758
21.203 50.123
21.2483 50.3789
21.2938 50.278
21.3391 48.9608
21.3846 48.1244
21.4299 47.3144
21.4754 47.4689
21.5207 47.5157
21.5662 47.7529
21.6116 47.9082
21.6571 48.8348
21.7024 49.4937
21.7479 51.3209
21.7933 54.3763
21.8388 58.4061
21.8843 62.3141
21.9297 63.5019
21.9752 61.4018
22.0206 58.0451
22.0661 55.596
22.1115 55.2666
22.157 54.9309
22.2024 53.0644
22.248 50.375
22.2933 48.8798
22.3389 47.958
22.3843 47.9984
22.4299 47.9411
22.4753 47.9284
22.5208 47.7101
22.5662 47.662
22.6118 47.7126
22.6572 47.8293
22.7028 48.2217
22.7483 48.7295
22.7939 49.4579
22.8393 50.9935
22.8849 53.1944
22.9303 55.4839
22.9759 56.9529
23.0214 55.8838
23.067 53.0436
23.1126 49.9611
23.1581 48.1987
23.2037 47.8001
23.2492 47.7842
23.2948 47.746
23.3403 47.9004
23.3859 48.588
23.4314 49.7477
23.477 51.8302
23.5225 54.5521
23.5682 56.4545
23.6137 57.0144
23.6593 54.3097
23.7048 50.3672
23.7505 47.2736
23.796 45.7044
23.8417 45.1053
23.8872 44.6321
23.9329 44.2255
23.9784 44.0085
24.0241 43.8232
24.0697 43.5411
24.1154 43.2182
24.1609 43.2506
24.2066 43.008
24.2522 42.8354
24.2979 42.589
24.3434 42.534
24.3892 42.3708
24.4349 42.2156
24.4805 42.1425
24.5262 42.2464
24.5718 42.1422
24.6175 42.0763
24.6631 42.0301
24.7089 41.5894
24.7545 41.6572
24.8002 41.4519
24.8458 41.3574
24.8916 40.9702
24.9372 41.3965
24.983 41.6795
25.0286 41.8756
25.0744 42.5603
25.12 42.9819
25.1658 43.6632
25.2114 43.6933
25.2572 43.9355
25.3029 44.071
25.3487 44.1058
25.3943 43.6663
25.4402 42.5243
25.4858 41.4028
25.5316 40.6795
25.5773 40.2188
25.6231 40.2024
25.669 39.7297
25.7147 39.647
25.7605 39.6577
25.8062 39.702
25.8521 39.8839
25.8977 39.8645
25.9436 40.0897
25.9893 40.2703
26.0352 40.77
26.0809 40.7944
26.1268 40.9355
26.1725 40.4686
26.2184 39.8481
26.2641 39.4464
26.31 39.3192
26.3557 39.2772
26.4017 39.3179
26.4474 39.6749
26.4933 39.9414
26.5391 40.4885
26.585 40.9978
26.6308 41.4088
26.6767 41.3539
26.7225 41.0394
26.7684 40.6341
26.8142 40.1427
26.8601 39.6188
26.9059 39.2411
26.9519 38.6664
26.9979 38.4103
27.0437 38.1393
27.0896 37.9774
27.1354 38.0229
27.1814 37.8674
27.2272 37.8578
27.2732 37.8467
27.3191 37.6112
27.3651 37.6386
27.4109 37.7162
27.4569 37.8571
27.5027 37.8821
27.5488 37.8261
27.5946 37.6703
27.6407 37.4663
27.6865 37.2938
27.7326 37.1784
27.7784 37.0781
27.8245 36.9933
27.8703 37.1857
27.9164 37.611
27.9623 37.7972
28.0084 37.9625
28.0543 38.373
28.1003 38.3624
28.1462 38.0696
28.1923 37.8391
28.2384 37.2362
28.2843 36.8275
28.3304 36.4796
28.3764 36.0344
28.4225 35.7151
28.4684 35.5993
28.5145 35.3693
28.5605 35.1618
28.6066 35.0466
28.6526 34.9425
28.6987 35.0575
28.7447 34.9309
28.7908 34.7193
28.8368 34.8033
28.8829 34.7849
28.9289 34.7735
28.9751 34.5325
29.0211 34.2793
29.0673 34.044
29.1133 34.0287
29.1595 33.8639
29.2055 33.7347
29.2517 33.6797
29.2977 33.6982
29.3439 33.6601
29.3899 33.6951
29.4361 33.4375
29.4824 33.3513
29.5284 33.0712
29.5746 32.7984
29.6207 32.6211
29.6669 32.501
29.713 32.2892
29.7593 32.2976
29.8053 32.2798
29.8516 32.0738
29.8977 32.0986
29.9439 31.9701
29.99 32.0021
30.0363 31.9166
30.0824 31.8703
30.1287 31.889
30.1748 31.8237
30.2211 31.841
30.2673 31.6628
30.3136 31.7584
30.3597 31.6271
30.406 31.6574
30.4522 31.4717
30.4985 31.3609
30.5447 31.6179
30.591 31.5756
30.6372 31.6011
30.6835 31.6076
30.7297 31.6556
30.7761 31.5395
30.8224 31.4415
30.8686 31.2022
30.915 31.0039
30.9612 30.9324
31.0076 30.6935
31.0538 30.6929
31.1002 30.5359
31.1464 30.3099
31.1928 30.4079
31.2391 30.4041
31.2855 30.2622
31.3317 30.1771
31.3781 30.3719
31.4244 30.332
31.4708 30.2981
31.5171 30.1873
31.5636 30.161
31.6098 29.8618
31.6563 29.8134
31.7026 29.6424
31.7491 29.5725
31.7953 29.5702
31.8418 29.5802
31.8881 29.6446
31.9346 29.6575
31.9809 29.4246
32.0275 29.3719
32.074 29.316
32.1203 29.1048
32.1668 28.9634
32.2132 28.8404
32.2597 28.6299
32.306 28.6697
32.3526 28.4637
32.399 28.385
32.4455 28.2627
32.4919 28.1234
32.5385 28.1469
32.5848 28.0175
32.6314 28.0041
32.6778 27.9042
32.7244 27.717
32.7708 27.6165
32.8174 27.6566
32.8638 27.4557
32.9104 27.609
32.9569 27.4492
33.0035 27.2582
33.0499 27.3914
33.0966 27.2959
33.143 27.2943
33.1897 27.1693
33.2361 27.0219
33.2828 27.0525
33.3293 26.9014
33.3759 26.9361
33.4226 26.8266
33.4691 26.6514
33.5158 26.5282
33.5623 26.381
33.609 26.2879
33.6555 26.2016
33.7022 26.1002
33.7487 26.0328
33.7954 25.9639
33.842 25.8759
33.8887 25.8341
33.9353 25.8962
33.982 25.6202
34.0286 25.6161
34.0753 25.5088
34.1219 25.4245
34.1687 25.3304
34.2152 25.3372
34.262 25.1624
34.3086 25.0538
34.3554 25.0698
34.402 24.9324
34.4488 24.887
34.4954 24.8353
34.5422 24.6643
34.5889 24.6068
34.6357 24.5999
34.6825 24.4754
34.7292 24.4522
34.776 24.3285
34.8227 24.3021
34.8695 24.2338
34.9162 24.1413
34.9631 23.9618
35.0098 24.0676
35.0566 23.9131
35.1033 23.9048
35.1502 23.7983
35.1969 23.8069
35.2438 23.705
35.2906 23.7223
35.3375 23.6311
35.3842 23.6017
35.4311 23.5926
35.4779 23.5266
35.5248 23.5184
35.5716 23.3849
35.6185 23.2354
35.6653 23.2475
35.7123 23.1502
35.759 23.0771
35.806 22.95
35.8528 22.8676
35.8998 22.8018
35.9468 22.6691
35.9936 22.7254
36.0406 22.5684
36.0874 22.5681
36.1345 22.5162
36.1813 22.4055
36.2283 22.3717
36.2752 22.3031
36.3222 22.2824
36.3691 22.1769
36.4161 22.0488
36.463 22.053
36.5101 22.0507
36.557 21.9953
36.6041 21.7757
36.651 21.8184
36.6981 21.6778
36.745 21.7127
36.7921 21.5438
36.839 21.5112
36.8861 21.4141
36.9331 21.2871
36.9802 21.3077
37.0272 21.2233
37.0743 21.1109
37.1213 21.0831
37.1684 21.0254
37.2154 20.9256
37.2626 20.9035
37.3098 20.8199
37.3568 20.7676
37.404 20.7254
37.451 20.6052
37.4982 20.572
37.5452 20.4477
37.5924 20.3876
37.6395 20.4998
37.6867 20.3277
37.7337 20.2683
37.781 20.1051
37.8281 20.0913
37.8753 20.0917
37.9224 19.8758
37.9697 19.9053
38.0168 19.863
38.064 19.8156
38.1111 19.7542
38.1584 19.696
38.2056 19.6087
38.2529 19.5495
38.3 19.4581
38.3473 19.4456
38.3945 19.358
38.4418 19.3353
38.489 19.2744
38.5363 19.18
38.5837 19.0376
38.6309 19.1069
38.6782 18.9361
38.7254 18.9374
38.7728 18.8633
38.82 18.8651
38.8674 18.788
38.9146 18.6416
38.9621 18.6362
39.0093 18.5743
39.0567 18.5586
39.104 18.4075
39.1514 18.4034
39.1987 18.3323
39.2461 18.3565
39.2934 18.272
39.3409 18.1051
39.3882 18.0612
39.4356 17.9863
39.483 17.9813
39.5304 17.9532
39.5778 17.8724
39.6253 17.7693
39.6726 17.7621
39.7201 17.7967
39.7675 17.6961
39.815 17.6424
39.8624 17.5425
39.9099 17.5836
39.9575 17.3477
40.0049 17.3944
40.0525 17.323
40.0999 17.2956
40.1474 17.252
40.1949 17.1292
40.2425 17.0795
40.2899 17.0634
40.3375 17.0267
40.385 16.9549
40.4326 16.9171
40.48 16.7162
40.5277 16.7925
40.5752 16.7242
40.6228 16.6659
40.6703 16.6217
40.718 16.5651
40.7655 16.5078
40.8132 16.4449
40.8607 16.4316
40.9084 16.3636
40.9559 16.3124
41.0036 16.2827
41.0512 16.2486
41.0989 16.1484
41.1465 16.0776
41.1942 16.0633
41.242 15.9722
41.2896 15.9165
41.3373 15.8616
41.3849 15.8254
41.4327 15.7594
41.4803 15.7005
41.5281 15.6736
41.5758 15.5858
41.6236 15.5971
41.6712 15.4897
41.7191 15.5023
41.7667 15.3832
41.8146 15.3762
41.8622 15.3145
41.9101 15.3232
41.9578 15.1721
42.0057 15.1293
42.0534 15.1062
42.1013 15.0586
42.149 15.0132
42.1969 14.9208
42.2446 14.9476
42.2925 14.8976
42.3403 14.8641
42.3882 14.7861
42.436 14.7457
42.4839 14.646
42.5319 14.5688
42.5797 14.6113
42.6277 14.5616
42.6755 14.4521
42.7235 14.4114
42.7713 14.357
42.8193 14.344
42.8671 14.2653
42.9152 14.238
42.963 14.1583
43.0111 14.1008
43.0589 14.0961
43.107 14.0455
43.1549 13.9326
43.2029 13.8906
43.2508 13.9061
43.2989 13.8355
43.3468 13.7577
43.3949 13.7366
43.4429 13.6763
43.491 13.6549
43.5389 13.5355
43.5871 13.564
43.635 13.5104
43.6832 13.4636
43.7312 13.3989
43.7793 13.3716
43.8273 13.3083
43.8755 13.2375
43.9237 13.2389
43.9717 13.206
44.0199 13.1172
44.068 13.0995
44.1162 13.008
44.1642 12.9881
44.2125 12.9621
44.2606 12.9022
44.3088 12.8346
44.3569 12.7999
44.4052 12.7719
44.4533 12.7277
44.5016 12.6695
44.5497 12.6525
44.598 12.6013
44.6461 12.507
44.6945 12.521
44.7426 12.484
44.791 12.4149
44.8391 12.3784
44.8875 12.3739
44.9357 12.3136
44.984 12.2554
45.0322 12.2064
45.0806 12.1954
45.1288 12.1449
45.1773 12.1051
45.2257 12.0341
45.2739 12.0102
45.3224 11.9493
45.3706 11.9133
45.4191 11.8083
45.4673 11.8319
45.5158 11.7869
45.5641 11.7159
45.6126 11.6469
45.6609 11.6598
45.7094 11.6109
45.7577 11.5635
45.8063 11.5203
45.8546 11.5259
45.9031 11.4351
45.9515 11.3953
46.0001 11.3908
46.0484 11.2962
46.097 11.2618
46.1454 11.2301
46.194 11.2119
46.2424 11.1678
46.291 11.1719
46.3395 11.0946
46.3881 11.058
46.4365 11.0523
46.4852 11.0077
46.5337 10.8959
46.5823 10.9035
46.631 10.856
46.6795 10.8093
46.7282 10.7572
46.7767 10.7385
46.8254 10.688
46.8739 10.6128
46.9226 10.6821
46.9712 10.5886
47.0199 10.502
47.0685 10.491
47.1173 10.4323
47.1658 10.4237
47.2146 10.3761
47.2632 10.3333
47.312 10.3462
47.3606 10.2768
47.4095 10.1841
47.4581 10.1642
47.5069 10.1408
47.5556 10.1004
47.6044 10.0622
47.6531 10.0611
47.702 9.99731
47.7507 9.96114
47.7996 9.91828
47.8483 9.9021
47.8972 9.86829
47.9461 9.82956
47.9948 9.74406
48.0438 9.73718
48.0925 9.73001
48.1415 9.69483
48.1902 9.61985
48.2392 9.65525
48.288 9.56636
48.337 9.56656
48.3858 9.50117
48.4348 9.48441
48.4837 9.4439
48.5327 9.39463
48.5815 9.36284
48.6306 9.35101
48.6795 9.29214
48.7285 9.29563
48.7774 9.21326
48.8265 9.21154
48.8754 9.15602
48.9245 9.13636
48.9734 9.07235
49.0226 9.0573
49.0715 9.04534
49.1206 8.99878
49.1696 8.94172
49.2188 8.94383
49.2679 8.89907
49.3169 8.85491
49.3661 8.7857
49.4151 8.77133
49.4643 8.77427
49.5134 8.73139
49.5626 8.64506
49.6117 8.60753
49.6609 8.59617
49.71 8.60313
49.7592 8.51459
49.8083 8.51024
49.8576 8.49964
49.9067 8.44539
49.956 8.42513
50.0052 8.37468
50.0545 8.34549
50.1036 8.32214
50.153 8.28242
50.2022 8.26341
50.2515 8.23507
50.3007 8.19365
50.3501 8.15345
50.3993 8.15742
50.4487 8.10353
50.498 8.08066
50.5474 8.0236
50.5966 8.02344
50.6461 7.96555
50.6955 7.93882
50.7448 7.93572
50.7943 7.91776
50.8436 7.84702
50.8931 7.81298
50.9424 7.80578
50.9919 7.78511
51.0413 7.75851
51.0908 7.67505
51.1402 7.68485
51.1897 7.64918
51.2391 7.61585
51.2887 7.54928
51.3381 7.56312
51.3877 7.53215
51.4371 7.49677
51.4867 7.4594
51.5362 7.43344
51.5858 7.36885
51.6353 7.34272
51.6849 7.3302
51.7344 7.30241
51.7841 7.29979
51.8336 7.2392
51.8833 7.23532
51.9328 7.20732
51.9826 7.14593
52.0323 7.14799
52.0818 7.07733
52.1316 7.04017
52.1812 7.02792
52.231 7.03951
52.2806 6.94392
52.3304 6.92928
52.38 6.91762
52.4298 6.88529
52.4794 6.85452
52.5293 6.86732
52.5789 6.78772
52.6288 6.77996
52.6785 6.75531
52.7284 6.70897
52.7781 6.72951
52.828 6.70321
52.8777 6.60894
52.9276 6.64149
52.9774 6.60044
53.0273 6.56671
53.0771 6.54298
53.1271 6.51564
53.1769 6.46564
53.2269 6.48038
53.2767 6.40761
53.3267 6.37436
53.3765 6.38079
53.4266 6.32382
53.4766 6.27675
53.5265 6.2878
53.5765 6.25959
53.6264 6.27718
53.6765 6.19492
53.7264 6.14783
53.7765 6.11571
53.8265 6.12803
53.8766 6.09862
53.9266 6.0311
53.9767 6.06108
54.0267 6.00324
54.0769 5.987
54.1269 5.95572
54.1771 5.87693
54.2271 5.9002
54.2773 5.86466
54.3274 5.88159
54.3776 5.80235
54.4277 5.75803
54.478 5.74583
54.528 5.73064
54.5783 5.62063
54.6285 5.62728
54.6788 5.62207
54.7289 5.54315
54.7792 5.45598
54.8296 5.46273
54.8798 5.45443
54.9301 5.38479
54.9803 5.37001
55.0307 5.31383
55.0809 5.30984
55.1314 5.27142
55.1816 5.22247
55.232 5.12476
55.2823 5.13899
55.3328 5.04582
55.383 5.03255
55.4335 4.98084
55.4838 4.93712
55.5344 4.90405
55.5847 4.86146
55.6352 4.79305
55.6856 4.76744
55.7361 4.71549