File: XRD/Ni3Fe_FD0644.xy
TT I
1.27165 7.47904
1.31627 6.60686
1.36089 6.91411
1.40551 6.36391
1.45013 6.49454
1.49476 5.889
1.53938 5.7382
1.584 5.44993
1.62863 5.80775
1.67325 5.01504
1.71787 5.02231
1.7625 4.57659
1.80712 4.95008
1.85174 4.74812
1.89636 4.51141
1.94099 4.94237
1.98562 4.23546
2.03025 4.64178
2.07487 4.59722
2.11949 4.8459
2.16411 4.79474
2.20874 16.1865
2.25338 27.7304
2.298 5.7916
2.34263 5.68895
2.38725 5.69369
2.43188 5.87123
2.4765 6.93335
2.52115 6.19145
2.56577 7.98709
2.6104 7.81837
2.65503 7.57495
2.69965 8.15009
2.7443 7.44368
2.78893 8.16981
2.83356 8.28823
2.87818 8.73391
2.92281 8.95992
2.96744 9.40765
3.01209 10.6316
3.05672 10.9632
3.10135 12.1357
3.14599 12.5636
3.19062 14.5032
3.23527 15.4753
3.2799 15.756
3.32454 16.8682
3.36917 17.7854
3.4138 18.5954
3.45844 19.7832
3.50309 21.0494
3.54773 21.9796
3.59237 24.6371
3.637 111.152
3.68164 69.8738
3.7263 27.2925
3.77094 26.8497
3.81558 27.0352
3.86022 27.8415
3.90486 28.8864
3.9495 29.9544
3.99416 31.2161
4.0388 32.2431
4.08344 33.7497
4.12809 35.4117
4.17273 37.3635
4.21738 44.0363
4.26204 304.3
4.30669 269.397
4.35133 50.9064
4.39598 44.9168
4.44063 56.0493
4.4853 71.4047
4.52995 51.0107
4.5746 51.487
4.61925 53.7469
4.6639 55.179
4.70855 57.9263
4.75322 60.7307
4.79788 63.1804
4.84253 66.9617
4.88719 70.7995
4.93184 74.9103
4.97652 80.5018
5.02118 86.2951
5.06583 93.564
5.11049 104.217
5.15515 184.746
5.19981 332.371
5.24449 2606.44
5.28916 12608.7
5.33382 3184.67
5.37848 197.329
5.42315 130.289
5.46783 113.621
5.5125 105.699
5.55716 101.912
5.60183 99.1253
5.6465 96.6967
5.69117 93.3313
5.73586 91.7895
5.78053 91.2348
5.8252 90.742
5.86988 91.4882
5.91455 93.0963
5.95924 100.094
6.00392 191.384
6.0486 907.393
6.09328 4292.74
6.13795 3526.07
6.18263 257.33
6.22733 94.5274
6.27201 84.2064
6.3167 110.245
6.36138 83.854
6.40606 69.0469
6.45075 67.8831
6.49545 66.0348
6.54014 64.0496
6.58483 63.4042
6.62952 63.5051
6.67421 102.41
6.71892 168.996
6.76361 72.2083
6.8083 59.2457
6.853 57.9942
6.89769 57.3052
6.94239 56.9092
6.98711 56.3294
7.03181 55.9113
7.07651 55.8893
7.12121 55.6009
7.16591 55.98
7.21063 56.2415
7.25533 73.8163
7.30004 217.254
7.34475 103.38
7.38945 57.4872
7.43416 55.3194
7.47889 54.5709
7.5236 54.8016
7.56831 55.881
7.61303 57.8594
7.65774 58.4427
7.70247 56.5336
7.74719 56.4905
7.79191 57.0418
7.83663 57.3514
7.88135 57.7264
7.92607 58.8001
7.97081 59.9648
8.01553 60.6819
8.06026 62.3501
8.10498 64.3394
8.14971 75.5464
8.19446 74.1042
8.23919 69.8012
8.28392 71.7096
8.32865 74.2825
8.37339 78.3173
8.41812 85.178
8.46288 120.0
8.50761 157.331
8.55235 363.101
8.59709 1097.5
8.64183 2182.78
8.68658 1020.52
8.73134 176.178
8.77609 100.133
8.82083 92.5834
8.86558 89.6227
8.91033 90.5036
8.9551 93.3003
8.99985 85.8865
9.04461 83.7812
9.08936 82.8008
9.13412 81.8382
9.17888 81.935
9.22365 83.1226
9.26841 82.1448
9.31318 82.1436
9.35794 82.5437
9.4027 83.2782
9.44749 83.7914
9.49226 84.5406
9.53703 85.3365
9.5818 87.1569
9.62657 92.3923
9.67134 100.865
9.71614 94.3716
9.76091 93.8659
9.80569 95.9982
9.85047 99.5193
9.89525 128.969
9.94005 142.457
9.98484 167.741
10.0296 323.558
10.0744 755.072
10.1192 1681.17
10.164 1637.47
10.2088 443.658
10.2536 130.957
10.2984 115.743
10.3432 118.079
10.388 105.427
10.4328 115.02
10.4776 153.898
10.5224 265.987
10.5672 497.118
10.612 518.41
10.6568 211.604
10.7017 98.612
10.7465 86.7862
10.7913 83.2632
10.8361 81.4021
10.8809 79.0829
10.9257 79.0332
10.9706 80.1819
11.0154 75.3448
11.0602 73.2135
11.105 72.026
11.1499 77.7761
11.1947 87.8347
11.2395 76.5403
11.2844 71.7157
11.3292 67.6013
11.374 66.6508
11.4189 65.9542
11.4637 64.9858
11.5086 65.8389
11.5534 70.1499
11.5983 66.2012
11.6431 63.9208
11.688 63.3707
11.7328 63.2574
11.7777 63.0533
11.8225 62.4287
11.8674 62.5272
11.9122 63.0398
11.9571 63.0838
12.002 63.4039
12.0468 66.9983
12.0917 77.8846
12.1366 99.5008
12.1814 145.987
12.2263 203.618
12.2712 173.178
12.3161 103.707
12.3609 72.6973
12.4058 64.8291
12.4507 64.6811
12.4956 64.497
12.5405 64.7697
12.5853 65.7921
12.6302 75.3398
12.6751 82.6569
12.72 71.2879
12.7649 68.1686
12.8098 68.6321
12.8547 69.5693
12.8996 70.7503
12.9445 72.1429
12.9894 73.9029
13.0343 75.5036
13.0792 78.4754
13.1242 86.2398
13.1691 109.23
13.214 143.807
13.2589 225.932
13.3038 357.272
13.3487 432.228
13.3937 279.662
13.4386 128.889
13.4835 104.189
13.5285 117.56
13.5734 153.537
13.6183 236.986
13.6633 340.067
13.7082 346.718
13.7531 195.35
13.7981 100.551
13.843 82.3249
13.888 79.9758
13.9329 77.226
13.9779 75.8324
14.0228 74.4644
14.0678 73.0737
14.1127 72.6975
14.1577 72.9793
14.2027 71.7104
14.2476 70.4385
14.2926 70.7226
14.3376 72.411
14.3825 70.6654
14.4275 69.0617
14.4725 68.6754
14.5175 68.7115
14.5624 69.0459
14.6074 71.9722
14.6524 72.3464
14.6974 70.4922
14.7424 71.4591
14.7874 77.6505
14.8324 87.1003
14.8774 107.119
14.9224 147.662
14.9674 199.856
15.0124 218.161
15.0574 152.929
15.1024 92.8825
15.1474 72.7242
15.1924 70.6972
15.2374 71.8215
15.2824 71.2061
15.3274 68.7463
15.3725 67.0526
15.4175 66.3851
15.4625 66.1602
15.5076 66.7315
15.5526 66.5519
15.5976 65.9251
15.6426 66.5691
15.6877 71.2112
15.7327 78.0271
15.7778 92.7266
15.8228 121.586
15.8679 163.358
15.9129 193.299
15.958 162.243
16.003 102.026
16.0481 69.5149
16.0931 65.7941
16.1382 63.5231
16.1833 61.1026
16.2283 59.3962
16.2734 58.5767
16.3185 59.2606
16.3636 60.3857
16.4086 58.6637
16.4537 56.7601
16.4988 55.8672
16.5439 55.6988
16.589 55.4175
16.6341 55.25
16.6792 54.6339
16.7243 55.0823
16.7694 55.1917
16.8145 55.035
16.8596 55.6657
16.9047 57.4836
16.9498 57.7336
16.9949 55.9407
17.04 55.8772
17.0851 57.043
17.1302 58.6669
17.1754 61.5341
17.2205 66.2993
17.2656 73.3201
17.3108 82.4361
17.3559 83.7399
17.401 72.526
17.4462 62.691
17.4913 59.2523
17.5365 59.2661
17.5815 59.3234
17.6268 59.5785
17.6718 60.7283
17.7171 61.1686
17.7622 61.4133
17.8074 61.7029
17.8525 63.6404
17.8977 67.7266
17.9428 72.7304
17.9881 81.0086
18.0331 96.9642
18.0784 118.821
18.1237 139.059
18.1688 133.394
18.214 106.227
18.2591 86.8753
18.3044 89.4707
18.3495 99.0858
18.3948 106.039
18.4399 98.6504
18.4852 79.2101
18.5303 66.9687
18.5756 62.4538
18.6207 61.3251
18.666 60.6563
18.7112 59.8377
18.7565 59.3452
18.8016 58.7462
18.8469 58.2243
18.892 57.916
18.9374 57.3544
18.9825 57.1722
19.0278 56.9977
19.073 57.1315
19.1183 57.4483
19.1635 58.3326
19.2088 59.5576
19.254 61.8268
19.2993 66.1207
19.3447 72.5166
19.3898 76.9387
19.4352 73.165
19.4804 64.1394
19.5257 57.4779
19.5709 54.5061
19.6163 54.0203
19.6615 53.934
19.7068 53.6117
19.752 53.4972
19.7974 53.7744
19.8426 54.5644
19.888 55.0498
19.9332 56.1688
19.9786 58.2917
20.0238 61.6974
20.0692 66.8208
20.1144 69.9719
20.1598 68.7551
20.205 64.063
20.2504 62.0838
20.2957 63.6651
20.3411 66.1681
20.3863 64.8538
20.4318 58.9935
20.477 54.1923
20.5224 51.9544
20.5677 51.4272
20.6131 50.6743
20.6586 49.8223
20.7038 49.7567
20.7493 49.3108
20.7945 49.1872
20.84 48.7956
20.8853 48.8458
20.9307 48.6587
20.976 49.0142
21.0215 48.7874
21.0668 49.0967
21.1122 49.4855
21.1575 50.1848
21.203 50.6507
21.2483 51.4379
21.2938 51.4434
21.3391 50.3473
21.3846 49.2836
21.4299 48.5298
21.4754 48.5185
21.5207 48.6953
21.5662 48.7567
21.6116 49.3756
21.6571 49.9731
21.7024 50.8289
21.7479 52.3974
21.7933 55.1633
21.8388 58.3115
21.8843 62.4363
21.9297 64.6161
21.9752 63.8156
22.0206 60.0995
22.0661 56.7431
22.1115 56.1851
22.157 56.3073
22.2024 54.7321
22.248 51.9127
22.2933 50.1087
22.3389 49.2952
22.3843 49.3336
22.4299 49.263
22.4753 49.1905
22.5208 48.757
22.5662 48.7135
22.6118 48.5761
22.6572 48.8135
22.7028 49.3234
22.7483 49.6862
22.7939 50.3709
22.8393 51.7123
22.8849 53.8025
22.9303 55.8215
22.9759 57.763
23.0214 57.7687
23.067 55.1596
23.1126 51.7838
23.1581 49.4888
23.2037 49.1062
23.2492 48.9909
23.2948 48.8502
23.3403 49.2009
23.3859 49.673
23.4314 50.6227
23.477 52.3172
23.5225 54.6112
23.5682 56.8132
23.6137 58.122
23.6593 56.3191
23.7048 52.1948
23.7505 48.7566
23.796 46.9212
23.8417 46.2165
23.8872 45.712
23.9329 45.3066
23.9784 45.0451
24.0241 44.8282
24.0697 44.5138
24.1154 44.3124
24.1609 44.1974
24.2066 44.0781
24.2522 43.7618
24.2979 43.6092
24.3434 43.4813
24.3892 43.2024
24.4349 43.2871
24.4805 43.0878
24.5262 43.1954
24.5718 42.9003
24.6175 42.9808
24.6631 43.054
24.7089 42.7357
24.7545 42.4064
24.8002 42.3629
24.8458 42.3617
24.8916 42.1181
24.9372 42.1834
24.983 42.5023
25.0286 42.8873
25.0744 43.3021
25.12 43.6979
25.1658 44.4149
25.2114 44.5934
25.2572 44.8705
25.3029 44.879
25.3487 45.1683
25.3943 44.7785
25.4402 43.8759
25.4858 42.6575
25.5316 41.7106
25.5773 41.1877
25.6231 41.0194
25.669 40.6179
25.7147 40.6791
25.7605 40.5329
25.8062 40.6055
25.8521 40.8854
25.8977 40.6185
25.9436 40.9411
25.9893 41.0525
26.0352 41.6216
26.0809 41.5878
26.1268 41.8092
26.1725 41.5325
26.2184 41.0936
26.2641 40.4838
26.31 40.1923
26.3557 40.3495
26.4017 40.2105
26.4474 40.4247
26.4933 40.8315
26.5391 41.1867
26.585 41.7311
26.6308 42.1326
26.6767 42.3261
26.7225 42.2201
26.7684 41.5806
26.8142 41.0298
26.8601 40.6297
26.9059 40.1173
26.9519 39.6474
26.9979 39.2731
27.0437 38.9868
27.0896 38.8085
27.1354 38.8584
27.1814 38.77
27.2272 38.6115
27.2732 38.6486
27.3191 38.5425
27.3651 38.627
27.4109 38.3619
27.4569 38.6603
27.5027 38.5479
27.5488 38.7566
27.5946 38.5298
27.6407 38.3617
27.6865 38.1489
27.7326 37.8938
27.7784 37.9997
27.8245 37.8324
27.8703 38.0321
27.9164 38.3169
27.9623 38.4997
28.0084 38.7237
28.0543 39.1431
28.1003 39.1382
28.1462 38.952
28.1923 38.6976
28.2384 38.0953
28.2843 37.8597
28.3304 37.3839
28.3764 36.9571
28.4225 36.6421
28.4684 36.4824
28.5145 36.0129
28.5605 36.0166
28.6066 35.7735
28.6526 35.6916
28.6987 35.7309
28.7447 35.508
28.7908 35.4315
28.8368 35.5072
28.8829 35.5945
28.9289 35.5178
28.9751 35.368
29.0211 34.9231
29.0673 34.7155
29.1133 34.6626
29.1595 34.566
29.2055 34.4323
29.2517 34.484
29.2977 34.4566
29.3439 34.3261
29.3899 34.3553
29.4361 34.2376
29.4824 34.1818
29.5284 33.8629
29.5746 33.4715
29.6207 33.3163
29.6669 33.1838
29.713 33.1332
29.7593 32.973
29.8053 32.9856
29.8516 32.9449
29.8977 32.9053
29.9439 32.6693
29.99 32.6854
30.0363 32.5191
30.0824 32.6278
30.1287 32.4743
30.1748 32.6452
30.2211 32.4526
30.2673 32.3872
30.3136 32.4633
30.3597 32.3548
30.406 32.2659
30.4522 32.2583
30.4985 32.2132
30.5447 32.3643
30.591 32.2127
30.6372 32.2958
30.6835 32.2775
30.7297 32.306
30.7761 32.2234
30.8224 32.1286
30.8686 32.0009
30.915 31.7566
30.9612 31.5819
31.0076 31.3993
31.0538 31.3088
31.1002 31.1839
31.1464 31.1069
31.1928 30.9696
31.2391 31.0836
31.2855 30.9881
31.3317 30.9037
31.3781 30.9504
31.4244 31.0329
31.4708 30.9355
31.5171 30.7992
31.5636 30.9348
31.6098 30.5775
31.6563 30.4027
31.7026 30.3315
31.7491 30.1832
31.7953 30.3144
31.8418 30.3146
31.8881 30.2011
31.9346 30.1214
31.9809 30.0987
32.0275 30.0459
32.074 29.8976
32.1203 29.7778
32.1668 29.6599
32.2132 29.4937
32.2597 29.3658
32.306 29.2489
32.3526 29.0466
32.399 29.0842
32.4455 28.879
32.4919 28.7755
32.5385 28.7408
32.5848 28.6467
32.6314 28.6292
32.6778 28.4956
32.7244 28.3612
32.7708 28.2262
32.8174 28.2021
32.8638 28.1598
32.9104 28.1748
32.9569 28.0864
33.0035 27.9929
33.0499 27.919
33.0966 27.8363
33.143 27.8889
33.1897 27.8465
33.2361 27.7076
33.2828 27.733
33.3293 27.4131
33.3759 27.4613
33.4226 27.3775
33.4691 27.2077
33.5158 27.1674
33.5623 26.9442
33.609 26.8717
33.6555 26.8619
33.7022 26.6591
33.7487 26.5715
33.7954 26.5159
33.842 26.4977
33.8887 26.3737
33.9353 26.3042
33.982 26.1971
34.0286 26.1356
34.0753 26.0783
34.1219 25.9942
34.1687 25.9258
34.2152 25.831
34.262 25.7009
34.3086 25.6601
34.3554 25.6439
34.402 25.4936
34.4488 25.4263
34.4954 25.2943
34.5422 25.3178
34.5889 25.1333
34.6357 25.0183
34.6825 24.9905
34.7292 24.969
34.776 24.8297
34.8227 24.8229
34.8695 24.7219
34.9162 24.6675
34.9631 24.6187
35.0098 24.5605
35.0566 24.4624
35.1033 24.371
35.1502 24.4183
35.1969 24.2752
35.2438 24.2146
35.2906 24.1601
35.3375 24.2145
35.3842 23.9983
35.4311 24.1202
35.4779 24.0044
35.5248 23.9166
35.5716 23.8766
35.6185 23.7935
35.6653 23.7192
35.7123 23.5913
35.759 23.4965
35.806 23.4468
35.8528 23.3182
35.8998 23.3345
35.9468 23.2288
35.9936 23.1583
36.0406 22.9914
36.0874 23.0988
36.1345 22.9238
36.1813 22.9382
36.2283 22.8352
36.2752 22.7127
36.3222 22.7292
36.3691 22.6159
36.4161 22.6651
36.463 22.5159
36.5101 22.5055
36.557 22.4272
36.6041 22.2095
36.651 22.2538
36.6981 22.27
36.745 22.1828
36.7921 22.044
36.839 21.9932
36.8861 21.9339
36.9331 21.8256
36.9802 21.8033
37.0272 21.7009
37.0743 21.5534
37.1213 21.5921
37.1684 21.496
37.2154 21.3908
37.2626 21.3212
37.3098 21.3423
37.3568 21.1675
37.404 21.2189
37.451 21.0713
37.4982 21.0444
37.5452 20.9281
37.5924 20.8154
37.6395 20.9378
37.6867 20.8474
37.7337 20.7423
37.781 20.5936
37.8281 20.5491
37.8753 20.4288
37.9224 20.3832
37.9697 20.3724
38.0168 20.3268
38.064 20.237
38.1111 20.1681
38.1584 20.0523
38.2056 20.0385
38.2529 20.0483
38.3 19.9177
38.3473 19.9495
38.3945 19.7094
38.4418 19.7904
38.489 19.6528
38.5363 19.552
38.5837 19.5413
38.6309 19.4482
38.6782 19.3966
38.7254 19.3417
38.7728 19.3022
38.82 19.1885
38.8674 19.1767
38.9146 19.1183
38.9621 19.013
39.0093 18.991
39.0567 18.9615
39.104 18.8124
39.1514 18.8451
39.1987 18.7319
39.2461 18.7873
39.2934 18.6315
39.3409 18.571
39.3882 18.4488
39.4356 18.4551
39.483 18.4027
39.5304 18.3187
39.5778 18.3182
39.6253 18.1812
39.6726 18.1697
39.7201 18.1668
39.7675 18.1185
39.815 17.9481
39.8624 17.9533
39.9099 17.9148
39.9575 17.8184
40.0049 17.773
40.0525 17.7014
40.0999 17.6607
40.1474 17.6077
40.1949 17.5091
40.2425 17.4704
40.2899 17.4346
40.3375 17.3725
40.385 17.3261
40.4326 17.2566
40.48 17.161
40.5277 17.1876
40.5752 17.1051
40.6228 16.9851
40.6703 16.9701
40.718 16.9207
40.7655 16.8303
40.8132 16.8046
40.8607 16.7272
40.9084 16.7573
40.9559 16.6427
41.0036 16.6442
41.0512 16.5563
41.0989 16.533
41.1465 16.4124
41.1942 16.4389
41.242 16.2848
41.2896 16.3023
41.3373 16.1847
41.3849 16.2013
41.4327 16.1332
41.4803 16.0997
41.5281 16.0401
41.5758 15.9676
41.6236 15.9055
41.6712 15.8285
41.7191 15.7986
41.7667 15.7658
41.8146 15.6993
41.8622 15.6158
41.9101 15.6274
41.9578 15.4713
42.0057 15.5
42.0534 15.4014
42.1013 15.3677
42.149 15.2814
42.1969 15.2801
42.2446 15.2336
42.2925 15.1816
42.3403 15.1117
42.3882 15.0905
42.436 15.0574
42.4839 14.9665
42.5319 15.0007
42.5797 14.8775
42.6277 14.8455
42.6755 14.7832
42.7235 14.7586
42.7713 14.7187
42.8193 14.598
42.8671 14.568
42.9152 14.5132
42.963 14.4699
43.0111 14.4712
43.0589 14.3933
43.107 14.2924
43.1549 14.2905
43.2029 14.2249
43.2508 14.2268
43.2989 14.1286
43.3468 14.0716
43.3949 14.066
43.4429 13.9818
43.491 13.9027
43.5389 13.9143
43.5871 13.8707
43.635 13.8047
43.6832 13.7882
43.7312 13.6905
43.7793 13.7109
43.8273 13.6095
43.8755 13.5479
43.9237 13.5514
43.9717 13.4261
44.0199 13.4026
44.068 13.4121
44.1162 13.3577
44.1642 13.3357
44.2125 13.2702
44.2606 13.2374
44.3088 13.1689
44.3569 13.0992
44.4052 13.0267
44.4533 12.9722
44.5016 12.9574
44.5497 12.9431
44.598 12.8919
44.6461 12.8429
44.6945 12.7432
44.7426 12.7741
44.791 12.6695
44.8391 12.6476
44.8875 12.6412
44.9357 12.5651
44.984 12.5415
45.0322 12.4614
45.0806 12.4266
45.1288 12.355
45.1773 12.3637
45.2257 12.3467
45.2739 12.277
45.3224 12.2332
45.3706 12.1775
45.4191 12.1098
45.4673 12.1234
45.5158 11.9815
45.5641 11.9725
45.6126 11.9211
45.6609 11.9189
45.7094 11.8472
45.7577 11.8447
45.8063 11.7413
45.8546 11.763
45.9031 11.6942
45.9515 11.7055
46.0001 11.588
46.0484 11.544
46.097 11.5692
46.1454 11.5045
46.194 11.4786
46.2424 11.3775
46.291 11.3132
46.3395 11.3364
46.3881 11.2996
46.4365 11.2835
46.4852 11.2529
46.5337 11.1772
46.5823 11.1634
46.631 11.0481
46.6795 11.0516
46.7282 11.0064
46.7767 10.9666
46.8254 10.949
46.8739 10.8827
46.9226 10.8165
46.9712 10.8106
47.0199 10.7356
47.0685 10.6887
47.1173 10.6776
47.1658 10.6304
47.2146 10.603
47.2632 10.5791
47.312 10.5499
47.3606 10.4944
47.4095 10.4498
47.4581 10.3812
47.5069 10.346
47.5556 10.3227
47.6044 10.2401
47.6531 10.2574
47.702 10.1992
47.7507 10.1199
47.7996 10.1138
47.8483 10.1223
47.8972 10.0555
47.9461 10.0505
47.9948 9.98901
48.0438 9.95142
48.0925 9.96428
48.1415 9.91271
48.1902 9.88898
48.2392 9.86351
48.288 9.78161
48.337 9.73532
48.3858 9.71043
48.4348 9.71949
48.4837 9.65107
48.5327 9.58857
48.5815 9.57596
48.6306 9.53991
48.6795 9.56419
48.7285 9.46018
48.7774 9.44396
48.8265 9.4399
48.8754 9.36441
48.9245 9.30885
48.9734 9.26648
49.0226 9.30055
49.0715 9.21884
49.1206 9.18898
49.1696 9.14658
49.2188 9.13824
49.2679 9.0928
49.3169 9.07129
49.3661 8.99588
49.4151 8.96596
49.4643 8.94113
49.5134 8.93687
49.5626 8.85898
49.6117 8.88181
49.6609 8.81457
49.71 8.78136
49.7592 8.73318
49.8083 8.68431
49.8576 8.6632
49.9067 8.61824
49.956 8.60548
50.0052 8.55919
50.0545 8.54114
50.1036 8.46139
50.153 8.46132
50.2022 8.4622
50.2515 8.38302
50.3007 8.37428
50.3501 8.31222
50.3993 8.29627
50.4487 8.25925
50.498 8.27449
50.5474 8.21701
50.5966 8.15788
50.6461 8.154
50.6955 8.12333
50.7448 8.11711
50.7943 8.06925
50.8436 7.98148
50.8931 8.00509
50.9424 7.96439
50.9919 7.94054
51.0413 7.90713
51.0908 7.86952
51.1402 7.87501
51.1897 7.80027
51.2391 7.79635
51.2887 7.73721
51.3381 7.72329
51.3877 7.68483
51.4371 7.62861
51.4867 7.63881
51.5362 7.59825
51.5858 7.57767
51.6353 7.49798
51.6849 7.45489
51.7344 7.451
51.7841 7.45835
51.8336 7.42906
51.8833 7.38774
51.9328 7.29107
51.9826 7.31371
52.0323 7.2628
52.0818 7.27704
52.1316 7.19443
52.1812 7.20162
52.231 7.16096
52.2806 7.15017
52.3304 7.0945
52.38 7.06825
52.4298 7.03395
52.4794 6.98941
52.5293 6.96222
52.5789 6.95453
52.6288 6.94294
52.6785 6.91635
52.7284 6.87089
52.7781 6.85033
52.828 6.82199
52.8777 6.78981
52.9276 6.74148
52.9774 6.74138
53.0273 6.72896
53.0771 6.6734
53.1271 6.66918
53.1769 6.60875
53.2269 6.60416
53.2767 6.59963
53.3267 6.55517
53.3765 6.50356
53.4266 6.48022
53.4766 6.43478
53.5265 6.43312
53.5765 6.37981
53.6264 6.34613
53.6765 6.3498
53.7264 6.28925
53.7765 6.29355
53.8265 6.24588
53.8766 6.19415
53.9266 6.18577
53.9767 6.18128
54.0267 6.08369
54.0769 6.13834
54.1269 6.09917
54.1771 6.04942
54.2271 6.00871
54.2773 6.00091
54.3274 5.97841
54.3776 5.89745
54.4277 5.89843
54.478 5.88792
54.528 5.79011
54.5783 5.73546
54.6285 5.75849
54.6788 5.74182
54.7289 5.65836
54.7792 5.66195
54.8296 5.57163
54.8798 5.49861
54.9301 5.53625
54.9803 5.52654
55.0307 5.47408
55.0809 5.44666
55.1314 5.41531
55.1816 5.30016
55.232 5.27479
55.2823 5.24006
55.3328 5.16912
55.383 5.12675
55.4335 5.11765
55.4838 4.97448
55.5344 4.93455
55.5847 4.96084
55.6352 4.93734
55.6856 4.86763
55.7361 4.81366