File: XRD/Ni3Fe_FD0141.xy
TT I
1.27165 7.74759
1.31627 7.17523
1.36089 6.75699
1.40551 6.64164
1.45013 6.61974
1.49476 5.07803
1.53938 6.39998
1.584 6.11199
1.62863 5.54439
1.67325 5.38933
1.71787 6.29591
1.7625 5.53942
1.80712 4.61251
1.85174 4.78251
1.89636 5.2039
1.94099 5.12197
1.98562 5.16507
2.03025 5.21503
2.07487 4.45581
2.11949 4.84092
2.16411 4.33231
2.20874 4.18433
2.25338 4.80171
2.298 4.3008
2.34263 4.50491
2.38725 4.37071
2.43188 3.89193
2.4765 5.21456
2.52115 4.02002
2.56577 5.0304
2.6104 5.90818
2.65503 4.84828
2.69965 5.28753
2.7443 6.13689
2.78893 6.38244
2.83356 6.61367
2.87818 7.78309
2.92281 8.06568
2.96744 9.10717
3.01209 10.5915
3.05672 11.0073
3.10135 12.1776
3.14599 13.1355
3.19062 13.2964
3.23527 15.1664
3.2799 16.0914
3.32454 16.7333
3.36917 17.6687
3.4138 18.4347
3.45844 19.5496
3.50309 20.6212
3.54773 20.7292
3.59237 21.3952
3.637 22.6149
3.68164 23.2966
3.7263 23.8994
3.77094 24.7723
3.81558 25.702
3.86022 26.0336
3.90486 27.6363
3.9495 28.8218
3.99416 29.0793
4.0388 29.9802
4.08344 31.7104
4.12809 32.0044
4.17273 34.0651
4.21738 35.366
4.26204 35.9671
4.30669 37.7311
4.35133 39.515
4.39598 41.0313
4.44063 42.8721
4.4853 44.5345
4.52995 46.9322
4.5746 48.8287
4.61925 51.1741
4.6639 53.6438
4.70855 56.5423
4.75322 59.5113
4.79788 62.1657
4.84253 65.5156
4.88719 70.1941
4.93184 74.7383
4.97652 81.9607
5.02118 90.5649
5.06583 101.22
5.11049 116.95
5.15515 155.885
5.19981 558.23
5.24449 3760.66
5.28916 8143.77
5.33382 6329.54
5.37848 470.88
5.42315 164.285
5.46783 128.35
5.5125 113.884
5.55716 108.072
5.60183 101.302
5.6465 98.8174
5.69117 97.4124
5.73586 95.2817
5.78053 94.57
5.8252 95.4426
5.86988 98.309
5.91455 105.46
5.95924 124.979
6.00392 291.287
6.0486 1381.54
6.09328 2663.15
6.13795 4032.16
6.18263 728.042
6.22733 124.247
6.27201 89.3702
6.3167 78.281
6.36138 72.6972
6.40606 67.8451
6.45075 66.4074
6.49545 64.257
6.54014 62.2359
6.58483 60.644
6.62952 59.7539
6.67421 58.0099
6.71892 56.9065
6.76361 56.2242
6.8083 55.4451
6.853 54.7709
6.89769 54.366
6.94239 53.592
6.98711 53.3935
7.03181 52.8394
7.07651 52.3226
7.12121 52.1824
7.16591 52.1218
7.21063 51.8609
7.25533 51.6284
7.30004 51.5449
7.34475 52.0001
7.38945 51.9595
7.43416 51.3574
7.47889 51.7215
7.5236 55.7572
7.56831 64.3942
7.61303 55.1407
7.65774 53.3753
7.70247 53.6452
7.74719 53.7909
7.79191 54.7651
7.83663 54.7168
7.88135 55.94
7.92607 56.6336
7.97081 57.8097
8.01553 58.8745
8.06026 60.3398
8.10498 61.5425
8.14971 63.0817
8.19446 64.6846
8.23919 67.6614
8.28392 70.3355
8.32865 73.245
8.37339 77.8784
8.41812 83.556
8.46288 95.4282
8.50761 172.647
8.55235 605.864
8.59709 865.0
8.64183 1447.56
8.68658 1662.84
8.73134 433.978
8.77609 117.978
8.82083 97.0184
8.86558 90.5372
8.91033 87.1498
8.9551 84.9486
8.99985 83.5759
9.04461 82.3026
9.08936 81.8446
9.13412 81.0402
9.17888 81.0169
9.22365 87.1261
9.26841 98.4605
9.31318 86.9061
9.35794 82.185
9.4027 81.719
9.44749 82.758
9.49226 82.9575
9.53703 83.858
9.5818 85.2666
9.62657 86.4876
9.67134 87.795
9.71614 90.0902
9.76091 92.3614
9.80569 95.1241
9.85047 98.4989
9.89525 103.547
9.94005 113.492
9.98484 185.101
10.0296 548.047
10.0744 727.046
10.1192 995.505
10.164 1630.9
10.2088 1017.74
10.2536 222.169
10.2984 116.46
10.3432 107.83
10.388 104.241
10.4328 120.553
10.4776 216.185
10.5224 259.169
10.5672 323.671
10.612 485.32
10.6568 388.293
10.7017 136.892
10.7465 90.1139
10.7913 82.9966
10.8361 80.0072
10.8809 77.5806
10.9257 75.4701
10.9706 73.8338
11.0154 72.2106
11.0602 70.9489
11.105 69.7647
11.1499 68.2751
11.1947 67.3986
11.2395 66.16
11.2844 65.6728
11.3292 64.983
11.374 64.4275
11.4189 63.6648
11.4637 63.0902
11.5086 62.6038
11.5534 61.9166
11.5983 61.8836
11.6431 61.8063
11.688 60.9609
11.7328 61.2267
11.7777 60.8474
11.8225 61.0687
11.8674 60.8777
11.9122 62.199
11.9571 66.0048
12.002 65.3805
12.0468 67.2332
12.0917 90.2018
12.1366 107.054
12.1814 115.753
12.2263 147.43
12.2712 191.945
12.3161 142.366
12.3609 75.2272
12.4058 63.8682
12.4507 63.032
12.4956 62.726
12.5405 62.8065
12.5853 63.3797
12.6302 63.2254
12.6751 64.0738
12.72 64.6327
12.7649 65.6644
12.8098 66.5736
12.8547 67.7334
12.8996 69.5885
12.9445 70.8446
12.9894 72.5082
13.0343 74.8901
13.0792 78.8498
13.1242 85.9595
13.1691 132.819
13.214 187.111
13.2589 201.587
13.3038 239.416
13.3487 341.669
13.3937 383.315
13.4386 216.816
13.4835 120.523
13.5285 154.674
13.5734 181.671
13.6183 188.905
13.6633 231.631
13.7082 325.605
13.7531 307.782
13.7981 154.495
13.843 88.2903
13.888 80.4513
13.9329 77.382
13.9779 75.4944
14.0228 74.0077
14.0678 72.6738
14.1127 72.504
14.1577 74.0955
14.2027 72.6806
14.2476 70.259
14.2926 69.1054
14.3376 68.6172
14.3825 68.2909
14.4275 67.7403
14.4725 67.7848
14.5175 68.0022
14.5624 67.9161
14.6074 68.3052
14.6524 68.6855
14.6974 69.2312
14.7424 71.1082
14.7874 80.0915
14.8324 107.045
14.8774 120.625
14.9224 125.13
14.9674 144.942
15.0124 187.495
15.0574 204.843
15.1024 140.182
15.1474 81.9059
15.1924 71.0906
15.2374 68.7737
15.2824 67.5736
15.3274 66.6636
15.3725 66.0165
15.4175 65.6822
15.4625 65.1224
15.5076 65.1482
15.5526 65.3364
15.5976 65.1125
15.6426 65.9998
15.6877 73.1539
15.7327 95.0219
15.7778 107.054
15.8228 109.387
15.8679 121.816
15.9129 150.526
15.958 184.272
16.003 154.19
16.0481 90.5944
16.0931 66.3249
16.1382 61.4651
16.1833 60.0884
16.2283 58.6913
16.2734 57.6402
16.3185 56.8949
16.3636 56.2468
16.4086 55.8582
16.4537 55.0648
16.4988 54.6617
16.5439 54.7578
16.589 54.4168
16.6341 54.1705
16.6792 53.726
16.7243 53.8939
16.7694 53.8599
16.8145 53.6793
16.8596 53.8685
16.9047 54.0923
16.9498 54.8742
16.9949 54.6942
17.04 54.9022
17.0851 56.5003
17.1302 60.5658
17.1754 64.1158
17.2205 64.5222
17.2656 66.4609
17.3108 71.5316
17.3559 78.3025
17.401 80.6389
17.4462 71.5043
17.4913 61.2198
17.5365 58.8288
17.5815 58.6476
17.6268 59.0418
17.6718 59.4731
17.7171 59.8673
17.7622 61.0949
17.8074 61.96
17.8525 63.3094
17.8977 71.5689
17.9428 83.5081
17.9881 88.0864
18.0331 89.9987
18.0784 96.5059
18.1237 112.537
18.1688 138.987
18.214 142.678
18.2591 111.934
18.3044 87.9159
18.3495 85.6147
18.3948 93.7822
18.4399 102.476
18.4852 95.4348
18.5303 76.5485
18.5756 64.7467
18.6207 62.0506
18.666 60.592
18.7112 59.7791
18.7565 58.8742
18.8016 58.5132
18.8469 57.8226
18.892 57.6678
18.9374 57.0908
18.9825 56.753
19.0278 56.392
19.073 56.3315
19.1183 57.0353
19.1635 59.3779
19.2088 61.5178
19.254 62.0156
19.2993 62.6433
19.3447 64.5235
19.3898 68.4059
19.4352 73.2641
19.4804 72.2208
19.5257 64.1501
19.5709 56.3951
19.6163 54.0445
19.6615 53.6374
19.7068 52.9993
19.752 53.0915
19.7974 53.1869
19.8426 54.3867
19.888 56.5424
19.9332 58.0158
19.9786 58.2873
20.0238 58.7157
20.0692 61.2697
20.1144 66.3125
20.1598 71.867
20.205 70.4386
20.2504 65.3
20.2957 60.6249
20.3411 60.988
20.3863 64.1976
20.4318 64.4725
20.477 59.4572
20.5224 53.4579
20.5677 50.8667
20.6131 50.1281
20.6586 49.5761
20.7038 49.3991
20.7493 49.0471
20.7945 49.0458
20.84 48.7614
20.8853 48.6194
20.9307 48.4294
20.976 48.548
21.0215 48.7779
21.0668 49.2094
21.1122 49.2738
21.1575 49.1027
21.203 49.5098
21.2483 50.0904
21.2938 51.0561
21.3391 50.9783
21.3846 50.2165
21.4299 49.1131
21.4754 48.5734
21.5207 48.4012
21.5662 48.8177
21.6116 49.1737
21.6571 51.1399
21.7024 53.0721
21.7479 53.8459
21.7933 54.208
21.8388 55.2828
21.8843 57.9238
21.9297 61.4861
21.9752 65.4957
22.0206 65.4723
22.0661 60.5722
22.1115 56.1218
22.157 55.3852
22.2024 56.3326
22.248 54.9981
22.2933 52.4293
22.3389 50.0526
22.3843 48.91
22.4299 48.6472
22.4753 48.6269
22.5208 48.5943
22.5662 48.4374
22.6118 48.6673
22.6572 48.8625
22.7028 50.0232
22.7483 51.2497
22.7939 51.6815
22.8393 51.7661
22.8849 52.3599
22.9303 53.0626
22.9759 54.7728
23.0214 56.6997
23.067 58.2403
23.1126 55.9993
23.1581 52.2512
23.2037 49.7441
23.2492 49.1342
23.2948 49.513
23.3403 50.6536
23.3859 51.6518
23.4314 51.5144
23.477 51.6224
23.5225 51.9995
23.5682 53.3211
23.6137 55.4118
23.6593 57.4126
23.7048 57.1646
23.7505 53.3581
23.796 49.1584
23.8417 46.8475
23.8872 45.9981
23.9329 45.4556
23.9784 45.0327
24.0241 44.7521
24.0697 44.4395
24.1154 44.2895
24.1609 43.9797
24.2066 43.6759
24.2522 43.6692
24.2979 43.4066
24.3434 43.3542
24.3892 43.1519
24.4349 43.0886
24.4805 42.7871
24.5262 43.0359
24.5718 42.8293
24.6175 42.869
24.6631 43.0136
24.7089 42.7709
24.7545 42.507
24.8002 42.1905
24.8458 42.3904
24.8916 42.2225
24.9372 42.5247
24.983 42.7127
25.0286 42.9846
25.0744 43.246
25.12 43.7251
25.1658 44.0975
25.2114 44.44
25.2572 44.8052
25.3029 44.6524
25.3487 44.5608
25.3943 44.6659
25.4402 44.8923
25.4858 44.4011
25.5316 43.0222
25.5773 41.7771
25.6231 41.1428
25.669 40.7556
25.7147 40.5882
25.7605 40.5285
25.8062 40.7991
25.8521 40.8488
25.8977 40.7775
25.9436 40.9226
25.9893 40.8311
26.0352 41.0106
26.0809 41.0929
26.1268 41.4538
26.1725 41.8472
26.2184 41.7715
26.2641 41.3352
26.31 40.8549
26.3557 40.7358
26.4017 40.6449
26.4474 40.7029
26.4933 40.7946
26.5391 41.1752
26.585 41.2232
26.6308 41.4607
26.6767 41.7789
26.7225 42.4589
26.7684 42.4534
26.8142 41.8718
26.8601 41.2067
26.9059 40.684
26.9519 40.3332
26.9979 39.8595
27.0437 39.2895
27.0896 39.0777
27.1354 39.0437
27.1814 38.7636
27.2272 38.8385
27.2732 38.8652
27.3191 38.5119
27.3651 38.5999
27.4109 38.375
27.4569 38.4694
27.5027 38.4583
27.5488 38.492
27.5946 38.5501
27.6407 38.6001
27.6865 38.5964
27.7326 38.4929
27.7784 38.3649
27.8245 38.1772
27.8703 38.2085
27.9164 38.2951
27.9623 38.3689
28.0084 38.5527
28.0543 38.8571
28.1003 38.8374
28.1462 39.1417
28.1923 39.1839
28.2384 38.7062
28.2843 38.3013
28.3304 37.8504
28.3764 37.5428
28.4225 37.0721
28.4684 36.6431
28.5145 36.365
28.5605 36.0952
28.6066 35.973
28.6526 35.7808
28.6987 35.7292
28.7447 35.6388
28.7908 35.4771
28.8368 35.3585
28.8829 35.4136
28.9289 35.3803
28.9751 35.3018
29.0211 35.2655
29.0673 35.0587
29.1133 34.8321
29.1595 34.6672
29.2055 34.4923
29.2517 34.4204
29.2977 34.2266
29.3439 34.2263
29.3899 34.0696
29.4361 34.1942
29.4824 34.1695
29.5284 34.149
29.5746 33.8535
29.6207 33.5308
29.6669 33.2283
29.713 32.9885
29.7593 32.9118
29.8053 32.9947
29.8516 32.8459
29.8977 32.8661
29.9439 32.6684
29.99 32.6447
30.0363 32.4778
30.0824 32.6339
30.1287 32.427
30.1748 32.42
30.2211 32.3987
30.2673 32.3305
30.3136 32.523
30.3597 32.4876
30.406 32.459
30.4522 32.2671
30.4985 32.1997
30.5447 32.2437
30.591 32.1685
30.6372 32.1676
30.6835 32.1158
30.7297 32.2074
30.7761 32.3808
30.8224 32.336
30.8686 32.2016
30.915 32.0052
30.9612 31.8697
31.0076 31.6158
31.0538 31.4442
31.1002 31.3551
31.1464 31.2473
31.1928 31.216
31.2391 31.0338
31.2855 31.0021
31.3317 30.9341
31.3781 30.9357
31.4244 30.9429
31.4708 30.8679
31.5171 30.9009
31.5636 30.9664
31.6098 30.7549
31.6563 30.8583
31.7026 30.6062
31.7491 30.3605
31.7953 30.3923
31.8418 30.2148
31.8881 30.1554
31.9346 30.1285
31.9809 30.1885
32.0275 30.0879
32.074 29.9823
32.1203 29.8455
32.1668 29.848
32.2132 29.6405
32.2597 29.4273
32.306 29.4121
32.3526 29.1588
32.399 29.0539
32.4455 29.0812
32.4919 28.8144
32.5385 28.6836
32.5848 28.584
32.6314 28.5856
32.6778 28.5347
32.7244 28.272
32.7708 28.2864
32.8174 28.255
32.8638 28.2051
32.9104 28.0698
32.9569 28.1573
33.0035 27.9912
33.0499 27.9253
33.0966 27.9081
33.143 27.9096
33.1897 27.7107
33.2361 27.6855
33.2828 27.7362
33.3293 27.5398
33.3759 27.5112
33.4226 27.4266
33.4691 27.2935
33.5158 27.1704
33.5623 27.1019
33.609 26.8837
33.6555 26.8199
33.7022 26.7281
33.7487 26.5859
33.7954 26.5037
33.842 26.3968
33.8887 26.3938
33.9353 26.3461
33.982 26.2917
34.0286 26.1781
34.0753 26.0669
34.1219 26.0589
34.1687 25.9376
34.2152 25.7922
34.262 25.6735
34.3086 25.605
34.3554 25.5459
34.402 25.4852
34.4488 25.4166
34.4954 25.3524
34.5422 25.3188
34.5889 25.131
34.6357 25.0481
34.6825 24.9431
34.7292 24.8534
34.776 24.8524
34.8227 24.7316
34.8695 24.7241
34.9162 24.5475
34.9631 24.5696
35.0098 24.5758
35.0566 24.5034
35.1033 24.4047
35.1502 24.4072
35.1969 24.2522
35.2438 24.1686
35.2906 24.1912
35.3375 24.1087
35.3842 24.0363
35.4311 24.1263
35.4779 24.059
35.5248 23.9841
35.5716 23.8534
35.6185 23.8215
35.6653 23.7834
35.7123 23.6539
35.759 23.4744
35.806 23.4817
35.8528 23.2867
35.8998 23.348
35.9468 23.183
35.9936 23.1803
36.0406 23.1062
36.0874 23.1119
36.1345 22.9904
36.1813 22.8919
36.2283 22.8223
36.2752 22.693
36.3222 22.7296
36.3691 22.6746
36.4161 22.5212
36.463 22.4616
36.5101 22.5281
36.557 22.4566
36.6041 22.2131
36.651 22.2226
36.6981 22.2052
36.745 22.1844
36.7921 22.0177
36.839 21.9659
36.8861 21.8771
36.9331 21.8439
36.9802 21.718
37.0272 21.6316
37.0743 21.6235
37.1213 21.5696
37.1684 21.4307
37.2154 21.4451
37.2626 21.3638
37.3098 21.3057
37.3568 21.1564
37.404 21.1965
37.451 21.0271
37.4982 21.0069
37.5452 20.857
37.5924 20.8888
37.6395 20.85
37.6867 20.7428
37.7337 20.6575
37.781 20.5688
37.8281 20.5463
37.8753 20.4195
37.9224 20.3881
37.9697 20.3096
38.0168 20.281
38.064 20.2164
38.1111 20.1552
38.1584 20.0216
38.2056 19.9985
38.2529 19.9652
38.3 19.9025
38.3473 19.8375
38.3945 19.7298
38.4418 19.6686
38.489 19.6523
38.5363 19.5647
38.5837 19.4605
38.6309 19.4614
38.6782 19.3396
38.7254 19.2701
38.7728 19.3664
38.82 19.1597
38.8674 19.1914
38.9146 19.1456
38.9621 19.0058
39.0093 18.9571
39.0567 18.8457
39.104 18.8864
39.1514 18.7645
39.1987 18.7274
39.2461 18.6772
39.2934 18.6815
39.3409 18.5584
39.3882 18.4245
39.4356 18.415
39.483 18.4516
39.5304 18.2913
39.5778 18.2772
39.6253 18.2264
39.6726 18.1089
39.7201 18.0839
39.7675 18.0797
39.815 17.9553
39.8624 17.9217
39.9099 17.9377
39.9575 17.7754
40.0049 17.7241
40.0525 17.6629
40.0999 17.5784
40.1474 17.5522
40.1949 17.4604
40.2425 17.4262
40.2899 17.4461
40.3375 17.3559
40.385 17.2919
40.4326 17.2071
40.48 17.2111
40.5277 17.134
40.5752 17.062
40.6228 17.0087
40.6703 16.9704
40.718 16.877
40.7655 16.9192
40.8132 16.8383
40.8607 16.7674
40.9084 16.7267
40.9559 16.6378
41.0036 16.649
41.0512 16.5222
41.0989 16.4802
41.1465 16.4341
41.1942 16.4127
41.242 16.3607
41.2896 16.3436
41.3373 16.2215
41.3849 16.1737
41.4327 16.0562
41.4803 15.9796
41.5281 16.0207
41.5758 15.9323
41.6236 15.8396
41.6712 15.8307
41.7191 15.7776
41.7667 15.7121
41.8146 15.632
41.8622 15.6271
41.9101 15.6243
41.9578 15.4761
42.0057 15.4949
42.0534 15.4291
42.1013 15.395
42.149 15.2687
42.1969 15.2284
42.2446 15.242
42.2925 15.177
42.3403 15.0421
42.3882 15.0792
42.436 15.0214
42.4839 14.9213
42.5319 14.9161
42.5797 14.8847
42.6277 14.8273
42.6755 14.7282
42.7235 14.6408
42.7713 14.7146
42.8193 14.574
42.8671 14.5555
42.9152 14.535
42.963 14.4382
43.0111 14.4461
43.0589 14.3467
43.107 14.3496
43.1549 14.3053
43.2029 14.1511
43.2508 14.1772
43.2989 14.0934
43.3468 14.0158
43.3949 14.0036
43.4429 13.9441
43.491 13.8817
43.5389 13.853
43.5871 13.84
43.635 13.7649
43.6832 13.7696
43.7312 13.6453
43.7793 13.6706
43.8273 13.5968
43.8755 13.5506
43.9237 13.5178
43.9717 13.4688
44.0199 13.3603
44.068 13.3621
44.1162 13.2791
44.1642 13.2753
44.2125 13.2463
44.2606 13.1814
44.3088 13.1143
44.3569 13.0338
44.4052 13.0412
44.4533 12.9907
44.5016 12.932
44.5497 12.8785
44.598 12.8545
44.6461 12.7923
44.6945 12.7658
44.7426 12.7268
44.791 12.7056
44.8391 12.6037
44.8875 12.5756
44.9357 12.5632
44.984 12.4795
45.0322 12.4296
45.0806 12.3856
45.1288 12.3629
45.1773 12.3444
45.2257 12.2333
45.2739 12.232
45.3224 12.1729
45.3706 12.1486
45.4191 12.04
45.4673 12.122
45.5158 12.0058
45.5641 11.9559
45.6126 11.9009
45.6609 11.8565
45.7094 11.8216
45.7577 11.8061
45.8063 11.7478
45.8546 11.7517
45.9031 11.6691
45.9515 11.6343
46.0001 11.5955
46.0484 11.5622
46.097 11.5403
46.1454 11.5104
46.194 11.4339
46.2424 11.355
46.291 11.3497
46.3395 11.2918
46.3881 11.2464
46.4365 11.1894
46.4852 11.1957
46.5337 11.119
46.5823 11.1223
46.631 11.0314
46.6795 11.033
46.7282 10.9617
46.7767 10.9549
46.8254 10.9169
46.8739 10.8665
46.9226 10.7687
46.9712 10.7942
47.0199 10.7274
47.0685 10.6736
47.1173 10.6596
47.1658 10.6362
47.2146 10.6177
47.2632 10.5145
47.312 10.5095
47.3606 10.4706
47.4095 10.3932
47.4581 10.3535
47.5069 10.3202
47.5556 10.316
47.6044 10.2321
47.6531 10.2152
47.702 10.1815
47.7507 10.1475
47.7996 10.1393
47.8483 10.0685
47.8972 10.08
47.9461 10.0359
47.9948 9.9257
48.0438 9.95109
48.0925 9.93853
48.1415 9.85144
48.1902 9.81425
48.2392 9.79975
48.288 9.77363
48.337 9.71608
48.3858 9.67613
48.4348 9.65923
48.4837 9.6636
48.5327 9.64719
48.5815 9.54535
48.6306 9.50462
48.6795 9.52582
48.7285 9.41577
48.7774 9.43434
48.8265 9.40709
48.8754 9.31036
48.9245 9.30729
48.9734 9.27798
49.0226 9.2702
49.0715 9.20575
49.1206 9.12326
49.1696 9.13268
49.2188 9.11135
49.2679 9.05392
49.3169 9.02692
49.3661 8.9902
49.4151 8.93509
49.4643 8.93358
49.5134 8.90392
49.5626 8.84979
49.6117 8.82073
49.6609 8.78074
49.71 8.71571
49.7592 8.71736
49.8083 8.63507
49.8576 8.66713
49.9067 8.6106
49.956 8.56816
50.0052 8.55596
50.0545 8.53876
50.1036 8.47335
50.153 8.46091
50.2022 8.43487
50.2515 8.38137
50.3007 8.36012
50.3501 8.33248
50.3993 8.31426
50.4487 8.27975
50.498 8.23392
50.5474 8.23117
50.5966 8.16594
50.6461 8.11189
50.6955 8.12134
50.7448 8.07919
50.7943 8.05194
50.8436 8.02755
50.8931 7.99932
50.9424 7.95429
50.9919 7.93569
51.0413 7.88158
51.0908 7.84588
51.1402 7.8006
51.1897 7.79666
51.2391 7.78826
51.2887 7.74777
51.3381 7.68607
51.3877 7.68643
51.4371 7.63624
51.4867 7.61087
51.5362 7.59294
51.5858 7.5372
51.6353 7.49006
51.6849 7.51841
51.7344 7.46886
51.7841 7.41908
51.8336 7.3906
51.8833 7.35123
51.9328 7.3427
51.9826 7.28633
52.0323 7.30161
52.0818 7.25225
52.1316 7.19198
52.1812 7.1868
52.231 7.1321
52.2806 7.12676
52.3304 7.11827
52.38 7.04684
52.4298 7.03949
52.4794 6.9729
52.5293 6.98551
52.5789 6.97246
52.6288 6.93347
52.6785 6.85587
52.7284 6.89859
52.7781 6.85292
52.828 6.80297
52.8777 6.75716
52.9276 6.75045
52.9774 6.70284
53.0273 6.69751
53.0771 6.67493
53.1271 6.66246
53.1769 6.60803
53.2269 6.59522
53.2767 6.56038
53.3267 6.51066
53.3765 6.50947
53.4266 6.445
53.4766 6.46418
53.5265 6.42003
53.5765 6.38695
53.6264 6.33499
53.6765 6.32035
53.7264 6.32382
53.7765 6.29215
53.8265 6.23034
53.8766 6.20668
53.9266 6.15935
53.9767 6.15337
54.0267 6.13218
54.0769 6.10747
54.1269 6.05563
54.1771 6.02307
54.2271 6.00502
54.2773 5.90044
54.3274 5.97114
54.3776 5.83963
54.4277 5.84197
54.478 5.83119
54.528 5.76516
54.5783 5.70998
54.6285 5.69585
54.6788 5.65565
54.7289 5.61876
54.7792 5.57374
54.8296 5.47091
54.8798 5.44637
54.9301 5.42364
54.9803 5.41036
55.0307 5.37678
55.0809 5.31548
55.1314 5.28516
55.1816 5.20413
55.232 5.142
55.2823 5.10997
55.3328 5.0609
55.383 5.02444
55.4335 4.92856
55.4838 4.93389
55.5344 4.82134
55.5847 4.89207
55.6352 4.84904
55.6856 4.84147
55.7361 4.75171