File: XRD/Ni3Fe_FD0402.xy
TT I
1.27165 7.28549
1.31627 7.10229
1.36089 7.51014
1.40551 6.04495
1.45013 6.59438
1.49476 6.69196
1.53938 5.62038
1.584 5.4515
1.62863 5.72682
1.67325 5.41999
1.71787 5.51395
1.7625 4.99277
1.80712 5.21287
1.85174 4.28308
1.89636 4.55606
1.94099 5.00745
1.98562 5.251
2.03025 5.09228
2.07487 4.725
2.11949 5.13002
2.16411 5.31966
2.20874 15.6056
2.25338 26.1178
2.298 6.23744
2.34263 5.54295
2.38725 5.27739
2.43188 5.45902
2.4765 5.93782
2.52115 6.00533
2.56577 7.19742
2.6104 7.26638
2.65503 7.20571
2.69965 7.55811
2.7443 7.56207
2.78893 7.1048
2.83356 8.12126
2.87818 8.35697
2.92281 8.92377
2.96744 8.71774
3.01209 10.2534
3.05672 10.9644
3.10135 11.938
3.14599 12.8463
3.19062 14.0261
3.23527 14.9277
3.2799 15.6327
3.32454 16.6064
3.36917 17.943
3.4138 19.0128
3.45844 19.8755
3.50309 21.2855
3.54773 22.0493
3.59237 24.6691
3.637 107.031
3.68164 66.392
3.7263 26.9544
3.77094 26.8453
3.81558 27.5001
3.86022 28.0322
3.90486 29.2306
3.9495 29.9081
3.99416 31.3751
4.0388 33.1762
4.08344 34.5052
4.12809 35.748
4.17273 38.2169
4.21738 44.927
4.26204 286.748
4.30669 255.353
4.35133 51.0409
4.39598 45.6208
4.44063 56.7745
4.4853 70.1653
4.52995 52.5081
4.5746 52.3599
4.61925 54.1838
4.6639 56.7517
4.70855 59.2803
4.75322 62.093
4.79788 65.1633
4.84253 68.4224
4.88719 72.6405
4.93184 76.5524
4.97652 82.6946
5.02118 89.0006
5.06583 97.1709
5.11049 110.83
5.15515 196.416
5.19981 433.841
5.24449 2984.28
5.28916 11766.3
5.33382 3624.59
5.37848 224.912
5.42315 138.4
5.46783 118.979
5.5125 109.935
5.55716 104.83
5.60183 101.308
5.6465 99.3333
5.69117 96.7278
5.73586 94.8661
5.78053 93.9314
5.8252 94.6283
5.86988 94.8969
5.91455 97.2101
5.95924 107.355
6.00392 233.999
6.0486 1039.01
6.09328 3922.21
6.13795 3478.47
6.18263 310.144
6.22733 100.458
6.27201 86.8209
6.3167 110.308
6.36138 84.8278
6.40606 70.8154
6.45075 69.0341
6.49545 67.0331
6.54014 65.3614
6.58483 64.5847
6.62952 64.5699
6.67421 100.59
6.71892 163.353
6.76361 72.3437
6.8083 60.638
6.853 58.83
6.89769 58.0458
6.94239 57.7808
6.98711 57.3276
7.03181 57.1877
7.07651 56.3998
7.12121 56.6629
7.16591 56.8939
7.21063 57.1182
7.25533 74.129
7.30004 206.951
7.34475 101.04
7.38945 58.1504
7.43416 56.1918
7.47889 55.6319
7.5236 56.0167
7.56831 56.4969
7.61303 58.7991
7.65774 59.2776
7.70247 57.3918
7.74719 57.2653
7.79191 58.1211
7.83663 58.2931
7.88135 58.8855
7.92607 59.7436
7.97081 61.2025
8.01553 62.2767
8.06026 63.5752
8.10498 65.4293
8.14971 76.6728
8.19446 74.7186
8.23919 71.0134
8.28392 73.1141
8.32865 75.5262
8.37339 79.8447
8.41812 87.8532
8.46288 122.582
8.50761 178.196
8.55235 415.727
8.59709 1092.7
8.64183 2091.08
8.68658 1137.0
8.73134 201.888
8.77609 104.517
8.82083 95.6446
8.86558 91.7886
8.91033 92.5359
8.9551 95.2355
8.99985 87.3569
9.04461 84.9843
9.08936 84.6419
9.13412 83.6763
9.17888 83.8089
9.22365 84.7677
9.26841 83.5187
9.31318 84.1328
9.35794 84.4714
9.4027 85.0136
9.44749 85.6174
9.49226 86.1594
9.53703 87.1257
9.5818 89.561
9.62657 94.5077
9.67134 102.128
9.71614 95.7833
9.76091 96.3081
9.80569 98.7498
9.85047 102.223
9.89525 130.188
9.94005 145.73
9.98484 187.951
10.0296 366.264
10.0744 773.426
10.1192 1581.26
10.164 1736.81
10.2088 510.811
10.2536 141.948
10.2984 118.668
10.3432 120.048
10.388 108.282
10.4328 122.527
10.4776 166.737
10.5224 270.482
10.5672 480.812
10.612 539.132
10.6568 230.596
10.7017 102.6
10.7465 89.3914
10.7913 85.5889
10.8361 82.8778
10.8809 80.8126
10.9257 80.7311
10.9706 81.6897
11.0154 76.9629
11.0602 74.4396
11.105 73.4905
11.1499 78.8154
11.1947 88.1629
11.2395 77.5526
11.2844 72.7439
11.3292 68.9087
11.374 67.6435
11.4189 67.3409
11.4637 66.4567
11.5086 67.1163
11.5534 70.6142
11.5983 67.475
11.6431 65.1871
11.688 64.3963
11.7328 64.3739
11.7777 64.4348
11.8225 64.0262
11.8674 63.937
11.9122 64.0274
11.9571 64.3207
12.002 65.2513
12.0468 69.7002
12.0917 82.2643
12.1366 103.725
12.1814 146.098
12.2263 198.006
12.2712 181.802
12.3161 107.89
12.3609 73.9322
12.4058 66.6147
12.4507 66.0832
12.4956 65.8494
12.5405 66.4538
12.5853 67.2688
12.6302 76.2645
12.6751 82.8993
12.72 72.2057
12.7649 69.4595
12.8098 69.9157
12.8547 71.3455
12.8996 72.5921
12.9445 73.895
12.9894 75.4383
13.0343 77.2122
13.0792 80.7637
13.1242 90.687
13.1691 116.734
13.214 152.863
13.2589 227.917
13.3038 344.247
13.3487 429.885
13.3937 296.987
13.4386 138.511
13.4835 110.409
13.5285 125.856
13.5734 159.346
13.6183 231.554
13.6633 327.421
13.7082 353.731
13.7531 216.81
13.7981 106.962
13.843 84.3518
13.888 81.5011
13.9329 79.1524
13.9779 77.927
14.0228 75.935
14.0678 74.5476
14.1127 74.378
14.1577 74.391
14.2027 73.0769
14.2476 71.71
14.2926 72.3
14.3376 73.6906
14.3825 72.0585
14.4275 70.4571
14.4725 70.319
14.5175 70.3485
14.5624 70.7992
14.6074 73.0357
14.6524 73.7878
14.6974 72.1224
14.7424 73.6412
14.7874 80.8019
14.8324 92.1885
14.8774 111.155
14.9224 146.721
14.9674 195.522
15.0124 220.866
15.0574 166.071
15.1024 101.168
15.1474 75.2715
15.1924 72.4545
15.2374 73.3994
15.2824 72.5963
15.3274 70.0941
15.3725 68.4418
15.4175 67.9648
15.4625 67.6232
15.5076 68.0064
15.5526 67.8988
15.5976 67.0428
15.6426 68.3102
15.6877 74.4847
15.7327 82.6679
15.7778 96.402
15.8228 122.141
15.8679 160.53
15.9129 192.762
15.958 171.679
16.003 108.127
16.0481 72.2323
16.0931 67.119
16.1382 65.0624
16.1833 62.3582
16.2283 60.6046
16.2734 60.057
16.3185 60.3692
16.3636 61.2148
16.4086 59.388
16.4537 57.6753
16.4988 56.9805
16.5439 56.8523
16.589 56.62
16.6341 56.3533
16.6792 55.8119
16.7243 56.3411
16.7694 56.5075
16.8145 56.2901
16.8596 56.4691
16.9047 58.5425
16.9498 58.668
16.9949 57.2339
17.04 57.3027
17.0851 58.3674
17.1302 60.216
17.1754 63.0778
17.2205 67.225
17.2656 73.6856
17.3108 82.0833
17.3559 83.9702
17.401 74.9446
17.4462 64.6704
17.4913 60.8174
17.5365 60.6535
17.5815 60.6799
17.6268 60.9758
17.6718 61.992
17.7171 62.121
17.7622 62.6727
17.8074 63.1636
17.8525 65.459
17.8977 70.2003
17.9428 75.8128
17.9881 83.5237
18.0331 97.785
18.0784 117.027
18.1237 137.284
18.1688 137.538
18.214 111.995
18.2591 90.1362
18.3044 90.0302
18.3495 98.3531
18.3948 106.761
18.4399 101.455
18.4852 82.3171
18.5303 68.7128
18.5756 63.9678
18.6207 62.9284
18.666 62.0972
18.7112 61.2059
18.7565 60.4149
18.8016 59.9752
18.8469 59.5202
18.892 59.1964
18.9374 58.6727
18.9825 58.3802
19.0278 58.3716
19.073 58.5353
19.1183 58.9518
19.1635 59.8921
19.2088 61.1623
19.254 63.0675
19.2993 66.5764
19.3447 72.3025
19.3898 77.3798
19.4352 75.0801
19.4804 66.5111
19.5257 58.908
19.5709 55.7301
19.6163 55.18
19.6615 54.9759
19.7068 54.73
19.752 54.4017
19.7974 54.9431
19.8426 55.7525
19.888 56.5303
19.9332 57.5997
19.9786 59.5343
20.0238 62.692
20.0692 67.3748
20.1144 70.7462
20.1598 70.3698
20.205 65.6373
20.2504 63.1766
20.2957 64.0911
20.3411 66.1355
20.3863 65.8217
20.4318 61.122
20.477 56.0313
20.5224 53.2111
20.5677 52.5647
20.6131 51.5614
20.6586 50.7967
20.7038 50.6907
20.7493 50.1656
20.7945 50.0894
20.84 49.9877
20.8853 49.8856
20.9307 49.7438
20.976 49.826
21.0215 49.7312
21.0668 50.1262
21.1122 50.5661
21.1575 51.0726
21.203 51.6347
21.2483 52.3776
21.2938 52.6399
21.3391 51.3909
21.3846 50.4231
21.4299 49.7208
21.4754 49.4834
21.5207 49.6033
21.5662 49.8533
21.6116 50.3645
21.6571 51.174
21.7024 52.0235
21.7479 53.6069
21.7933 55.9204
21.8388 59.1287
21.8843 62.9318
21.9297 65.5699
21.9752 65.6195
22.0206 62.0168
22.0661 57.9573
22.1115 56.9997
22.157 57.4047
22.2024 56.1358
22.248 53.2195
22.2933 51.3809
22.3389 50.533
22.3843 50.3085
22.4299 50.1303
22.4753 50.0255
22.5208 49.8442
22.5662 49.6126
22.6118 49.7204
22.6572 49.9846
22.7028 50.6306
22.7483 50.8958
22.7939 51.5369
22.8393 52.7804
22.8849 54.4101
22.9303 56.4362
22.9759 58.6691
23.0214 59.0867
23.067 56.574
23.1126 52.8743
23.1581 50.6267
23.2037 50.2174
23.2492 50.092
23.2948 50.0812
23.3403 50.2496
23.3859 50.9417
23.4314 51.8227
23.477 53.2583
23.5225 54.9948
23.5682 57.3488
23.6137 58.8961
23.6593 57.7885
23.7048 53.9216
23.7505 50.2137
23.796 48.12
23.8417 47.2333
23.8872 46.6081
23.9329 46.3169
23.9784 46.1169
24.0241 45.7436
24.0697 45.4921
24.1154 45.2824
24.1609 44.9503
24.2066 45.0493
24.2522 44.7807
24.2979 44.4107
24.3434 44.2954
24.3892 44.2833
24.4349 44.1806
24.4805 44.04
24.5262 44.2361
24.5718 43.8987
24.6175 43.9789
24.6631 43.9192
24.7089 43.6018
24.7545 43.4228
24.8002 43.2763
24.8458 43.1805
24.8916 42.9871
24.9372 43.3556
24.983 43.4009
25.0286 43.8055
25.0744 44.1981
25.12 44.6126
25.1658 45.2567
25.2114 45.7065
25.2572 45.7291
25.3029 45.8226
25.3487 45.8261
25.3943 45.7781
25.4402 44.902
25.4858 43.723
25.5316 42.5448
25.5773 41.9096
25.6231 41.9238
25.669 41.5281
25.7147 41.5657
25.7605 41.4382
25.8062 41.6315
25.8521 41.7964
25.8977 41.4548
25.9436 41.7973
25.9893 41.7808
26.0352 42.2392
26.0809 42.4049
26.1268 42.7632
26.1725 42.4748
26.2184 42.0053
26.2641 41.4906
26.31 41.031
26.3557 41.1195
26.4017 40.9418
26.4474 41.3994
26.4933 41.6895
26.5391 42.0574
26.585 42.5549
26.6308 42.8349
26.6767 43.0545
26.7225 43.1362
26.7684 42.5468
26.8142 41.948
26.8601 41.4749
26.9059 41.0954
26.9519 40.4908
26.9979 40.2136
27.0437 39.8333
27.0896 39.6277
27.1354 39.6409
27.1814 39.5744
27.2272 39.3987
27.2732 39.504
27.3191 39.1814
27.3651 39.3218
27.4109 39.2817
27.4569 39.3937
27.5027 39.2842
27.5488 39.5114
27.5946 39.2767
27.6407 39.1421
27.6865 39.0854
27.7326 38.8158
27.7784 38.8259
27.8245 38.6624
27.8703 38.932
27.9164 39.1555
27.9623 39.1875
28.0084 39.4711
28.0543 39.7408
28.1003 39.8744
28.1462 39.9081
28.1923 39.3258
28.2384 38.8673
28.2843 38.4921
28.3304 38.0833
28.3764 37.657
28.4225 37.4221
28.4684 37.2729
28.5145 36.7958
28.5605 36.6942
28.6066 36.5222
28.6526 36.4673
28.6987 36.4665
28.7447 36.3285
28.7908 36.2279
28.8368 36.1775
28.8829 36.2786
28.9289 36.1419
28.9751 36.025
29.0211 35.9165
29.0673 35.5679
29.1133 35.477
29.1595 35.3439
29.2055 35.0593
29.2517 35.1687
29.2977 35.1005
29.3439 35.0829
29.3899 35.0256
29.4361 34.887
29.4824 34.7587
29.5284 34.5297
29.5746 34.2648
29.6207 34.0448
29.6669 33.8869
29.713 33.7473
29.7593 33.7105
29.8053 33.7458
29.8516 33.515
29.8977 33.5048
29.9439 33.4126
29.99 33.3735
30.0363 33.2829
30.0824 33.4127
30.1287 33.2052
30.1748 33.2307
30.2211 33.2052
30.2673 33.0106
30.3136 33.1693
30.3597 33.0465
30.406 32.9987
30.4522 32.9175
30.4985 32.7967
30.5447 32.9123
30.591 32.8281
30.6372 32.9614
30.6835 32.9793
30.7297 32.9092
30.7761 32.9864
30.8224 32.7626
30.8686 32.6125
30.915 32.3686
30.9612 32.3262
31.0076 32.1047
31.0538 32.0046
31.1002 31.8018
31.1464 31.6347
31.1928 31.5934
31.2391 31.68
31.2855 31.5729
31.3317 31.5438
31.3781 31.6368
31.4244 31.5386
31.4708 31.5273
31.5171 31.4624
31.5636 31.4721
31.6098 31.2687
31.6563 31.0814
31.7026 31.0261
31.7491 30.8271
31.7953 30.8364
31.8418 30.8289
31.8881 30.8479
31.9346 30.8469
31.9809 30.6973
32.0275 30.5932
32.074 30.5481
32.1203 30.3767
32.1668 30.2398
32.2132 30.1427
32.2597 29.9789
32.306 29.9666
32.3526 29.6843
32.399 29.6157
32.4455 29.495
32.4919 29.4024
32.5385 29.2714
32.5848 29.1811
32.6314 29.1546
32.6778 29.148
32.7244 29.0363
32.7708 28.8884
32.8174 28.8192
32.8638 28.6593
32.9104 28.763
32.9569 28.6526
33.0035 28.6373
33.0499 28.4375
33.0966 28.4236
33.143 28.4021
33.1897 28.341
33.2361 28.188
33.2828 28.2121
33.3293 28.0359
33.3759 28.0689
33.4226 27.8831
33.4691 27.7602
33.5158 27.6681
33.5623 27.5493
33.609 27.3468
33.6555 27.3033
33.7022 27.1717
33.7487 27.1694
33.7954 27.0944
33.842 27.0113
33.8887 26.9542
33.9353 26.8703
33.982 26.7374
34.0286 26.6754
34.0753 26.6353
34.1219 26.5273
34.1687 26.4057
34.2152 26.3687
34.262 26.2686
34.3086 26.2106
34.3554 26.1514
34.402 26.0268
34.4488 25.9097
34.4954 25.8533
34.5422 25.7821
34.5889 25.722
34.6357 25.5852
34.6825 25.5247
34.7292 25.4628
34.776 25.2866
34.8227 25.2698
34.8695 25.2422
34.9162 25.1406
34.9631 25.0849
35.0098 25.0922
35.0566 24.9598
35.1033 24.9513
35.1502 24.856
35.1969 24.8088
35.2438 24.6834
35.2906 24.627
35.3375 24.6029
35.3842 24.5588
35.4311 24.5376
35.4779 24.4993
35.5248 24.4521
35.5716 24.3324
35.6185 24.2677
35.6653 24.1716
35.7123 24.0694
35.759 23.9527
35.806 23.9173
35.8528 23.7996
35.8998 23.7263
35.9468 23.6892
35.9936 23.6231
36.0406 23.5741
36.0874 23.5297
36.1345 23.3858
36.1813 23.3018
36.2283 23.2601
36.2752 23.1566
36.3222 23.1818
36.3691 23.0893
36.4161 23.0254
36.463 22.9076
36.5101 22.9517
36.557 22.8334
36.6041 22.666
36.651 22.712
36.6981 22.6096
36.745 22.5611
36.7921 22.5492
36.839 22.3467
36.8861 22.3631
36.9331 22.3057
36.9802 22.1491
37.0272 22.1459
37.0743 22.0322
37.1213 21.937
37.1684 21.9194
37.2154 21.8733
37.2626 21.7521
37.3098 21.6478
37.3568 21.579
37.404 21.5798
37.451 21.438
37.4982 21.4558
37.5452 21.2912
37.5924 21.3111
37.6395 21.3292
37.6867 21.1987
37.7337 21.1212
37.781 21.0636
37.8281 20.9276
37.8753 20.9117
37.9224 20.8642
37.9697 20.7226
38.0168 20.7383
38.064 20.6199
38.1111 20.4792
38.1584 20.4639
38.2056 20.4546
38.2529 20.4149
38.3 20.2681
38.3473 20.2858
38.3945 20.1706
38.4418 20.0428
38.489 20.0719
38.5363 19.938
38.5837 19.8417
38.6309 19.874
38.6782 19.8523
38.7254 19.7393
38.7728 19.6907
38.82 19.5997
38.8674 19.548
38.9146 19.481
38.9621 19.4187
39.0093 19.3782
39.0567 19.2887
39.104 19.2415
39.1514 19.1695
39.1987 19.1526
39.2461 19.0797
39.2934 18.9762
39.3409 18.821
39.3882 18.8675
39.4356 18.8379
39.483 18.7546
39.5304 18.7382
39.5778 18.5929
39.6253 18.5821
39.6726 18.5462
39.7201 18.4565
39.7675 18.4406
39.815 18.4194
39.8624 18.2527
39.9099 18.264
39.9575 18.2016
40.0049 18.0878
40.0525 18.0313
40.0999 18.0176
40.1474 17.9352
40.1949 17.8476
40.2425 17.7883
40.2899 17.7846
40.3375 17.7049
40.385 17.6758
40.4326 17.5742
40.48 17.5446
40.5277 17.5346
40.5752 17.4667
40.6228 17.3816
40.6703 17.3294
40.718 17.2626
40.7655 17.2632
40.8132 17.1451
40.8607 17.1199
40.9084 17.0708
40.9559 16.9798
41.0036 16.9499
41.0512 16.9009
41.0989 16.8648
41.1465 16.7653
41.1942 16.7448
41.242 16.6847
41.2896 16.6032
41.3373 16.5607
41.3849 16.5034
41.4327 16.4507
41.4803 16.3796
41.5281 16.3287
41.5758 16.25
41.6236 16.2024
41.6712 16.1338
41.7191 16.1357
41.7667 16.0249
41.8146 16.0637
41.8622 15.9683
41.9101 15.9289
41.9578 15.7512
42.0057 15.7909
42.0534 15.703
42.1013 15.7063
42.149 15.633
42.1969 15.5363
42.2446 15.5314
42.2925 15.4656
42.3403 15.4303
42.3882 15.395
42.436 15.352
42.4839 15.2364
42.5319 15.2418
42.5797 15.172
42.6277 15.1487
42.6755 15.0701
42.7235 15.0197
42.7713 15.0364
42.8193 14.9017
42.8671 14.8472
42.9152 14.8101
42.963 14.7442
43.0111 14.7127
43.0589 14.6461
43.107 14.6405
43.1549 14.57
43.2029 14.47
43.2508 14.4285
43.2989 14.4328
43.3468 14.3122
43.3949 14.3456
43.4429 14.2697
43.491 14.2286
43.5389 14.1444
43.5871 14.1189
43.635 14.0633
43.6832 14.0241
43.7312 13.9149
43.7793 13.8987
43.8273 13.8686
43.8755 13.7754
43.9237 13.7591
43.9717 13.6636
44.0199 13.6543
44.068 13.68
44.1162 13.5545
44.1642 13.5594
44.2125 13.5026
44.2606 13.487
44.3088 13.3793
44.3569 13.3568
44.4052 13.3249
44.4533 13.2704
44.5016 13.2434
44.5497 13.1672
44.598 13.1028
44.6461 13.0654
44.6945 13.0013
44.7426 12.9836
44.791 12.9503
44.8391 12.9474
44.8875 12.848
44.9357 12.8419
44.984 12.7438
45.0322 12.7317
45.0806 12.6611
45.1288 12.6173
45.1773 12.5612
45.2257 12.5336
45.2739 12.4742
45.3224 12.4113
45.3706 12.4161
45.4191 12.3476
45.4673 12.281
45.5158 12.235
45.5641 12.2034
45.6126 12.1896
45.6609 12.0912
45.7094 12.0486
45.7577 12.0233
45.8063 11.9727
45.8546 11.9983
45.9031 11.9208
45.9515 11.9121
46.0001 11.8461
46.0484 11.8155
46.097 11.7732
46.1454 11.7287
46.194 11.7214
46.2424 11.6254
46.291 11.5829
46.3395 11.5391
46.3881 11.5056
46.4365 11.4729
46.4852 11.42
46.5337 11.3586
46.5823 11.4082
46.631 11.3021
46.6795 11.302
46.7282 11.2011
46.7767 11.1702
46.8254 11.1086
46.8739 11.1096
46.9226 11.0026
46.9712 11.0212
47.0199 10.9439
47.0685 10.9401
47.1173 10.8716
47.1658 10.8293
47.2146 10.7833
47.2632 10.7564
47.312 10.7151
47.3606 10.6758
47.4095 10.5967
47.4581 10.6043
47.5069 10.5726
47.5556 10.5333
47.6044 10.4863
47.6531 10.4407
47.702 10.4308
47.7507 10.3786
47.7996 10.3337
47.8483 10.2986
47.8972 10.2957
47.9461 10.2227
47.9948 10.2117
48.0438 10.1564
48.0925 10.0991
48.1415 10.0699
48.1902 10.0417
48.2392 9.99303
48.288 9.97792
48.337 9.9318
48.3858 9.90202
48.4348 9.85538
48.4837 9.82006
48.5327 9.76861
48.5815 9.75876
48.6306 9.71306
48.6795 9.71052
48.7285 9.65709
48.7774 9.61391
48.8265 9.60523
48.8754 9.51206
48.9245 9.48324
48.9734 9.47271
49.0226 9.43912
49.0715 9.37153
49.1206 9.36969
49.1696 9.29426
49.2188 9.28736
49.2679 9.27552
49.3169 9.21241
49.3661 9.16079
49.4151 9.14432
49.4643 9.11114
49.5134 9.06767
49.5626 9.0117
49.6117 9.01862
49.6609 8.97108
49.71 8.92709
49.7592 8.88527
49.8083 8.84128
49.8576 8.80789
49.9067 8.75787
49.956 8.76337
50.0052 8.72055
50.0545 8.73259
50.1036 8.68001
50.153 8.63021
50.2022 8.627
50.2515 8.5643
50.3007 8.52437
50.3501 8.49022
50.3993 8.4206
50.4487 8.41449
50.498 8.40489
50.5474 8.37693
50.5966 8.34944
50.6461 8.33744
50.6955 8.2732
50.7448 8.24944
50.7943 8.20787
50.8436 8.21251
50.8931 8.1387
50.9424 8.10031
50.9919 8.08724
51.0413 8.06381
51.0908 8.00464
51.1402 8.00073
51.1897 7.9469
51.2391 7.93523
51.2887 7.88335
51.3381 7.84505
51.3877 7.81621
51.4371 7.76652
51.4867 7.7449
51.5362 7.72211
51.5858 7.6874
51.6353 7.6586
51.6849 7.62223
51.7344 7.61781
51.7841 7.59575
51.8336 7.53623
51.8833 7.51777
51.9328 7.48988
51.9826 7.47325
52.0323 7.39345
52.0818 7.41094
52.1316 7.31353
52.1812 7.35583
52.231 7.30873
52.2806 7.25117
52.3304 7.22288
52.38 7.22073
52.4298 7.2048
52.4794 7.12443
52.5293 7.12874
52.5789 7.09151
52.6288 7.02985
52.6785 6.98467
52.7284 7.01822
52.7781 6.96802
52.828 6.96197
52.8777 6.89651
52.9276 6.90625
52.9774 6.82145
53.0273 6.79858
53.0771 6.82909
53.1271 6.78031
53.1769 6.75397
53.2269 6.69207
53.2767 6.64771
53.3267 6.6311
53.3765 6.61104
53.4266 6.589
53.4766 6.5318
53.5265 6.52654
53.5765 6.53257
53.6264 6.52437
53.6765 6.4654
53.7264 6.41487
53.7765 6.42543
53.8265 6.35927
53.8766 6.33445
53.9266 6.33145
53.9767 6.25411
54.0267 6.28243
54.0769 6.21631
54.1269 6.1868
54.1771 6.18167
54.2271 6.12491
54.2773 6.13114
54.3274 6.10199
54.3776 6.03019
54.4277 6.02296
54.478 5.95154
54.528 5.94396
54.5783 5.88331
54.6285 5.8263
54.6788 5.76708
54.7289 5.74671
54.7792 5.69596
54.8296 5.66639
54.8798 5.64827
54.9301 5.57308
54.9803 5.5858
55.0307 5.54996
55.0809 5.50033
55.1314 5.50348
55.1816 5.42661
55.232 5.31697
55.2823 5.38686
55.3328 5.24675
55.383 5.19318
55.4335 5.21643
55.4838 5.12717
55.5344 5.07535
55.5847 5.01348
55.6352 4.99972
55.6856 4.98188
55.7361 4.90734