File: XRD/Ni3Fe_FD0773.xy
TT I
1.27165 7.06847
1.31627 6.01947
1.36089 6.53294
1.40551 5.94443
1.45013 5.74853
1.49476 6.23184
1.53938 5.86905
1.584 6.03459
1.62863 5.81617
1.67325 5.16395
1.71787 5.68746
1.7625 4.78488
1.80712 4.92624
1.85174 4.2766
1.89636 4.28158
1.94099 5.04108
1.98562 4.9161
2.03025 4.89982
2.07487 4.81697
2.11949 4.31554
2.16411 4.63461
2.20874 16.629
2.25338 29.216
2.298 6.97943
2.34263 5.80973
2.38725 5.86941
2.43188 6.47104
2.4765 7.15141
2.52115 6.65209
2.56577 7.22804
2.6104 8.41264
2.65503 7.83337
2.69965 8.41527
2.7443 8.021
2.78893 8.22323
2.83356 8.60241
2.87818 9.8818
2.92281 9.05386
2.96744 9.40134
3.01209 10.4778
3.05672 11.1901
3.10135 12.1877
3.14599 13.1466
3.19062 14.4695
3.23527 15.1624
3.2799 16.0882
3.32454 16.5861
3.36917 17.553
3.4138 18.7672
3.45844 20.0712
3.50309 21.4831
3.54773 21.9956
3.59237 24.1946
3.637 114.477
3.68164 69.9556
3.7263 26.6261
3.77094 26.3346
3.81558 27.1916
3.86022 27.7944
3.90486 29.134
3.9495 29.9827
3.99416 31.0381
4.0388 32.3522
4.08344 33.5322
4.12809 34.4948
4.17273 37.3507
4.21738 43.8532
4.26204 307.186
4.30669 274.616
4.35133 50.4522
4.39598 44.581
4.44063 56.1503
4.4853 71.362
4.52995 50.0432
4.5746 50.6469
4.61925 52.3552
4.6639 55.2055
4.70855 57.4847
4.75322 59.7951
4.79788 62.7255
4.84253 65.982
4.88719 70.2245
4.93184 73.9556
4.97652 78.9986
5.02118 84.6315
5.06583 91.8915
5.11049 102.938
5.15515 182.694
5.19981 299.894
5.24449 2371.87
5.28916 12859.6
5.33382 3046.26
5.37848 185.883
5.42315 126.509
5.46783 111.526
5.5125 103.966
5.55716 100.583
5.60183 97.043
5.6465 95.4017
5.69117 91.9798
5.73586 90.7742
5.78053 89.2824
5.8252 89.4109
5.86988 89.4608
5.91455 91.5806
5.95924 97.7254
6.00392 177.04
6.0486 815.1
6.09328 4250.29
6.13795 3305.05
6.18263 242.702
6.22733 91.3997
6.27201 82.7394
6.3167 109.477
6.36138 82.4802
6.40606 68.8407
6.45075 67.0836
6.49545 64.8105
6.54014 63.3527
6.58483 62.6018
6.62952 62.6281
6.67421 102.251
6.71892 170.397
6.76361 72.1052
6.8083 58.8081
6.853 57.2545
6.89769 56.5977
6.94239 56.1568
6.98711 55.6915
7.03181 55.1832
7.07651 55.2311
7.12121 54.9657
7.16591 55.2477
7.21063 55.7339
7.25533 73.8613
7.30004 217.736
7.34475 103.083
7.38945 56.8961
7.43416 54.5148
7.47889 54.1416
7.5236 54.6674
7.56831 55.2384
7.61303 57.1914
7.65774 57.8985
7.70247 55.8549
7.74719 55.8625
7.79191 56.2208
7.83663 56.6052
7.88135 57.4996
7.92607 58.273
7.97081 59.5611
8.01553 60.3837
8.06026 61.491
8.10498 63.261
8.14971 75.1469
8.19446 73.4674
8.23919 68.5704
8.28392 70.9821
8.32865 72.9925
8.37339 77.0681
8.41812 84.2102
8.46288 118.255
8.50761 149.699
8.55235 337.019
8.59709 1077.65
8.64183 2231.94
8.68658 1054.57
8.73134 169.17
8.77609 97.9971
8.82083 91.6013
8.86558 88.312
8.91033 89.4591
8.9551 92.2863
8.99985 84.8347
9.04461 82.4569
9.08936 81.9302
9.13412 81.0192
9.17888 80.8599
9.22365 82.0806
9.26841 81.035
9.31318 80.9896
9.35794 81.4044
9.4027 82.0547
9.44749 82.5172
9.49226 83.1815
9.53703 84.3503
9.5818 86.0157
9.62657 91.8544
9.67134 100.184
9.71614 92.9793
9.76091 92.5568
9.80569 95.0061
9.85047 98.4798
9.89525 127.769
9.94005 140.491
9.98484 157.83
10.0296 296.115
10.0744 732.745
10.1192 1707.83
10.164 1650.97
10.2088 406.841
10.2536 125.973
10.2984 113.666
10.3432 117.007
10.388 103.75
10.4328 111.66
10.4776 147.805
10.5224 259.989
10.5672 518.724
10.612 521.98
10.6568 207.393
10.7017 96.0267
10.7465 85.8662
10.7913 82.3383
10.8361 80.0452
10.8809 78.3736
10.9257 78.3848
10.9706 79.5589
11.0154 74.6358
11.0602 72.0948
11.105 71.3788
11.1499 77.102
11.1947 87.2499
11.2395 75.997
11.2844 71.1489
11.3292 66.9215
11.374 65.5952
11.4189 64.8412
11.4637 64.3271
11.5086 65.1865
11.5534 69.1215
11.5983 65.8386
11.6431 63.1463
11.688 62.4151
11.7328 62.4376
11.7777 62.5629
11.8225 61.7979
11.8674 61.8155
11.9122 62.2607
11.9571 62.2789
12.002 62.7492
12.0468 65.7572
12.0917 75.3849
12.1366 97.2855
12.1814 146.087
12.2263 211.36
12.2712 175.497
12.3161 102.454
12.3609 71.9521
12.4058 64.4073
12.4507 63.9447
12.4956 63.88
12.5405 63.992
12.5853 65.3218
12.6302 74.7929
12.6751 81.9718
12.72 70.5433
12.7649 67.312
12.8098 67.6265
12.8547 68.8387
12.8996 70.2676
12.9445 71.1211
12.9894 72.8344
13.0343 74.7707
13.0792 77.5532
13.1242 84.4696
13.1691 105.48
13.214 138.11
13.2589 221.696
13.3038 361.691
13.3487 439.464
13.3937 279.736
13.4386 127.152
13.4835 101.966
13.5285 113.308
13.5734 147.118
13.6183 232.138
13.6633 345.619
13.7082 348.492
13.7531 190.818
13.7981 98.2661
13.843 81.1006
13.888 78.8326
13.9329 76.165
13.9779 74.6431
14.0228 73.3936
14.0678 72.1458
14.1127 71.8152
14.1577 71.9364
14.2027 70.9523
14.2476 69.7679
14.2926 70.1682
14.3376 71.6083
14.3825 69.7947
14.4275 68.0924
14.4725 67.8593
14.5175 68.1294
14.5624 68.263
14.6074 70.8346
14.6524 71.5135
14.6974 69.5332
14.7424 70.4017
14.7874 75.9964
14.8324 84.8801
14.8774 104.426
14.9224 145.188
14.9674 204.569
15.0124 222.512
15.0574 151.761
15.1024 91.7514
15.1474 71.8442
15.1924 70.1068
15.2374 71.1683
15.2824 70.4066
15.3274 67.9028
15.3725 66.2807
15.4175 65.7399
15.4625 65.5697
15.5076 66.0313
15.5526 65.5737
15.5976 64.9088
15.6426 65.363
15.6877 69.7132
15.7327 76.2182
15.7778 90.1052
15.8228 120.081
15.8679 164.87
15.9129 194.919
15.958 160.005
16.003 98.768
16.0481 68.83
16.0931 65.0515
16.1382 62.92
16.1833 60.2914
16.2283 58.597
16.2734 57.9583
16.3185 58.5255
16.3636 59.6317
16.4086 57.8619
16.4537 55.8089
16.4988 55.2476
16.5439 54.993
16.589 54.7012
16.6341 54.4414
16.6792 54.1219
16.7243 54.415
16.7694 54.6128
16.8145 54.4513
16.8596 54.9882
16.9047 56.7894
16.9498 57.1065
16.9949 55.4686
17.04 55.3082
17.0851 55.965
17.1302 57.7376
17.1754 60.4621
17.2205 65.3955
17.2656 73.094
17.3108 82.4666
17.3559 82.8921
17.401 70.9132
17.4462 61.5967
17.4913 58.7155
17.5365 58.4659
17.5815 58.6134
17.6268 59.063
17.6718 59.8914
17.7171 60.3787
17.7622 60.6854
17.8074 60.8486
17.8525 62.4883
17.8977 66.4314
17.9428 71.4425
17.9881 79.4687
18.0331 95.5231
18.0784 118.932
18.1237 139.721
18.1688 132.743
18.214 103.772
18.2591 85.0635
18.3044 88.452
18.3495 99.1962
18.3948 107.208
18.4399 97.4277
18.4852 78.346
18.5303 66.0158
18.5756 61.7696
18.6207 60.6894
18.666 59.9707
18.7112 59.1434
18.7565 58.3925
18.8016 58.0769
18.8469 57.5365
18.892 57.1584
18.9374 56.8307
18.9825 56.594
19.0278 56.2302
19.073 56.5873
19.1183 57.0044
19.1635 57.6653
19.2088 58.7269
19.254 60.7674
19.2993 65.1929
19.3447 72.157
19.3898 76.8882
19.4352 72.6582
19.4804 63.2784
19.5257 56.4514
19.5709 53.9082
19.6163 53.4314
19.6615 53.2578
19.7068 52.8273
19.752 52.6965
19.7974 52.9803
19.8426 53.8601
19.888 54.4329
19.9332 55.3793
19.9786 57.7825
20.0238 61.1596
20.0692 66.4156
20.1144 69.5169
20.1598 68.0467
20.205 63.038
20.2504 61.2217
20.2957 63.2144
20.3411 65.5885
20.3863 64.5407
20.4318 58.5254
20.477 53.5494
20.5224 51.5104
20.5677 50.8439
20.6131 49.7461
20.6586 49.2685
20.7038 49.2327
20.7493 48.8181
20.7945 48.5047
20.84 48.2909
20.8853 48.3744
20.9307 48.081
20.976 48.2937
21.0215 48.2059
21.0668 48.6112
21.1122 48.9999
21.1575 49.6451
21.203 50.4209
21.2483 50.9092
21.2938 51.1603
21.3391 49.7506
21.3846 48.5391
21.4299 48.0853
21.4754 47.9877
21.5207 47.9686
21.5662 48.3425
21.6116 48.5084
21.6571 49.0779
21.7024 50.0678
21.7479 51.7525
21.7933 54.2245
21.8388 57.9508
21.8843 62.2176
21.9297 64.3165
21.9752 62.979
22.0206 59.4285
22.0661 56.2745
22.1115 55.6681
22.157 55.7551
22.2024 54.2688
22.248 51.1528
22.2933 49.5767
22.3389 48.8335
22.3843 48.7038
22.4299 48.6287
22.4753 48.5818
22.5208 48.2192
22.5662 48.1065
22.6118 48.3105
22.6572 48.3817
22.7028 48.7108
22.7483 48.9936
22.7939 49.648
22.8393 51.0866
22.8849 53.2286
22.9303 55.6469
22.9759 57.7316
23.0214 57.5935
23.067 54.6498
23.1126 50.9721
23.1581 48.8934
23.2037 48.4185
23.2492 48.4326
23.2948 48.3353
23.3403 48.4806
23.3859 48.953
23.4314 49.8917
23.477 51.7975
23.5225 53.9172
23.5682 56.522
23.6137 58.0599
23.6593 55.7864
23.7048 51.6526
23.7505 48.2254
23.796 46.388
23.8417 45.7317
23.8872 45.2794
23.9329 44.9615
23.9784 44.6304
24.0241 44.4096
24.0697 44.2786
24.1154 43.6862
24.1609 43.6993
24.2066 43.3867
24.2522 43.3748
24.2979 43.1413
24.3434 43.1042
24.3892 43.0439
24.4349 42.7162
24.4805 42.5568
24.5262 42.7194
24.5718 42.5552
24.6175 42.6743
24.6631 42.4071
24.7089 42.2525
24.7545 42.0499
24.8002 41.9134
24.8458 41.9249
24.8916 41.6687
24.9372 41.8732
24.983 41.988
25.0286 42.3206
25.0744 42.7862
25.12 43.35
25.1658 43.9092
25.2114 44.1232
25.2572 44.4705
25.3029 44.4098
25.3487 44.8081
25.3943 44.5404
25.4402 43.5024
25.4858 42.2689
25.5316 41.2518
25.5773 40.5129
25.6231 40.5535
25.669 40.252
25.7147 40.1973
25.7605 40.2027
25.8062 40.2527
25.8521 40.3948
25.8977 40.2923
25.9436 40.4974
25.9893 40.5098
26.0352 41.1355
26.0809 41.1692
26.1268 41.4639
26.1725 41.0694
26.2184 40.4363
26.2641 40.1297
26.31 39.8288
26.3557 39.7286
26.4017 39.8307
26.4474 40.0469
26.4933 40.3307
26.5391 40.8555
26.585 41.3004
26.6308 41.7667
26.6767 41.8746
26.7225 41.805
26.7684 41.1516
26.8142 40.5365
26.8601 40.1819
26.9059 39.8771
26.9519 39.3443
26.9979 38.9562
27.0437 38.5439
27.0896 38.3688
27.1354 38.4246
27.1814 38.2155
27.2272 38.2684
27.2732 38.2163
27.3191 38.0506
27.3651 38.1072
27.4109 37.9877
27.4569 38.1747
27.5027 38.2632
27.5488 38.3783
27.5946 38.0451
27.6407 37.7971
27.6865 37.6585
27.7326 37.6198
27.7784 37.5982
27.8245 37.4949
27.8703 37.5358
27.9164 38.0072
27.9623 38.0981
28.0084 38.4061
28.0543 38.9137
28.1003 38.78
28.1462 38.5784
28.1923 38.2751
28.2384 37.8107
28.2843 37.3985
28.3304 36.9187
28.3764 36.4904
28.4225 36.2081
28.4684 36.1468
28.5145 35.7867
28.5605 35.7756
28.6066 35.4407
28.6526 35.4047
28.6987 35.4272
28.7447 35.2848
28.7908 35.263
28.8368 35.2155
28.8829 35.2131
28.9289 35.0952
28.9751 34.9729
29.0211 34.6071
29.0673 34.5032
29.1133 34.2979
29.1595 34.1461
29.2055 34.1621
29.2517 33.92
29.2977 34.2303
29.3439 34.038
29.3899 34.1074
29.4361 33.9441
29.4824 33.7562
29.5284 33.6753
29.5746 33.2617
29.6207 32.9359
29.6669 32.9426
29.713 32.7942
29.7593 32.6217
29.8053 32.768
29.8516 32.6166
29.8977 32.4753
29.9439 32.3491
29.99 32.3066
30.0363 32.227
30.0824 32.3686
30.1287 32.1638
30.1748 32.1795
30.2211 32.2053
30.2673 32.0802
30.3136 32.1874
30.3597 32.0064
30.406 32.0106
30.4522 31.8842
30.4985 31.7248
30.5447 31.8512
30.591 31.9695
30.6372 31.991
30.6835 31.9268
30.7297 31.9165
30.7761 31.9613
30.8224 31.8455
30.8686 31.6186
30.915 31.371
30.9612 31.3189
31.0076 31.2339
31.0538 31.0105
31.1002 30.8653
31.1464 30.7726
31.1928 30.7057
31.2391 30.7409
31.2855 30.5907
31.3317 30.6001
31.3781 30.6685
31.4244 30.6331
31.4708 30.6212
31.5171 30.6084
31.5636 30.6446
31.6098 30.3212
31.6563 30.1315
31.7026 29.9969
31.7491 29.9485
31.7953 29.9732
31.8418 29.9465
31.8881 29.9694
31.9346 29.9129
31.9809 29.8138
32.0275 29.6652
32.074 29.6846
32.1203 29.4226
32.1668 29.4283
32.2132 29.1224
32.2597 29.1739
32.306 29.0328
32.3526 28.7984
32.399 28.6891
32.4455 28.6266
32.4919 28.6085
32.5385 28.4173
32.5848 28.2781
32.6314 28.2406
32.6778 28.1641
32.7244 28.046
32.7708 27.895
32.8174 27.9516
32.8638 27.786
32.9104 27.9535
32.9569 27.7723
33.0035 27.613
33.0499 27.6219
33.0966 27.5601
33.143 27.5542
33.1897 27.4747
33.2361 27.4226
33.2828 27.3905
33.3293 27.231
33.3759 27.1678
33.4226 27.0391
33.4691 26.8739
33.5158 26.8698
33.5623 26.7984
33.609 26.616
33.6555 26.5133
33.7022 26.5254
33.7487 26.3315
33.7954 26.3038
33.842 26.1785
33.8887 26.2282
33.9353 26.0671
33.982 25.8899
34.0286 25.9498
34.0753 25.8018
34.1219 25.7554
34.1687 25.6753
34.2152 25.6377
34.262 25.4574
34.3086 25.3554
34.3554 25.3642
34.402 25.281
34.4488 25.1048
34.4954 25.0475
34.5422 25.0696
34.5889 24.8899
34.6357 24.8343
34.6825 24.7377
34.7292 24.6536
34.776 24.6095
34.8227 24.4686
34.8695 24.5671
34.9162 24.4732
34.9631 24.271
35.0098 24.2952
35.0566 24.1611
35.1033 24.1631
35.1502 24.1349
35.1969 24.0394
35.2438 23.935
35.2906 23.9454
35.3375 23.8178
35.3842 23.8249
35.4311 23.7847
35.4779 23.7689
35.5248 23.8041
35.5716 23.6363
35.6185 23.5069
35.6653 23.3986
35.7123 23.3705
35.759 23.2252
35.806 23.179
35.8528 23.1174
35.8998 23.068
35.9468 22.935
35.9936 22.9469
36.0406 22.884
36.0874 22.8525
36.1345 22.8412
36.1813 22.6517
36.2283 22.6282
36.2752 22.4928
36.3222 22.5448
36.3691 22.3607
36.4161 22.3165
36.463 22.3044
36.5101 22.2962
36.557 22.167
36.6041 22.0266
36.651 22.094
36.6981 21.9426
36.745 21.895
36.7921 21.8905
36.839 21.7742
36.8861 21.6758
36.9331 21.541
36.9802 21.4922
37.0272 21.4795
37.0743 21.3292
37.1213 21.318
37.1684 21.3124
37.2154 21.1902
37.2626 21.1418
37.3098 21.0685
37.3568 21.0437
37.404 20.8823
37.451 20.8514
37.4982 20.8203
37.5452 20.7138
37.5924 20.6783
37.6395 20.7325
37.6867 20.5832
37.7337 20.4905
37.781 20.4181
37.8281 20.3662
37.8753 20.2363
37.9224 20.1988
37.9697 20.1693
38.0168 20.0755
38.064 20.0872
38.1111 19.9995
38.1584 19.9302
38.2056 19.8153
38.2529 19.7638
38.3 19.7385
38.3473 19.6934
38.3945 19.5262
38.4418 19.5048
38.489 19.48
38.5363 19.3781
38.5837 19.3041
38.6309 19.3048
38.6782 19.2636
38.7254 19.1167
38.7728 19.0628
38.82 19.0304
38.8674 19.0195
38.9146 18.8706
38.9621 18.842
39.0093 18.7926
39.0567 18.7476
39.104 18.6568
39.1514 18.5587
39.1987 18.5938
39.2461 18.5053
39.2934 18.4246
39.3409 18.3076
39.3882 18.2736
39.4356 18.2774
39.483 18.1787
39.5304 18.1601
39.5778 18.0643
39.6253 18.0129
39.6726 17.9683
39.7201 17.9499
39.7675 17.8964
39.815 17.827
39.8624 17.7687
39.9099 17.6927
39.9575 17.6302
40.0049 17.5787
40.0525 17.4649
40.0999 17.5097
40.1474 17.443
40.1949 17.3362
40.2425 17.2879
40.2899 17.2524
40.3375 17.2325
40.385 17.1309
40.4326 17.0443
40.48 17.0031
40.5277 16.9815
40.5752 16.9238
40.6228 16.8519
40.6703 16.809
40.718 16.782
40.7655 16.7749
40.8132 16.6453
40.8607 16.6431
40.9084 16.6046
40.9559 16.4727
41.0036 16.4482
41.0512 16.3873
41.0989 16.338
41.1465 16.3293
41.1942 16.2521
41.242 16.0891
41.2896 16.1257
41.3373 16.0423
41.3849 15.9977
41.4327 15.9915
41.4803 15.8933
41.5281 15.8726
41.5758 15.773
41.6236 15.7415
41.6712 15.6722
41.7191 15.6309
41.7667 15.5834
41.8146 15.5696
41.8622 15.5366
41.9101 15.4683
41.9578 15.3739
42.0057 15.4124
42.0534 15.3063
42.1013 15.2531
42.149 15.1878
42.1969 15.0744
42.2446 15.0854
42.2925 15.0406
42.3403 14.9825
42.3882 14.9335
42.436 14.9184
42.4839 14.8898
42.5319 14.7825
42.5797 14.7395
42.6277 14.6956
42.6755 14.6404
42.7235 14.605
42.7713 14.5661
42.8193 14.4844
42.8671 14.4187
42.9152 14.3953
42.963 14.3454
43.0111 14.2442
43.0589 14.2936
43.107 14.1528
43.1549 14.1103
43.2029 14.0962
43.2508 14.0647
43.2989 14.0277
43.3468 13.9623
43.3949 13.9021
43.4429 13.8641
43.491 13.7879
43.5389 13.7677
43.5871 13.7173
43.635 13.6854
43.6832 13.6054
43.7312 13.5371
43.7793 13.5196
43.8273 13.5417
43.8755 13.4444
43.9237 13.3913
43.9717 13.3596
44.0199 13.3006
44.068 13.2701
44.1162 13.1942
44.1642 13.2015
44.2125 13.1421
44.2606 13.0799
44.3088 13.0033
44.3569 12.9846
44.4052 12.9352
44.4533 12.8535
44.5016 12.8284
44.5497 12.815
44.598 12.7624
44.6461 12.6942
44.6945 12.6287
44.7426 12.618
44.791 12.5458
44.8391 12.529
44.8875 12.4946
44.9357 12.4263
44.984 12.4013
45.0322 12.3554
45.0806 12.2848
45.1288 12.2606
45.1773 12.1883
45.2257 12.2024
45.2739 12.1144
45.3224 12.0452
45.3706 12.0699
45.4191 12.0224
45.4673 11.991
45.5158 11.9175
45.5641 11.847
45.6126 11.8932
45.6609 11.7558
45.7094 11.7734
45.7577 11.7188
45.8063 11.6383
45.8546 11.6695
45.9031 11.5641
45.9515 11.5369
46.0001 11.5095
46.0484 11.4632
46.097 11.4525
46.1454 11.4016
46.194 11.3342
46.2424 11.2716
46.291 11.2141
46.3395 11.1977
46.3881 11.1599
46.4365 11.1433
46.4852 11.1229
46.5337 11.0501
46.5823 11.0065
46.631 10.9729
46.6795 10.9414
46.7282 10.9224
46.7767 10.853
46.8254 10.8153
46.8739 10.7729
46.9226 10.7156
46.9712 10.6919
47.0199 10.6178
47.0685 10.618
47.1173 10.571
47.1658 10.5396
47.2146 10.4708
47.2632 10.4439
47.312 10.4518
47.3606 10.3342
47.4095 10.3483
47.4581 10.3208
47.5069 10.2742
47.5556 10.2247
47.6044 10.1871
47.6531 10.1446
47.702 10.0924
47.7507 10.0795
47.7996 10.0437
47.8483 9.98752
47.8972 9.97563
47.9461 9.94387
47.9948 9.88538
48.0438 9.92394
48.0925 9.85805
48.1415 9.79862
48.1902 9.7582
48.2392 9.74046
48.288 9.6908
48.337 9.67905
48.3858 9.66012
48.4348 9.60363
48.4837 9.56361
48.5327 9.50936
48.5815 9.45922
48.6306 9.48572
48.6795 9.37627
48.7285 9.35841
48.7774 9.39625
48.8265 9.34743
48.8754 9.27235
48.9245 9.24266
48.9734 9.19104
49.0226 9.18335
49.0715 9.14376
49.1206 9.08817
49.1696 9.05474
49.2188 9.05443
49.2679 9.00283
49.3169 8.98343
49.3661 8.94104
49.4151 8.90254
49.4643 8.88612
49.5134 8.82819
49.5626 8.8054
49.6117 8.76208
49.6609 8.74563
49.71 8.67972
49.7592 8.64264
49.8083 8.65034
49.8576 8.57349
49.9067 8.5384
49.956 8.51771
50.0052 8.48909
50.0545 8.46563
50.1036 8.41773
50.153 8.40534
50.2022 8.37053
50.2515 8.30622
50.3007 8.2935
50.3501 8.27292
50.3993 8.22203
50.4487 8.24406
50.498 8.18109
50.5474 8.12843
50.5966 8.10547
50.6461 8.10632
50.6955 8.05428
50.7448 8.03068
50.7943 8.0154
50.8436 7.93061
50.8931 7.91155
50.9424 7.88349
50.9919 7.87002
51.0413 7.82359
51.0908 7.81801
51.1402 7.82547
51.1897 7.73393
51.2391 7.67774
51.2887 7.68855
51.3381 7.62193
51.3877 7.59808
51.4371 7.53734
51.4867 7.52528
51.5362 7.534
51.5858 7.50092
51.6353 7.41913
51.6849 7.42037
51.7344 7.36662
51.7841 7.4241
51.8336 7.32993
51.8833 7.30638
51.9328 7.26757
51.9826 7.20333
52.0323 7.23642
52.0818 7.18649
52.1316 7.12778
52.1812 7.14678
52.231 7.09788
52.2806 7.03119
52.3304 7.00826
52.38 6.97437
52.4298 6.96213
52.4794 6.9453
52.5293 6.90066
52.5789 6.92371
52.6288 6.88033
52.6785 6.83219
52.7284 6.84215
52.7781 6.76617
52.828 6.77152
52.8777 6.71603
52.9276 6.69187
52.9774 6.6844
53.0273 6.68085
53.0771 6.64414
53.1271 6.6235
53.1769 6.55253
53.2269 6.53036
53.2767 6.4881
53.3267 6.46609
53.3765 6.40444
53.4266 6.42405
53.4766 6.40516
53.5265 6.33845
53.5765 6.34627
53.6264 6.32285
53.6765 6.26641
53.7264 6.25405
53.7765 6.21475
53.8265 6.20374
53.8766 6.18177
53.9266 6.16044
53.9767 6.14289
54.0267 6.09135
54.0769 6.07035
54.1269 6.00699
54.1771 5.97859
54.2271 5.9917
54.2773 5.95216
54.3274 5.94984
54.3776 5.86668
54.4277 5.85287
54.478 5.79525
54.528 5.79875
54.5783 5.72539
54.6285 5.68821
54.6788 5.67446
54.7289 5.63187
54.7792 5.58058
54.8296 5.54105
54.8798 5.47936
54.9301 5.46453
54.9803 5.42324
55.0307 5.42736
55.0809 5.31516
55.1314 5.35349
55.1816 5.2103
55.232 5.24085
55.2823 5.17248
55.3328 5.16273
55.383 5.05296
55.4335 5.00342
55.4838 5.00046
55.5344 4.95596
55.5847 4.89469
55.6352 4.90011
55.6856 4.82308
55.7361 4.78255