File: XRD/Ni3Fe_FD0904.xy
TT I
1.27165 7.93051
1.31627 6.99251
1.36089 6.97297
1.40551 5.79138
1.45013 6.4396
1.49476 5.77763
1.53938 5.59458
1.584 5.13152
1.62863 5.21015
1.67325 5.09322
1.71787 4.86404
1.7625 4.65678
1.80712 5.00391
1.85174 4.59326
1.89636 4.53104
1.94099 4.42488
1.98562 4.0922
2.03025 4.11883
2.07487 4.43112
2.11949 4.51361
2.16411 4.65295
2.20874 12.0006
2.25338 16.265
2.298 6.15059
2.34263 5.29133
2.38725 5.55597
2.43188 6.16907
2.4765 7.32329
2.52115 7.32271
2.56577 7.87836
2.6104 8.84336
2.65503 7.92327
2.69965 8.60011
2.7443 8.13728
2.78893 8.95668
2.83356 9.10739
2.87818 9.53171
2.92281 9.25243
2.96744 9.71029
3.01209 10.693
3.05672 11.1286
3.10135 12.6693
3.14599 12.8504
3.19062 14.4494
3.23527 15.2621
3.2799 15.244
3.32454 16.5202
3.36917 17.8482
3.4138 18.2189
3.45844 19.3683
3.50309 20.6382
3.54773 21.418
3.59237 23.144
3.637 67.3063
3.68164 45.257
3.7263 25.6426
3.77094 25.7961
3.81558 26.3804
3.86022 27.1354
3.90486 28.265
3.9495 29.5552
3.99416 30.4463
4.0388 31.7805
4.08344 33.0938
4.12809 34.3519
4.17273 36.0938
4.21738 40.8364
4.26204 172.705
4.30669 149.156
4.35133 45.5022
4.39598 43.5914
4.44063 50.5159
4.4853 58.0879
4.52995 51.6061
4.5746 52.5444
4.61925 52.8368
4.6639 54.539
4.70855 57.174
4.75322 60.3293
4.79788 64.69
4.84253 66.9271
4.88719 71.94
4.93184 74.6212
4.97652 79.4705
5.02118 85.673
5.06583 93.054
5.11049 103.1
5.15515 156.14
5.19981 336.489
5.24449 2691.17
5.28916 13713.6
5.33382 2557.7
5.37848 172.548
5.42315 124.284
5.46783 112.285
5.5125 105.158
5.55716 100.615
5.60183 96.3425
5.6465 94.6489
5.69117 92.5634
5.73586 90.6403
5.78053 91.9354
5.8252 91.4906
5.86988 92.5189
5.91455 92.3978
5.95924 101.336
6.00392 205.405
6.0486 917.038
6.09328 4575.44
6.13795 3000.97
6.18263 195.551
6.22733 88.1596
6.27201 79.357
6.3167 89.6406
6.36138 75.7182
6.40606 68.1062
6.45075 66.8194
6.49545 64.1931
6.54014 62.8257
6.58483 61.5716
6.62952 61.7551
6.67421 81.5598
6.71892 111.211
6.76361 63.9923
6.8083 57.4184
6.853 57.2601
6.89769 56.0283
6.94239 55.6967
6.98711 54.806
7.03181 54.7882
7.07651 53.7081
7.12121 53.988
7.16591 54.2861
7.21063 54.3605
7.25533 64.5298
7.30004 129.023
7.34475 76.2307
7.38945 54.7497
7.43416 53.1684
7.47889 53.1969
7.5236 53.6132
7.56831 54.2539
7.61303 55.5044
7.65774 55.4568
7.70247 55.3813
7.74719 55.591
7.79191 55.7537
7.83663 55.8308
7.88135 56.8082
7.92607 58.0071
7.97081 58.9334
8.01553 60.06
8.06026 61.5086
8.10498 63.0264
8.14971 70.062
8.19446 69.8042
8.23919 68.399
8.28392 70.5317
8.32865 73.2353
8.37339 77.0375
8.41812 82.9975
8.46288 105.272
8.50761 163.583
8.55235 363.907
8.59709 1193.37
8.64183 2293.94
8.68658 858.554
8.73134 145.218
8.77609 95.9148
8.82083 90.3114
8.86558 88.882
8.91033 88.3719
8.9551 88.267
8.99985 83.9408
9.04461 82.3706
9.08936 82.1249
9.13412 80.7929
9.17888 80.6809
9.22365 81.6512
9.26841 80.9244
9.31318 81.7192
9.35794 82.6105
9.4027 82.7378
9.44749 83.2165
9.49226 83.423
9.53703 84.2222
9.5818 86.7603
9.62657 90.5522
9.67134 94.3704
9.71614 91.5674
9.76091 92.8406
9.80569 95.9117
9.85047 98.6106
9.89525 115.324
9.94005 127.747
9.98484 175.881
10.0296 326.803
10.0744 813.642
10.1192 1844.11
10.164 1477.14
10.2088 323.271
10.2536 117.792
10.2984 108.424
10.3432 108.928
10.388 102.806
10.4328 117.158
10.4776 156.445
10.5224 286.383
10.5672 541.273
10.612 491.336
10.6568 181.294
10.7017 92.4317
10.7465 84.6276
10.7913 81.235
10.8361 79.2419
10.8809 77.63
10.9257 76.62
10.9706 76.6021
11.0154 73.6366
11.0602 71.6586
11.105 70.5771
11.1499 72.7742
11.1947 76.4867
11.2395 70.7799
11.2844 68.0997
11.3292 66.0113
11.374 64.9406
11.4189 64.5488
11.4637 63.7722
11.5086 63.7461
11.5534 65.6874
11.5983 63.8108
11.6431 62.7058
11.688 61.6049
11.7328 61.9396
11.7777 61.7436
11.8225 61.3836
11.8674 61.4629
11.9122 61.3982
11.9571 61.6926
12.002 62.6818
12.0468 66.5727
12.0917 76.7787
12.1366 101.049
12.1814 156.281
12.2263 216.894
12.2712 153.873
12.3161 86.2973
12.3609 66.6448
12.4058 63.0614
12.4507 63.1016
12.4956 63.4037
12.5405 63.1615
12.5853 64.2725
12.6302 69.2131
12.6751 72.5564
12.72 67.51
12.7649 66.6802
12.8098 67.4076
12.8547 68.5651
12.8996 69.9709
12.9445 71.1609
12.9894 72.7499
13.0343 74.7292
13.0792 78.1931
13.1242 87.8588
13.1691 108.798
13.214 144.343
13.2589 242.577
13.3038 392.036
13.3487 425.304
13.3937 231.252
13.4386 113.456
13.4835 103.011
13.5285 117.132
13.5734 155.334
13.6183 257.275
13.6633 374.936
13.7082 333.491
13.7531 167.187
13.7981 91.5062
13.843 79.8092
13.888 77.6592
13.9329 75.4826
13.9779 74.6354
14.0228 72.9682
14.0678 71.5918
14.1127 71.4014
14.1577 70.8169
14.2027 69.9659
14.2476 69.1337
14.2926 68.957
14.3376 69.6047
14.3825 68.6331
14.4275 67.8955
14.4725 67.6567
14.5175 67.8155
14.5624 67.6764
14.6074 69.3278
14.6524 69.7998
14.6974 69.2056
14.7424 71.1373
14.7874 77.734
14.8324 86.9573
14.8774 109.403
14.9224 157.619
14.9674 218.569
15.0124 214.751
15.0574 136.926
15.1024 83.7804
15.1474 70.2644
15.1924 68.9216
15.2374 69.0996
15.2824 68.1431
15.3274 66.4184
15.3725 65.4432
15.4175 65.317
15.4625 64.8838
15.5076 64.7388
15.5526 64.9405
15.5976 64.723
15.6426 66.0664
15.6877 71.0976
15.7327 78.0252
15.7778 93.2273
15.8228 127.778
15.8679 176.265
15.9129 194.113
15.958 146.631
16.003 89.0074
16.0481 65.0571
16.0931 62.4046
16.1382 60.8466
16.1833 59.2464
16.2283 57.6943
16.2734 57.1176
16.3185 57.1766
16.3636 57.4548
16.4086 56.1693
16.4537 54.9784
16.4988 54.4833
16.5439 54.3483
16.589 54.1844
16.6341 53.9093
16.6792 53.3589
16.7243 53.8879
16.7694 53.6982
16.8145 53.6838
16.8596 53.9656
16.9047 55.1663
16.9498 55.3302
16.9949 54.2774
17.04 54.9
17.0851 55.9881
17.1302 57.4094
17.1754 60.5373
17.2205 65.837
17.2656 74.439
17.3108 83.4345
17.3559 80.3569
17.401 67.9027
17.4462 59.8578
17.4913 57.8581
17.5365 58.0855
17.5815 58.1445
17.6268 58.5894
17.6718 59.1076
17.7171 59.7791
17.7622 60.2713
17.8074 61.1929
17.8525 63.4126
17.8977 66.9294
17.9428 72.0558
17.9881 81.1628
18.0331 100.134
18.0784 124.757
18.1237 139.55
18.1688 124.902
18.214 96.2002
18.2591 83.2423
18.3044 90.5455
18.3495 102.456
18.3948 105.816
18.4399 91.4613
18.4852 73.1272
18.5303 63.843
18.5756 60.7931
18.6207 59.948
18.666 59.2043
18.7112 58.448
18.7565 57.8771
18.8016 57.697
18.8469 56.8647
18.892 56.8646
18.9374 56.0511
18.9825 55.9704
19.0278 55.8986
19.073 55.9682
19.1183 56.2193
19.1635 56.8099
19.2088 58.39
19.254 61.1122
19.2993 65.9964
19.3447 72.2931
19.3898 75.1025
19.4352 69.0629
19.4804 60.5277
19.5257 54.8977
19.5709 53.0158
19.6163 53.0374
19.6615 52.7045
19.7068 52.4367
19.752 52.3445
19.7974 52.4385
19.8426 53.3158
19.888 54.0816
19.9332 55.2103
19.9786 57.8766
20.0238 61.9302
20.0692 67.178
20.1144 69.4017
20.1598 66.2558
20.205 61.3961
20.2504 61.3455
20.2957 63.7468
20.3411 65.2756
20.3863 62.5582
20.4318 56.2639
20.477 51.9069
20.5224 50.1027
20.5677 49.896
20.6131 49.3184
20.6586 48.7003
20.7038 48.47
20.7493 48.3008
20.7945 47.999
20.84 47.9304
20.8853 47.9003
20.9307 47.7378
20.976 47.864
21.0215 47.7616
21.0668 48.1186
21.1122 48.5822
21.1575 49.1298
21.203 50.0964
21.2483 50.608
21.2938 50.2496
21.3391 48.9472
21.3846 47.928
21.4299 47.6054
21.4754 47.4698
21.5207 47.6102
21.5662 48.1229
21.6116 48.3503
21.6571 49.1298
21.7024 50.0452
21.7479 51.8469
21.7933 54.8255
21.8388 58.8573
21.8843 62.8258
21.9297 63.9814
21.9752 61.1961
22.0206 57.4539
22.0661 55.4436
22.1115 55.5434
22.157 54.8834
22.2024 52.7945
22.248 49.8534
22.2933 48.6684
22.3389 47.9577
22.3843 48.147
22.4299 47.7855
22.4753 47.9149
22.5208 47.6998
22.5662 47.7194
22.6118 47.9141
22.6572 47.9209
22.7028 48.4453
22.7483 48.7214
22.7939 49.5587
22.8393 51.1226
22.8849 53.4886
22.9303 55.753
22.9759 57.4465
23.0214 56.2727
23.067 52.8207
23.1126 49.6956
23.1581 48.2301
23.2037 47.8779
23.2492 47.923
23.2948 47.9441
23.3403 48.1289
23.3859 48.8629
23.4314 49.9149
23.477 51.9902
23.5225 54.5677
23.5682 56.7719
23.6137 57.1971
23.6593 54.0437
23.7048 50.0422
23.7505 47.122
23.796 45.7344
23.8417 45.1538
23.8872 44.6501
23.9329 44.3466
23.9784 44.0673
24.0241 43.832
24.0697 43.6769
24.1154 43.3025
24.1609 43.2048
24.2066 43.0215
24.2522 42.9084
24.2979 42.7094
24.3434 42.5772
24.3892 42.3747
24.4349 42.5533
24.4805 42.2239
24.5262 42.3553
24.5718 42.2807
24.6175 42.0504
24.6631 41.9202
24.7089 41.6607
24.7545 41.5789
24.8002 41.4428
24.8458 41.5083
24.8916 41.3949
24.9372 41.5381
24.983 41.792
25.0286 42.1893
25.0744 42.7246
25.12 43.0329
25.1658 43.7748
25.2114 43.9295
25.2572 43.9627
25.3029 44.1996
25.3487 44.2789
25.3943 43.8537
25.4402 42.485
25.4858 41.3832
25.5316 40.562
25.5773 40.12
25.6231 40.2361
25.669 39.7258
25.7147 39.892
25.7605 39.8009
25.8062 39.7642
25.8521 39.9357
25.8977 39.9467
25.9436 40.0959
25.9893 40.2506
26.0352 40.7954
26.0809 40.9466
26.1268 41.09
26.1725 40.6714
26.2184 39.9632
26.2641 39.5068
26.31 39.3404
26.3557 39.425
26.4017 39.5123
26.4474 39.6586
26.4933 39.9127
26.5391 40.5676
26.585 41.1881
26.6308 41.5027
26.6767 41.628
26.7225 41.2473
26.7684 40.6823
26.8142 40.0101
26.8601 39.7626
26.9059 39.2083
26.9519 38.8047
26.9979 38.3741
27.0437 38.2466
27.0896 38.1302
27.1354 38.1026
27.1814 37.9952
27.2272 37.8719
27.2732 37.9869
27.3191 37.654
27.3651 37.7858
27.4109 37.7758
27.4569 37.8652
27.5027 38.0141
27.5488 37.9604
27.5946 37.7139
27.6407 37.4776
27.6865 37.4277
27.7326 37.1723
27.7784 37.3001
27.8245 37.198
27.8703 37.292
27.9164 37.701
27.9623 37.8107
28.0084 38.1293
28.0543 38.595
28.1003 38.3006
28.1462 38.1455
28.1923 37.8104
28.2384 37.362
28.2843 37.0133
28.3304 36.5288
28.3764 35.9661
28.4225 35.7545
28.4684 35.6282
28.5145 35.3242
28.5605 35.2296
28.6066 35.0412
28.6526 35.0868
28.6987 34.9714
28.7447 34.874
28.7908 34.7756
28.8368 34.8752
28.8829 34.835
28.9289 34.7512
28.9751 34.5139
29.0211 34.1711
29.0673 34.1152
29.1133 33.9362
29.1595 33.8283
29.2055 33.6337
29.2517 33.8063
29.2977 33.7374
29.3439 33.7831
29.3899 33.7062
29.4361 33.4732
29.4824 33.2942
29.5284 33.1033
29.5746 32.894
29.6207 32.5073
29.6669 32.4516
29.713 32.4265
29.7593 32.2821
29.8053 32.2762
29.8516 32.1942
29.8977 32.1488
29.9439 32.0799
29.99 31.8963
30.0363 31.7839
30.0824 31.9777
30.1287 31.9053
30.1748 32.0112
30.2211 31.9224
30.2673 31.7708
30.3136 31.7463
30.3597 31.6409
30.406 31.6364
30.4522 31.5266
30.4985 31.5628
30.5447 31.6891
30.591 31.6222
30.6372 31.7037
30.6835 31.6978
30.7297 31.6798
30.7761 31.5493
30.8224 31.5037
30.8686 31.2253
30.915 31.0232
30.9612 30.8987
31.0076 30.6827
31.0538 30.6435
31.1002 30.4957
31.1464 30.4167
31.1928 30.4006
31.2391 30.4433
31.2855 30.3263
31.3317 30.2288
31.3781 30.4244
31.4244 30.3907
31.4708 30.2373
31.5171 30.2044
31.5636 30.0992
31.6098 29.9774
31.6563 29.7484
31.7026 29.675
31.7491 29.5946
31.7953 29.6263
31.8418 29.5784
31.8881 29.6782
31.9346 29.6531
31.9809 29.5894
32.0275 29.3509
32.074 29.3114
32.1203 29.1004
32.1668 28.9824
32.2132 28.824
32.2597 28.7873
32.306 28.7023
32.3526 28.3922
32.399 28.4132
32.4455 28.2953
32.4919 28.2154
32.5385 28.1235
32.5848 28.0036
32.6314 27.973
32.6778 27.9113
32.7244 27.7305
32.7708 27.6386
32.8174 27.6662
32.8638 27.6072
32.9104 27.5797
32.9569 27.5077
33.0035 27.3584
33.0499 27.3807
33.0966 27.279
33.143 27.272
33.1897 27.2165
33.2361 27.0385
33.2828 27.1425
33.3293 26.801
33.3759 26.9177
33.4226 26.7134
33.4691 26.6152
33.5158 26.5842
33.5623 26.4312
33.609 26.2815
33.6555 26.1928
33.7022 26.1588
33.7487 26.0195
33.7954 26.0261
33.842 25.8792
33.8887 25.8786
33.9353 25.7811
33.982 25.7493
34.0286 25.535
34.0753 25.564
34.1219 25.3912
34.1687 25.3822
34.2152 25.3037
34.262 25.2368
34.3086 25.1886
34.3554 25.0982
34.402 24.9775
34.4488 24.8101
34.4954 24.7491
34.5422 24.7194
34.5889 24.5874
34.6357 24.4987
34.6825 24.4909
34.7292 24.4137
34.776 24.3115
34.8227 24.1836
34.8695 24.1224
34.9162 24.1083
34.9631 24.0479
35.0098 23.9912
35.0566 23.933
35.1033 23.9511
35.1502 23.8242
35.1969 23.8148
35.2438 23.6997
35.2906 23.7519
35.3375 23.6526
35.3842 23.5413
35.4311 23.6096
35.4779 23.5588
35.5248 23.4598
35.5716 23.322
35.6185 23.3338
35.6653 23.2528
35.7123 23.1065
35.759 23.143
35.806 22.9129
35.8528 22.8784
35.8998 22.7572
35.9468 22.7367
35.9936 22.6716
36.0406 22.6228
36.0874 22.5587
36.1345 22.4936
36.1813 22.4544
36.2283 22.3068
36.2752 22.2914
36.3222 22.2988
36.3691 22.1133
36.4161 22.0369
36.463 21.9726
36.5101 22.0658
36.557 22.0285
36.6041 21.7929
36.651 21.7823
36.6981 21.7271
36.745 21.6734
36.7921 21.6341
36.839 21.486
36.8861 21.4091
36.9331 21.3496
36.9802 21.2508
37.0272 21.1845
37.0743 21.1365
37.1213 21.0449
37.1684 21.0109
37.2154 20.9876
37.2626 20.855
37.3098 20.8129
37.3568 20.803
37.404 20.7182
37.451 20.5838
37.4982 20.5985
37.5452 20.4947
37.5924 20.381
37.6395 20.4724
37.6867 20.3851
37.7337 20.2459
37.781 20.163
37.8281 20.1508
37.8753 20.0273
37.9224 19.9948
37.9697 19.9807
38.0168 19.9169
38.064 19.8163
38.1111 19.7101
38.1584 19.7123
38.2056 19.608
38.2529 19.5836
38.3 19.4549
38.3473 19.4757
38.3945 19.3677
38.4418 19.2878
38.489 19.2628
38.5363 19.1384
38.5837 19.0907
38.6309 19.0945
38.6782 18.9646
38.7254 18.8679
38.7728 18.8873
38.82 18.7749
38.8674 18.7169
38.9146 18.6999
38.9621 18.5788
39.0093 18.6816
39.0567 18.527
39.104 18.4891
39.1514 18.3609
39.1987 18.4204
39.2461 18.3446
39.2934 18.248
39.3409 18.0635
39.3882 18.1058
39.4356 18.0209
39.483 17.977
39.5304 17.8803
39.5778 17.9523
39.6253 17.847
39.6726 17.8095
39.7201 17.7885
39.7675 17.6492
39.815 17.5915
39.8624 17.5509
39.9099 17.542
39.9575 17.4657
40.0049 17.3811
40.0525 17.2648
40.0999 17.1979
40.1474 17.2421
40.1949 17.1787
40.2425 17.0827
40.2899 17.0807
40.3375 17.0397
40.385 16.9371
40.4326 16.9403
40.48 16.7652
40.5277 16.8037
40.5752 16.7163
40.6228 16.6358
40.6703 16.6714
40.718 16.5836
40.7655 16.5077
40.8132 16.4051
40.8607 16.454
40.9084 16.3514
40.9559 16.3177
41.0036 16.3147
41.0512 16.166
41.0989 16.1973
41.1465 16.1312
41.1942 16.1227
41.242 15.9676
41.2896 15.9506
41.3373 15.8246
41.3849 15.8205
41.4327 15.816
41.4803 15.7401
41.5281 15.6973
41.5758 15.6237
41.6236 15.5733
41.6712 15.5411
41.7191 15.4827
41.7667 15.4262
41.8146 15.3579
41.8622 15.2912
41.9101 15.276
41.9578 15.1697
42.0057 15.1837
42.0534 15.1245
42.1013 15.0665
42.149 14.9651
42.1969 14.9186
42.2446 14.9221
42.2925 14.8437
42.3403 14.8166
42.3882 14.8294
42.436 14.7136
42.4839 14.6427
42.5319 14.6009
42.5797 14.5633
42.6277 14.5252
42.6755 14.5143
42.7235 14.3986
42.7713 14.3449
42.8193 14.2914
42.8671 14.2328
42.9152 14.2306
42.963 14.1917
43.0111 14.1279
43.0589 14.0577
43.107 14.0038
43.1549 13.9565
43.2029 13.9138
43.2508 13.8877
43.2989 13.8646
43.3468 13.7296
43.3949 13.7511
43.4429 13.6963
43.491 13.6401
43.5389 13.5798
43.5871 13.5311
43.635 13.5568
43.6832 13.4488
43.7312 13.3855
43.7793 13.3289
43.8273 13.3305
43.8755 13.2926
43.9237 13.2637
43.9717 13.1888
44.0199 13.1632
44.068 13.124
44.1162 13.0224
44.1642 13.0032
44.2125 12.963
44.2606 12.9169
44.3088 12.8465
44.3569 12.8076
44.4052 12.8147
44.4533 12.7245
44.5016 12.6922
44.5497 12.7006
44.598 12.566
44.6461 12.58
44.6945 12.5008
44.7426 12.455
44.791 12.3932
44.8391 12.4002
44.8875 12.3132
44.9357 12.2958
44.984 12.2195
45.0322 12.2223
45.0806 12.1836
45.1288 12.1567
45.1773 12.0865
45.2257 12.026
45.2739 11.9866
45.3224 11.9249
45.3706 11.9039
45.4191 11.86
45.4673 11.8347
45.5158 11.763
45.5641 11.7263
45.6126 11.6848
45.6609 11.6585
45.7094 11.5853
45.7577 11.5704
45.8063 11.4776
45.8546 11.512
45.9031 11.4212
45.9515 11.3549
46.0001 11.3518
46.0484 11.365
46.097 11.2392
46.1454 11.2719
46.194 11.2144
46.2424 11.174
46.291 11.121
46.3395 11.0208
46.3881 11.0313
46.4365 11.0136
46.4852 10.9624
46.5337 10.9201
46.5823 10.884
46.631 10.8429
46.6795 10.8284
46.7282 10.7837
46.7767 10.7672
46.8254 10.6686
46.8739 10.6655
46.9226 10.6022
46.9712 10.5585
47.0199 10.5106
47.0685 10.455
47.1173 10.4575
47.1658 10.3914
47.2146 10.3689
47.2632 10.3309
47.312 10.2972
47.3606 10.2227
47.4095 10.1785
47.4581 10.1538
47.5069 10.1806
47.5556 10.1081
47.6044 10.0858
47.6531 10.0533
47.702 10.0181
47.7507 9.98699
47.7996 9.9317
47.8483 9.90952
47.8972 9.85569
47.9461 9.80678
47.9948 9.73382
48.0438 9.74694
48.0925 9.73674
48.1415 9.68372
48.1902 9.62272
48.2392 9.65185
48.288 9.58537
48.337 9.53657
48.3858 9.50506
48.4348 9.47889
48.4837 9.45473
48.5327 9.41776
48.5815 9.35411
48.6306 9.34076
48.6795 9.28566
48.7285 9.26525
48.7774 9.21436
48.8265 9.24452
48.8754 9.14639
48.9245 9.12915
48.9734 9.11349
49.0226 9.03575
49.0715 9.03563
49.1206 8.99223
49.1696 8.95031
49.2188 8.93344
49.2679 8.90293
49.3169 8.84868
49.3661 8.79684
49.4151 8.74414
49.4643 8.74549
49.5134 8.69175
49.5626 8.64274
49.6117 8.6409
49.6609 8.61118
49.71 8.58336
49.7592 8.55028
49.8083 8.52662
49.8576 8.50648
49.9067 8.44731
49.956 8.43618
50.0052 8.37914
50.0545 8.38835
50.1036 8.30565
50.153 8.28402
50.2022 8.27437
50.2515 8.22225
50.3007 8.18178
50.3501 8.13258
50.3993 8.1198
50.4487 8.11263
50.498 8.07664
50.5474 8.0595
50.5966 8.00585
50.6461 7.97854
50.6955 7.92341
50.7448 7.94274
50.7943 7.87225
50.8436 7.82625
50.8931 7.82795
50.9424 7.81976
50.9919 7.77149
51.0413 7.73762
51.0908 7.70153
51.1402 7.68971
51.1897 7.64301
51.2391 7.6126
51.2887 7.57757
51.3381 7.54725
51.3877 7.52662
51.4371 7.48784
51.4867 7.44584
51.5362 7.415
51.5858 7.39006
51.6353 7.35413
51.6849 7.33781
51.7344 7.32369
51.7841 7.31975
51.8336 7.25688
51.8833 7.22
51.9328 7.15334
51.9826 7.15453
52.0323 7.10311
52.0818 7.11797
52.1316 7.07581
52.1812 7.02676
52.231 6.99297
52.2806 6.96951
52.3304 6.90806
52.38 6.91737
52.4298 6.84455
52.4794 6.86269
52.5293 6.84285
52.5789 6.79241
52.6288 6.7934
52.6785 6.75433
52.7284 6.75485
52.7781 6.70923
52.828 6.65508
52.8777 6.63842
52.9276 6.60953
52.9774 6.61207
53.0273 6.5651
53.0771 6.54411
53.1271 6.51071
53.1769 6.4372
53.2269 6.44816
53.2767 6.44028
53.3267 6.39926
53.3765 6.39168
53.4266 6.36117
53.4766 6.27681
53.5265 6.26193
53.5765 6.26827
53.6264 6.23376
53.6765 6.19933
53.7264 6.20705
53.7765 6.15049
53.8265 6.11153
53.8766 6.0635
53.9266 6.08124
53.9767 6.021
54.0267 6.02462
54.0769 5.96927
54.1269 5.9893
54.1771 5.89731
54.2271 5.87968
54.2773 5.84615
54.3274 5.82524
54.3776 5.75145
54.4277 5.81493
54.478 5.75141
54.528 5.76605
54.5783 5.66639
54.6285 5.62055
54.6788 5.59406
54.7289 5.53269
54.7792 5.50647
54.8296 5.43469
54.8798 5.3685
54.9301 5.38391
54.9803 5.34837
55.0307 5.36495
55.0809 5.28334
55.1314 5.2735
55.1816 5.19168
55.232 5.15826
55.2823 5.13175
55.3328 5.05941
55.383 4.99942
55.4335 4.94086
55.4838 4.92186
55.5344 4.88169
55.5847 4.80451
55.6352 4.82129
55.6856 4.76317
55.7361 4.74272