File: XRD/Ni3Fe_FD0758.xy
TT I
1.27165 6.72362
1.31627 6.30674
1.36089 6.12711
1.40551 6.54771
1.45013 6.49984
1.49476 5.79326
1.53938 5.82932
1.584 4.59004
1.62863 4.87207
1.67325 5.23524
1.71787 5.43423
1.7625 4.55558
1.80712 4.75137
1.85174 4.96438
1.89636 4.71706
1.94099 4.89363
1.98562 4.70625
2.03025 4.69959
2.07487 4.42742
2.11949 4.86891
2.16411 5.44966
2.20874 16.0157
2.25338 27.0426
2.298 6.67243
2.34263 5.64669
2.38725 6.11018
2.43188 6.12711
2.4765 6.92951
2.52115 7.04103
2.56577 7.19502
2.6104 8.35741
2.65503 8.55989
2.69965 8.77467
2.7443 8.83457
2.78893 7.94662
2.83356 8.65616
2.87818 9.01191
2.92281 9.21317
2.96744 9.69419
3.01209 10.5632
3.05672 10.9084
3.10135 12.6498
3.14599 13.0091
3.19062 14.0797
3.23527 15.071
3.2799 16.1535
3.32454 16.6465
3.36917 17.7745
3.4138 19.0732
3.45844 19.246
3.50309 20.7347
3.54773 21.7255
3.59237 24.2771
3.637 105.713
3.68164 67.4478
3.7263 26.6701
3.77094 26.2607
3.81558 26.6818
3.86022 27.6752
3.90486 28.7101
3.9495 29.2903
3.99416 30.592
4.0388 32.543
4.08344 33.746
4.12809 34.7634
4.17273 36.7672
4.21738 43.5989
4.26204 281.481
4.30669 258.309
4.35133 49.7673
4.39598 44.1499
4.44063 54.9588
4.4853 69.3534
4.52995 49.92
4.5746 50.8809
4.61925 52.8732
4.6639 54.7647
4.70855 57.6159
4.75322 60.2787
4.79788 63.0233
4.84253 66.3236
4.88719 70.3225
4.93184 73.6701
4.97652 79.4755
5.02118 84.9864
5.06583 92.137
5.11049 102.894
5.15515 175.547
5.19981 301.66
5.24449 2440.32
5.28916 12945.5
5.33382 3047.7
5.37848 188.88
5.42315 127.697
5.46783 111.934
5.5125 104.832
5.55716 100.83
5.60183 97.4173
5.6465 96.0802
5.69117 92.7566
5.73586 90.4227
5.78053 89.9525
5.8252 89.3851
5.86988 89.8779
5.91455 91.7509
5.95924 97.5531
6.00392 177.303
6.0486 830.901
6.09328 4309.04
6.13795 3269.36
6.18263 246.761
6.22733 92.3673
6.27201 82.5552
6.3167 106.693
6.36138 82.2772
6.40606 69.057
6.45075 67.048
6.49545 64.8581
6.54014 63.585
6.58483 62.469
6.62952 62.6536
6.67421 98.1471
6.71892 161.113
6.76361 70.942
6.8083 58.4658
6.853 57.38
6.89769 56.8112
6.94239 56.2399
6.98711 55.4515
7.03181 55.7653
7.07651 55.1031
7.12121 55.2335
7.16591 55.1061
7.21063 55.5237
7.25533 72.6421
7.30004 204.856
7.34475 100.632
7.38945 57.2285
7.43416 54.6506
7.47889 54.0577
7.5236 54.683
7.56831 55.298
7.61303 57.0588
7.65774 57.8406
7.70247 55.8061
7.74719 55.659
7.79191 56.5452
7.83663 56.5015
7.88135 56.992
7.92607 58.1161
7.97081 59.1892
8.01553 60.3482
8.06026 61.4442
8.10498 63.2476
8.14971 73.7607
8.19446 73.4479
8.23919 68.6472
8.28392 70.9276
8.32865 73.3737
8.37339 77.33
8.41812 84.3882
8.46288 116.493
8.50761 149.275
8.55235 344.425
8.59709 1094.72
8.64183 2175.53
8.68658 1057.69
8.73134 169.188
8.77609 98.7295
8.82083 91.771
8.86558 88.4002
8.91033 89.5645
8.9551 91.9804
8.99985 84.9279
9.04461 82.7639
9.08936 81.824
9.13412 81.0509
9.17888 81.4655
9.22365 82.0286
9.26841 81.0872
9.31318 81.6266
9.35794 81.3837
9.4027 81.9473
9.44749 82.8968
9.49226 83.7367
9.53703 84.6863
9.5818 86.2512
9.62657 91.5572
9.67134 99.0562
9.71614 93.2552
9.76091 92.7912
9.80569 95.2431
9.85047 98.6722
9.89525 125.733
9.94005 138.545
9.98484 158.842
10.0296 302.028
10.0744 747.036
10.1192 1742.83
10.164 1627.79
10.2088 409.551
10.2536 127.266
10.2984 113.249
10.3432 116.306
10.388 103.749
10.4328 112.32
10.4776 149.196
10.5224 266.78
10.5672 510.572
10.612 516.911
10.6568 211.774
10.7017 96.7423
10.7465 85.8073
10.7913 82.4526
10.8361 80.5831
10.8809 78.0715
10.9257 77.9562
10.9706 79.1237
11.0154 74.6017
11.0602 72.3899
11.105 71.5782
11.1499 76.5847
11.1947 85.9769
11.2395 75.5387
11.2844 70.1598
11.3292 66.82
11.374 65.4847
11.4189 65.0288
11.4637 64.0828
11.5086 65.0803
11.5534 68.8642
11.5983 65.4775
11.6431 63.1689
11.688 62.3416
11.7328 62.528
11.7777 62.1981
11.8225 62.0266
11.8674 61.8074
11.9122 62.1263
11.9571 62.2602
12.002 62.8347
12.0468 65.9107
12.0917 75.9043
12.1366 98.2506
12.1814 147.411
12.2263 210.484
12.2712 174.129
12.3161 101.15
12.3609 71.3538
12.4058 64.5863
12.4507 63.9973
12.4956 63.8619
12.5405 63.9369
12.5853 64.9796
12.6302 73.8103
12.6751 80.9256
12.72 70.4831
12.7649 67.2041
12.8098 68.0667
12.8547 69.1557
12.8996 70.1543
12.9445 71.3532
12.9894 72.9735
13.0343 74.5281
13.0792 77.6713
13.1242 84.5369
13.1691 105.924
13.214 139.454
13.2589 226.039
13.3038 366.582
13.3487 431.023
13.3937 272.921
13.4386 127.547
13.4835 102.127
13.5285 114.178
13.5734 149.278
13.6183 237.131
13.6633 346.203
13.7082 345.615
13.7531 191.999
13.7981 98.7501
13.843 81.1403
13.888 78.7108
13.9329 76.5541
13.9779 75.1169
14.0228 73.7807
14.0678 72.3235
14.1127 71.7782
14.1577 71.9366
14.2027 70.8531
14.2476 69.7743
14.2926 69.9617
14.3376 71.652
14.3825 69.8447
14.4275 68.0786
14.4725 68.1407
14.5175 68.0647
14.5624 68.3487
14.6074 70.6044
14.6524 71.431
14.6974 69.5701
14.7424 70.489
14.7874 75.9677
14.8324 85.1481
14.8774 105.349
14.9224 147.362
14.9674 204.439
15.0124 224.667
15.0574 152.434
15.1024 92.2173
15.1474 72.0169
15.1924 69.7673
15.2374 70.9889
15.2824 70.2547
15.3274 67.7454
15.3725 66.2379
15.4175 65.491
15.4625 65.3334
15.5076 65.9449
15.5526 65.8426
15.5976 65.1734
15.6426 65.5711
15.6877 70.0104
15.7327 76.6382
15.7778 90.573
15.8228 121.056
15.8679 166.156
15.9129 193.839
15.958 158.209
16.003 99.2759
16.0481 68.7834
16.0931 64.7648
16.1382 62.7545
16.1833 60.4701
16.2283 58.6107
16.2734 57.9498
16.3185 58.5608
16.3636 59.6199
16.4086 57.8856
16.4537 55.8759
16.4988 54.9791
16.5439 54.9868
16.589 54.6663
16.6341 54.479
16.6792 54.0709
16.7243 54.4666
16.7694 54.5132
16.8145 54.4294
16.8596 54.7232
16.9047 56.7009
16.9498 56.8446
16.9949 55.25
17.04 55.171
17.0851 56.2958
17.1302 57.7297
17.1754 60.5528
17.2205 65.6129
17.2656 73.1688
17.3108 82.8806
17.3559 82.9046
17.401 71.2869
17.4462 61.8685
17.4913 58.5533
17.5365 58.6409
17.5815 58.7999
17.6268 59.0198
17.6718 59.6821
17.7171 60.4567
17.7622 60.5295
17.8074 60.8924
17.8525 62.8846
17.8977 66.6489
17.9428 71.6765
17.9881 79.8383
18.0331 96.2594
18.0784 118.945
18.1237 138.286
18.1688 131.101
18.214 103.588
18.2591 85.4994
18.3044 88.7731
18.3495 99.0894
18.3948 106.05
18.4399 96.741
18.4852 78.0152
18.5303 65.909
18.5756 61.9095
18.6207 60.7285
18.666 59.8448
18.7112 59.3507
18.7565 58.6415
18.8016 58.2095
18.8469 57.5257
18.892 57.2996
18.9374 56.7686
18.9825 56.5103
19.0278 56.5738
19.073 56.4321
19.1183 56.9774
19.1635 57.7025
19.2088 58.6151
19.254 61.223
19.2993 65.4338
19.3447 72.1247
19.3898 76.6212
19.4352 72.5369
19.4804 63.2101
19.5257 56.4476
19.5709 53.7945
19.6163 53.3709
19.6615 53.2368
19.7068 52.8241
19.752 52.7938
19.7974 52.8341
19.8426 53.8298
19.888 54.4069
19.9332 55.4027
19.9786 57.7524
20.0238 61.3324
20.0692 66.1897
20.1144 69.0668
20.1598 67.8336
20.205 62.9227
20.2504 61.4644
20.2957 63.3443
20.3411 65.4275
20.3863 64.089
20.4318 58.3446
20.477 53.3935
20.5224 51.4543
20.5677 50.7728
20.6131 49.9562
20.6586 49.3009
20.7038 49.0888
20.7493 48.6695
20.7945 48.7016
20.84 48.4598
20.8853 48.3518
20.9307 48.1291
20.976 48.2464
21.0215 48.1563
21.0668 48.6277
21.1122 49.0319
21.1575 49.6338
21.203 50.3664
21.2483 50.9755
21.2938 50.973
21.3391 49.6939
21.3846 48.588
21.4299 47.992
21.4754 47.8834
21.5207 47.9763
21.5662 48.3536
21.6116 48.5491
21.6571 49.1583
21.7024 49.9608
21.7479 51.7346
21.7933 54.5472
21.8388 58.2197
21.8843 61.9843
21.9297 64.2545
21.9752 63.117
22.0206 59.311
22.0661 56.2439
22.1115 55.4994
22.157 55.6645
22.2024 54.0776
22.248 51.2708
22.2933 49.5616
22.3389 48.6893
22.3843 48.6191
22.4299 48.7564
22.4753 48.6429
22.5208 48.3444
22.5662 47.9628
22.6118 48.215
22.6572 48.3256
22.7028 48.5628
22.7483 49.0268
22.7939 49.917
22.8393 51.2509
22.8849 53.3684
22.9303 55.4556
22.9759 57.3717
23.0214 57.1128
23.067 54.5336
23.1126 51.0784
23.1581 48.9555
23.2037 48.4888
23.2492 48.4728
23.2948 48.3039
23.3403 48.6492
23.3859 49.0797
23.4314 49.9943
23.477 51.7598
23.5225 54.1913
23.5682 56.5602
23.6137 57.7517
23.6593 55.6706
23.7048 51.4886
23.7505 48.1705
23.796 46.3262
23.8417 45.771
23.8872 45.0423
23.9329 44.7072
23.9784 44.5717
24.0241 44.2646
24.0697 43.9967
24.1154 43.8286
24.1609 43.6255
24.2066 43.5703
24.2522 43.3807
24.2979 43.0803
24.3434 43.1544
24.3892 42.8565
24.4349 42.7562
24.4805 42.498
24.5262 42.7637
24.5718 42.6023
24.6175 42.5656
24.6631 42.5396
24.7089 42.2573
24.7545 42.0366
24.8002 41.8238
24.8458 41.8778
24.8916 41.6478
24.9372 41.6959
24.983 42.0962
25.0286 42.3563
25.0744 42.9618
25.12 43.2456
25.1658 43.9121
25.2114 44.1854
25.2572 44.4438
25.3029 44.5696
25.3487 44.5493
25.3943 44.4163
25.4402 43.3171
25.4858 42.209
25.5316 41.279
25.5773 40.6044
25.6231 40.5629
25.669 40.2297
25.7147 40.0857
25.7605 40.1192
25.8062 40.1082
25.8521 40.3335
25.8977 40.2649
25.9436 40.5361
25.9893 40.4162
26.0352 41.0804
26.0809 41.1784
26.1268 41.3475
26.1725 41.0449
26.2184 40.4869
26.2641 39.8732
26.31 39.6993
26.3557 39.8313
26.4017 39.7983
26.4474 39.9517
26.4933 40.3646
26.5391 40.9435
26.585 41.341
26.6308 41.6948
26.6767 41.9111
26.7225 41.6648
26.7684 41.1236
26.8142 40.5173
26.8601 40.1714
26.9059 39.749
26.9519 39.1938
26.9979 39.0009
27.0437 38.5705
27.0896 38.3768
27.1354 38.3577
27.1814 38.2429
27.2272 38.2907
27.2732 38.2238
27.3191 38.0391
27.3651 38.1511
27.4109 38.0726
27.4569 38.1499
27.5027 38.1664
27.5488 38.2861
27.5946 38.1808
27.6407 37.849
27.6865 37.7923
27.7326 37.6171
27.7784 37.437
27.8245 37.5018
27.8703 37.5789
27.9164 37.8886
27.9623 38.0225
28.0084 38.3662
28.0543 38.7718
28.1003 38.7003
28.1462 38.6088
28.1923 38.2723
28.2384 37.5897
28.2843 37.3681
28.3304 36.9823
28.3764 36.5038
28.4225 36.1567
28.4684 36.153
28.5145 35.7395
28.5605 35.5786
28.6066 35.4157
28.6526 35.3437
28.6987 35.3499
28.7447 35.2834
28.7908 35.1499
28.8368 35.2271
28.8829 35.2842
28.9289 35.1381
28.9751 35.0085
29.0211 34.6725
29.0673 34.4241
29.1133 34.3643
29.1595 34.1778
29.2055 34.0165
29.2517 34.1086
29.2977 34.0226
29.3439 34.0544
29.3899 33.9177
29.4361 33.8611
29.4824 33.7378
29.5284 33.5275
29.5746 33.211
29.6207 32.9239
29.6669 32.9209
29.713 32.6688
29.7593 32.5357
29.8053 32.6621
29.8516 32.4997
29.8977 32.5929
29.9439 32.4904
29.99 32.3921
30.0363 32.226
30.0824 32.229
30.1287 32.0772
30.1748 32.2467
30.2211 32.2365
30.2673 32.0826
30.3136 32.1523
30.3597 32.0111
30.406 31.8591
30.4522 31.8016
30.4985 31.7881
30.5447 31.9394
30.591 31.8167
30.6372 31.9637
30.6835 31.8705
30.7297 32.0329
30.7761 31.957
30.8224 31.8159
30.8686 31.5213
30.915 31.4335
30.9612 31.2958
31.0076 31.1197
31.0538 31.039
31.1002 30.9341
31.1464 30.7435
31.1928 30.703
31.2391 30.7021
31.2855 30.6026
31.3317 30.7109
31.3781 30.7698
31.4244 30.691
31.4708 30.5774
31.5171 30.5664
31.5636 30.6234
31.6098 30.4015
31.6563 30.1218
31.7026 30.034
31.7491 29.8772
31.7953 29.9398
31.8418 29.9555
31.8881 29.9327
31.9346 29.9414
31.9809 29.7825
32.0275 29.6805
32.074 29.5997
32.1203 29.4173
32.1668 29.332
32.2132 29.1868
32.2597 29.0543
32.306 28.9433
32.3526 28.7912
32.399 28.7074
32.4455 28.5789
32.4919 28.5802
32.5385 28.4343
32.5848 28.2743
32.6314 28.3013
32.6778 28.2362
32.7244 28.1089
32.7708 27.966
32.8174 27.9796
32.8638 27.8251
32.9104 27.9012
32.9569 27.7941
33.0035 27.7366
33.0499 27.7341
33.0966 27.5287
33.143 27.5625
33.1897 27.6031
33.2361 27.4784
33.2828 27.3988
33.3293 27.1933
33.3759 27.1492
33.4226 27.0456
33.4691 26.9267
33.5158 26.7961
33.5623 26.7007
33.609 26.5607
33.6555 26.5106
33.7022 26.4465
33.7487 26.278
33.7954 26.3252
33.842 26.2159
33.8887 26.1464
33.9353 26.0891
33.982 26.0482
34.0286 25.9477
34.0753 25.8566
34.1219 25.7401
34.1687 25.6435
34.2152 25.6196
34.262 25.5652
34.3086 25.362
34.3554 25.3444
34.402 25.2166
34.4488 25.1654
34.4954 25.0405
34.5422 24.977
34.5889 24.9088
34.6357 24.7251
34.6825 24.7439
34.7292 24.6925
34.776 24.5821
34.8227 24.4876
34.8695 24.4853
34.9162 24.2983
34.9631 24.2921
35.0098 24.2669
35.0566 24.1571
35.1033 24.1684
35.1502 24.1304
35.1969 23.9812
35.2438 23.9941
35.2906 23.8561
35.3375 23.8729
35.3842 23.8078
35.4311 23.8433
35.4779 23.7741
35.5248 23.6844
35.5716 23.5736
35.6185 23.5659
35.6653 23.4097
35.7123 23.4311
35.759 23.3406
35.806 23.1797
35.8528 23.1226
35.8998 23.0108
35.9468 22.9588
35.9936 22.9385
36.0406 22.809
36.0874 22.8698
36.1345 22.7445
36.1813 22.6632
36.2283 22.5482
36.2752 22.5306
36.3222 22.4656
36.3691 22.455
36.4161 22.1724
36.463 22.335
36.5101 22.2416
36.557 22.1833
36.6041 22.0325
36.651 21.9726
36.6981 21.8813
36.745 21.9423
36.7921 21.8514
36.839 21.7755
36.8861 21.634
36.9331 21.6881
36.9802 21.5651
37.0272 21.3523
37.0743 21.3997
37.1213 21.3406
37.1684 21.2883
37.2154 21.1906
37.2626 21.1507
37.3098 21.0689
37.3568 20.9366
37.404 20.9675
37.451 20.8523
37.4982 20.9039
37.5452 20.6754
37.5924 20.7342
37.6395 20.6882
37.6867 20.5889
37.7337 20.4543
37.781 20.3793
37.8281 20.3719
37.8753 20.1655
37.9224 20.1817
37.9697 20.1806
38.0168 20.102
38.064 19.9707
38.1111 19.9671
38.1584 19.892
38.2056 19.7826
38.2529 19.794
38.3 19.7347
38.3473 19.6786
38.3945 19.5363
38.4418 19.4869
38.489 19.4353
38.5363 19.3221
38.5837 19.3307
38.6309 19.2855
38.6782 19.2371
38.7254 19.1547
38.7728 19.0434
38.82 19.0379
38.8674 18.9739
38.9146 18.9338
38.9621 18.928
39.0093 18.8254
39.0567 18.7573
39.104 18.6537
39.1514 18.5676
39.1987 18.5633
39.2461 18.5302
39.2934 18.4024
39.3409 18.3342
39.3882 18.3006
39.4356 18.2241
39.483 18.2358
39.5304 18.1327
39.5778 18.0844
39.6253 18.029
39.6726 18.0035
39.7201 17.9659
39.7675 17.8789
39.815 17.8338
39.8624 17.7675
39.9099 17.725
39.9575 17.6536
40.0049 17.6049
40.0525 17.5674
40.0999 17.5054
40.1474 17.5171
40.1949 17.3345
40.2425 17.2738
40.2899 17.25
40.3375 17.2265
40.385 17.1179
40.4326 17.0708
40.48 17.0478
40.5277 17.0018
40.5752 16.9074
40.6228 16.8644
40.6703 16.7955
40.718 16.7775
40.7655 16.6992
40.8132 16.6003
40.8607 16.6635
40.9084 16.5591
40.9559 16.5068
41.0036 16.4328
41.0512 16.4256
41.0989 16.3289
41.1465 16.2469
41.1942 16.2607
41.242 16.1831
41.2896 16.1158
41.3373 16.0734
41.3849 16.0028
41.4327 15.9718
41.4803 15.9009
41.5281 15.8242
41.5758 15.7703
41.6236 15.7565
41.6712 15.6976
41.7191 15.646
41.7667 15.5923
41.8146 15.5761
41.8622 15.4928
41.9101 15.4853
41.9578 15.3342
42.0057 15.3478
42.0534 15.3022
42.1013 15.226
42.149 15.0974
42.1969 15.1393
42.2446 15.0876
42.2925 15.0098
42.3403 15.0191
42.3882 14.9179
42.436 14.8726
42.4839 14.8416
42.5319 14.74
42.5797 14.7327
42.6277 14.6386
42.6755 14.6163
42.7235 14.5657
42.7713 14.5514
42.8193 14.4724
42.8671 14.359
42.9152 14.4259
42.963 14.3595
43.0111 14.2494
43.0589 14.2595
43.107 14.1643
43.1549 14.1521
43.2029 14.1006
43.2508 14.0483
43.2989 14.0299
43.3468 13.9456
43.3949 13.8775
43.4429 13.8354
43.491 13.8089
43.5389 13.7626
43.5871 13.7454
43.635 13.6475
43.6832 13.6443
43.7312 13.5937
43.7793 13.5274
43.8273 13.51
43.8755 13.4002
43.9237 13.3336
43.9717 13.3366
44.0199 13.2451
44.068 13.2618
44.1162 13.2049
44.1642 13.1861
44.2125 13.1125
44.2606 13.087
44.3088 12.9989
44.3569 12.9434
44.4052 12.9458
44.4533 12.8993
44.5016 12.8376
44.5497 12.8201
44.598 12.793
44.6461 12.7196
44.6945 12.7324
44.7426 12.6164
44.791 12.5549
44.8391 12.5124
44.8875 12.4624
44.9357 12.454
44.984 12.4128
45.0322 12.369
45.0806 12.297
45.1288 12.2958
45.1773 12.2501
45.2257 12.1164
45.2739 12.1182
45.3224 12.0978
45.3706 12.0917
45.4191 11.9765
45.4673 11.9502
45.5158 11.979
45.5641 11.8722
45.6126 11.8753
45.6609 11.8246
45.7094 11.7419
45.7577 11.7483
45.8063 11.6618
45.8546 11.6359
45.9031 11.5852
45.9515 11.5815
46.0001 11.4805
46.0484 11.4517
46.097 11.4594
46.1454 11.4151
46.194 11.3495
46.2424 11.307
46.291 11.2255
46.3395 11.1954
46.3881 11.178
46.4365 11.1725
46.4852 11.1169
46.5337 11.0203
46.5823 10.9838
46.631 10.9557
46.6795 10.9153
46.7282 10.8948
46.7767 10.8581
46.8254 10.8181
46.8739 10.7828
46.9226 10.7043
46.9712 10.6764
47.0199 10.667
47.0685 10.6439
47.1173 10.5761
47.1658 10.5131
47.2146 10.5209
47.2632 10.4227
47.312 10.4328
47.3606 10.4267
47.4095 10.3508
47.4581 10.315
47.5069 10.2606
47.5556 10.2404
47.6044 10.2102
47.6531 10.1644
47.702 10.1032
47.7507 10.1156
47.7996 10.0461
47.8483 10.0193
47.8972 9.99272
47.9461 9.9387
47.9948 9.91373
48.0438 9.83684
48.0925 9.89369
48.1415 9.8071
48.1902 9.74988
48.2392 9.76088
48.288 9.71749
48.337 9.62746
48.3858 9.60503
48.4348 9.58131
48.4837 9.58034
48.5327 9.50169
48.5815 9.45459
48.6306 9.48656
48.6795 9.44862
48.7285 9.37118
48.7774 9.33671
48.8265 9.32937
48.8754 9.28369
48.9245 9.24832
48.9734 9.23476
49.0226 9.1626
49.0715 9.12631
49.1206 9.06228
49.1696 9.03152
49.2188 9.05596
49.2679 8.99625
49.3169 8.9625
49.3661 8.90904
49.4151 8.86871
49.4643 8.84909
49.5134 8.80291
49.5626 8.77777
49.6117 8.74363
49.6609 8.696
49.71 8.66739
49.7592 8.65534
49.8083 8.6045
49.8576 8.59211
49.9067 8.51159
49.956 8.54567
50.0052 8.49691
50.0545 8.46381
50.1036 8.43504
50.153 8.39163
50.2022 8.37392
50.2515 8.32721
50.3007 8.29211
50.3501 8.26463
50.3993 8.27621
50.4487 8.17081
50.498 8.16219
50.5474 8.10733
50.5966 8.10647
50.6461 8.06557
50.6955 8.03334
50.7448 8.01993
50.7943 7.97368
50.8436 7.97458
50.8931 7.90395
50.9424 7.88191
50.9919 7.87472
51.0413 7.8507
51.0908 7.79732
51.1402 7.78201
51.1897 7.74442
51.2391 7.6926
51.2887 7.66861
51.3381 7.62836
51.3877 7.6074
51.4371 7.55508
51.4867 7.54902
51.5362 7.49743
51.5858 7.4958
51.6353 7.41786
51.6849 7.40685
51.7344 7.38485
51.7841 7.37369
51.8336 7.33427
51.8833 7.30476
51.9328 7.27543
51.9826 7.23191
52.0323 7.1763
52.0818 7.20592
52.1316 7.10223
52.1812 7.12833
52.231 7.07797
52.2806 7.06773
52.3304 7.07382
52.38 6.9803
52.4298 6.94104
52.4794 6.92599
52.5293 6.95172
52.5789 6.87469
52.6288 6.87358
52.6785 6.82324
52.7284 6.83044
52.7781 6.77347
52.828 6.76505
52.8777 6.6911
52.9276 6.68949
52.9774 6.68442
53.0273 6.6446
53.0771 6.63868
53.1271 6.59628
53.1769 6.53356
53.2269 6.51265
53.2767 6.50311
53.3267 6.43714
53.3765 6.43328
53.4266 6.38601
53.4766 6.37849
53.5265 6.36669
53.5765 6.30831
53.6264 6.31099
53.6765 6.2723
53.7264 6.24221
53.7765 6.24269
53.8265 6.19158
53.8766 6.18991
53.9266 6.14249
53.9767 6.11453
54.0267 6.1532
54.0769 6.08251
54.1269 6.02795
54.1771 5.92603
54.2271 5.94839
54.2773 5.94807
54.3274 5.91187
54.3776 5.85845
54.4277 5.85254
54.478 5.86175
54.528 5.79577
54.5783 5.69088
54.6285 5.71327
54.6788 5.67292
54.7289 5.6365
54.7792 5.59039
54.8296 5.51841
54.8798 5.48976
54.9301 5.47117
54.9803 5.36054
55.0307 5.37242
55.0809 5.36051
55.1314 5.32392
55.1816 5.27918
55.232 5.1597
55.2823 5.23342
55.3328 5.10934
55.383 5.00989
55.4335 5.05818
55.4838 4.97808
55.5344 4.989
55.5847 4.88352
55.6352 4.86694
55.6856 4.79403
55.7361 4.7605