File: XRD/Ni3Fe_FD0470.xy
TT I
1.27165 7.51974
1.31627 6.4808
1.36089 6.84514
1.40551 6.444
1.45013 6.16202
1.49476 6.18636
1.53938 5.30848
1.584 5.75601
1.62863 5.87729
1.67325 4.96194
1.71787 5.20741
1.7625 5.05226
1.80712 5.07137
1.85174 4.32377
1.89636 4.81796
1.94099 4.52716
1.98562 4.32094
2.03025 4.79034
2.07487 4.50394
2.11949 4.98257
2.16411 4.80048
2.20874 9.2234
2.25338 13.3087
2.298 5.4257
2.34263 4.98135
2.38725 5.41683
2.43188 5.53229
2.4765 6.90075
2.52115 6.72212
2.56577 6.96217
2.6104 7.679
2.65503 7.00392
2.69965 7.2109
2.7443 8.0812
2.78893 7.9822
2.83356 7.66146
2.87818 8.47839
2.92281 8.95753
2.96744 9.46321
3.01209 10.6311
3.05672 11.3787
3.10135 12.0097
3.14599 13.3472
3.19062 14.219
3.23527 15.4783
3.2799 15.2572
3.32454 16.5465
3.36917 17.7541
3.4138 18.9588
3.45844 19.9515
3.50309 20.4345
3.54773 21.8412
3.59237 23.0327
3.637 55.5686
3.68164 40.3555
3.7263 25.6929
3.77094 26.0834
3.81558 26.8886
3.86022 27.536
3.90486 28.8022
3.9495 29.987
3.99416 30.661
4.0388 32.2484
4.08344 33.5574
4.12809 34.5203
4.17273 36.7316
4.21738 40.6171
4.26204 138.52
4.30669 123.83
4.35133 45.1237
4.39598 44.5992
4.44063 49.9413
4.4853 56.4625
4.52995 53.2136
4.5746 54.0142
4.61925 54.3963
4.6639 56.2525
4.70855 58.8972
4.75322 62.6536
4.79788 66.5298
4.84253 68.6891
4.88719 74.5086
4.93184 77.583
4.97652 83.2168
5.02118 90.2032
5.06583 98.4851
5.11049 111.695
5.15515 165.799
5.19981 530.527
5.24449 3495.6
5.28916 11699.5
5.33382 2907.96
5.37848 205.205
5.42315 135.093
5.46783 119.574
5.5125 110.863
5.55716 104.381
5.60183 100.148
5.6465 98.4085
5.69117 96.2513
5.73586 95.2175
5.78053 97.114
5.8252 96.4334
5.86988 98.2384
5.91455 98.8569
5.95924 111.919
6.00392 294.486
6.0486 1187.35
6.09328 4298.76
6.13795 3295.78
6.18263 260.147
6.22733 95.872
6.27201 83.5086
6.3167 89.282
6.36138 76.7994
6.40606 70.3387
6.45075 68.9342
6.49545 66.1457
6.54014 64.5427
6.58483 63.5001
6.62952 63.539
6.67421 77.2174
6.71892 99.1602
6.76361 64.1116
6.8083 59.2087
6.853 58.7248
6.89769 57.1129
6.94239 57.1515
6.98711 56.2943
7.03181 56.0355
7.07651 55.5455
7.12121 55.3635
7.16591 55.9938
7.21063 55.3798
7.25533 62.0778
7.30004 110.894
7.34475 72.4247
7.38945 56.1565
7.43416 54.5588
7.47889 54.3254
7.5236 55.2673
7.56831 55.9833
7.61303 56.78
7.65774 57.0222
7.70247 57.143
7.74719 56.8939
7.79191 57.6694
7.83663 57.536
7.88135 58.4392
7.92607 59.428
7.97081 61.0095
8.01553 61.6692
8.06026 63.3374
8.10498 64.9662
8.14971 71.452
8.19446 71.059
8.23919 70.9357
8.28392 73.3216
8.32865 75.9021
8.37339 80.2124
8.41812 86.4948
8.46288 109.323
8.50761 209.391
8.55235 465.982
8.59709 1239.56
8.64183 2184.78
8.68658 991.919
8.73134 167.833
8.77609 101.805
8.82083 94.7075
8.86558 92.5972
8.91033 91.1256
8.9551 90.5096
8.99985 86.6377
9.04461 85.2007
9.08936 84.9278
9.13412 83.5224
9.17888 83.51
9.22365 83.8264
9.26841 83.5298
9.31318 84.9844
9.35794 85.7699
9.4027 85.4037
9.44749 85.7605
9.49226 86.1746
9.53703 87.1567
9.5818 89.7661
9.62657 93.2556
9.67134 96.4951
9.71614 94.693
9.76091 96.1309
9.80569 99.9234
9.85047 102.559
9.89525 115.617
9.94005 135.166
9.98484 221.593
10.0296 410.673
10.0744 886.702
10.1192 1714.6
10.164 1626.58
10.2088 406.868
10.2536 129.694
10.2984 113.071
10.3432 111.75
10.388 108.386
10.4328 131.905
10.4776 179.529
10.5224 300.873
10.5672 498.536
10.612 491.837
10.6568 201.094
10.7017 97.4664
10.7465 87.9823
10.7913 84.3415
10.8361 82.1174
10.8809 80.1764
10.9257 78.7605
10.9706 78.6489
11.0154 75.595
11.0602 73.869
11.105 72.4736
11.1499 73.5529
11.1947 76.8824
11.2395 72.1243
11.2844 69.5227
11.3292 67.7838
11.374 66.8194
11.4189 66.5709
11.4637 65.7882
11.5086 65.8485
11.5534 66.6185
11.5983 65.3658
11.6431 64.3468
11.688 63.8908
11.7328 64.099
11.7777 63.529
11.8225 63.526
11.8674 63.5151
11.9122 63.7514
11.9571 63.9051
12.002 65.663
12.0468 72.1472
12.0917 83.9911
12.1366 109.571
12.1814 156.277
12.2263 200.964
12.2712 170.891
12.3161 91.6192
12.3609 68.8503
12.4058 65.0896
12.4507 65.3603
12.4956 65.2408
12.5405 65.6283
12.5853 66.0701
12.6302 69.974
12.6751 73.0214
12.72 69.4368
12.7649 68.6715
12.8098 69.3502
12.8547 70.9571
12.8996 72.4884
12.9445 73.8725
12.9894 75.5523
13.0343 77.616
13.0792 81.7776
13.1242 97.637
13.1691 122.469
13.214 162.917
13.2589 251.693
13.3038 368.725
13.3487 423.497
13.3937 262.797
13.4386 124.981
13.4835 114.034
13.5285 130.722
13.5734 171.832
13.6183 253.974
13.6633 342.156
13.7082 343.704
13.7531 188.172
13.7981 98.1835
13.843 83.1535
13.888 80.7701
13.9329 78.3913
13.9779 77.1289
14.0228 75.4797
14.0678 74.3894
14.1127 73.4913
14.1577 73.4198
14.2027 72.2792
14.2476 71.4964
14.2926 71.182
14.3376 71.8612
14.3825 70.9782
14.4275 69.9005
14.4725 69.9546
14.5175 69.944
14.5624 70.2938
14.6074 71.1914
14.6524 72.0155
14.6974 71.9517
14.7424 76.0964
14.7874 83.7956
14.8324 95.3668
14.8774 118.181
14.9224 157.718
14.9674 202.766
15.0124 216.113
15.0574 147.554
15.1024 90.8758
15.1474 73.1187
15.1924 71.3693
15.2374 71.031
15.2824 70.234
15.3274 68.5507
15.3725 67.6626
15.4175 67.5398
15.4625 67.1075
15.5076 67.2531
15.5526 67.1984
15.5976 67.0552
15.6426 70.2881
15.6877 76.7057
15.7327 84.9523
15.7778 101.135
15.8228 131.04
15.8679 169.404
15.9129 192.348
15.958 155.444
16.003 95.2196
16.0481 68.0454
16.0931 64.534
16.1382 62.5945
16.1833 61.1585
16.2283 59.7662
16.2734 59.1427
16.3185 58.9877
16.3636 58.6755
16.4086 57.907
16.4537 56.9504
16.4988 56.2097
16.5439 56.4622
16.589 55.9215
16.6341 55.5792
16.6792 55.3689
16.7243 55.5855
16.7694 55.4337
16.8145 55.4756
16.8596 55.8507
16.9047 56.661
16.9498 56.9052
16.9949 56.4195
17.04 57.1877
17.0851 58.7311
17.1302 60.5295
17.1754 63.5656
17.2205 68.7439
17.2656 75.221
17.3108 82.427
17.3559 82.1519
17.401 71.765
17.4462 62.9374
17.4913 60.2666
17.5365 60.0012
17.5815 60.4101
17.6268 60.7585
17.6718 61.3844
17.7171 61.7941
17.7622 62.5925
17.8074 63.8279
17.8525 67.4495
17.8977 71.399
17.9428 77.1033
17.9881 86.7528
18.0331 102.989
18.0784 121.483
18.1237 140.267
18.1688 133.363
18.214 105.779
18.2591 88.8135
18.3044 91.9455
18.3495 100.784
18.3948 107.037
18.4399 97.0707
18.4852 78.2956
18.5303 66.6317
18.5756 63.1
18.6207 62.1145
18.666 61.3397
18.7112 60.4582
18.7565 59.9662
18.8016 59.4439
18.8469 59.1469
18.892 58.6049
18.9374 58.1735
18.9825 57.9681
19.0278 57.8734
19.073 58.1553
19.1183 58.7278
19.1635 59.2651
19.2088 60.7795
19.254 63.7986
19.2993 67.7951
19.3447 72.8089
19.3898 76.5788
19.4352 72.9286
19.4804 63.8889
19.5257 57.3221
19.5709 55.0565
19.6163 54.7921
19.6615 54.6479
19.7068 54.1628
19.752 54.1232
19.7974 54.702
19.8426 55.5275
19.888 56.144
19.9332 57.5166
19.9786 60.2748
20.0238 63.755
20.0692 67.7936
20.1144 70.4655
20.1598 69.1162
20.205 64.4603
20.2504 62.9226
20.2957 64.2526
20.3411 66.046
20.3863 64.4772
20.4318 58.7938
20.477 54.0943
20.5224 51.9205
20.5677 51.5763
20.6131 50.8011
20.6586 50.5186
20.7038 50.3425
20.7493 49.8183
20.7945 49.6981
20.84 49.5068
20.8853 49.3851
20.9307 49.6306
20.976 49.7232
21.0215 49.4544
21.0668 49.8028
21.1122 50.4001
21.1575 50.7811
21.203 51.5384
21.2483 52.2118
21.2938 52.1876
21.3391 50.8349
21.3846 49.7424
21.4299 49.3217
21.4754 49.4416
21.5207 49.477
21.5662 49.8458
21.6116 50.2677
21.6571 51.0891
21.7024 52.191
21.7479 54.123
21.7933 56.6088
21.8388 59.9037
21.8843 63.2465
21.9297 65.4032
21.9752 64.0674
22.0206 60.1426
22.0661 57.0678
22.1115 56.5524
22.157 56.5445
22.2024 55.0435
22.248 52.1177
22.2933 50.5025
22.3389 49.8176
22.3843 49.7205
22.4299 49.4971
22.4753 49.5521
22.5208 49.3413
22.5662 49.278
22.6118 49.5668
22.6572 50.0611
22.7028 50.2825
22.7483 50.7172
22.7939 51.6617
22.8393 53.1349
22.8849 55.014
22.9303 56.6612
22.9759 58.2988
23.0214 58.0153
23.067 55.1232
23.1126 51.6794
23.1581 49.9128
23.2037 49.5316
23.2492 49.7747
23.2948 49.7746
23.3403 50.1503
23.3859 50.8129
23.4314 51.9452
23.477 53.6244
23.5225 55.5499
23.5682 57.3904
23.6137 58.4203
23.6593 56.221
23.7048 52.2075
23.7505 49.0098
23.796 47.1721
23.8417 46.6096
23.8872 46.2027
23.9329 45.8115
23.9784 45.4772
24.0241 45.1714
24.0697 45.1454
24.1154 44.7642
24.1609 44.5482
24.2066 44.2917
24.2522 44.3499
24.2979 44.1738
24.3434 44.0607
24.3892 43.721
24.4349 43.7676
24.4805 43.5925
24.5262 43.8602
24.5718 43.6381
24.6175 43.5648
24.6631 43.509
24.7089 43.0731
24.7545 43.0092
24.8002 42.861
24.8458 42.8995
24.8916 42.9517
24.9372 43.0016
24.983 43.376
25.0286 43.68
25.0744 44.0014
25.12 44.5115
25.1658 45.1552
25.2114 45.3487
25.2572 45.4732
25.3029 45.3344
25.3487 45.4492
25.3943 45.1509
25.4402 44.0332
25.4858 43.0471
25.5316 42.0139
25.5773 41.3881
25.6231 41.5318
25.669 41.1879
25.7147 41.1904
25.7605 41.0745
25.8062 41.0611
25.8521 41.207
25.8977 41.21
25.9436 41.4964
25.9893 41.7086
26.0352 42.1837
26.0809 42.1512
26.1268 42.3149
26.1725 42.0495
26.2184 41.4018
26.2641 40.9308
26.31 40.7942
26.3557 40.7397
26.4017 40.8052
26.4474 41.1076
26.4933 41.5068
26.5391 41.8517
26.585 42.4161
26.6308 42.6322
26.6767 42.8885
26.7225 42.5993
26.7684 42.143
26.8142 41.3881
26.8601 41.129
26.9059 40.6249
26.9519 40.1014
26.9979 39.9303
27.0437 39.4731
27.0896 39.3492
27.1354 39.321
27.1814 39.2717
27.2272 39.2826
27.2732 39.185
27.3191 39.0922
27.3651 39.1346
27.4109 38.9078
27.4569 39.0596
27.5027 39.1685
27.5488 39.1559
27.5946 38.9388
27.6407 38.8747
27.6865 38.6788
27.7326 38.429
27.7784 38.5616
27.8245 38.4969
27.8703 38.4399
27.9164 38.8395
27.9623 39.0843
28.0084 39.284
28.0543 39.7296
28.1003 39.613
28.1462 39.4594
28.1923 39.0018
28.2384 38.5003
28.2843 38.2535
28.3304 37.6594
28.3764 37.2264
28.4225 36.974
28.4684 36.8123
28.5145 36.5062
28.5605 36.3482
28.6066 36.2138
28.6526 36.3096
28.6987 36.0859
28.7447 36.024
28.7908 35.9074
28.8368 36.0522
28.8829 36.0108
28.9289 35.8655
28.9751 35.7179
29.0211 35.5281
29.0673 35.2085
29.1133 35.0973
29.1595 34.8995
29.2055 34.9719
29.2517 34.8327
29.2977 34.7614
29.3439 34.7884
29.3899 34.7395
29.4361 34.7352
29.4824 34.4435
29.5284 34.2731
29.5746 33.934
29.6207 33.6584
29.6669 33.6687
29.713 33.4763
29.7593 33.3132
29.8053 33.3296
29.8516 33.2983
29.8977 33.2875
29.9439 33.135
29.99 33.0676
30.0363 32.8972
30.0824 33.0113
30.1287 32.8722
30.1748 32.8217
30.2211 32.9254
30.2673 32.7788
30.3136 32.9059
30.3597 32.8004
30.406 32.6884
30.4522 32.5399
30.4985 32.5012
30.5447 32.5779
30.591 32.5674
30.6372 32.679
30.6835 32.6144
30.7297 32.619
30.7761 32.5382
30.8224 32.5246
30.8686 32.226
30.915 32.1412
30.9612 32.0844
31.0076 31.7105
31.0538 31.6402
31.1002 31.588
31.1464 31.3097
31.1928 31.5147
31.2391 31.4997
31.2855 31.2963
31.3317 31.3096
31.3781 31.4272
31.4244 31.4016
31.4708 31.3781
31.5171 31.2344
31.5636 31.3028
31.6098 30.9363
31.6563 30.9255
31.7026 30.7161
31.7491 30.5308
31.7953 30.58
31.8418 30.6342
31.8881 30.6702
31.9346 30.5667
31.9809 30.4786
32.0275 30.3576
32.074 30.2999
32.1203 30.1153
32.1668 29.9399
32.2132 29.7546
32.2597 29.6921
32.306 29.7364
32.3526 29.3107
32.399 29.3822
32.4455 29.262
32.4919 29.1883
32.5385 29.0637
32.5848 28.8386
32.6314 28.9297
32.6778 28.8587
32.7244 28.7603
32.7708 28.5963
32.8174 28.593
32.8638 28.4504
32.9104 28.5534
32.9569 28.4895
33.0035 28.3061
33.0499 28.3465
33.0966 28.2966
33.143 28.1581
33.1897 28.1434
33.2361 28.025
33.2828 27.9993
33.3293 27.7266
33.3759 27.8024
33.4226 27.6468
33.4691 27.5325
33.5158 27.4298
33.5623 27.3629
33.609 27.1421
33.6555 27.1408
33.7022 27.0016
33.7487 26.9427
33.7954 26.8416
33.842 26.7398
33.8887 26.7061
33.9353 26.6325
33.982 26.5701
34.0286 26.4823
34.0753 26.3868
34.1219 26.3345
34.1687 26.2831
34.2152 26.1897
34.262 26.0188
34.3086 25.8602
34.3554 25.9323
34.402 25.7679
34.4488 25.6762
34.4954 25.6723
34.5422 25.5046
34.5889 25.3752
34.6357 25.3632
34.6825 25.2923
34.7292 25.2091
34.776 25.1509
34.8227 25.074
34.8695 25.0168
34.9162 24.9097
34.9631 24.8452
35.0098 24.8306
35.0566 24.7592
35.1033 24.6483
35.1502 24.5966
35.1969 24.5369
35.2438 24.4533
35.2906 24.4409
35.3375 24.3943
35.3842 24.371
35.4311 24.2418
35.4779 24.2777
35.5248 24.2388
35.5716 24.1876
35.6185 24.0305
35.6653 23.9025
35.7123 23.8339
35.759 23.808
35.806 23.662
35.8528 23.5644
35.8998 23.6148
35.9468 23.4977
35.9936 23.3489
36.0406 23.3891
36.0874 23.2637
36.1345 23.3088
36.1813 23.1461
36.2283 23.0197
36.2752 23.1078
36.3222 22.9679
36.3691 23.022
36.4161 22.7558
36.463 22.8349
36.5101 22.7362
36.557 22.6759
36.6041 22.4894
36.651 22.5153
36.6981 22.4252
36.745 22.3683
36.7921 22.304
36.839 22.1699
36.8861 22.1226
36.9331 22.0581
36.9802 21.9793
37.0272 21.9408
37.0743 21.8234
37.1213 21.8474
37.1684 21.77
37.2154 21.6775
37.2626 21.612
37.3098 21.4882
37.3568 21.464
37.404 21.3686
37.451 21.2827
37.4982 21.2508
37.5452 21.1153
37.5924 21.1294
37.6395 21.1871
37.6867 21.0084
37.7337 20.9162
37.781 20.8495
37.8281 20.8094
37.8753 20.7148
37.9224 20.6323
37.9697 20.5492
38.0168 20.5122
38.064 20.3728
38.1111 20.4165
38.1584 20.3154
38.2056 20.2667
38.2529 20.2251
38.3 20.165
38.3473 20.1683
38.3945 19.9461
38.4418 19.9085
38.489 19.9266
38.5363 19.767
38.5837 19.7721
38.6309 19.7143
38.6782 19.6222
38.7254 19.531
38.7728 19.4399
38.82 19.4381
38.8674 19.4194
38.9146 19.3496
38.9621 19.2407
39.0093 19.1877
39.0567 19.1258
39.104 19.0832
39.1514 18.9803
39.1987 18.9579
39.2461 18.9438
39.2934 18.8983
39.3409 18.7255
39.3882 18.6842
39.4356 18.6011
39.483 18.5437
39.5304 18.4805
39.5778 18.5159
39.6253 18.4538
39.6726 18.3722
39.7201 18.2751
39.7675 18.2721
39.815 18.2814
39.8624 18.1321
39.9099 18.1352
39.9575 18.0135
40.0049 17.9477
40.0525 17.8474
40.0999 17.8378
40.1474 17.8135
40.1949 17.7241
40.2425 17.6738
40.2899 17.5758
40.3375 17.5608
40.385 17.4679
40.4326 17.4737
40.48 17.4618
40.5277 17.4264
40.5752 17.2767
40.6228 17.2278
40.6703 17.1921
40.718 17.116
40.7655 17.0993
40.8132 16.9967
40.8607 16.9677
40.9084 16.9563
40.9559 16.9192
41.0036 16.8132
41.0512 16.7616
41.0989 16.6466
41.1465 16.6322
41.1942 16.6067
41.242 16.4947
41.2896 16.4459
41.3373 16.3548
41.3849 16.3754
41.4327 16.2863
41.4803 16.2114
41.5281 16.205
41.5758 16.1041
41.6236 16.0789
41.6712 15.9982
41.7191 15.9348
41.7667 15.8772
41.8146 15.8721
41.8622 15.8079
41.9101 15.7582
41.9578 15.646
42.0057 15.6613
42.0534 15.6005
42.1013 15.526
42.149 15.5155
42.1969 15.4301
42.2446 15.3857
42.2925 15.3646
42.3403 15.3027
42.3882 15.2572
42.436 15.1429
42.4839 15.1568
42.5319 15.0841
42.5797 15.0071
42.6277 15.0188
42.6755 14.953
42.7235 14.8911
42.7713 14.8407
42.8193 14.7949
42.8671 14.7288
42.9152 14.6943
42.963 14.6237
43.0111 14.546
43.0589 14.5057
43.107 14.4138
43.1549 14.4364
43.2029 14.3491
43.2508 14.3544
43.2989 14.2889
43.3468 14.2084
43.3949 14.178
43.4429 14.1297
43.491 14.0406
43.5389 14.0654
43.5871 14.0143
43.635 13.9627
43.6832 13.8906
43.7312 13.8304
43.7793 13.7846
43.8273 13.7497
43.8755 13.6666
43.9237 13.5937
43.9717 13.6003
44.0199 13.5507
44.068 13.545
44.1162 13.4446
44.1642 13.4388
44.2125 13.3705
44.2606 13.3742
44.3088 13.244
44.3569 13.2677
44.4052 13.1871
44.4533 13.1472
44.5016 13.078
44.5497 13.0496
44.598 13.0647
44.6461 12.9442
44.6945 12.8787
44.7426 12.8883
44.791 12.8132
44.8391 12.7701
44.8875 12.6958
44.9357 12.7013
44.984 12.6547
45.0322 12.5974
45.0806 12.5784
45.1288 12.5226
45.1773 12.457
45.2257 12.4449
45.2739 12.3678
45.3224 12.3484
45.3706 12.3137
45.4191 12.2031
45.4673 12.23
45.5158 12.1466
45.5641 12.1262
45.6126 12.0842
45.6609 12.0313
45.7094 11.9557
45.7577 11.9185
45.8063 11.8775
45.8546 11.838
45.9031 11.8026
45.9515 11.7391
46.0001 11.7172
46.0484 11.6609
46.097 11.6921
46.1454 11.6116
46.194 11.5444
46.2424 11.5208
46.291 11.4784
46.3395 11.4546
46.3881 11.3912
46.4365 11.3538
46.4852 11.3303
46.5337 11.2559
46.5823 11.229
46.631 11.1669
46.6795 11.1551
46.7282 11.1249
46.7767 11.0771
46.8254 11.0137
46.8739 10.9652
46.9226 10.9297
46.9712 10.8951
47.0199 10.8629
47.0685 10.7935
47.1173 10.7682
47.1658 10.7013
47.2146 10.7439
47.2632 10.6442
47.312 10.6559
47.3606 10.608
47.4095 10.5249
47.4581 10.5288
47.5069 10.456
47.5556 10.4115
47.6044 10.374
47.6531 10.3246
47.702 10.2692
47.7507 10.2887
47.7996 10.1996
47.8483 10.1966
47.8972 10.1489
47.9461 10.1133
47.9948 10.0574
48.0438 10.0256
48.0925 10.0605
48.1415 9.98817
48.1902 9.91858
48.2392 9.9087
48.288 9.86335
48.337 9.8529
48.3858 9.76132
48.4348 9.74346
48.4837 9.75573
48.5327 9.74858
48.5815 9.66294
48.6306 9.6479
48.6795 9.60941
48.7285 9.54943
48.7774 9.54327
48.8265 9.4946
48.8754 9.46536
48.9245 9.40284
48.9734 9.35025
49.0226 9.38402
49.0715 9.30445
49.1206 9.26054
49.1696 9.24986
49.2188 9.1976
49.2679 9.15517
49.3169 9.11548
49.3661 9.07283
49.4151 9.07624
49.4643 9.04904
49.5134 8.96926
49.5626 8.92869
49.6117 8.92661
49.6609 8.8912
49.71 8.84721
49.7592 8.85837
49.8083 8.7785
49.8576 8.75476
49.9067 8.69717
49.956 8.69307
50.0052 8.65414
50.0545 8.6176
50.1036 8.56846
50.153 8.55992
50.2022 8.52911
50.2515 8.49189
50.3007 8.45413
50.3501 8.42279
50.3993 8.39906
50.4487 8.34509
50.498 8.34227
50.5474 8.28168
50.5966 8.23587
50.6461 8.23772
50.6955 8.19764
50.7448 8.18226
50.7943 8.10615
50.8436 8.10059
50.8931 8.08127
50.9424 8.04164
50.9919 8.04094
51.0413 8.01363
51.0908 7.94227
51.1402 7.92248
51.1897 7.8754
51.2391 7.84782
51.2887 7.8083
51.3381 7.78262
51.3877 7.74887
51.4371 7.69443
51.4867 7.67743
51.5362 7.67141
51.5858 7.60516
51.6353 7.5848
51.6849 7.56453
51.7344 7.50165
51.7841 7.50156
51.8336 7.45602
51.8833 7.4504
51.9328 7.414
51.9826 7.35253
52.0323 7.30317
52.0818 7.29649
52.1316 7.24192
52.1812 7.27474
52.231 7.22945
52.2806 7.17559
52.3304 7.15707
52.38 7.12732
52.4298 7.11403
52.4794 7.06809
52.5293 7.03531
52.5789 7.01636
52.6288 6.99704
52.6785 6.96468
52.7284 6.89786
52.7781 6.94075
52.828 6.83531
52.8777 6.85876
52.9276 6.79106
52.9774 6.7887
53.0273 6.79054
53.0771 6.72251
53.1271 6.70494
53.1769 6.67677
53.2269 6.61963
53.2767 6.59865
53.3267 6.56627
53.3765 6.57003
53.4266 6.51904
53.4766 6.50998
53.5265 6.51769
53.5765 6.41799
53.6264 6.446
53.6765 6.42385
53.7264 6.34019
53.7765 6.32322
53.8265 6.31535
53.8766 6.28491
53.9266 6.26313
53.9767 6.22168
54.0267 6.17087
54.0769 6.17065
54.1269 6.13435
54.1771 6.07122
54.2271 6.09924
54.2773 6.04511
54.3274 5.99652
54.3776 5.96991
54.4277 5.96025
54.478 5.92193
54.528 5.89108
54.5783 5.83758
54.6285 5.79179
54.6788 5.77801
54.7289 5.71323
54.7792 5.69602
54.8296 5.65449
54.8798 5.57277
54.9301 5.55221
54.9803 5.49344
55.0307 5.47514
55.0809 5.423
55.1314 5.40823
55.1816 5.31747
55.232 5.33092
55.2823 5.27392
55.3328 5.22719
55.383 5.16548
55.4335 5.13723
55.4838 5.12299
55.5344 4.99655
55.5847 4.96185
55.6352 4.96077
55.6856 4.92871
55.7361 4.89255