File: XRD/Ni3Fe_FD0388.xy
TT I
1.27165 7.44363
1.31627 7.14181
1.36089 6.93663
1.40551 6.29639
1.45013 7.05811
1.49476 6.57436
1.53938 5.72733
1.584 5.62684
1.62863 5.46123
1.67325 4.66109
1.71787 5.54087
1.7625 5.25579
1.80712 5.23771
1.85174 5.1308
1.89636 4.93194
1.94099 5.21914
1.98562 4.73059
2.03025 4.91275
2.07487 4.67143
2.11949 4.69398
2.16411 4.54148
2.20874 14.2269
2.25338 22.8645
2.298 5.60305
2.34263 5.17659
2.38725 5.29598
2.43188 6.24035
2.4765 5.51093
2.52115 6.20918
2.56577 6.73292
2.6104 6.47603
2.65503 6.9141
2.69965 7.40576
2.7443 7.5766
2.78893 7.65911
2.83356 7.8676
2.87818 8.25952
2.92281 8.47576
2.96744 9.64487
3.01209 10.7357
3.05672 10.9621
3.10135 12.1449
3.14599 12.6354
3.19062 14.6571
3.23527 15.0468
3.2799 15.986
3.32454 16.7853
3.36917 18.0614
3.4138 19.2486
3.45844 19.8845
3.50309 21.4559
3.54773 22.2603
3.59237 24.6157
3.637 93.256
3.68164 59.3037
3.7263 26.3026
3.77094 26.3919
3.81558 27.573
3.86022 27.907
3.90486 29.6143
3.9495 30.1681
3.99416 31.257
4.0388 32.6642
4.08344 34.6862
4.12809 35.3645
4.17273 37.8055
4.21738 44.1299
4.26204 249.41
4.30669 215.718
4.35133 49.6885
4.39598 45.6483
4.44063 55.0157
4.4853 66.3795
4.52995 52.5522
4.5746 52.4851
4.61925 54.5643
4.6639 56.5715
4.70855 59.1138
4.75322 62.357
4.79788 65.7242
4.84253 69.0611
4.88719 73.093
4.93184 77.0425
4.97652 82.5666
5.02118 90.235
5.06583 98.3533
5.11049 111.674
5.15515 187.878
5.19981 455.446
5.24449 3159.79
5.28916 11458.1
5.33382 3546.4
5.37848 225.843
5.42315 139.039
5.46783 120.58
5.5125 110.548
5.55716 105.893
5.60183 101.782
5.6465 99.854
5.69117 97.495
5.73586 95.0369
5.78053 95.3768
5.8252 94.9789
5.86988 95.5815
5.91455 98.6461
5.95924 108.898
6.00392 247.191
6.0486 1103.46
6.09328 4007.09
6.13795 3483.17
6.18263 302.69
6.22733 101.004
6.27201 86.7371
6.3167 105.19
6.36138 83.0449
6.40606 71.243
6.45075 69.4237
6.49545 66.9564
6.54014 65.6896
6.58483 64.8274
6.62952 64.56
6.67421 95.7417
6.71892 145.712
6.76361 70.2652
6.8083 60.2968
6.853 58.9303
6.89769 57.7452
6.94239 57.872
6.98711 57.1199
7.03181 56.9057
7.07651 56.5768
7.12121 56.6776
7.16591 56.9112
7.21063 57.0293
7.25533 71.7216
7.30004 182.279
7.34475 92.8732
7.38945 57.5815
7.43416 55.999
7.47889 55.65
7.5236 55.9303
7.56831 56.6267
7.61303 58.1133
7.65774 58.8469
7.70247 57.7293
7.74719 57.4694
7.79191 58.0566
7.83663 58.0918
7.88135 59.2641
7.92607 60.1992
7.97081 61.2256
8.01553 62.1293
8.06026 63.7822
8.10498 65.7156
8.14971 75.2455
8.19446 73.8451
8.23919 71.3589
8.28392 73.6678
8.32865 75.8803
8.37339 80.4213
8.41812 87.843
8.46288 118.534
8.50761 183.76
8.55235 435.043
8.59709 1145.44
8.64183 2123.51
8.68658 1171.0
8.73134 198.283
8.77609 104.924
8.82083 95.7592
8.86558 92.5272
8.91033 93.012
8.9551 93.942
8.99985 87.5537
9.04461 85.4805
9.08936 85.1244
9.13412 84.0788
9.17888 84.4419
9.22365 84.6784
9.26841 83.8353
9.31318 85.0526
9.35794 84.6687
9.4027 85.3702
9.44749 85.7126
9.49226 86.836
9.53703 87.2183
9.5818 89.8848
9.62657 94.3657
9.67134 100.911
9.71614 96.0969
9.76091 96.2199
9.80569 98.8721
9.85047 103.169
9.89525 127.681
9.94005 141.257
9.98484 194.366
10.0296 384.684
10.0744 811.833
10.1192 1589.14
10.164 1701.25
10.2088 507.419
10.2536 141.392
10.2984 117.61
10.3432 118.578
10.388 108.09
10.4328 125.724
10.4776 171.542
10.5224 280.977
10.5672 484.14
10.612 531.501
10.6568 229.972
10.7017 102.813
10.7465 89.6076
10.7913 85.4785
10.8361 83.4012
10.8809 80.9821
10.9257 80.6963
10.9706 81.3046
11.0154 76.6601
11.0602 74.5666
11.105 73.6673
11.1499 77.8189
11.1947 85.347
11.2395 76.2415
11.2844 72.1556
11.3292 69.0126
11.374 67.9272
11.4189 67.2959
11.4637 66.8
11.5086 67.2487
11.5534 70.032
11.5983 67.2005
11.6431 65.0375
11.688 64.3872
11.7328 64.4995
11.7777 64.4451
11.8225 64.0153
11.8674 63.9824
11.9122 64.4226
11.9571 64.7089
12.002 65.3401
12.0468 70.1988
12.0917 83.3651
12.1366 105.836
12.1814 147.93
12.2263 195.963
12.2712 180.046
12.3161 108.305
12.3609 72.9494
12.4058 66.5844
12.4507 65.8364
12.4956 66.1618
12.5405 66.2704
12.5853 67.0162
12.6302 75.1449
12.6751 80.7603
12.72 71.5704
12.7649 69.6021
12.8098 70.1651
12.8547 71.3686
12.8996 72.8181
12.9445 74.0703
12.9894 75.8041
13.0343 77.783
13.0792 81.264
13.1242 91.912
13.1691 119.212
13.214 156.737
13.2589 235.956
13.3038 349.421
13.3487 423.43
13.3937 296.954
13.4386 140.732
13.4835 111.662
13.5285 128.459
13.5734 163.469
13.6183 238.54
13.6633 328.656
13.7082 346.944
13.7531 211.466
13.7981 106.7
13.843 84.626
13.888 81.712
13.9329 79.0844
13.9779 77.595
14.0228 76.1525
14.0678 74.9366
14.1127 74.7069
14.1577 74.6214
14.2027 73.4938
14.2476 72.4833
14.2926 72.6156
14.3376 73.6687
14.3825 72.1856
14.4275 70.612
14.4725 70.3895
14.5175 70.6527
14.5624 70.8073
14.6074 73.1536
14.6524 73.8139
14.6974 72.2344
14.7424 73.8889
14.7874 81.7738
14.8324 93.6274
14.8774 113.946
14.9224 149.769
14.9674 196.779
15.0124 219.588
15.0574 164.324
15.1024 99.5898
15.1474 75.296
15.1924 72.264
15.2374 72.8973
15.2824 72.0926
15.3274 70.1583
15.3725 68.6838
15.4175 68.1186
15.4625 67.7392
15.5076 67.9841
15.5526 67.9128
15.5976 67.4065
15.6426 68.7681
15.6877 75.3858
15.7327 83.9123
15.7778 98.0633
15.8228 125.522
15.8679 162.918
15.9129 189.877
15.958 168.444
16.003 107.206
16.0481 71.9425
16.0931 66.6901
16.1382 64.3539
16.1833 62.4244
16.2283 60.763
16.2734 59.9682
16.3185 60.3048
16.3636 60.9481
16.4086 59.1875
16.4537 57.6159
16.4988 56.9229
16.5439 56.8824
16.589 56.6015
16.6341 56.3213
16.6792 55.9819
16.7243 56.3095
16.7694 56.3484
16.8145 56.2652
16.8596 56.7608
16.9047 58.2539
16.9498 58.562
16.9949 57.2156
17.04 57.4358
17.0851 58.5801
17.1302 60.5887
17.1754 63.6539
17.2205 68.0886
17.2656 74.5471
17.3108 82.3297
17.3559 84.4788
17.401 74.6211
17.4462 64.6362
17.4913 61.053
17.5365 60.7441
17.5815 60.7821
17.6268 60.9529
17.6718 62.0213
17.7171 62.577
17.7622 62.809
17.8074 63.6138
17.8525 66.0447
17.8977 70.7659
17.9428 76.8527
17.9881 84.9868
18.0331 99.7274
18.0784 118.32
18.1237 137.645
18.1688 136.961
18.214 112.25
18.2591 91.1285
18.3044 91.0058
18.3495 98.7176
18.3948 105.875
18.4399 100.24
18.4852 82.6953
18.5303 68.8938
18.5756 64.0986
18.6207 63.0444
18.666 62.0392
18.7112 61.5145
18.7565 60.6566
18.8016 60.1418
18.8469 59.3734
18.892 59.1696
18.9374 58.6797
18.9825 58.6553
19.0278 58.3402
19.073 58.438
19.1183 59.1444
19.1635 60.1344
19.2088 61.1748
19.254 63.3739
19.2993 67.1083
19.3447 72.5909
19.3898 76.9496
19.4352 74.6669
19.4804 66.657
19.5257 59.3459
19.5709 55.9113
19.6163 55.5267
19.6615 55.1433
19.7068 54.8291
19.752 54.6005
19.7974 55.0189
19.8426 55.9016
19.888 56.7781
19.9332 57.827
19.9786 60.0365
20.0238 63.2326
20.0692 67.6053
20.1144 70.4498
20.1598 70.4103
20.205 66.1382
20.2504 63.591
20.2957 64.4089
20.3411 66.1965
20.3863 65.626
20.4318 61.0372
20.477 55.9282
20.5224 53.4131
20.5677 52.3802
20.6131 51.5363
20.6586 51.0701
20.7038 50.7747
20.7493 50.4361
20.7945 50.1721
20.84 50.2905
20.8853 49.9444
20.9307 49.7457
20.976 49.9853
21.0215 49.928
21.0668 50.282
21.1122 50.7194
21.1575 51.3687
21.203 51.8552
21.2483 52.1777
21.2938 52.7393
21.3391 51.585
21.3846 50.4574
21.4299 49.6421
21.4754 49.6618
21.5207 49.7396
21.5662 50.2032
21.6116 50.5605
21.6571 51.3262
21.7024 52.4097
21.7479 53.9904
21.7933 56.4358
21.8388 59.5823
21.8843 63.0818
21.9297 65.4777
21.9752 65.4209
22.0206 62.2594
22.0661 58.3281
22.1115 56.9932
22.157 57.1952
22.2024 56.2166
22.248 53.3925
22.2933 51.5052
22.3389 50.4458
22.3843 50.4257
22.4299 50.2378
22.4753 50.1489
22.5208 49.9748
22.5662 49.6707
22.6118 49.9081
22.6572 50.2004
22.7028 50.5529
22.7483 51.2783
22.7939 51.7912
22.8393 53.1916
22.8849 54.9392
22.9303 56.6413
22.9759 58.6088
23.0214 58.6991
23.067 56.4726
23.1126 53.1976
23.1581 50.7855
23.2037 50.1283
23.2492 50.2652
23.2948 50.0764
23.3403 50.5854
23.3859 51.1434
23.4314 52.0676
23.477 53.5476
23.5225 55.2803
23.5682 57.3724
23.6137 58.817
23.6593 57.5415
23.7048 53.9549
23.7505 50.151
23.796 48.065
23.8417 47.3573
23.8872 46.7164
23.9329 46.4169
23.9784 46.0258
24.0241 45.915
24.0697 45.7049
24.1154 45.3206
24.1609 45.3337
24.2066 45.0053
24.2522 45.0059
24.2979 44.6728
24.3434 44.56
24.3892 44.2854
24.4349 44.3313
24.4805 43.995
24.5262 44.13
24.5718 44.0727
24.6175 44.0767
24.6631 44.0521
24.7089 43.7645
24.7545 43.5642
24.8002 43.347
24.8458 43.4021
24.8916 43.0676
24.9372 43.3673
24.983 43.6007
25.0286 43.9466
25.0744 44.5334
25.12 44.668
25.1658 45.3716
25.2114 45.8175
25.2572 45.9193
25.3029 45.8367
25.3487 45.8526
25.3943 45.7952
25.4402 44.8646
25.4858 43.8231
25.5316 42.7009
25.5773 41.9964
25.6231 41.9381
25.669 41.5762
25.7147 41.6084
25.7605 41.5405
25.8062 41.6622
25.8521 41.8152
25.8977 41.6411
25.9436 41.9374
25.9893 41.9641
26.0352 42.4681
26.0809 42.3975
26.1268 42.615
26.1725 42.5241
26.2184 42.0597
26.2641 41.4084
26.31 41.2212
26.3557 41.2139
26.4017 41.1464
26.4474 41.4404
26.4933 41.8613
26.5391 42.2416
26.585 42.4741
26.6308 43.047
26.6767 43.1358
26.7225 43.0337
26.7684 42.7082
26.8142 42.0206
26.8601 41.4263
26.9059 41.1847
26.9519 40.6854
26.9979 40.3928
27.0437 39.8423
27.0896 39.7757
27.1354 39.6562
27.1814 39.5044
27.2272 39.5291
27.2732 39.5123
27.3191 39.3691
27.3651 39.4325
27.4109 39.45
27.4569 39.4346
27.5027 39.5202
27.5488 39.6674
27.5946 39.2858
27.6407 39.1493
27.6865 39.1634
27.7326 38.9126
27.7784 38.8086
27.8245 38.6695
27.8703 38.8989
27.9164 39.1106
27.9623 39.2044
28.0084 39.5648
28.0543 39.8926
28.1003 39.9277
28.1462 39.836
28.1923 39.5128
28.2384 38.9733
28.2843 38.6889
28.3304 38.2527
28.3764 37.7791
28.4225 37.4202
28.4684 37.2818
28.5145 36.9471
28.5605 36.7504
28.6066 36.62
28.6526 36.4976
28.6987 36.592
28.7447 36.3871
28.7908 36.358
28.8368 36.3155
28.8829 36.2461
28.9289 36.3182
28.9751 36.0937
29.0211 35.8054
29.0673 35.491
29.1133 35.4702
29.1595 35.3517
29.2055 35.2557
29.2517 35.1797
29.2977 35.1178
29.3439 35.1164
29.3899 35.004
29.4361 35.0224
29.4824 34.9366
29.5284 34.7184
29.5746 34.3734
29.6207 34.0483
29.6669 33.9646
29.713 33.8456
29.7593 33.6818
29.8053 33.7419
29.8516 33.6835
29.8977 33.594
29.9439 33.5128
29.99 33.3348
30.0363 33.3232
30.0824 33.3868
30.1287 33.3088
30.1748 33.2827
30.2211 33.1397
30.2673 33.1191
30.3136 33.1244
30.3597 33.1023
30.406 33.0991
30.4522 32.9246
30.4985 32.8682
30.5447 33.068
30.591 32.9785
30.6372 32.9839
30.6835 33.0301
30.7297 33.0198
30.7761 32.9853
30.8224 32.9275
30.8686 32.7066
30.915 32.448
30.9612 32.335
31.0076 32.1018
31.0538 31.9952
31.1002 31.9729
31.1464 31.8119
31.1928 31.8095
31.2391 31.6738
31.2855 31.7081
31.3317 31.5778
31.3781 31.7501
31.4244 31.724
31.4708 31.5694
31.5171 31.6048
31.5636 31.4965
31.6098 31.3202
31.6563 31.1998
31.7026 31.0556
31.7491 30.8576
31.7953 30.9563
31.8418 31.0214
31.8881 30.8819
31.9346 30.8298
31.9809 30.8389
32.0275 30.7599
32.074 30.6112
32.1203 30.4253
32.1668 30.2618
32.2132 30.1645
32.2597 29.9165
32.306 29.8641
32.3526 29.6916
32.399 29.6993
32.4455 29.5721
32.4919 29.4693
32.5385 29.4339
32.5848 29.2653
32.6314 29.2673
32.6778 29.0656
32.7244 28.9913
32.7708 28.8641
32.8174 28.7861
32.8638 28.7284
32.9104 28.767
32.9569 28.7005
33.0035 28.7199
33.0499 28.5079
33.0966 28.5447
33.143 28.3998
33.1897 28.3592
33.2361 28.3292
33.2828 28.2924
33.3293 28.087
33.3759 28.1208
33.4226 27.9351
33.4691 27.827
33.5158 27.7374
33.5623 27.6358
33.609 27.4191
33.6555 27.3929
33.7022 27.2668
33.7487 27.2141
33.7954 27.1062
33.842 27.1272
33.8887 26.9618
33.9353 26.8969
33.982 26.8616
34.0286 26.7517
34.0753 26.5757
34.1219 26.5715
34.1687 26.5082
34.2152 26.5597
34.262 26.2728
34.3086 26.3188
34.3554 26.1281
34.402 25.9949
34.4488 25.9293
34.4954 25.8627
34.5422 25.8008
34.5889 25.7122
34.6357 25.6215
34.6825 25.5846
34.7292 25.5301
34.776 25.3656
34.8227 25.3561
34.8695 25.2797
34.9162 25.2189
34.9631 25.0657
35.0098 25.1006
35.0566 24.9722
35.1033 24.8695
35.1502 24.9575
35.1969 24.8216
35.2438 24.7012
35.2906 24.6903
35.3375 24.7177
35.3842 24.6482
35.4311 24.585
35.4779 24.5851
35.5248 24.4969
35.5716 24.3732
35.6185 24.343
35.6653 24.1835
35.7123 24.1253
35.759 24.0451
35.806 23.9539
35.8528 23.8532
35.8998 23.8162
35.9468 23.8103
35.9936 23.688
36.0406 23.6397
36.0874 23.5931
36.1345 23.4722
36.1813 23.3695
36.2283 23.2392
36.2752 23.1807
36.3222 23.2466
36.3691 23.0845
36.4161 23.0192
36.463 23.0544
36.5101 23.0442
36.557 22.8689
36.6041 22.764
36.651 22.7104
36.6981 22.6781
36.745 22.6334
36.7921 22.489
36.839 22.4356
36.8861 22.2928
36.9331 22.3014
36.9802 22.2568
37.0272 22.2065
37.0743 22.055
37.1213 22.015
37.1684 21.9756
37.2154 21.8739
37.2626 21.7695
37.3098 21.7409
37.3568 21.7043
37.404 21.599
37.451 21.5654
37.4982 21.4565
37.5452 21.3296
37.5924 21.3375
37.6395 21.3618
37.6867 21.1986
37.7337 21.1376
37.781 21.0825
37.8281 20.9802
37.8753 20.8848
37.9224 20.8425
37.9697 20.8242
38.0168 20.7512
38.064 20.6494
38.1111 20.5996
38.1584 20.514
38.2056 20.4425
38.2529 20.4742
38.3 20.4082
38.3473 20.267
38.3945 20.1578
38.4418 20.1898
38.489 20.1278
38.5363 19.9913
38.5837 19.9718
38.6309 19.9259
38.6782 19.7989
38.7254 19.7851
38.7728 19.67
38.82 19.6369
38.8674 19.5393
38.9146 19.5254
38.9621 19.4306
39.0093 19.4203
39.0567 19.3877
39.104 19.2448
39.1514 19.1535
39.1987 19.1645
39.2461 19.1337
39.2934 19.0519
39.3409 18.9227
39.3882 18.8871
39.4356 18.8094
39.483 18.7822
39.5304 18.6945
39.5778 18.6846
39.6253 18.5818
39.6726 18.5414
39.7201 18.5457
39.7675 18.4895
39.815 18.3911
39.8624 18.296
39.9099 18.3343
39.9575 18.1778
40.0049 18.1863
40.0525 18.0676
40.0999 18.044
40.1474 18.0085
40.1949 17.9017
40.2425 17.7993
40.2899 17.8088
40.3375 17.7413
40.385 17.6727
40.4326 17.6693
40.48 17.5637
40.5277 17.5671
40.5752 17.5152
40.6228 17.4035
40.6703 17.3893
40.718 17.3293
40.7655 17.2574
40.8132 17.1825
40.8607 17.1692
40.9084 17.0987
40.9559 16.9943
41.0036 17.0505
41.0512 16.9297
41.0989 16.8991
41.1465 16.8352
41.1942 16.765
41.242 16.6927
41.2896 16.6534
41.3373 16.5904
41.3849 16.558
41.4327 16.476
41.4803 16.3436
41.5281 16.3766
41.5758 16.3054
41.6236 16.1737
41.6712 16.2717
41.7191 16.1181
41.7667 16.0602
41.8146 16.0748
41.8622 16.037
41.9101 15.964
41.9578 15.862
42.0057 15.7686
42.0534 15.7882
42.1013 15.7383
42.149 15.668
42.1969 15.5625
42.2446 15.5102
42.2925 15.5125
42.3403 15.4565
42.3882 15.4565
42.436 15.3612
42.4839 15.3241
42.5319 15.2913
42.5797 15.1765
42.6277 15.1271
42.6755 15.1437
42.7235 15.0108
42.7713 14.9784
42.8193 14.9411
42.8671 14.9411
42.9152 14.8756
42.963 14.7944
43.0111 14.6694
43.0589 14.6865
43.107 14.6299
43.1549 14.5732
43.2029 14.4766
43.2508 14.4833
43.2989 14.4654
43.3468 14.3803
43.3949 14.3305
43.4429 14.2917
43.491 14.2657
43.5389 14.2085
43.5871 14.1397
43.635 14.0959
43.6832 14.0455
43.7312 13.993
43.7793 13.9234
43.8273 13.9328
43.8755 13.8028
43.9237 13.8602
43.9717 13.7396
44.0199 13.6961
44.068 13.6581
44.1162 13.6264
44.1642 13.6004
44.2125 13.5236
44.2606 13.4481
44.3088 13.3904
44.3569 13.356
44.4052 13.3595
44.4533 13.2742
44.5016 13.2173
44.5497 13.1977
44.598 13.1787
44.6461 13.084
44.6945 13.0436
44.7426 13.0036
44.791 12.9548
44.8391 12.8646
44.8875 12.8445
44.9357 12.8201
44.984 12.7696
45.0322 12.7419
45.0806 12.6679
45.1288 12.6557
45.1773 12.5915
45.2257 12.5658
45.2739 12.5024
45.3224 12.4578
45.3706 12.4155
45.4191 12.3559
45.4673 12.3335
45.5158 12.2981
45.5641 12.205
45.6126 12.2163
45.6609 12.1778
45.7094 12.1101
45.7577 12.0692
45.8063 12.0174
45.8546 11.9802
45.9031 11.9061
45.9515 11.91
46.0001 11.845
46.0484 11.8096
46.097 11.7723
46.1454 11.733
46.194 11.6702
46.2424 11.6497
46.291 11.6184
46.3395 11.5691
46.3881 11.4933
46.4365 11.4684
46.4852 11.4715
46.5337 11.3868
46.5823 11.382
46.631 11.3295
46.6795 11.2342
46.7282 11.2486
46.7767 11.1806
46.8254 11.1177
46.8739 11.0881
46.9226 11.0498
46.9712 10.9701
47.0199 10.9923
47.0685 10.9594
47.1173 10.882
47.1658 10.8095
47.2146 10.8056
47.2632 10.7986
47.312 10.7794
47.3606 10.6832
47.4095 10.6539
47.4581 10.5968
47.5069 10.5644
47.5556 10.5648
47.6044 10.5076
47.6531 10.4677
47.702 10.4159
47.7507 10.3698
47.7996 10.2897
47.8483 10.288
47.8972 10.2719
47.9461 10.2538
47.9948 10.1734
48.0438 10.1295
48.0925 10.1519
48.1415 10.0815
48.1902 10.0447
48.2392 10.0403
48.288 9.98703
48.337 9.94754
48.3858 9.95006
48.4348 9.8757
48.4837 9.85901
48.5327 9.83198
48.5815 9.76127
48.6306 9.76289
48.6795 9.7303
48.7285 9.67364
48.7774 9.62419
48.8265 9.59272
48.8754 9.56993
48.9245 9.51623
48.9734 9.47148
49.0226 9.45549
49.0715 9.45602
49.1206 9.34096
49.1696 9.31379
49.2188 9.30662
49.2679 9.26773
49.3169 9.19294
49.3661 9.2389
49.4151 9.17126
49.4643 9.13525
49.5134 9.11945
49.5626 9.02919
49.6117 9.0365
49.6609 9.0073
49.71 8.95121
49.7592 8.93182
49.8083 8.87666
49.8576 8.86941
49.9067 8.80656
49.956 8.7887
50.0052 8.74874
50.0545 8.72068
50.1036 8.67024
50.153 8.62816
50.2022 8.65224
50.2515 8.5779
50.3007 8.53346
50.3501 8.50627
50.3993 8.48347
50.4487 8.44692
50.498 8.41801
50.5474 8.39027
50.5966 8.31809
50.6461 8.32011
50.6955 8.28909
50.7448 8.25426
50.7943 8.19825
50.8436 8.21055
50.8931 8.14228
50.9424 8.13018
50.9919 8.11588
51.0413 8.10222
51.0908 8.04178
51.1402 8.00193
51.1897 7.96721
51.2391 7.94601
51.2887 7.85493
51.3381 7.8625
51.3877 7.84408
51.4371 7.82221
51.4867 7.77276
51.5362 7.77562
51.5858 7.7419
51.6353 7.65856
51.6849 7.66793
51.7344 7.62627
51.7841 7.56226
51.8336 7.54244
51.8833 7.53221
51.9328 7.50906
51.9826 7.45718
52.0323 7.4156
52.0818 7.39002
52.1316 7.32271
52.1812 7.31993
52.231 7.29506
52.2806 7.26174
52.3304 7.26489
52.38 7.19543
52.4298 7.19043
52.4794 7.17491
52.5293 7.12487
52.5789 7.1224
52.6288 7.08515
52.6785 7.01781
52.7284 7.02495
52.7781 6.96182
52.828 6.97814
52.8777 6.91874
52.9276 6.88681
52.9774 6.85673
53.0273 6.82621
53.0771 6.79973
53.1271 6.77124
53.1769 6.74963
53.2269 6.75472
53.2767 6.70514
53.3267 6.66027
53.3765 6.63105
53.4266 6.60439
53.4766 6.59157
53.5265 6.5779
53.5765 6.56401
53.6264 6.48416
53.6765 6.48088
53.7264 6.42929
53.7765 6.39402
53.8265 6.36691
53.8766 6.33917
53.9266 6.30569
53.9767 6.31108
54.0267 6.26804
54.0769 6.24309
54.1269 6.22242
54.1771 6.20693
54.2271 6.14268
54.2773 6.09758
54.3274 6.08627
54.3776 6.05159
54.4277 6.01785
54.478 6.00251
54.528 5.92813
54.5783 5.90917
54.6285 5.87101
54.6788 5.80374
54.7289 5.80643
54.7792 5.78451
54.8296 5.70196
54.8798 5.6433
54.9301 5.60853
54.9803 5.60729
55.0307 5.50394
55.0809 5.48371
55.1314 5.46422
55.1816 5.44447
55.232 5.43126
55.2823 5.32311
55.3328 5.2749
55.383 5.23435
55.4335 5.22045
55.4838 5.07479
55.5344 5.0539
55.5847 5.05209
55.6352 5.06008
55.6856 4.99043
55.7361 4.97791