File: XRD/Ni3Fe_FD0203.xy
TT I
1.27165 8.29831
1.31627 7.26099
1.36089 7.39445
1.40551 6.37638
1.45013 6.56304
1.49476 7.14326
1.53938 6.56391
1.584 5.8244
1.62863 5.91084
1.67325 5.71858
1.71787 5.47361
1.7625 5.01407
1.80712 5.34473
1.85174 5.62559
1.89636 5.48635
1.94099 5.79505
1.98562 5.34793
2.03025 5.45529
2.07487 5.01957
2.11949 5.17312
2.16411 4.80884
2.20874 5.02301
2.25338 4.33399
2.298 4.84352
2.34263 4.18083
2.38725 3.90149
2.43188 3.83577
2.4765 4.63344
2.52115 4.47832
2.56577 5.64195
2.6104 5.99107
2.65503 5.06242
2.69965 5.94939
2.7443 6.25299
2.78893 6.86193
2.83356 7.17078
2.87818 7.99203
2.92281 8.65672
2.96744 9.40081
3.01209 9.98473
3.05672 10.9551
3.10135 12.0266
3.14599 12.8619
3.19062 14.2912
3.23527 14.3129
3.2799 15.9344
3.32454 17.1006
3.36917 18.0162
3.4138 19.031
3.45844 19.2814
3.50309 20.9437
3.54773 21.7859
3.59237 22.5216
3.637 23.5076
3.68164 24.0319
3.7263 25.6284
3.77094 26.1113
3.81558 27.2356
3.86022 27.9612
3.90486 29.1202
3.9495 30.4239
3.99416 31.1478
4.0388 32.6825
4.08344 34.2707
4.12809 35.2361
4.17273 36.4348
4.21738 38.4175
4.26204 39.4953
4.30669 40.4874
4.35133 42.8526
4.39598 44.3155
4.44063 46.4555
4.4853 48.8081
4.52995 51.8416
4.5746 53.7822
4.61925 55.7949
4.6639 58.402
4.70855 61.5576
4.75322 64.4953
4.79788 67.811
4.84253 72.0497
4.88719 76.6486
4.93184 82.0289
4.97652 89.4192
5.02118 97.8313
5.06583 108.233
5.11049 125.82
5.15515 170.038
5.19981 888.066
5.24449 3946.41
5.28916 10235.3
5.33382 4535.97
5.37848 296.639
5.42315 157.16
5.46783 130.647
5.5125 118.724
5.55716 113.444
5.60183 107.929
5.6465 105.277
5.69117 103.944
5.73586 101.691
5.78053 101.63
5.8252 102.328
5.86988 105.095
5.91455 112.187
5.95924 135.544
6.00392 441.979
6.0486 1440.09
6.09328 3482.69
6.13795 3779.51
6.18263 403.785
6.22733 112.508
6.27201 90.3129
6.3167 81.7027
6.36138 76.7156
6.40606 72.7065
6.45075 71.0579
6.49545 69.0345
6.54014 67.2719
6.58483 65.894
6.62952 64.428
6.67421 62.7372
6.71892 61.6408
6.76361 60.8428
6.8083 60.0504
6.853 59.231
6.89769 58.4705
6.94239 58.62
6.98711 57.5419
7.03181 57.5984
7.07651 57.2524
7.12121 56.7906
7.16591 56.9372
7.21063 55.8435
7.25533 55.9792
7.30004 56.1065
7.34475 56.1895
7.38945 56.3657
7.43416 55.8191
7.47889 55.5344
7.5236 57.5504
7.56831 59.7703
7.61303 57.7539
7.65774 57.3808
7.70247 58.2128
7.74719 58.4329
7.79191 58.8257
7.83663 59.518
7.88135 60.3634
7.92607 61.578
7.97081 62.4667
8.01553 64.0995
8.06026 65.7464
8.10498 67.0629
8.14971 68.8837
8.19446 70.7999
8.23919 73.6418
8.28392 76.5222
8.32865 79.4059
8.37339 85.0074
8.41812 90.9561
8.46288 109.574
8.50761 287.121
8.55235 602.451
8.59709 1031.38
8.64183 1906.39
8.68658 1296.92
8.73134 248.078
8.77609 113.311
8.82083 101.112
8.86558 96.4156
8.91033 93.7214
8.9551 90.9991
8.99985 89.9366
9.04461 89.0166
9.08936 88.1782
9.13412 87.4422
9.17888 86.8472
9.22365 89.1388
9.26841 90.7022
9.31318 89.0229
9.35794 88.3717
9.4027 88.5332
9.44749 89.3515
9.49226 89.9914
9.53703 90.5683
9.5818 92.9989
9.62657 93.8304
9.67134 95.3897
9.71614 97.865
9.76091 100.776
9.80569 103.483
9.85047 107.076
9.89525 113.481
9.94005 134.19
9.98484 302.032
10.0296 531.259
10.0744 777.32
10.1192 1400.04
10.164 1733.04
10.2088 628.22
10.2536 156.634
10.2984 119.222
10.3432 113.413
10.388 114.484
10.4328 158.951
10.4776 215.481
10.5224 275.776
10.5672 429.354
10.612 537.969
10.6568 269.542
10.7017 111.07
10.7465 93.1765
10.7913 88.8284
10.8361 85.8592
10.8809 83.4593
10.9257 80.9645
10.9706 80.0314
11.0154 77.8713
11.0602 76.5355
11.105 75.184
11.1499 73.3776
11.1947 72.7412
11.2395 71.5185
11.2844 70.9829
11.3292 70.1781
11.374 69.2956
11.4189 68.8952
11.4637 68.296
11.5086 67.4532
11.5534 66.8973
11.5983 66.7308
11.6431 66.5506
11.688 66.2836
11.7328 66.1294
11.7777 65.5404
11.8225 65.6492
11.8674 65.6372
11.9122 66.7034
11.9571 67.4662
12.002 68.9385
12.0468 79.956
12.0917 95.9441
12.1366 108.063
12.1814 136.994
12.2263 187.184
12.2712 186.781
12.3161 107.329
12.3609 71.1589
12.4058 67.5056
12.4507 67.3783
12.4956 67.5452
12.5405 67.9312
12.5853 68.3177
12.6302 68.3858
12.6751 69.1271
12.72 69.9335
12.7649 71.1134
12.8098 72.0134
12.8547 73.6628
12.8996 74.9394
12.9445 76.582
12.9894 78.7378
13.0343 80.7754
13.0792 86.4027
13.1242 109.404
13.1691 150.513
13.214 176.253
13.2589 224.452
13.3038 309.455
13.3487 411.61
13.3937 323.735
13.4386 159.788
13.4835 134.985
13.5285 156.096
13.5734 173.768
13.6183 220.049
13.6633 301.979
13.7082 361.21
13.7531 237.272
13.7981 115.363
13.843 88.0092
13.888 84.6523
13.9329 81.9314
13.9779 80.2514
14.0228 78.7458
14.0678 77.2207
14.1127 77.0047
14.1577 76.4682
14.2027 75.4507
14.2476 74.6468
14.2926 73.9774
14.3376 73.6098
14.3825 73.0121
14.4275 72.6343
14.4725 72.5686
14.5175 72.6652
14.5624 72.9617
14.6074 73.1954
14.6524 73.7537
14.6974 74.7752
14.7424 80.4339
14.7874 96.2498
14.8324 108.343
14.8774 118.994
14.9224 142.303
14.9674 181.106
15.0124 220.622
15.0574 177.882
15.1024 105.908
15.1474 77.8116
15.1924 74.2361
15.2374 72.7093
15.2824 71.9894
15.3274 70.7696
15.3725 70.4379
15.4175 70.1983
15.4625 69.7815
15.5076 69.5481
15.5526 69.6946
15.5976 70.0342
15.6426 74.3849
15.6877 87.1267
15.7327 96.5137
15.7778 103.562
15.8228 120.333
15.8679 148.789
15.9129 185.376
15.958 179.067
16.003 117.398
16.0481 75.0025
16.0931 66.4476
16.1382 64.5343
16.1833 63.3765
16.2283 61.9783
16.2734 61.1202
16.3185 60.4957
16.3636 59.9203
16.4086 59.2405
16.4537 58.9556
16.4988 58.2294
16.5439 58.2985
16.589 58.0038
16.6341 57.6449
16.6792 57.4335
16.7243 57.6435
16.7694 57.3413
16.8145 57.4029
16.8596 57.5492
16.9047 57.6658
16.9498 57.9904
16.9949 58.2132
17.04 59.2742
17.0851 62.2008
17.1302 64.2669
17.1754 65.8816
17.2205 68.9599
17.2656 73.1706
17.3108 80.7363
17.3559 85.3156
17.401 78.7497
17.4462 67.8796
17.4913 62.9164
17.5365 62.2599
17.5815 62.5912
17.6268 62.7974
17.6718 63.3042
17.7171 63.8032
17.7622 64.946
17.8074 66.4811
17.8525 72.1627
17.8977 78.9334
17.9428 83.459
17.9881 87.9649
18.0331 97.9009
18.0784 112.655
18.1237 136.293
18.1688 145.556
18.214 121.661
18.2591 94.8971
18.3044 89.9325
18.3495 95.7196
18.3948 105.53
18.4399 103.199
18.4852 85.7302
18.5303 71.0041
18.5756 66.0068
18.6207 64.8292
18.666 63.8247
18.7112 62.9235
18.7565 62.3528
18.8016 61.8364
18.8469 61.2514
18.892 60.9924
18.9374 60.2506
18.9825 60.2708
19.0278 59.9379
19.073 60.4444
19.1183 61.4367
19.1635 62.5295
19.2088 63.3162
19.254 64.6353
19.2993 67.2124
19.3447 70.8112
19.3898 75.938
19.4352 76.6241
19.4804 69.7941
19.5257 61.3292
19.5709 57.4059
19.6163 56.7538
19.6615 56.6275
19.7068 56.4314
19.752 56.14
19.7974 57.1217
19.8426 58.5192
19.888 59.3378
19.9332 59.7392
19.9786 61.1453
20.0238 63.8145
20.0692 68.0826
20.1144 72.2298
20.1598 73.3184
20.205 68.4067
20.2504 64.7536
20.2957 64.321
20.3411 66.5415
20.3863 67.5398
20.4318 63.2769
20.477 57.3193
20.5224 54.1095
20.5677 53.1213
20.6131 52.6936
20.6586 52.2716
20.7038 52.1598
20.7493 51.6082
20.7945 51.7477
20.84 51.707
20.8853 51.3847
20.9307 51.2376
20.976 51.6282
21.0215 51.4093
21.0668 51.6023
21.1122 51.7146
21.1575 52.2336
21.203 52.6967
21.2483 53.3891
21.2938 54.0695
21.3391 53.1295
21.3846 51.8732
21.4299 51.3648
21.4754 51.2699
21.5207 51.2545
21.5662 51.8758
21.6116 52.871
21.6571 53.7581
21.7024 54.4812
21.7479 55.6736
21.7933 57.3565
21.8388 59.9195
21.8843 63.0377
21.9297 66.4111
21.9752 67.315
22.0206 63.8244
22.0661 59.1513
22.1115 57.5897
22.157 58.3086
22.2024 57.8285
22.248 55.1544
22.2933 53.0161
22.3389 51.78
22.3843 51.3159
22.4299 51.1227
22.4753 51.2188
22.5208 51.088
22.5662 51.0758
22.6118 51.52
22.6572 52.004
22.7028 52.7432
22.7483 53.043
22.7939 53.1956
22.8393 54.4093
22.8849 55.4882
22.9303 56.8738
22.9759 58.8351
23.0214 59.9254
23.067 58.4465
23.1126 55.0504
23.1581 52.318
23.2037 51.5678
23.2492 52.0709
23.2948 52.3278
23.3403 52.4866
23.3859 52.7373
23.4314 53.3415
23.477 54.2713
23.5225 55.5311
23.5682 57.3278
23.6137 59.5621
23.6593 59.131
23.7048 55.6572
23.7505 51.8207
23.796 49.3717
23.8417 48.5968
23.8872 47.8317
23.9329 47.5367
23.9784 47.2861
24.0241 46.9846
24.0697 46.8794
24.1154 46.3922
24.1609 46.1316
24.2066 46.1111
24.2522 45.9405
24.2979 45.6675
24.3434 45.6392
24.3892 45.4129
24.4349 45.1938
24.4805 45.014
24.5262 45.2328
24.5718 45.0481
24.6175 45.1008
24.6631 45.0513
24.7089 44.7628
24.7545 44.4968
24.8002 44.4437
24.8458 44.6552
24.8916 44.4033
24.9372 44.5518
24.983 44.9584
25.0286 45.2226
25.0744 45.3765
25.12 45.6917
25.1658 46.2836
25.2114 46.4576
25.2572 46.7337
25.3029 46.4787
25.3487 46.5255
25.3943 46.9091
25.4402 46.1824
25.4858 45.0428
25.5316 43.9213
25.5773 43.1556
25.6231 43.0616
25.669 42.6108
25.7147 42.6756
25.7605 42.6801
25.8062 42.6061
25.8521 42.6778
25.8977 42.5203
25.9436 42.8894
25.9893 42.7905
26.0352 43.1638
26.0809 43.2384
26.1268 43.8239
26.1725 43.6315
26.2184 43.1644
26.2641 42.7788
26.31 42.3377
26.3557 42.4431
26.4017 42.3569
26.4474 42.5628
26.4933 42.7283
26.5391 42.9894
26.585 43.1864
26.6308 43.5831
26.6767 43.9575
26.7225 44.1861
26.7684 43.6726
26.8142 42.8843
26.8601 42.5116
26.9059 42.2329
26.9519 41.6325
26.9979 41.3586
27.0437 40.867
27.0896 40.8265
27.1354 40.8845
27.1814 40.5413
27.2272 40.5523
27.2732 40.6708
27.3191 40.2505
27.3651 40.4546
27.4109 40.2901
27.4569 40.3793
27.5027 40.3523
27.5488 40.5089
27.5946 40.2745
27.6407 40.2262
27.6865 40.1912
27.7326 39.9731
27.7784 39.847
27.8245 39.6878
27.8703 39.9418
27.9164 40.0375
27.9623 40.0292
28.0084 40.2248
28.0543 40.6787
28.1003 40.7342
28.1462 40.7531
28.1923 40.2917
28.2384 39.8596
28.2843 39.6012
28.3304 39.2548
28.3764 38.6958
28.4225 38.259
28.4684 38.1363
28.5145 37.7193
28.5605 37.7763
28.6066 37.4926
28.6526 37.4275
28.6987 37.4471
28.7447 37.1517
28.7908 36.9566
28.8368 37.1446
28.8829 37.0839
28.9289 37.0344
28.9751 36.9837
29.0211 36.7003
29.0673 36.4734
29.1133 36.3251
29.1595 36.2498
29.2055 36.0342
29.2517 35.9794
29.2977 35.8527
29.3439 35.8897
29.3899 35.7969
29.4361 35.7968
29.4824 35.614
29.5284 35.5103
29.5746 35.1448
29.6207 34.9181
29.6669 34.7104
29.713 34.7252
29.7593 34.4483
29.8053 34.4002
29.8516 34.3512
29.8977 34.4467
29.9439 34.2247
29.99 34.1674
30.0363 34.0678
30.0824 34.0742
30.1287 33.9384
30.1748 33.9857
30.2211 34.0523
30.2673 33.838
30.3136 33.9935
30.3597 33.8185
30.406 33.8769
30.4522 33.6172
30.4985 33.7056
30.5447 33.7181
30.591 33.6037
30.6372 33.5768
30.6835 33.6284
30.7297 33.7422
30.7761 33.6893
30.8224 33.5899
30.8686 33.3698
30.915 33.1171
30.9612 33.1055
31.0076 32.9258
31.0538 32.7792
31.1002 32.6442
31.1464 32.5537
31.1928 32.5378
31.2391 32.5269
31.2855 32.4053
31.3317 32.4061
31.3781 32.3972
31.4244 32.3258
31.4708 32.2801
31.5171 32.2197
31.5636 32.2449
31.6098 32.048
31.6563 31.9518
31.7026 31.8476
31.7491 31.5902
31.7953 31.5183
31.8418 31.6053
31.8881 31.5532
31.9346 31.5653
31.9809 31.4005
32.0275 31.3588
32.074 31.328
32.1203 31.1069
32.1668 31.0919
32.2132 30.89
32.2597 30.7718
32.306 30.6374
32.3526 30.4264
32.399 30.3781
32.4455 30.2512
32.4919 30.1049
32.5385 30.0643
32.5848 29.9332
32.6314 29.8859
32.6778 29.8831
32.7244 29.7124
32.7708 29.6312
32.8174 29.6325
32.8638 29.4616
32.9104 29.4706
32.9569 29.4084
33.0035 29.2235
33.0499 29.1244
33.0966 29.164
33.143 29.0103
33.1897 28.9947
33.2361 28.8821
33.2828 28.8883
33.3293 28.7647
33.3759 28.7676
33.4226 28.6169
33.4691 28.5327
33.5158 28.4094
33.5623 28.2413
33.609 28.1286
33.6555 28.0044
33.7022 27.8839
33.7487 27.7772
33.7954 27.855
33.842 27.6439
33.8887 27.6251
33.9353 27.4652
33.982 27.4174
34.0286 27.4072
34.0753 27.1859
34.1219 27.1943
34.1687 27.0478
34.2152 27.1052
34.262 26.9582
34.3086 26.7538
34.3554 26.7953
34.402 26.6823
34.4488 26.5627
34.4954 26.5358
34.5422 26.4858
34.5889 26.3875
34.6357 26.1785
34.6825 26.1743
34.7292 25.9821
34.776 25.9322
34.8227 25.934
34.8695 25.8115
34.9162 25.6926
34.9631 25.7134
35.0098 25.6138
35.0566 25.5777
35.1033 25.5669
35.1502 25.4462
35.1969 25.4136
35.2438 25.3523
35.2906 25.3332
35.3375 25.2073
35.3842 25.1339
35.4311 25.154
35.4779 25.0941
35.5248 25.0187
35.5716 24.8926
35.6185 24.8626
35.6653 24.7659
35.7123 24.7088
35.759 24.584
35.806 24.5285
35.8528 24.3254
35.8998 24.3237
35.9468 24.1814
35.9936 24.2073
36.0406 24.1256
36.0874 24.1168
36.1345 24.0115
36.1813 23.9196
36.2283 23.8304
36.2752 23.7979
36.3222 23.7602
36.3691 23.6631
36.4161 23.5188
36.463 23.5163
36.5101 23.5936
36.557 23.3519
36.6041 23.2167
36.651 23.3032
36.6981 23.2455
36.745 23.1073
36.7921 23.078
36.839 22.9122
36.8861 22.8002
36.9331 22.7297
36.9802 22.7964
37.0272 22.6238
37.0743 22.6648
37.1213 22.5036
37.1684 22.4239
37.2154 22.4172
37.2626 22.2588
37.3098 22.2492
37.3568 22.1489
37.404 22.0851
37.451 22.0325
37.4982 21.9495
37.5452 21.849
37.5924 21.8284
37.6395 21.8393
37.6867 21.7314
37.7337 21.6532
37.781 21.5292
37.8281 21.4823
37.8753 21.3973
37.9224 21.3199
37.9697 21.2532
38.0168 21.1837
38.064 21.1223
38.1111 21.0783
38.1584 20.9973
38.2056 20.992
38.2529 20.8575
38.3 20.8062
38.3473 20.7681
38.3945 20.6215
38.4418 20.576
38.489 20.5509
38.5363 20.5086
38.5837 20.4262
38.6309 20.3709
38.6782 20.2578
38.7254 20.1866
38.7728 20.1838
38.82 19.9674
38.8674 20.0454
38.9146 20.001
38.9621 19.8852
39.0093 19.88
39.0567 19.764
39.104 19.7023
39.1514 19.6475
39.1987 19.5873
39.2461 19.5309
39.2934 19.4221
39.3409 19.3715
39.3882 19.2929
39.4356 19.24
39.483 19.2098
39.5304 19.1124
39.5778 19.1451
39.6253 19.0218
39.6726 19.0321
39.7201 18.9447
39.7675 18.8826
39.815 18.8304
39.8624 18.6971
39.9099 18.7298
39.9575 18.5801
40.0049 18.5575
40.0525 18.4166
40.0999 18.4283
40.1474 18.4036
40.1949 18.3163
40.2425 18.24
40.2899 18.2196
40.3375 18.1647
40.385 18.0586
40.4326 17.9984
40.48 17.9125
40.5277 17.9009
40.5752 17.86
40.6228 17.731
40.6703 17.7346
40.718 17.6534
40.7655 17.6127
40.8132 17.5523
40.8607 17.4936
40.9084 17.4744
40.9559 17.4066
41.0036 17.4027
41.0512 17.2739
41.0989 17.2957
41.1465 17.1263
41.1942 17.1838
41.242 17.0746
41.2896 17.0309
41.3373 16.9249
41.3849 16.9434
41.4327 16.8142
41.4803 16.8278
41.5281 16.7514
41.5758 16.6363
41.6236 16.5892
41.6712 16.5683
41.7191 16.4645
41.7667 16.4503
41.8146 16.4201
41.8622 16.3358
41.9101 16.3387
41.9578 16.1785
42.0057 16.1698
42.0534 16.1208
42.1013 16.057
42.149 16.004
42.1969 15.915
42.2446 15.9304
42.2925 15.8754
42.3403 15.7816
42.3882 15.774
42.436 15.7114
42.4839 15.6081
42.5319 15.5811
42.5797 15.5256
42.6277 15.531
42.6755 15.4467
42.7235 15.4136
42.7713 15.3056
42.8193 15.2451
42.8671 15.2134
42.9152 15.1757
42.963 15.1094
43.0111 15.0382
43.0589 14.9711
43.107 14.9296
43.1549 14.9016
43.2029 14.9098
43.2508 14.7888
43.2989 14.7507
43.3468 14.6589
43.3949 14.6673
43.4429 14.5885
43.491 14.5353
43.5389 14.4857
43.5871 14.4425
43.635 14.3723
43.6832 14.3247
43.7312 14.2794
43.7793 14.2364
43.8273 14.2112
43.8755 14.1259
43.9237 14.1161
43.9717 14.0746
44.0199 13.9933
44.068 13.9514
44.1162 13.8609
44.1642 13.8714
44.2125 13.8431
44.2606 13.7471
44.3088 13.6821
44.3569 13.7053
44.4052 13.6943
44.4533 13.5767
44.5016 13.4982
44.5497 13.4984
44.598 13.4278
44.6461 13.3394
44.6945 13.3177
44.7426 13.2896
44.791 13.1995
44.8391 13.2345
44.8875 13.1121
44.9357 13.1064
44.984 13.0365
45.0322 12.9997
45.0806 12.9544
45.1288 12.8748
45.1773 12.839
45.2257 12.8283
45.2739 12.8191
45.3224 12.7055
45.3706 12.6859
45.4191 12.5842
45.4673 12.5957
45.5158 12.5519
45.5641 12.5207
45.6126 12.4599
45.6609 12.4091
45.7094 12.3489
45.7577 12.283
45.8063 12.2931
45.8546 12.2545
45.9031 12.1855
45.9515 12.1463
46.0001 12.0465
46.0484 12.0579
46.097 12.0549
46.1454 11.9693
46.194 11.9597
46.2424 11.8477
46.291 11.8505
46.3395 11.7827
46.3881 11.7639
46.4365 11.7474
46.4852 11.6715
46.5337 11.5854
46.5823 11.5776
46.631 11.5217
46.6795 11.551
46.7282 11.4678
46.7767 11.4566
46.8254 11.3635
46.8739 11.3388
46.9226 11.2976
46.9712 11.2665
47.0199 11.2043
47.0685 11.1696
47.1173 11.081
47.1658 11.0693
47.2146 11.0516
47.2632 10.9696
47.312 10.9712
47.3606 10.9036
47.4095 10.8296
47.4581 10.8259
47.5069 10.7868
47.5556 10.7613
47.6044 10.7235
47.6531 10.6879
47.702 10.6339
47.7507 10.565
47.7996 10.5638
47.8483 10.5012
47.8972 10.4657
47.9461 10.4456
47.9948 10.3996
48.0438 10.3676
48.0925 10.3265
48.1415 10.3042
48.1902 10.2511
48.2392 10.2213
48.288 10.1963
48.337 10.1336
48.3858 10.0959
48.4348 10.0726
48.4837 10.0916
48.5327 10.025
48.5815 9.96978
48.6306 9.94008
48.6795 9.87104
48.7285 9.83003
48.7774 9.84249
48.8265 9.80803
48.8754 9.80386
48.9245 9.70832
48.9734 9.68383
49.0226 9.64957
49.0715 9.58129
49.1206 9.55525
49.1696 9.52582
49.2188 9.53651
49.2679 9.46412
49.3169 9.40852
49.3661 9.37976
49.4151 9.35568
49.4643 9.29846
49.5134 9.26599
49.5626 9.21067
49.6117 9.222
49.6609 9.19814
49.71 9.10687
49.7592 9.06362
49.8083 9.0281
49.8576 9.04163
49.9067 8.99291
49.956 8.95699
50.0052 8.90313
50.0545 8.91424
50.1036 8.84241
50.153 8.84584
50.2022 8.79776
50.2515 8.76309
50.3007 8.73228
50.3501 8.67768
50.3993 8.64205
50.4487 8.62386
50.498 8.58096
50.5474 8.52787
50.5966 8.48984
50.6461 8.46721
50.6955 8.43849
50.7448 8.44528
50.7943 8.39214
50.8436 8.43344
50.8931 8.34713
50.9424 8.28322
50.9919 8.22058
51.0413 8.20864
51.0908 8.21851
51.1402 8.18196
51.1897 8.13774
51.2391 8.13914
51.2887 8.05735
51.3381 8.0187
51.3877 8.02444
51.4371 7.94081
51.4867 7.92675
51.5362 7.88048
51.5858 7.8598
51.6353 7.83371
51.6849 7.84425
51.7344 7.77738
51.7841 7.72533
51.8336 7.72322
51.8833 7.66673
51.9328 7.62283
51.9826 7.59057
52.0323 7.56808
52.0818 7.56155
52.1316 7.50289
52.1812 7.4978
52.231 7.43355
52.2806 7.42969
52.3304 7.40935
52.38 7.36246
52.4298 7.32566
52.4794 7.30005
52.5293 7.28728
52.5789 7.23139
52.6288 7.23094
52.6785 7.16253
52.7284 7.13232
52.7781 7.10718
52.828 7.10609
52.8777 7.05491
52.9276 7.05425
52.9774 7.01518
53.0273 6.96523
53.0771 6.9662
53.1271 6.93084
53.1769 6.92381
53.2269 6.85162
53.2767 6.78842
53.3267 6.80977
53.3765 6.76809
53.4266 6.72202
53.4766 6.70349
53.5265 6.64782
53.5765 6.6564
53.6264 6.60843
53.6765 6.60491
53.7264 6.58162
53.7765 6.55898
53.8265 6.49369
53.8766 6.47931
53.9266 6.43467
53.9767 6.41863
54.0267 6.39666
54.0769 6.36655
54.1269 6.3346
54.1771 6.27638
54.2271 6.2708
54.2773 6.19841
54.3274 6.15875
54.3776 6.15221
54.4277 6.10744
54.478 6.10457
54.528 6.01951
54.5783 5.98281
54.6285 5.96048
54.6788 5.87467
54.7289 5.83699
54.7792 5.76464
54.8296 5.78628
54.8798 5.69752
54.9301 5.66269
54.9803 5.64702
55.0307 5.64858
55.0809 5.56587
55.1314 5.56692
55.1816 5.46899
55.232 5.42037
55.2823 5.38054
55.3328 5.32073
55.383 5.27522
55.4335 5.2292
55.4838 5.17581
55.5344 5.11985
55.5847 5.06402
55.6352 5.07294
55.6856 5.03092
55.7361 5.05224