File: XRD/Ni3Fe_FD0698.xy
TT I
1.27165 7.31368
1.31627 6.61913
1.36089 6.71622
1.40551 5.54505
1.45013 5.73861
1.49476 5.77456
1.53938 5.73222
1.584 5.69961
1.62863 4.70967
1.67325 5.23902
1.71787 5.41604
1.7625 4.89323
1.80712 4.90269
1.85174 4.81071
1.89636 4.1567
1.94099 5.11377
1.98562 4.40564
2.03025 4.73887
2.07487 4.15584
2.11949 4.94184
2.16411 4.58082
2.20874 9.42325
2.25338 12.8672
2.298 5.18874
2.34263 4.69162
2.38725 6.16732
2.43188 5.98883
2.4765 6.4122
2.52115 6.80031
2.56577 8.14712
2.6104 8.39979
2.65503 7.22753
2.69965 8.30536
2.7443 8.04122
2.78893 7.60944
2.83356 8.63482
2.87818 8.64362
2.92281 8.98397
2.96744 9.26325
3.01209 10.108
3.05672 10.9424
3.10135 12.2146
3.14599 12.7247
3.19062 14.0803
3.23527 15.0517
3.2799 15.5381
3.32454 16.4334
3.36917 17.6679
3.4138 18.658
3.45844 19.1973
3.50309 20.4672
3.54773 21.4876
3.59237 22.7712
3.637 53.96
3.68164 38.6722
3.7263 25.6216
3.77094 25.6289
3.81558 26.308
3.86022 27.1584
3.90486 28.3774
3.9495 29.1938
3.99416 30.7111
4.0388 31.4974
4.08344 33.2798
4.12809 34.1646
4.17273 35.6211
4.21738 39.0388
4.26204 131.248
4.30669 115.509
4.35133 44.3131
4.39598 43.8552
4.44063 49.5684
4.4853 54.8787
4.52995 55.3021
4.5746 56.2549
4.61925 53.7477
4.6639 55.946
4.70855 57.805
4.75322 61.4517
4.79788 66.9041
4.84253 68.1937
4.88719 74.7759
4.93184 76.6777
4.97652 81.4292
5.02118 87.192
5.06583 95.5827
5.11049 107.724
5.15515 158.524
5.19981 430.417
5.24449 3028.93
5.28916 12621.2
5.33382 2642.56
5.37848 193.621
5.42315 130.818
5.46783 118.495
5.5125 110.753
5.55716 102.36
5.60183 98.3223
5.6465 96.0881
5.69117 94.4384
5.73586 92.969
5.78053 96.6124
5.8252 96.9103
5.86988 99.0109
5.91455 95.8623
5.95924 106.378
6.00392 251.531
6.0486 1034.94
6.09328 4577.04
6.13795 3147.76
6.18263 218.362
6.22733 91.1639
6.27201 80.7017
6.3167 86.246
6.36138 74.8108
6.40606 69.8088
6.45075 68.9158
6.49545 65.3094
6.54014 63.1342
6.58483 62.6521
6.62952 62.3944
6.67421 75.4756
6.71892 96.1212
6.76361 62.6119
6.8083 58.7497
6.853 58.8029
6.89769 56.6318
6.94239 56.3915
6.98711 55.5701
7.03181 55.6725
7.07651 55.0765
7.12121 54.7806
7.16591 55.6536
7.21063 55.205
7.25533 61.6494
7.30004 107.549
7.34475 69.5984
7.38945 54.8063
7.43416 53.7444
7.47889 54.2577
7.5236 54.2631
7.56831 54.7661
7.61303 55.5796
7.65774 56.2628
7.70247 56.5241
7.74719 56.0281
7.79191 56.5061
7.83663 56.5365
7.88135 57.3753
7.92607 58.3942
7.97081 59.5579
8.01553 61.1777
8.06026 62.4452
8.10498 63.8477
8.14971 70.6406
8.19446 70.654
8.23919 69.1263
8.28392 71.8386
8.32865 74.401
8.37339 78.6202
8.41812 84.6662
8.46288 105.364
8.50761 187.385
8.55235 409.944
8.59709 1251.52
8.64183 2210.36
8.68658 852.415
8.73134 151.558
8.77609 97.8944
8.82083 92.3642
8.86558 91.7816
8.91033 91.5023
8.9551 89.4675
8.99985 85.3471
9.04461 84.1732
9.08936 83.8147
9.13412 82.5561
9.17888 81.946
9.22365 82.3314
9.26841 82.179
9.31318 84.3124
9.35794 85.9192
9.4027 85.3121
9.44749 84.8615
9.49226 85.1919
9.53703 85.6642
9.5818 88.8593
9.62657 93.5965
9.67134 95.8238
9.71614 93.3494
9.76091 95.0385
9.80569 98.8942
9.85047 101.301
9.89525 113.555
9.94005 130.048
9.98484 199.41
10.0296 366.752
10.0744 853.055
10.1192 1796.74
10.164 1554.09
10.2088 357.722
10.2536 122.258
10.2984 109.904
10.3432 109.118
10.388 106.05
10.4328 124.326
10.4776 165.745
10.5224 292.681
10.5672 513.746
10.612 492.08
10.6568 193.35
10.7017 94.4037
10.7465 86.2585
10.7913 82.9801
10.8361 81.1553
10.8809 78.8601
10.9257 77.6612
10.9706 78.117
11.0154 75.0217
11.0602 72.7699
11.105 71.3723
11.1499 72.5244
11.1947 75.1252
11.2395 70.4811
11.2844 68.7661
11.3292 66.9788
11.374 65.9807
11.4189 65.4879
11.4637 64.6624
11.5086 64.7264
11.5534 65.5617
11.5983 64.2895
11.6431 63.4269
11.688 62.7383
11.7328 62.6899
11.7777 62.5534
11.8225 62.6016
11.8674 62.3027
11.9122 62.7766
11.9571 63.0996
12.002 64.2719
12.0468 69.4046
12.0917 79.7239
12.1366 105.602
12.1814 155.786
12.2263 204.917
12.2712 156.302
12.3161 87.7111
12.3609 67.3955
12.4058 63.6782
12.4507 64.169
12.4956 64.5239
12.5405 64.5998
12.5853 65.1779
12.6302 68.5378
12.6751 71.4419
12.72 68.1124
12.7649 67.8262
12.8098 68.5657
12.8547 69.8679
12.8996 71.5146
12.9445 72.8605
12.9894 74.7635
13.0343 76.2251
13.0792 80.1961
13.1242 93.4813
13.1691 114.304
13.214 153.287
13.2589 248.988
13.3038 381.337
13.3487 416.668
13.3937 250.428
13.4386 120.84
13.4835 108.278
13.5285 123.125
13.5734 164.82
13.6183 258.784
13.6633 358.669
13.7082 328.197
13.7531 172.744
13.7981 93.9867
13.843 81.605
13.888 79.71
13.9329 77.156
13.9779 75.6709
14.0228 74.0843
14.0678 72.9212
14.1127 72.6235
14.1577 71.9203
14.2027 70.9833
14.2476 70.309
14.2926 70.1743
14.3376 70.4593
14.3825 69.9677
14.4275 69.1231
14.4725 68.6906
14.5175 68.9399
14.5624 68.9683
14.6074 69.9343
14.6524 70.6182
14.6974 70.5695
14.7424 74.2898
14.7874 80.4534
14.8324 90.7479
14.8774 114.15
14.9224 159.531
14.9674 212.124
15.0124 216.135
15.0574 139.977
15.1024 86.793
15.1474 71.779
15.1924 70.4152
15.2374 69.5087
15.2824 68.6802
15.3274 67.5278
15.3725 66.7992
15.4175 66.3385
15.4625 65.8487
15.5076 65.9686
15.5526 65.9571
15.5976 65.9068
15.6426 68.5275
15.6877 73.6921
15.7327 80.9685
15.7778 97.1225
15.8228 130.492
15.8679 174.544
15.9129 195.745
15.958 149.995
16.003 91.6466
16.0481 66.5007
16.0931 63.1711
16.1382 61.4329
16.1833 60.2881
16.2283 58.626
16.2734 58.1766
16.3185 57.8877
16.3636 57.8819
16.4086 56.849
16.4537 55.9226
16.4988 55.3446
16.5439 55.259
16.589 55.1419
16.6341 54.9298
16.6792 54.2183
16.7243 54.618
16.7694 54.6298
16.8145 54.5604
16.8596 54.8964
16.9047 55.5321
16.9498 55.8818
16.9949 55.2994
17.04 55.9565
17.0851 57.2129
17.1302 58.8263
17.1754 62.0274
17.2205 67.3882
17.2656 75.3895
17.3108 83.2809
17.3559 81.4647
17.401 69.825
17.4462 61.6054
17.4913 59.0924
17.5365 58.9744
17.5815 59.1726
17.6268 59.7339
17.6718 60.1155
17.7171 60.7253
17.7622 61.3585
17.8074 62.4771
17.8525 65.5935
17.8977 69.123
17.9428 74.2615
17.9881 84.0189
18.0331 102.635
18.0784 125.705
18.1237 142.201
18.1688 130.46
18.214 101.14
18.2591 85.8537
18.3044 91.5369
18.3495 101.034
18.3948 106.032
18.4399 94.4672
18.4852 75.1588
18.5303 65.1638
18.5756 61.9705
18.6207 61.1082
18.666 60.4417
18.7112 59.59
18.7565 58.8118
18.8016 58.4437
18.8469 57.873
18.892 57.7681
18.9374 57.2058
18.9825 56.864
19.0278 56.663
19.073 56.9864
19.1183 57.2831
19.1635 57.8752
19.2088 59.5358
19.254 62.5155
19.2993 67.3611
19.3447 73.3237
19.3898 76.1146
19.4352 71.0636
19.4804 61.9999
19.5257 56.1092
19.5709 54.0598
19.6163 53.86
19.6615 53.5062
19.7068 53.3627
19.752 53.3035
19.7974 53.6074
19.8426 54.6094
19.888 54.7317
19.9332 56.4467
19.9786 59.2733
20.0238 62.9877
20.0692 67.6706
20.1144 69.812
20.1598 67.7323
20.205 63.1309
20.2504 62.3029
20.2957 64.2873
20.3411 65.6268
20.3863 63.1074
20.4318 57.5224
20.477 52.8634
20.5224 51.1046
20.5677 50.6711
20.6131 50.1984
20.6586 49.464
20.7038 49.4151
20.7493 48.9546
20.7945 48.8405
20.84 48.6476
20.8853 48.7871
20.9307 48.6807
20.976 48.8499
21.0215 48.4813
21.0668 49.0782
21.1122 49.5102
21.1575 49.9835
21.203 50.8597
21.2483 51.4212
21.2938 51.1629
21.3391 49.7854
21.3846 48.7024
21.4299 48.2161
21.4754 48.4093
21.5207 48.5333
21.5662 48.9974
21.6116 49.4011
21.6571 50.039
21.7024 51.0724
21.7479 52.7714
21.7933 55.8919
21.8388 59.6018
21.8843 63.4066
21.9297 64.9056
21.9752 62.7931
22.0206 58.8811
22.0661 56.1588
22.1115 56.0053
22.157 55.6742
22.2024 53.8501
22.248 51.0074
22.2933 49.6566
22.3389 48.9414
22.3843 48.7683
22.4299 48.4971
22.4753 48.6443
22.5208 48.4077
22.5662 48.2512
22.6118 48.6258
22.6572 48.7818
22.7028 49.1793
22.7483 49.8128
22.7939 50.5464
22.8393 52.1433
22.8849 54.3044
22.9303 56.2668
22.9759 57.8484
23.0214 56.967
23.067 54.014
23.1126 50.803
23.1581 49.0911
23.2037 48.6365
23.2492 48.9795
23.2948 48.8641
23.3403 49.2106
23.3859 49.689
23.4314 50.9298
23.477 52.8809
23.5225 55.1319
23.5682 57.4292
23.6137 57.7638
23.6593 54.8742
23.7048 50.8415
23.7505 48.0652
23.796 46.3934
23.8417 46.0117
23.8872 45.4698
23.9329 45.1162
23.9784 44.8598
24.0241 44.5326
24.0697 44.3306
24.1154 43.9607
24.1609 43.8759
24.2066 43.7072
24.2522 43.5899
24.2979 43.3955
24.3434 43.22
24.3892 42.9996
24.4349 43.0544
24.4805 42.7851
24.5262 43.0018
24.5718 42.8084
24.6175 42.8654
24.6631 42.7182
24.7089 42.4227
24.7545 42.2618
24.8002 42.18
24.8458 42.2005
24.8916 42.0892
24.9372 42.1493
24.983 42.4947
25.0286 42.93
25.0744 43.3038
25.12 43.7151
25.1658 44.3337
25.2114 44.5843
25.2572 44.6912
25.3029 44.8844
25.3487 45.0605
25.3943 44.366
25.4402 43.3844
25.4858 42.1997
25.5316 41.3805
25.5773 40.8119
25.6231 40.7524
25.669 40.482
25.7147 40.3817
25.7605 40.3954
25.8062 40.3364
25.8521 40.6095
25.8977 40.4585
25.9436 40.8193
25.9893 41.0177
26.0352 41.5207
26.0809 41.6141
26.1268 41.7272
26.1725 41.2367
26.2184 40.6866
26.2641 40.1623
26.31 40.0985
26.3557 40.1382
26.4017 40.0956
26.4474 40.325
26.4933 40.62
26.5391 41.1765
26.585 41.7887
26.6308 42.1133
26.6767 42.0864
26.7225 41.828
26.7684 41.2596
26.8142 40.6568
26.8601 40.3676
26.9059 39.9822
26.9519 39.361
26.9979 39.0866
27.0437 38.8379
27.0896 38.7218
27.1354 38.7368
27.1814 38.5038
27.2272 38.4778
27.2732 38.5927
27.3191 38.2848
27.3651 38.3426
27.4109 38.3709
27.4569 38.392
27.5027 38.4805
27.5488 38.5266
27.5946 38.4054
27.6407 38.1373
27.6865 38.0598
27.7326 37.7551
27.7784 37.8405
27.8245 37.6768
27.8703 38.0099
27.9164 38.2316
27.9623 38.51
28.0084 38.666
28.0543 39.0422
28.1003 39.0556
28.1462 38.8155
28.1923 38.4099
28.2384 37.8317
28.2843 37.6297
28.3304 37.0102
28.3764 36.6433
28.4225 36.3538
28.4684 36.132
28.5145 35.8885
28.5605 35.7905
28.6066 35.5509
28.6526 35.59
28.6987 35.5333
28.7447 35.372
28.7908 35.3266
28.8368 35.3849
28.8829 35.3545
28.9289 35.2233
28.9751 35.0526
29.0211 34.7878
29.0673 34.6211
29.1133 34.5358
29.1595 34.3982
29.2055 34.2825
29.2517 34.2705
29.2977 34.2029
29.3439 34.1698
29.3899 34.2208
29.4361 34.1724
29.4824 33.8478
29.5284 33.6145
29.5746 33.2851
29.6207 33.0756
29.6669 33.1499
29.713 32.9032
29.7593 32.8193
29.8053 32.8055
29.8516 32.8135
29.8977 32.8587
29.9439 32.5387
29.99 32.4024
30.0363 32.3746
30.0824 32.3754
30.1287 32.3455
30.1748 32.3593
30.2211 32.3376
30.2673 32.1881
30.3136 32.2807
30.3597 32.1275
30.406 32.0662
30.4522 31.9936
30.4985 31.9621
30.5447 32.2109
30.591 32.0628
30.6372 32.2273
30.6835 32.1522
30.7297 32.1283
30.7761 32.1222
30.8224 31.8638
30.8686 31.7243
30.915 31.5644
30.9612 31.3677
31.0076 31.3005
31.0538 31.1603
31.1002 31.0855
31.1464 30.9774
31.1928 30.8586
31.2391 30.9868
31.2855 30.7992
31.3317 30.8384
31.3781 30.9146
31.4244 30.766
31.4708 30.8407
31.5171 30.8267
31.5636 30.6565
31.6098 30.4608
31.6563 30.2023
31.7026 30.1714
31.7491 30.0614
31.7953 30.2018
31.8418 30.0829
31.8881 30.0581
31.9346 30.0279
31.9809 29.982
32.0275 29.8544
32.074 29.6684
32.1203 29.6098
32.1668 29.4543
32.2132 29.3195
32.2597 29.2643
32.306 29.1155
32.3526 28.9652
32.399 28.8742
32.4455 28.7105
32.4919 28.6291
32.5385 28.5125
32.5848 28.3466
32.6314 28.4763
32.6778 28.4346
32.7244 28.253
32.7708 28.1804
32.8174 28.2267
32.8638 27.9118
32.9104 28.1045
32.9569 27.9961
33.0035 27.8256
33.0499 27.8411
33.0966 27.6937
33.143 27.7972
33.1897 27.6592
33.2361 27.5187
33.2828 27.5481
33.3293 27.288
33.3759 27.3174
33.4226 27.1466
33.4691 27.0391
33.5158 26.9878
33.5623 26.8495
33.609 26.6611
33.6555 26.6212
33.7022 26.5111
33.7487 26.4136
33.7954 26.3327
33.842 26.2963
33.8887 26.2528
33.9353 26.2519
33.982 26.0603
34.0286 26.0262
34.0753 25.8421
34.1219 25.8446
34.1687 25.7693
34.2152 25.7198
34.262 25.6567
34.3086 25.5119
34.3554 25.4244
34.402 25.3223
34.4488 25.2586
34.4954 25.1778
34.5422 25.1562
34.5889 25.0652
34.6357 24.9279
34.6825 24.8607
34.7292 24.7311
34.776 24.6315
34.8227 24.603
34.8695 24.5419
34.9162 24.5591
34.9631 24.4271
35.0098 24.4917
35.0566 24.3414
35.1033 24.2331
35.1502 24.2526
35.1969 24.1709
35.2438 24.1304
35.2906 24.0112
35.3375 23.9881
35.3842 23.9348
35.4311 23.9149
35.4779 23.8056
35.5248 23.8729
35.5716 23.6793
35.6185 23.6345
35.6653 23.5517
35.7123 23.5293
35.759 23.441
35.806 23.3252
35.8528 23.2396
35.8998 23.1536
35.9468 23.0922
35.9936 23.0657
36.0406 22.8721
36.0874 22.9287
36.1345 22.8235
36.1813 22.7298
36.2283 22.6228
36.2752 22.5684
36.3222 22.5772
36.3691 22.4776
36.4161 22.3886
36.463 22.3549
36.5101 22.3577
36.557 22.2923
36.6041 22.1575
36.651 22.1143
36.6981 22.0282
36.745 22.0927
36.7921 21.8757
36.839 21.8189
36.8861 21.8204
36.9331 21.6783
36.9802 21.636
37.0272 21.5137
37.0743 21.4648
37.1213 21.4625
37.1684 21.3557
37.2154 21.2905
37.2626 21.1884
37.3098 21.0667
37.3568 21.1014
37.404 21.0785
37.451 20.9299
37.4982 20.8777
37.5452 20.8499
37.5924 20.712
37.6395 20.831
37.6867 20.6139
37.7337 20.5296
37.781 20.4748
37.8281 20.4349
37.8753 20.2748
37.9224 20.2579
37.9697 20.224
38.0168 20.1614
38.064 20.1494
38.1111 20.1376
38.1584 19.9497
38.2056 19.8898
38.2529 19.8942
38.3 19.7665
38.3473 19.7613
38.3945 19.6287
38.4418 19.6194
38.489 19.564
38.5363 19.5216
38.5837 19.4108
38.6309 19.3081
38.6782 19.302
38.7254 19.1888
38.7728 19.1514
38.82 19.0626
38.8674 19.1305
38.9146 18.9992
38.9621 18.8946
39.0093 18.8986
39.0567 18.7794
39.104 18.7339
39.1514 18.6543
39.1987 18.7085
39.2461 18.6239
39.2934 18.5244
39.3409 18.4077
39.3882 18.3336
39.4356 18.3306
39.483 18.2654
39.5304 18.3026
39.5778 18.2519
39.6253 18.0992
39.6726 18.0261
39.7201 18.0724
39.7675 17.9593
39.815 17.8522
39.8624 17.7778
39.9099 17.8599
39.9575 17.68
40.0049 17.6206
40.0525 17.5444
40.0999 17.5272
40.1474 17.453
40.1949 17.4455
40.2425 17.4101
40.2899 17.3735
40.3375 17.2883
40.385 17.1744
40.4326 17.1664
40.48 17.0941
40.5277 17.0645
40.5752 16.9976
40.6228 16.9275
40.6703 16.953
40.718 16.8796
40.7655 16.7874
40.8132 16.7378
40.8607 16.6762
40.9084 16.6498
40.9559 16.6188
41.0036 16.5072
41.0512 16.5233
41.0989 16.4526
41.1465 16.3719
41.1942 16.3271
41.242 16.2078
41.2896 16.1443
41.3373 16.111
41.3849 16.0814
41.4327 16.038
41.4803 15.9444
41.5281 15.896
41.5758 15.8625
41.6236 15.8114
41.6712 15.7027
41.7191 15.6651
41.7667 15.6986
41.8146 15.5751
41.8622 15.572
41.9101 15.5315
41.9578 15.3648
42.0057 15.3984
42.0534 15.3094
42.1013 15.3346
42.149 15.2319
42.1969 15.2052
42.2446 15.1684
42.2925 15.1257
42.3403 15.0217
42.3882 14.9889
42.436 14.9434
42.4839 14.8627
42.5319 14.8568
42.5797 14.8217
42.6277 14.717
42.6755 14.7154
42.7235 14.644
42.7713 14.5867
42.8193 14.5397
42.8671 14.4662
42.9152 14.48
42.963 14.3515
43.0111 14.3562
43.0589 14.2654
43.107 14.2207
43.1549 14.172
43.2029 14.0791
43.2508 14.0977
43.2989 14.0365
43.3468 13.9754
43.3949 13.941
43.4429 13.9298
43.491 13.8813
43.5389 13.7817
43.5871 13.7653
43.635 13.6991
43.6832 13.6676
43.7312 13.6049
43.7793 13.5592
43.8273 13.4874
43.8755 13.4682
43.9237 13.4169
43.9717 13.4087
44.0199 13.321
44.068 13.3043
44.1162 13.2507
44.1642 13.2026
44.2125 13.1427
44.2606 13.112
44.3088 13.0966
44.3569 12.9944
44.4052 12.9726
44.4533 12.904
44.5016 12.886
44.5497 12.8627
44.598 12.7928
44.6461 12.7119
44.6945 12.7213
44.7426 12.6589
44.791 12.6692
44.8391 12.5456
44.8875 12.5041
44.9357 12.4774
44.984 12.4748
45.0322 12.3667
45.0806 12.3438
45.1288 12.28
45.1773 12.2391
45.2257 12.2619
45.2739 12.1655
45.3224 12.0741
45.3706 12.1084
45.4191 11.9998
45.4673 12.0442
45.5158 11.9332
45.5641 11.9239
45.6126 11.8524
45.6609 11.8287
45.7094 11.7293
45.7577 11.769
45.8063 11.6707
45.8546 11.6742
45.9031 11.5979
45.9515 11.6382
46.0001 11.5605
46.0484 11.5048
46.097 11.4477
46.1454 11.4348
46.194 11.3908
46.2424 11.2899
46.291 11.2814
46.3395 11.2826
46.3881 11.186
46.4365 11.2043
46.4852 11.1392
46.5337 11.0993
46.5823 11.0742
46.631 11.0116
46.6795 10.9853
46.7282 10.9155
46.7767 10.8864
46.8254 10.8029
46.8739 10.8174
46.9226 10.7569
46.9712 10.7207
47.0199 10.6978
47.0685 10.6121
47.1173 10.5783
47.1658 10.5659
47.2146 10.5167
47.2632 10.4348
47.312 10.4171
47.3606 10.4036
47.4095 10.381
47.4581 10.3603
47.5069 10.2881
47.5556 10.2559
47.6044 10.2126
47.6531 10.1582
47.702 10.1138
47.7507 10.1262
47.7996 10.0454
47.8483 10.0167
47.8972 9.98822
47.9461 9.97862
47.9948 9.9321
48.0438 9.86213
48.0925 9.83684
48.1415 9.79817
48.1902 9.7842
48.2392 9.72687
48.288 9.71827
48.337 9.67241
48.3858 9.62054
48.4348 9.61199
48.4837 9.5916
48.5327 9.51154
48.5815 9.46697
48.6306 9.49022
48.6795 9.46294
48.7285 9.38738
48.7774 9.39627
48.8265 9.35343
48.8754 9.2981
48.9245 9.27658
48.9734 9.2063
49.0226 9.20704
49.0715 9.1689
49.1206 9.1346
49.1696 9.0748
49.2188 9.00751
49.2679 9.00501
49.3169 8.98118
49.3661 8.8958
49.4151 8.92219
49.4643 8.88949
49.5134 8.84517
49.5626 8.78838
49.6117 8.75181
49.6609 8.74077
49.71 8.72594
49.7592 8.64215
49.8083 8.61807
49.8576 8.63907
49.9067 8.566
49.956 8.57422
50.0052 8.51264
50.0545 8.46605
50.1036 8.42576
50.153 8.40344
50.2022 8.37415
50.2515 8.35447
50.3007 8.30322
50.3501 8.25762
50.3993 8.26526
50.4487 8.21564
50.498 8.17897
50.5474 8.1669
50.5966 8.14345
50.6461 8.11974
50.6955 8.06115
50.7448 8.04228
50.7943 7.99477
50.8436 8.00483
50.8931 7.96271
50.9424 7.94794
50.9919 7.87353
51.0413 7.88277
51.0908 7.84468
51.1402 7.79515
51.1897 7.74705
51.2391 7.73296
51.2887 7.7024
51.3381 7.66299
51.3877 7.64579
51.4371 7.53664
51.4867 7.56629
51.5362 7.54947
51.5858 7.49077
51.6353 7.47058
51.6849 7.41763
51.7344 7.40084
51.7841 7.36319
51.8336 7.33464
51.8833 7.31453
51.9328 7.28463
51.9826 7.25401
52.0323 7.19704
52.0818 7.19543
52.1316 7.16392
52.1812 7.1529
52.231 7.10486
52.2806 7.10038
52.3304 7.05965
52.38 7.01852
52.4298 6.9804
52.4794 6.96892
52.5293 6.92931
52.5789 6.90349
52.6288 6.84514
52.6785 6.81113
52.7284 6.83506
52.7781 6.81312
52.828 6.77616
52.8777 6.76391
52.9276 6.70343
52.9774 6.67182
53.0273 6.65634
53.0771 6.63358
53.1271 6.61411
53.1769 6.58279
53.2269 6.54525
53.2767 6.49204
53.3267 6.4819
53.3765 6.46699
53.4266 6.40213
53.4766 6.3637
53.5265 6.36825
53.5765 6.32477
53.6264 6.31393
53.6765 6.29754
53.7264 6.25193
53.7765 6.23077
53.8265 6.24307
53.8766 6.16285
53.9266 6.16648
53.9767 6.09029
54.0267 6.06941
54.0769 6.06761
54.1269 6.04524
54.1771 6.01997
54.2271 5.98232
54.2773 5.90463
54.3274 5.95111
54.3776 5.86941
54.4277 5.88198
54.478 5.80222
54.528 5.77611
54.5783 5.74255
54.6285 5.72103
54.6788 5.64656
54.7289 5.59986
54.7792 5.5689
54.8296 5.51966
54.8798 5.50979
54.9301 5.49363
54.9803 5.45656
55.0307 5.40526
55.0809 5.35744
55.1314 5.35206
55.1816 5.29205
55.232 5.22362
55.2823 5.19223
55.3328 5.12992
55.383 5.08889
55.4335 5.03284
55.4838 4.9923
55.5344 4.93689
55.5847 4.93437
55.6352 4.88664
55.6856 4.82859
55.7361 4.77167