File: XRD/Ni3Fe_FD0728.xy
TT I
1.27165 7.48816
1.31627 7.03621
1.36089 6.63436
1.40551 6.33312
1.45013 6.91562
1.49476 5.90237
1.53938 5.83354
1.584 5.43827
1.62863 5.16215
1.67325 4.70927
1.71787 4.80253
1.7625 4.93669
1.80712 5.32765
1.85174 4.68049
1.89636 4.55836
1.94099 5.12753
1.98562 4.79981
2.03025 4.31702
2.07487 5.09189
2.11949 5.17542
2.16411 5.3496
2.20874 12.6767
2.25338 19.7334
2.298 6.39931
2.34263 5.76918
2.38725 5.70206
2.43188 6.18229
2.4765 7.05007
2.52115 6.71228
2.56577 7.81333
2.6104 7.67225
2.65503 7.61752
2.69965 8.40081
2.7443 8.60964
2.78893 8.22997
2.83356 8.54528
2.87818 8.42769
2.92281 8.89252
2.96744 10.1456
3.01209 10.2471
3.05672 11.1325
3.10135 12.1765
3.14599 12.9697
3.19062 14.0142
3.23527 15.2316
3.2799 15.4146
3.32454 16.754
3.36917 17.5582
3.4138 19.0113
3.45844 19.595
3.50309 21.2746
3.54773 21.9309
3.59237 23.424
3.637 82.6416
3.68164 53.1803
3.7263 26.3173
3.77094 26.0405
3.81558 26.6702
3.86022 27.436
3.90486 29.0689
3.9495 29.7054
3.99416 30.8355
4.0388 31.6259
4.08344 32.9622
4.12809 34.5886
4.17273 36.711
4.21738 42.5694
4.26204 217.911
4.30669 192.614
4.35133 47.9327
4.39598 44.0722
4.44063 52.2828
4.4853 62.8078
4.52995 49.7909
4.5746 51.0303
4.61925 52.8507
4.6639 55.406
4.70855 57.8009
4.75322 60.3933
4.79788 64.013
4.84253 66.4926
4.88719 71.1994
4.93184 74.7385
4.97652 79.9614
5.02118 86.1729
5.06583 93.8941
5.11049 105.133
5.15515 163.86
5.19981 329.866
5.24449 2813.7
5.28916 12617.9
5.33382 2888.16
5.37848 185.509
5.42315 127.904
5.46783 112.866
5.5125 105.799
5.55716 101.389
5.60183 97.6065
5.6465 96.3765
5.69117 93.9754
5.73586 91.3872
5.78053 91.5108
5.8252 90.65
5.86988 91.3908
5.91455 93.3456
5.95924 100.085
6.00392 196.847
6.0486 939.488
6.09328 4480.25
6.13795 3157.04
6.18263 234.573
6.22733 92.0166
6.27201 82.155
6.3167 97.4881
6.36138 79.155
6.40606 68.8564
6.45075 67.0297
6.49545 65.2818
6.54014 63.8733
6.58483 62.4895
6.62952 62.3567
6.67421 89.2997
6.71892 130.537
6.76361 67.3435
6.8083 58.4778
6.853 57.2033
6.89769 56.5616
6.94239 56.6741
6.98711 55.5609
7.03181 55.2716
7.07651 54.8701
7.12121 54.9254
7.16591 54.9441
7.21063 55.0625
7.25533 68.5318
7.30004 159.903
7.34475 85.6009
7.38945 56.0588
7.43416 54.0693
7.47889 54.2991
7.5236 54.6207
7.56831 55.064
7.61303 56.7148
7.65774 57.0854
7.70247 55.9458
7.74719 55.8904
7.79191 56.6902
7.83663 56.5732
7.88135 57.2854
7.92607 58.6271
7.97081 59.5411
8.01553 60.5926
8.06026 61.9153
8.10498 63.6088
8.14971 71.8205
8.19446 71.0051
8.23919 68.9776
8.28392 71.3721
8.32865 73.7693
8.37339 77.4849
8.41812 84.494
8.46288 109.314
8.50761 156.736
8.55235 373.6
8.59709 1186.16
8.64183 2152.36
8.68658 974.527
8.73134 167.091
8.77609 98.6274
8.82083 92.0195
8.86558 89.1466
8.91033 89.5932
8.9551 90.4347
8.99985 84.7897
9.04461 83.3636
9.08936 82.3331
9.13412 81.6007
9.17888 81.8664
9.22365 82.0195
9.26841 81.8217
9.31318 82.0023
9.35794 82.4315
9.4027 83.2598
9.44749 83.9499
9.49226 84.2663
9.53703 85.3329
9.5818 86.5936
9.62657 90.892
9.67134 97.3534
9.71614 93.3317
9.76091 93.9565
9.80569 95.9787
9.85047 99.2296
9.89525 120.27
9.94005 131.09
9.98484 170.54
10.0296 336.815
10.0744 818.223
10.1192 1766.12
10.164 1601.19
10.2088 411.512
10.2536 126.2
10.2984 111.986
10.3432 112.537
10.388 103.906
10.4328 116.334
10.4776 157.809
10.5224 285.356
10.5672 514.982
10.612 510.194
10.6568 206.939
10.7017 96.5042
10.7465 86.1487
10.7913 82.8979
10.8361 80.5322
10.8809 78.664
10.9257 77.9121
10.9706 78.2264
11.0154 74.6263
11.0602 72.3258
11.105 71.5727
11.1499 74.9181
11.1947 80.9116
11.2395 73.394
11.2844 69.594
11.3292 67.07
11.374 65.685
11.4189 65.217
11.4637 64.6452
11.5086 65.0243
11.5534 67.1287
11.5983 64.8789
11.6431 63.251
11.688 62.5484
11.7328 62.5585
11.7777 62.5113
11.8225 62.1858
11.8674 61.8273
11.9122 62.4955
11.9571 62.4972
12.002 63.2098
12.0468 66.8588
12.0917 77.7558
12.1366 102.404
12.1814 155.26
12.2263 199.348
12.2712 161.632
12.3161 95.9206
12.3609 69.7727
12.4058 64.4242
12.4507 63.9224
12.4956 64.0524
12.5405 64.4338
12.5853 65.1667
12.6302 71.7062
12.6751 76.4007
12.72 69.1686
12.7649 67.4141
12.8098 67.7973
12.8547 69.2898
12.8996 70.5084
12.9445 71.7077
12.9894 73.902
13.0343 75.6449
13.0792 78.282
13.1242 86.6877
13.1691 109.163
13.214 147.312
13.2589 241.444
13.3038 370.296
13.3487 413.747
13.3937 265.782
13.4386 127.077
13.4835 104.266
13.5285 118.421
13.5734 157.864
13.6183 250.265
13.6633 347.719
13.7082 332.959
13.7531 186.42
13.7981 97.5127
13.843 81.8266
13.888 79.223
13.9329 76.9256
13.9779 75.7321
14.0228 73.9538
14.0678 72.7946
14.1127 72.2496
14.1577 71.9126
14.2027 71.2046
14.2476 70.0845
14.2926 70.0986
14.3376 71.4657
14.3825 69.8943
14.4275 68.257
14.4725 68.3767
14.5175 68.4579
14.5624 68.7274
14.6074 70.5668
14.6524 71.0574
14.6974 69.8984
14.7424 71.3001
14.7874 77.5976
14.8324 87.8946
14.8774 110.155
14.9224 154.758
14.9674 207.548
15.0124 214.148
15.0574 148.371
15.1024 91.2218
15.1474 72.2788
15.1924 69.8234
15.2374 70.6198
15.2824 69.6017
15.3274 67.9593
15.3725 66.4849
15.4175 66.1056
15.4625 65.7846
15.5076 66.1366
15.5526 65.7729
15.5976 65.4316
15.6426 66.2754
15.6877 71.2995
15.7327 78.7952
15.7778 94.6558
15.8228 127.555
15.8679 172.484
15.9129 190.517
15.958 153.826
16.003 98.2119
16.0481 68.2147
16.0931 64.1729
16.1382 62.2615
16.1833 60.2032
16.2283 58.6538
16.2734 58.2109
16.3185 58.3348
16.3636 58.9177
16.4086 57.285
16.4537 56.1304
16.4988 55.2764
16.5439 55.1325
16.589 54.8492
16.6341 54.5958
16.6792 54.1579
16.7243 54.4477
16.7694 54.7553
16.8145 54.4896
16.8596 54.9228
16.9047 56.1077
16.9498 56.3226
16.9949 55.392
17.04 55.3553
17.0851 56.5707
17.1302 58.3922
17.1754 61.3126
17.2205 66.6637
17.2656 74.6058
17.3108 82.0288
17.3559 81.4424
17.401 70.5463
17.4462 62.1083
17.4913 59.0184
17.5365 58.7813
17.5815 58.7849
17.6268 59.2515
17.6718 60.0369
17.7171 60.7239
17.7622 61.0619
17.8074 61.7687
17.8525 63.7605
17.8977 67.6992
17.9428 73.0912
17.9881 82.3506
18.0331 100.629
18.0784 122.417
18.1237 138.579
18.1688 130.22
18.214 103.383
18.2591 87.1206
18.3044 91.2025
18.3495 99.8354
18.3948 104.606
18.4399 95.5185
18.4852 77.3861
18.5303 65.9801
18.5756 61.9522
18.6207 61.0266
18.666 60.3028
18.7112 59.307
18.7565 58.928
18.8016 58.3566
18.8469 57.9698
18.892 57.6571
18.9374 57.0245
18.9825 56.9135
19.0278 56.4479
19.073 56.667
19.1183 57.1316
19.1635 57.9072
19.2088 59.4397
19.254 62.057
19.2993 66.8066
19.3447 72.8994
19.3898 75.7659
19.4352 71.7575
19.4804 63.2351
19.5257 56.6081
19.5709 53.9147
19.6163 53.6233
19.6615 53.4872
19.7068 53.2257
19.752 53.0889
19.7974 53.4083
19.8426 54.1262
19.888 54.8594
19.9332 55.9144
19.9786 58.9365
20.0238 62.3993
20.0692 67.0639
20.1144 69.6133
20.1598 67.7643
20.205 63.5502
20.2504 62.271
20.2957 63.767
20.3411 65.1738
20.3863 63.3188
20.4318 58.3669
20.477 53.6076
20.5224 51.4652
20.5677 50.6548
20.6131 50.0902
20.6586 49.3844
20.7038 49.4386
20.7493 48.916
20.7945 48.7731
20.84 48.6871
20.8853 48.3561
20.9307 48.3969
20.976 48.5799
21.0215 48.4425
21.0668 48.8091
21.1122 49.3929
21.1575 50.0438
21.203 50.7422
21.2483 51.3435
21.2938 51.2727
21.3391 49.9274
21.3846 48.6565
21.4299 48.2905
21.4754 48.2043
21.5207 48.3888
21.5662 48.5455
21.6116 48.9758
21.6571 49.7717
21.7024 50.493
21.7479 52.4436
21.7933 55.2269
21.8388 58.9556
21.8843 62.4428
21.9297 64.3356
21.9752 63.2291
22.0206 59.5029
22.0661 56.7468
22.1115 55.9635
22.157 55.7678
22.2024 54.1287
22.248 51.3945
22.2933 49.812
22.3389 48.873
22.3843 48.9037
22.4299 48.6325
22.4753 48.6632
22.5208 48.4552
22.5662 48.2804
22.6118 48.3888
22.6572 48.61
22.7028 49.2216
22.7483 49.3255
22.7939 50.3705
22.8393 51.9202
22.8849 53.9908
22.9303 56.1239
22.9759 57.5717
23.0214 57.0664
23.067 54.399
23.1126 51.1178
23.1581 49.0425
23.2037 48.6391
23.2492 48.7346
23.2948 48.5131
23.3403 48.8828
23.3859 49.5688
23.4314 50.6704
23.477 52.7231
23.5225 54.8766
23.5682 56.9148
23.6137 57.5448
23.6593 55.4318
23.7048 51.5568
23.7505 48.2581
23.796 46.4951
23.8417 45.9829
23.8872 45.3223
23.9329 45.146
23.9784 44.8275
24.0241 44.436
24.0697 44.4078
24.1154 43.9255
24.1609 43.6584
24.2066 43.608
24.2522 43.5813
24.2979 43.3515
24.3434 43.2335
24.3892 43.0876
24.4349 43.059
24.4805 42.737
24.5262 43.0807
24.5718 42.9284
24.6175 42.8583
24.6631 42.6694
24.7089 42.3292
24.7545 42.2861
24.8002 42.1172
24.8458 42.196
24.8916 41.8462
24.9372 42.0331
24.983 42.3722
25.0286 42.7281
25.0744 43.3386
25.12 43.6525
25.1658 44.3328
25.2114 44.5435
25.2572 44.8736
25.3029 44.7487
25.3487 44.6071
25.3943 44.4791
25.4402 43.4946
25.4858 42.4376
25.5316 41.4656
25.5773 40.6358
25.6231 40.7753
25.669 40.5432
25.7147 40.418
25.7605 40.3714
25.8062 40.3555
25.8521 40.5815
25.8977 40.4121
25.9436 40.7041
25.9893 40.9327
26.0352 41.2256
26.0809 41.4507
26.1268 41.5988
26.1725 41.0743
26.2184 40.7113
26.2641 40.2668
26.31 39.9703
26.3557 40.0606
26.4017 40.1236
26.4474 40.3633
26.4933 40.7208
26.5391 41.2689
26.585 41.6229
26.6308 41.9282
26.6767 42.0044
26.7225 41.7131
26.7684 41.3736
26.8142 40.7339
26.8601 40.3604
26.9059 39.9392
26.9519 39.2224
26.9979 39.1351
27.0437 38.8445
27.0896 38.7088
27.1354 38.6402
27.1814 38.4774
27.2272 38.4576
27.2732 38.4174
27.3191 38.3466
27.3651 38.2576
27.4109 38.3347
27.4569 38.4757
27.5027 38.5433
27.5488 38.4668
27.5946 38.3598
27.6407 37.9657
27.6865 37.975
27.7326 37.6371
27.7784 37.8724
27.8245 37.6448
27.8703 37.836
27.9164 38.3231
27.9623 38.3838
28.0084 38.6188
28.0543 38.9093
28.1003 38.9831
28.1462 38.7278
28.1923 38.3741
28.2384 37.8431
28.2843 37.5996
28.3304 36.9977
28.3764 36.709
28.4225 36.386
28.4684 36.188
28.5145 35.8408
28.5605 35.7287
28.6066 35.5834
28.6526 35.6556
28.6987 35.4867
28.7447 35.4633
28.7908 35.3476
28.8368 35.3823
28.8829 35.3687
28.9289 35.1528
28.9751 35.0906
29.0211 34.8429
29.0673 34.6199
29.1133 34.4138
29.1595 34.2478
29.2055 34.2735
29.2517 34.3528
29.2977 34.0927
29.3439 34.1506
29.3899 34.1295
29.4361 34.1191
29.4824 33.7679
29.5284 33.6192
29.5746 33.3302
29.6207 33.0546
29.6669 32.9773
29.713 32.9803
29.7593 32.6814
29.8053 32.839
29.8516 32.6985
29.8977 32.732
29.9439 32.4652
29.99 32.4956
30.0363 32.3476
30.0824 32.4913
30.1287 32.3144
30.1748 32.2991
30.2211 32.3274
30.2673 32.2935
30.3136 32.3681
30.3597 32.1955
30.406 32.1442
30.4522 31.9589
30.4985 31.8828
30.5447 32.1089
30.591 32.0799
30.6372 32.1337
30.6835 32.1142
30.7297 32.0424
30.7761 32.0203
30.8224 31.8798
30.8686 31.8299
30.915 31.5233
30.9612 31.4187
31.0076 31.1756
31.0538 31.0338
31.1002 31.1182
31.1464 30.8911
31.1928 30.8835
31.2391 30.9189
31.2855 30.7977
31.3317 30.8132
31.3781 30.8205
31.4244 30.8066
31.4708 30.6832
31.5171 30.6798
31.5636 30.639
31.6098 30.4532
31.6563 30.2415
31.7026 30.241
31.7491 30.002
31.7953 30.1571
31.8418 29.9545
31.8881 30.1059
31.9346 29.9535
31.9809 30.0077
32.0275 29.8614
32.074 29.7086
32.1203 29.467
32.1668 29.4798
32.2132 29.3089
32.2597 29.1752
32.306 29.2249
32.3526 28.9156
32.399 28.9206
32.4455 28.6886
32.4919 28.6588
32.5385 28.6149
32.5848 28.5137
32.6314 28.4453
32.6778 28.2842
32.7244 28.2101
32.7708 28.1624
32.8174 28.0639
32.8638 28.0155
32.9104 27.9919
32.9569 27.9223
33.0035 27.7601
33.0499 27.759
33.0966 27.7163
33.143 27.7525
33.1897 27.5821
33.2361 27.5461
33.2828 27.4884
33.3293 27.3038
33.3759 27.355
33.4226 27.1807
33.4691 27.0029
33.5158 26.9814
33.5623 26.8993
33.609 26.6849
33.6555 26.5706
33.7022 26.4996
33.7487 26.4357
33.7954 26.3634
33.842 26.3381
33.8887 26.2449
33.9353 26.178
33.982 26.0915
34.0286 26.0574
34.0753 25.899
34.1219 25.8222
34.1687 25.7222
34.2152 25.7636
34.262 25.6325
34.3086 25.5836
34.3554 25.5018
34.402 25.2714
34.4488 25.3409
34.4954 25.1357
34.5422 25.17
34.5889 25.0158
34.6357 24.9378
34.6825 24.8731
34.7292 24.7616
34.776 24.7569
34.8227 24.5705
34.8695 24.6222
34.9162 24.4956
34.9631 24.4229
35.0098 24.461
35.0566 24.2986
35.1033 24.1483
35.1502 24.1055
35.1969 24.1176
35.2438 24.114
35.2906 24.0308
35.3375 24.0029
35.3842 23.8578
35.4311 23.8922
35.4779 23.9198
35.5248 23.864
35.5716 23.7626
35.6185 23.6276
35.6653 23.5502
35.7123 23.485
35.759 23.4953
35.806 23.3417
35.8528 23.1847
35.8998 23.1126
35.9468 23.0901
35.9936 23.0882
36.0406 22.9989
36.0874 22.9245
36.1345 22.7782
36.1813 22.7201
36.2283 22.6741
36.2752 22.5675
36.3222 22.6098
36.3691 22.553
36.4161 22.4022
36.463 22.3911
36.5101 22.395
36.557 22.2524
36.6041 22.172
36.651 22.0995
36.6981 22.0623
36.745 21.9825
36.7921 21.8948
36.839 21.7549
36.8861 21.6703
36.9331 21.6668
36.9802 21.5786
37.0272 21.5455
37.0743 21.3533
37.1213 21.3612
37.1684 21.3793
37.2154 21.2623
37.2626 21.2162
37.3098 21.1007
37.3568 21.043
37.404 21.0744
37.451 21.0075
37.4982 20.8484
37.5452 20.8087
37.5924 20.721
37.6395 20.7442
37.6867 20.7131
37.7337 20.547
37.781 20.4478
37.8281 20.4614
37.8753 20.3258
37.9224 20.2939
37.9697 20.2608
38.0168 20.1389
38.064 20.0415
38.1111 20.0411
38.1584 19.9419
38.2056 19.9213
38.2529 19.8478
38.3 19.7879
38.3473 19.7632
38.3945 19.6602
38.4418 19.6259
38.489 19.6052
38.5363 19.4898
38.5837 19.391
38.6309 19.3649
38.6782 19.284
38.7254 19.2894
38.7728 19.1708
38.82 19.1382
38.8674 19.088
38.9146 18.9512
38.9621 18.9307
39.0093 18.8793
39.0567 18.8402
39.104 18.7394
39.1514 18.6338
39.1987 18.6049
39.2461 18.5877
39.2934 18.5606
39.3409 18.4093
39.3882 18.3909
39.4356 18.2656
39.483 18.2592
39.5304 18.1995
39.5778 18.1229
39.6253 18.1052
39.6726 18.0461
39.7201 18.0224
39.7675 17.9529
39.815 17.9066
39.8624 17.863
39.9099 17.8046
39.9575 17.6862
40.0049 17.6329
40.0525 17.5981
40.0999 17.5222
40.1474 17.5057
40.1949 17.3914
40.2425 17.3815
40.2899 17.292
40.3375 17.2812
40.385 17.254
40.4326 17.1687
40.48 17.0443
40.5277 17.0185
40.5752 16.988
40.6228 16.9546
40.6703 16.8783
40.718 16.8235
40.7655 16.72
40.8132 16.7292
40.8607 16.731
40.9084 16.6577
40.9559 16.5667
41.0036 16.5271
41.0512 16.4317
41.0989 16.4477
41.1465 16.3018
41.1942 16.2996
41.242 16.1857
41.2896 16.1726
41.3373 16.1133
41.3849 16.0982
41.4327 16.0291
41.4803 15.9434
41.5281 15.9638
41.5758 15.8611
41.6236 15.8556
41.6712 15.7858
41.7191 15.6938
41.7667 15.6757
41.8146 15.6187
41.8622 15.5254
41.9101 15.4728
41.9578 15.3314
42.0057 15.4118
42.0534 15.3647
42.1013 15.3195
42.149 15.2123
42.1969 15.2315
42.2446 15.1339
42.2925 15.1003
42.3403 15.0172
42.3882 15.0019
42.436 14.9531
42.4839 14.8891
42.5319 14.8597
42.5797 14.8073
42.6277 14.7345
42.6755 14.7271
42.7235 14.6423
42.7713 14.6044
42.8193 14.5285
42.8671 14.5103
42.9152 14.4452
42.963 14.3945
43.0111 14.3128
43.0589 14.2689
43.107 14.2477
43.1549 14.2023
43.2029 14.143
43.2508 14.0832
43.2989 14.0552
43.3468 14.0062
43.3949 13.948
43.4429 13.8944
43.491 13.8763
43.5389 13.8513
43.5871 13.7765
43.635 13.739
43.6832 13.6455
43.7312 13.5834
43.7793 13.5609
43.8273 13.5307
43.8755 13.4474
43.9237 13.4197
43.9717 13.42
44.0199 13.3062
44.068 13.3055
44.1162 13.2601
44.1642 13.2225
44.2125 13.1746
44.2606 13.1243
44.3088 13.077
44.3569 13.0271
44.4052 12.9856
44.4533 12.9216
44.5016 12.8637
44.5497 12.8444
44.598 12.8065
44.6461 12.7223
44.6945 12.705
44.7426 12.666
44.791 12.5532
44.8391 12.5963
44.8875 12.4948
44.9357 12.5086
44.984 12.4167
45.0322 12.3764
45.0806 12.3304
45.1288 12.3029
45.1773 12.2563
45.2257 12.2315
45.2739 12.1927
45.3224 12.1356
45.3706 12.0572
45.4191 12.0273
45.4673 12.0131
45.5158 11.9886
45.5641 11.8954
45.6126 11.8546
45.6609 11.8414
45.7094 11.8143
45.7577 11.6906
45.8063 11.7105
45.8546 11.6962
45.9031 11.6396
45.9515 11.6093
46.0001 11.5393
46.0484 11.5063
46.097 11.4749
46.1454 11.4302
46.194 11.3653
46.2424 11.3659
46.291 11.2658
46.3395 11.2635
46.3881 11.1815
46.4365 11.1679
46.4852 11.1126
46.5337 11.0926
46.5823 11.0614
46.631 10.973
46.6795 10.9842
46.7282 10.9229
46.7767 10.9133
46.8254 10.8117
46.8739 10.8395
46.9226 10.7928
46.9712 10.6834
47.0199 10.6545
47.0685 10.6382
47.1173 10.636
47.1658 10.6086
47.2146 10.5338
47.2632 10.4917
47.312 10.4549
47.3606 10.4202
47.4095 10.3511
47.4581 10.3341
47.5069 10.2923
47.5556 10.2262
47.6044 10.2039
47.6531 10.1981
47.702 10.125
47.7507 10.1034
47.7996 10.0449
47.8483 10.0332
47.8972 10.0475
47.9461 9.98633
47.9948 9.94295
48.0438 9.86761
48.0925 9.87203
48.1415 9.80106
48.1902 9.7507
48.2392 9.79415
48.288 9.74835
48.337 9.68303
48.3858 9.62433
48.4348 9.60119
48.4837 9.60383
48.5327 9.56376
48.5815 9.49138
48.6306 9.5003
48.6795 9.4672
48.7285 9.38926
48.7774 9.39769
48.8265 9.32913
48.8754 9.31985
48.9245 9.24654
48.9734 9.26314
49.0226 9.23673
49.0715 9.16273
49.1206 9.11262
49.1696 9.07097
49.2188 9.05104
49.2679 8.98727
49.3169 8.96625
49.3661 8.9299
49.4151 8.91756
49.4643 8.887
49.5134 8.82691
49.5626 8.77708
49.6117 8.77151
49.6609 8.77453
49.71 8.69563
49.7592 8.70249
49.8083 8.63229
49.8576 8.6454
49.9067 8.56677
49.956 8.54177
50.0052 8.52442
50.0545 8.45777
50.1036 8.40374
50.153 8.41536
50.2022 8.39429
50.2515 8.34791
50.3007 8.28572
50.3501 8.29175
50.3993 8.26163
50.4487 8.22863
50.498 8.20293
50.5474 8.16538
50.5966 8.13225
50.6461 8.08983
50.6955 8.05986
50.7448 8.03493
50.7943 7.99092
50.8436 7.94336
50.8931 7.91981
50.9424 7.90599
50.9919 7.89812
51.0413 7.87788
51.0908 7.82342
51.1402 7.77475
51.1897 7.76206
51.2391 7.75951
51.2887 7.73267
51.3381 7.67606
51.3877 7.64537
51.4371 7.58152
51.4867 7.5273
51.5362 7.53573
51.5858 7.50105
51.6353 7.4566
51.6849 7.44041
51.7344 7.43792
51.7841 7.37817
51.8336 7.37095
51.8833 7.31487
51.9328 7.3096
51.9826 7.23149
52.0323 7.2113
52.0818 7.24939
52.1316 7.15203
52.1812 7.13339
52.231 7.14126
52.2806 7.06756
52.3304 7.05066
52.38 7.06753
52.4298 6.97817
52.4794 6.96701
52.5293 6.94127
52.5789 6.89699
52.6288 6.91056
52.6785 6.82626
52.7284 6.8422
52.7781 6.82398
52.828 6.78796
52.8777 6.69441
52.9276 6.70271
52.9774 6.68153
53.0273 6.67355
53.0771 6.63935
53.1271 6.60153
53.1769 6.56395
53.2269 6.53607
53.2767 6.51146
53.3267 6.4792
53.3765 6.48672
53.4266 6.4398
53.4766 6.37511
53.5265 6.35831
53.5765 6.33236
53.6264 6.33127
53.6765 6.30403
53.7264 6.25977
53.7765 6.25509
53.8265 6.19427
53.8766 6.15511
53.9266 6.17062
53.9767 6.11206
54.0267 6.11726
54.0769 6.07065
54.1269 6.08101
54.1771 6.00834
54.2271 5.96672
54.2773 5.94578
54.3274 5.9301
54.3776 5.85749
54.4277 5.85345
54.478 5.79709
54.528 5.81015
54.5783 5.75998
54.6285 5.70081
54.6788 5.65491
54.7289 5.62562
54.7792 5.57681
54.8296 5.54801
54.8798 5.53781
54.9301 5.45947
54.9803 5.45591
55.0307 5.44862
55.0809 5.35746
55.1314 5.3627
55.1816 5.25224
55.232 5.20638
55.2823 5.2294
55.3328 5.1431
55.383 5.0634
55.4335 5.08339
55.4838 4.98375
55.5344 4.97506
55.5847 4.90179
55.6352 4.9039
55.6856 4.8175
55.7361 4.81119