File: XRD/Ni3Fe_FD0692.xy
TT I
1.27165 7.44926
1.31627 6.66948
1.36089 6.57148
1.40551 5.80391
1.45013 6.11374
1.49476 5.83768
1.53938 5.61633
1.584 5.16239
1.62863 5.38988
1.67325 4.71493
1.71787 4.79363
1.7625 4.79309
1.80712 4.33608
1.85174 4.6464
1.89636 4.87244
1.94099 5.00406
1.98562 5.22623
2.03025 4.4305
2.07487 4.48638
2.11949 4.96054
2.16411 4.63745
2.20874 9.79914
2.25338 13.5169
2.298 5.55587
2.34263 5.53746
2.38725 5.47457
2.43188 5.9252
2.4765 6.77156
2.52115 6.71857
2.56577 7.85574
2.6104 8.58986
2.65503 8.39423
2.69965 8.11402
2.7443 8.35706
2.78893 7.89405
2.83356 8.14189
2.87818 8.86196
2.92281 9.13168
2.96744 9.61006
3.01209 10.3266
3.05672 11.0096
3.10135 12.3091
3.14599 12.8602
3.19062 14.4467
3.23527 14.8146
3.2799 15.4601
3.32454 16.9064
3.36917 17.3195
3.4138 19.1137
3.45844 19.5465
3.50309 20.2341
3.54773 21.3686
3.59237 23.3285
3.637 58.6737
3.68164 40.5451
3.7263 25.5164
3.77094 25.7194
3.81558 26.0855
3.86022 27.2545
3.90486 28.7167
3.9495 29.8542
3.99416 30.5977
4.0388 31.7568
4.08344 33.385
4.12809 33.9103
4.17273 36.1933
4.21738 39.3428
4.26204 140.052
4.30669 122.629
4.35133 44.6658
4.39598 43.8422
4.44063 49.6474
4.4853 55.9505
4.52995 53.9802
4.5746 54.9799
4.61925 53.6379
4.6639 55.8058
4.70855 58.0595
4.75322 61.365
4.79788 66.2931
4.84253 67.8979
4.88719 74.3813
4.93184 76.2298
4.97652 81.1879
5.02118 87.3163
5.06583 95.6047
5.11049 106.605
5.15515 158.844
5.19981 425.072
5.24449 3030.87
5.28916 12735.3
5.33382 2655.89
5.37848 192.842
5.42315 130.014
5.46783 117.264
5.5125 110.121
5.55716 102.16
5.60183 98.3403
5.6465 95.8943
5.69117 94.291
5.73586 92.6789
5.78053 95.6548
5.8252 95.4994
5.86988 97.2209
5.91455 95.7186
5.95924 105.858
6.00392 247.791
6.0486 1035.03
6.09328 4576.16
6.13795 3127.99
6.18263 218.32
6.22733 91.3209
6.27201 80.886
6.3167 87.5247
6.36138 75.3044
6.40606 69.4715
6.45075 68.2738
6.49545 65.47
6.54014 63.4754
6.58483 62.8228
6.62952 62.5789
6.67421 76.2852
6.71892 100.807
6.76361 63.1329
6.8083 58.5629
6.853 58.7465
6.89769 56.5883
6.94239 56.3424
6.98711 55.5247
7.03181 55.2128
7.07651 54.7737
7.12121 54.8874
7.16591 55.335
7.21063 54.9098
7.25533 62.1582
7.30004 113.449
7.34475 71.6938
7.38945 54.9208
7.43416 53.8607
7.47889 54.0952
7.5236 54.2596
7.56831 54.8357
7.61303 55.758
7.65774 56.517
7.70247 56.478
7.74719 55.8636
7.79191 56.1734
7.83663 56.8902
7.88135 57.7763
7.92607 58.4475
7.97081 59.6157
8.01553 60.708
8.06026 62.3507
8.10498 63.9208
8.14971 70.598
8.19446 70.7656
8.23919 69.6595
8.28392 72.0158
8.32865 74.1307
8.37339 78.5791
8.41812 84.396
8.46288 106.001
8.50761 186.258
8.55235 409.79
8.59709 1237.1
8.64183 2230.26
8.68658 871.704
8.73134 155.391
8.77609 98.5954
8.82083 92.029
8.86558 91.2662
8.91033 91.0346
8.9551 89.5335
8.99985 85.2114
9.04461 83.8312
9.08936 83.6342
9.13412 82.619
9.17888 81.9503
9.22365 82.063
9.26841 81.8853
9.31318 83.7274
9.35794 85.2551
9.4027 84.7052
9.44749 84.5172
9.49226 84.5971
9.53703 85.533
9.5818 88.3999
9.62657 93.3929
9.67134 95.4295
9.71614 93.1686
9.76091 94.7353
9.80569 98.0491
9.85047 100.946
9.89525 114.075
9.94005 130.094
9.98484 198.876
10.0296 365.274
10.0744 851.122
10.1192 1792.55
10.164 1568.3
10.2088 360.639
10.2536 123.117
10.2984 110.058
10.3432 109.674
10.388 105.41
10.4328 124.364
10.4776 166.152
10.5224 291.984
10.5672 514.741
10.612 496.375
10.6568 192.451
10.7017 94.2392
10.7465 85.9899
10.7913 82.8635
10.8361 80.8754
10.8809 78.8632
10.9257 77.4694
10.9706 77.7637
11.0154 74.8234
11.0602 72.7061
11.105 71.4812
11.1499 72.7942
11.1947 76.1246
11.2395 71.144
11.2844 68.8103
11.3292 66.9291
11.374 65.7274
11.4189 65.5574
11.4637 64.5163
11.5086 64.563
11.5534 65.7193
11.5983 64.1938
11.6431 63.0351
11.688 62.494
11.7328 62.6985
11.7777 62.4803
11.8225 62.7348
11.8674 62.378
11.9122 62.5749
11.9571 62.6634
12.002 64.2231
12.0468 69.3501
12.0917 79.8612
12.1366 105.041
12.1814 155.47
12.2263 204.276
12.2712 156.955
12.3161 88.032
12.3609 67.3196
12.4058 64.065
12.4507 63.8519
12.4956 64.5058
12.5405 64.7433
12.5853 65.078
12.6302 68.9692
12.6751 72.2475
12.72 68.3008
12.7649 67.691
12.8098 68.2595
12.8547 69.751
12.8996 71.2469
12.9445 72.8677
12.9894 74.3638
13.0343 75.8818
13.0792 80.0485
13.1242 93.101
13.1691 114.541
13.214 153.447
13.2589 247.705
13.3038 380.016
13.3487 419.05
13.3937 249.97
13.4386 120.024
13.4835 108.611
13.5285 123.101
13.5734 164.387
13.6183 257.145
13.6633 355.683
13.7082 327.113
13.7531 171.236
13.7981 93.7841
13.843 81.3116
13.888 79.5586
13.9329 77.0753
13.9779 75.8125
14.0228 74.0955
14.0678 72.7538
14.1127 72.2962
14.1577 71.7702
14.2027 71.1634
14.2476 70.0624
14.2926 70.0714
14.3376 70.4859
14.3825 69.5598
14.4275 68.8355
14.4725 68.6539
14.5175 68.8456
14.5624 68.8128
14.6074 70.131
14.6524 70.7061
14.6974 70.6005
14.7424 73.8736
14.7874 80.6765
14.8324 90.4227
14.8774 113.69
14.9224 158.763
14.9674 212.242
15.0124 216.242
15.0574 140.306
15.1024 87.1992
15.1474 71.7779
15.1924 69.8662
15.2374 69.5708
15.2824 68.9283
15.3274 67.5831
15.3725 66.667
15.4175 66.356
15.4625 65.8645
15.5076 65.7291
15.5526 65.8108
15.5976 65.9867
15.6426 68.2052
15.6877 73.4692
15.7327 80.8993
15.7778 96.9487
15.8228 129.922
15.8679 174.527
15.9129 195.559
15.958 150.134
16.003 91.2437
16.0481 66.3164
16.0931 63.1944
16.1382 61.4005
16.1833 60.0242
16.2283 58.8537
16.2734 57.8618
16.3185 57.9665
16.3636 57.9076
16.4086 56.8323
16.4537 56.1494
16.4988 55.2951
16.5439 55.1908
16.589 54.8906
16.6341 54.7824
16.6792 54.3743
16.7243 54.6039
16.7694 54.5826
16.8145 54.7889
16.8596 54.8688
16.9047 55.7914
16.9498 56.0538
16.9949 55.5299
17.04 56.1834
17.0851 57.1978
17.1302 58.9061
17.1754 62.0048
17.2205 67.475
17.2656 75.3376
17.3108 83.0129
17.3559 81.189
17.401 70.0763
17.4462 61.471
17.4913 59.1878
17.5365 59.0964
17.5815 59.1441
17.6268 59.5651
17.6718 60.34
17.7171 60.5839
17.7622 61.3101
17.8074 62.2569
17.8525 65.4583
17.8977 68.9317
17.9428 74.3613
17.9881 83.9139
18.0331 102.433
18.0784 125.201
18.1237 142.154
18.1688 130.878
18.214 101.166
18.2591 86.148
18.3044 91.1474
18.3495 100.89
18.3948 105.806
18.4399 94.358
18.4852 75.4432
18.5303 64.8881
18.5756 62.0659
18.6207 60.767
18.666 60.1876
18.7112 59.5112
18.7565 58.8284
18.8016 58.5447
18.8469 58.0768
18.892 57.6045
18.9374 57.0562
18.9825 56.7019
19.0278 56.7582
19.073 57.0931
19.1183 57.3762
19.1635 57.8253
19.2088 59.3114
19.254 62.4429
19.2993 67.2634
19.3447 73.2539
19.3898 76.1756
19.4352 71.2553
19.4804 62.1181
19.5257 56.1713
19.5709 53.9607
19.6163 53.6489
19.6615 53.5115
19.7068 53.0875
19.752 53.0999
19.7974 53.6774
19.8426 54.3946
19.888 54.9258
19.9332 56.2985
19.9786 59.1854
20.0238 63.0659
20.0692 67.5388
20.1144 69.7086
20.1598 67.5626
20.205 63.0886
20.2504 62.2591
20.2957 63.9763
20.3411 65.2824
20.3863 63.3198
20.4318 57.6626
20.477 52.9302
20.5224 50.9858
20.5677 50.6561
20.6131 50.0333
20.6586 49.3798
20.7038 49.4518
20.7493 48.8564
20.7945 48.885
20.84 48.6384
20.8853 48.6263
20.9307 48.4132
20.976 48.6287
21.0215 48.6477
21.0668 48.764
21.1122 49.4559
21.1575 50.1798
21.203 50.8873
21.2483 51.4423
21.2938 51.3543
21.3391 49.6761
21.3846 48.8094
21.4299 48.3168
21.4754 48.3056
21.5207 48.4589
21.5662 48.8776
21.6116 49.3588
21.6571 49.9514
21.7024 50.8854
21.7479 52.8375
21.7933 55.8246
21.8388 59.6539
21.8843 63.2351
21.9297 64.6933
21.9752 62.8765
22.0206 58.7442
22.0661 56.1153
22.1115 55.842
22.157 55.7098
22.2024 53.8704
22.248 51.0667
22.2933 49.527
22.3389 48.8643
22.3843 48.8928
22.4299 48.5602
22.4753 48.7373
22.5208 48.4939
22.5662 48.4799
22.6118 48.7469
22.6572 49.0336
22.7028 49.121
22.7483 49.8092
22.7939 50.3689
22.8393 52.1842
22.8849 54.5314
22.9303 56.3352
22.9759 57.938
23.0214 57.1739
23.067 53.9514
23.1126 50.7481
23.1581 49.0211
23.2037 48.6986
23.2492 48.8384
23.2948 48.7803
23.3403 49.148
23.3859 49.9026
23.4314 51.0378
23.477 52.8046
23.5225 55.1889
23.5682 57.3732
23.6137 57.804
23.6593 55.072
23.7048 51.0693
23.7505 47.8269
23.796 46.343
23.8417 45.7638
23.8872 45.4521
23.9329 45.1473
23.9784 44.8712
24.0241 44.4329
24.0697 44.336
24.1154 43.9343
24.1609 43.7651
24.2066 43.7135
24.2522 43.7419
24.2979 43.3449
24.3434 43.2119
24.3892 43.0286
24.4349 42.9892
24.4805 42.8404
24.5262 43.0244
24.5718 42.811
24.6175 42.8095
24.6631 42.6094
24.7089 42.3674
24.7545 42.2626
24.8002 42.0577
24.8458 42.2269
24.8916 42.0599
24.9372 42.1535
24.983 42.6489
25.0286 42.9896
25.0744 43.2361
25.12 43.8277
25.1658 44.3489
25.2114 44.7221
25.2572 44.7282
25.3029 44.7246
25.3487 44.8225
25.3943 44.4744
25.4402 43.2498
25.4858 42.2544
25.5316 41.4016
25.5773 40.7804
25.6231 40.8008
25.669 40.423
25.7147 40.4732
25.7605 40.2559
25.8062 40.3121
25.8521 40.4691
25.8977 40.5059
25.9436 40.6983
25.9893 40.893
26.0352 41.4173
26.0809 41.5992
26.1268 41.6104
26.1725 41.3571
26.2184 40.6552
26.2641 40.15
26.31 40.0282
26.3557 39.9666
26.4017 40.2351
26.4474 40.3637
26.4933 40.8595
26.5391 41.2998
26.585 41.6679
26.6308 42.1254
26.6767 42.1861
26.7225 41.7226
26.7684 41.2433
26.8142 40.7834
26.8601 40.2935
26.9059 39.8172
26.9519 39.3863
26.9979 39.1248
27.0437 38.6859
27.0896 38.6134
27.1354 38.7172
27.1814 38.7111
27.2272 38.5742
27.2732 38.5326
27.3191 38.2665
27.3651 38.3573
27.4109 38.3778
27.4569 38.553
27.5027 38.4987
27.5488 38.5865
27.5946 38.4296
27.6407 38.0893
27.6865 38.0358
27.7326 37.7358
27.7784 37.7764
27.8245 37.78
27.8703 38.0587
27.9164 38.3163
27.9623 38.4152
28.0084 38.6459
28.0543 39.1079
28.1003 38.8709
28.1462 38.7571
28.1923 38.2919
28.2384 37.794
28.2843 37.489
28.3304 37.0084
28.3764 36.514
28.4225 36.3401
28.4684 36.1399
28.5145 35.7406
28.5605 35.8009
28.6066 35.5032
28.6526 35.516
28.6987 35.615
28.7447 35.4965
28.7908 35.4073
28.8368 35.3208
28.8829 35.3288
28.9289 35.1729
28.9751 35.004
29.0211 34.7812
29.0673 34.613
29.1133 34.4919
29.1595 34.3062
29.2055 34.2073
29.2517 34.2766
29.2977 34.1974
29.3439 34.1481
29.3899 34.2168
29.4361 34.1176
29.4824 33.7959
29.5284 33.6238
29.5746 33.2437
29.6207 32.9961
29.6669 33.0006
29.713 32.9971
29.7593 32.7379
29.8053 32.7226
29.8516 32.7125
29.8977 32.6886
29.9439 32.5683
29.99 32.5152
30.0363 32.3946
30.0824 32.372
30.1287 32.3612
30.1748 32.5011
30.2211 32.3716
30.2673 32.3297
30.3136 32.3101
30.3597 32.2199
30.406 32.1731
30.4522 31.9518
30.4985 31.999
30.5447 32.115
30.591 32.073
30.6372 32.1152
30.6835 32.2078
30.7297 32.1339
30.7761 32.0722
30.8224 31.9158
30.8686 31.7656
30.915 31.508
30.9612 31.4386
31.0076 31.1883
31.0538 31.0752
31.1002 31.1012
31.1464 30.7597
31.1928 30.9296
31.2391 30.9181
31.2855 30.8604
31.3317 30.8005
31.3781 30.9206
31.4244 30.8362
31.4708 30.7655
31.5171 30.724
31.5636 30.5749
31.6098 30.4489
31.6563 30.1774
31.7026 30.0905
31.7491 30.0398
31.7953 30.0332
31.8418 30.0263
31.8881 30.0624
31.9346 30.1816
31.9809 29.9404
32.0275 29.9731
32.074 29.7271
32.1203 29.489
32.1668 29.4223
32.2132 29.2729
32.2597 29.2362
32.306 29.0991
32.3526 28.8059
32.399 28.8305
32.4455 28.6622
32.4919 28.6707
32.5385 28.4994
32.5848 28.3457
32.6314 28.5004
32.6778 28.3908
32.7244 28.2821
32.7708 28.1305
32.8174 28.0886
32.8638 27.9712
32.9104 28.0073
32.9569 27.8807
33.0035 27.7682
33.0499 27.9092
33.0966 27.8285
33.143 27.7378
33.1897 27.7157
33.2361 27.5548
33.2828 27.4938
33.3293 27.3583
33.3759 27.2866
33.4226 27.2096
33.4691 27.0617
33.5158 26.9317
33.5623 26.8529
33.609 26.6678
33.6555 26.6074
33.7022 26.4849
33.7487 26.5025
33.7954 26.3931
33.842 26.4401
33.8887 26.1975
33.9353 26.1788
33.982 26.0612
34.0286 25.9121
34.0753 25.9097
34.1219 25.8575
34.1687 25.8294
34.2152 25.7347
34.262 25.6787
34.3086 25.4719
34.3554 25.3955
34.402 25.3488
34.4488 25.2154
34.4954 25.1837
34.5422 25.1946
34.5889 25.0316
34.6357 24.8924
34.6825 24.8322
34.7292 24.766
34.776 24.6072
34.8227 24.6553
34.8695 24.6266
34.9162 24.5334
34.9631 24.5167
35.0098 24.5509
35.0566 24.3375
35.1033 24.2056
35.1502 24.1492
35.1969 24.1512
35.2438 24.1247
35.2906 24.0226
35.3375 24.0401
35.3842 23.9111
35.4311 23.9125
35.4779 23.9329
35.5248 23.8941
35.5716 23.7017
35.6185 23.608
35.6653 23.5708
35.7123 23.4135
35.759 23.456
35.806 23.3067
35.8528 23.2272
35.8998 23.1636
35.9468 23.0931
35.9936 23.0457
36.0406 23.0143
36.0874 23.0157
36.1345 22.8821
36.1813 22.7137
36.2283 22.6714
36.2752 22.5561
36.3222 22.6558
36.3691 22.4863
36.4161 22.4028
36.463 22.427
36.5101 22.4323
36.557 22.3373
36.6041 22.1245
36.651 22.1463
36.6981 22.0935
36.745 22.0203
36.7921 22.0434
36.839 21.8231
36.8861 21.8261
36.9331 21.7541
36.9802 21.5896
37.0272 21.5518
37.0743 21.5052
37.1213 21.4488
37.1684 21.3452
37.2154 21.2721
37.2626 21.2513
37.3098 21.1719
37.3568 21.1343
37.404 21.1084
37.451 20.9943
37.4982 20.8493
37.5452 20.8155
37.5924 20.7828
37.6395 20.806
37.6867 20.6299
37.7337 20.5469
37.781 20.4931
37.8281 20.4031
37.8753 20.3614
37.9224 20.3432
37.9697 20.2375
38.0168 20.1852
38.064 20.0953
38.1111 20.0492
38.1584 20.0674
38.2056 19.9534
38.2529 19.8375
38.3 19.7791
38.3473 19.8306
38.3945 19.6153
38.4418 19.6107
38.489 19.5605
38.5363 19.4794
38.5837 19.393
38.6309 19.4066
38.6782 19.29
38.7254 19.2151
38.7728 19.1199
38.82 19.0452
38.8674 19.0276
38.9146 18.9822
38.9621 18.9274
39.0093 18.9094
39.0567 18.798
39.104 18.7738
39.1514 18.667
39.1987 18.6317
39.2461 18.5382
39.2934 18.4957
39.3409 18.4344
39.3882 18.354
39.4356 18.2967
39.483 18.322
39.5304 18.1992
39.5778 18.234
39.6253 18.0393
39.6726 18.0521
39.7201 17.9963
39.7675 17.8896
39.815 17.9105
39.8624 17.844
39.9099 17.8203
39.9575 17.7093
40.0049 17.6484
40.0525 17.5912
40.0999 17.529
40.1474 17.5035
40.1949 17.451
40.2425 17.3132
40.2899 17.2929
40.3375 17.3072
40.385 17.2303
40.4326 17.1589
40.48 17.0349
40.5277 17.1103
40.5752 17.054
40.6228 16.9256
40.6703 16.9216
40.718 16.8304
40.7655 16.8044
40.8132 16.7012
40.8607 16.673
40.9084 16.6336
40.9559 16.508
41.0036 16.5517
41.0512 16.4935
41.0989 16.4774
41.1465 16.3694
41.1942 16.3502
41.242 16.2427
41.2896 16.1666
41.3373 16.0858
41.3849 16.0744
41.4327 16.0297
41.4803 15.9081
41.5281 15.8956
41.5758 15.8353
41.6236 15.7748
41.6712 15.7285
41.7191 15.6527
41.7667 15.6303
41.8146 15.62
41.8622 15.5284
41.9101 15.4793
41.9578 15.439
42.0057 15.4058
42.0534 15.3486
42.1013 15.2847
42.149 15.2149
42.1969 15.1275
42.2446 15.147
42.2925 15.1361
42.3403 15.0593
42.3882 14.9728
42.436 14.9591
42.4839 14.8997
42.5319 14.8435
42.5797 14.7413
42.6277 14.7267
42.6755 14.6856
42.7235 14.5716
42.7713 14.6712
42.8193 14.4966
42.8671 14.5036
42.9152 14.4151
42.963 14.371
43.0111 14.3108
43.0589 14.3211
43.107 14.2383
43.1549 14.1584
43.2029 14.1363
43.2508 14.1244
43.2989 14.0247
43.3468 14.0375
43.3949 13.9244
43.4429 13.865
43.491 13.8565
43.5389 13.7951
43.5871 13.7585
43.635 13.7225
43.6832 13.6611
43.7312 13.5972
43.7793 13.5669
43.8273 13.5491
43.8755 13.4424
43.9237 13.4492
43.9717 13.3564
44.0199 13.3131
44.068 13.2944
44.1162 13.2235
44.1642 13.2305
44.2125 13.149
44.2606 13.1231
44.3088 13.0425
44.3569 13.0103
44.4052 12.9813
44.4533 12.9162
44.5016 12.8778
44.5497 12.8187
44.598 12.7772
44.6461 12.718
44.6945 12.6896
44.7426 12.6747
44.791 12.6037
44.8391 12.5289
44.8875 12.4999
44.9357 12.4993
44.984 12.4441
45.0322 12.4096
45.0806 12.3249
45.1288 12.3391
45.1773 12.2188
45.2257 12.2384
45.2739 12.1671
45.3224 12.1127
45.3706 12.0828
45.4191 12.0487
45.4673 11.9836
45.5158 11.9812
45.5641 11.8967
45.6126 11.8381
45.6609 11.7974
45.7094 11.7802
45.7577 11.7386
45.8063 11.653
45.8546 11.6766
45.9031 11.6291
45.9515 11.591
46.0001 11.5502
46.0484 11.5239
46.097 11.4659
46.1454 11.4431
46.194 11.4317
46.2424 11.3435
46.291 11.2943
46.3395 11.2513
46.3881 11.2097
46.4365 11.1762
46.4852 11.1257
46.5337 11.1206
46.5823 11.0514
46.631 10.9807
46.6795 10.986
46.7282 10.9014
46.7767 10.8705
46.8254 10.8343
46.8739 10.7965
46.9226 10.7787
46.9712 10.7364
47.0199 10.6858
47.0685 10.6244
47.1173 10.5914
47.1658 10.5791
47.2146 10.5356
47.2632 10.5017
47.312 10.4605
47.3606 10.426
47.4095 10.3694
47.4581 10.3369
47.5069 10.2834
47.5556 10.2358
47.6044 10.216
47.6531 10.1804
47.702 10.1557
47.7507 10.1114
47.7996 10.0951
47.8483 10.0531
47.8972 10.0021
47.9461 9.97847
47.9948 9.93135
48.0438 9.88529
48.0925 9.86093
48.1415 9.8079
48.1902 9.76769
48.2392 9.73621
48.288 9.71921
48.337 9.69469
48.3858 9.65242
48.4348 9.60399
48.4837 9.61883
48.5327 9.55679
48.5815 9.52106
48.6306 9.47997
48.6795 9.44283
48.7285 9.40164
48.7774 9.41164
48.8265 9.35778
48.8754 9.33203
48.9245 9.27303
48.9734 9.22647
49.0226 9.22206
49.0715 9.13842
49.1206 9.15952
49.1696 9.07333
49.2188 9.09282
49.2679 8.98969
49.3169 8.98543
49.3661 8.93883
49.4151 8.90561
49.4643 8.89362
49.5134 8.84674
49.5626 8.77185
49.6117 8.79073
49.6609 8.7635
49.71 8.71368
49.7592 8.64494
49.8083 8.59564
49.8576 8.6295
49.9067 8.56782
49.956 8.56586
50.0052 8.48681
50.0545 8.46745
50.1036 8.42246
50.153 8.41211
50.2022 8.37404
50.2515 8.34672
50.3007 8.274
50.3501 8.295
50.3993 8.27045
50.4487 8.19508
50.498 8.2005
50.5474 8.17226
50.5966 8.11494
50.6461 8.15654
50.6955 8.0642
50.7448 8.05739
50.7943 8.01599
50.8436 7.97977
50.8931 7.93908
50.9424 7.91649
50.9919 7.87893
51.0413 7.83173
51.0908 7.83063
51.1402 7.78694
51.1897 7.71936
51.2391 7.72168
51.2887 7.70146
51.3381 7.65448
51.3877 7.6543
51.4371 7.6197
51.4867 7.54869
51.5362 7.53377
51.5858 7.54746
51.6353 7.45891
51.6849 7.43942
51.7344 7.42523
51.7841 7.35862
51.8336 7.36032
51.8833 7.33589
51.9328 7.28172
51.9826 7.27214
52.0323 7.19911
52.0818 7.22861
52.1316 7.18336
52.1812 7.17086
52.231 7.10313
52.2806 7.0717
52.3304 7.06246
52.38 7.01614
52.4298 7.02146
52.4794 6.97914
52.5293 6.93394
52.5789 6.90873
52.6288 6.91594
52.6785 6.86977
52.7284 6.83857
52.7781 6.77483
52.828 6.77245
52.8777 6.71325
52.9276 6.70427
52.9774 6.67686
53.0273 6.68939
53.0771 6.64937
53.1271 6.62545
53.1769 6.58171
53.2269 6.51777
53.2767 6.52942
53.3267 6.49976
53.3765 6.47303
53.4266 6.43839
53.4766 6.41061
53.5265 6.343
53.5765 6.35121
53.6264 6.31325
53.6765 6.31048
53.7264 6.28279
53.7765 6.18801
53.8265 6.24146
53.8766 6.19571
53.9266 6.16604
53.9767 6.12757
54.0267 6.14892
54.0769 6.09252
54.1269 6.06348
54.1771 6.02878
54.2271 5.99077
54.2773 5.93709
54.3274 5.95339
54.3776 5.8771
54.4277 5.90552
54.478 5.86254
54.528 5.78033
54.5783 5.71426
54.6285 5.72653
54.6788 5.67818
54.7289 5.62495
54.7792 5.59521
54.8296 5.55893
54.8798 5.4973
54.9301 5.46749
54.9803 5.47839
55.0307 5.44956
55.0809 5.36372
55.1314 5.34897
55.1816 5.25647
55.232 5.25153
55.2823 5.24254
55.3328 5.12017
55.383 5.0783
55.4335 5.03199
55.4838 4.93459
55.5344 4.93449
55.5847 4.92612
55.6352 4.90192
55.6856 4.84789
55.7361 4.8014