File: XRD/Ni3Fe_FD0833.xy
TT I
1.27165 7.15099
1.31627 6.48982
1.36089 6.8616
1.40551 5.49825
1.45013 6.28305
1.49476 5.66662
1.53938 5.62281
1.584 5.28751
1.62863 4.58287
1.67325 4.84502
1.71787 4.55863
1.7625 4.66176
1.80712 5.1405
1.85174 4.72804
1.89636 4.52627
1.94099 4.43547
1.98562 4.56985
2.03025 4.9296
2.07487 4.75082
2.11949 5.18432
2.16411 4.56694
2.20874 9.66027
2.25338 12.3113
2.298 6.47744
2.34263 5.313
2.38725 6.16197
2.43188 6.81269
2.4765 6.77315
2.52115 6.76184
2.56577 8.00032
2.6104 8.04431
2.65503 8.52171
2.69965 8.45383
2.7443 8.34253
2.78893 7.68336
2.83356 8.35285
2.87818 8.96927
2.92281 8.95222
2.96744 9.53142
3.01209 9.80827
3.05672 11.1772
3.10135 12.1459
3.14599 13.1661
3.19062 14.5302
3.23527 15.4859
3.2799 15.1558
3.32454 16.5812
3.36917 17.6654
3.4138 18.2973
3.45844 19.3936
3.50309 20.4162
3.54773 21.2608
3.59237 23.1536
3.637 52.8991
3.68164 38.6709
3.7263 25.8844
3.77094 25.7962
3.81558 26.5099
3.86022 27.1428
3.90486 28.6777
3.9495 29.8349
3.99416 30.651
4.0388 31.7282
4.08344 33.3179
4.12809 34.3434
4.17273 35.8653
4.21738 40.0375
4.26204 135.734
4.30669 115.674
4.35133 46.0226
4.39598 44.4362
4.44063 49.6612
4.4853 54.6854
4.52995 55.4658
4.5746 56.0229
4.61925 53.5099
4.6639 55.6146
4.70855 57.8349
4.75322 61.7615
4.79788 67.5512
4.84253 68.2737
4.88719 73.7071
4.93184 75.6924
4.97652 80.4153
5.02118 87.4623
5.06583 96.1262
5.11049 105.655
5.15515 153.796
5.19981 350.112
5.24449 2787.54
5.28916 12234.2
5.33382 2653.53
5.37848 191.354
5.42315 129.274
5.46783 117.642
5.5125 110.817
5.55716 101.577
5.60183 97.8729
5.6465 95.6037
5.69117 94.0917
5.73586 92.2855
5.78053 96.3167
5.8252 95.9596
5.86988 97.8289
5.91455 94.389
5.95924 101.393
6.00392 214.416
6.0486 956.694
6.09328 4347.55
6.13795 3058.34
6.18263 222.211
6.22733 89.5502
6.27201 80.3328
6.3167 85.5766
6.36138 74.4685
6.40606 69.4996
6.45075 68.8265
6.49545 64.8527
6.54014 63.3615
6.58483 62.5212
6.62952 62.3934
6.67421 75.7616
6.71892 93.6214
6.76361 62.564
6.8083 58.833
6.853 58.8662
6.89769 56.419
6.94239 55.7641
6.98711 55.5119
7.03181 55.7312
7.07651 54.7603
7.12121 55.6263
7.16591 56.2832
7.21063 55.1021
7.25533 62.2169
7.30004 106.575
7.34475 69.2805
7.38945 55.0061
7.43416 53.6997
7.47889 53.7528
7.5236 54.1267
7.56831 54.8552
7.61303 55.4699
7.65774 55.8541
7.70247 56.3176
7.74719 55.9865
7.79191 56.0682
7.83663 56.3019
7.88135 57.3768
7.92607 58.1558
7.97081 59.2137
8.01553 60.8328
8.06026 62.3186
8.10498 63.7841
8.14971 70.1662
8.19446 70.4661
8.23919 69.0072
8.28392 71.5675
8.32865 73.5846
8.37339 78.5602
8.41812 83.6473
8.46288 100.967
8.50761 164.477
8.55235 383.972
8.59709 1193.48
8.64183 2152.33
8.68658 908.428
8.73134 158.81
8.77609 97.7696
8.82083 92.0848
8.86558 91.5057
8.91033 90.9106
8.9551 88.8916
8.99985 84.5893
9.04461 83.4679
9.08936 83.6786
9.13412 82.4553
9.17888 81.7764
9.22365 81.8661
9.26841 81.6133
9.31318 83.8733
9.35794 85.6248
9.4027 84.9065
9.44749 84.6021
9.49226 84.0987
9.53703 85.3782
9.5818 88.7593
9.62657 92.886
9.67134 94.7409
9.71614 92.2673
9.76091 94.5514
9.80569 97.8791
9.85047 100.451
9.89525 112.693
9.94005 122.772
9.98484 178.332
10.0296 343.786
10.0744 832.882
10.1192 1752.97
10.164 1533.76
10.2088 396.74
10.2536 124.423
10.2984 109.596
10.3432 108.164
10.388 103.285
10.4328 118.194
10.4776 161.614
10.5224 295.949
10.5672 525.768
10.612 486.194
10.6568 197.57
10.7017 95.6142
10.7465 85.6177
10.7913 82.9508
10.8361 80.1852
10.8809 78.3612
10.9257 77.6564
10.9706 77.4798
11.0154 74.7789
11.0602 72.1077
11.105 70.9283
11.1499 72.4661
11.1947 74.3684
11.2395 70.0605
11.2844 68.2541
11.3292 66.4677
11.374 65.8178
11.4189 65.2518
11.4637 64.1666
11.5086 64.2562
11.5534 65.5811
11.5983 63.7012
11.6431 63.0172
11.688 61.9853
11.7328 62.5282
11.7777 62.1213
11.8225 62.2234
11.8674 62.0841
11.9122 62.1557
11.9571 62.4871
12.002 63.2939
12.0468 67.5938
12.0917 77.832
12.1366 103.049
12.1814 156.077
12.2263 211.57
12.2712 170.532
12.3161 91.6493
12.3609 67.0745
12.4058 63.6546
12.4507 63.7671
12.4956 63.9431
12.5405 64.0787
12.5853 64.7395
12.6302 68.3917
12.6751 70.5398
12.72 67.5491
12.7649 67.2988
12.8098 67.8986
12.8547 69.3019
12.8996 70.7398
12.9445 72.2093
12.9894 73.8715
13.0343 75.1579
13.0792 78.9783
13.1242 89.0186
13.1691 110.104
13.214 149.358
13.2589 246.206
13.3038 380.066
13.3487 408.025
13.3937 249.242
13.4386 121.767
13.4835 104.706
13.5285 119.915
13.5734 160.878
13.6183 253.926
13.6633 355.615
13.7082 330.071
13.7531 182.119
13.7981 96.8718
13.843 80.9896
13.888 79.2188
13.9329 76.6944
13.9779 75.3059
14.0228 73.6601
14.0678 72.2991
14.1127 71.7197
14.1577 71.3056
14.2027 70.651
14.2476 69.8863
14.2926 69.5483
14.3376 69.6709
14.3825 69.054
14.4275 68.1238
14.4725 68.0531
14.5175 68.3778
14.5624 68.3204
14.6074 69.5482
14.6524 69.9185
14.6974 69.6171
14.7424 72.1751
14.7874 78.5117
14.8324 88.4173
14.8774 111.809
14.9224 158.058
14.9674 212.89
15.0124 215.519
15.0574 144.662
15.1024 89.1541
15.1474 71.6803
15.1924 69.6953
15.2374 69.1159
15.2824 68.1957
15.3274 66.9528
15.3725 66.2018
15.4175 65.7244
15.4625 65.4667
15.5076 65.1848
15.5526 65.4076
15.5976 65.1706
15.6426 66.7219
15.6877 71.9197
15.7327 79.5095
15.7778 95.4545
15.8228 129.091
15.8679 172.154
15.9129 190.745
15.958 150.89
16.003 93.2607
16.0481 66.7914
16.0931 62.6587
16.1382 60.8915
16.1833 59.6975
16.2283 58.2795
16.2734 57.548
16.3185 57.3845
16.3636 57.484
16.4086 56.3554
16.4537 55.5393
16.4988 54.859
16.5439 54.8894
16.589 54.6002
16.6341 54.2527
16.6792 53.7958
16.7243 54.176
16.7694 54.1856
16.8145 54.1139
16.8596 54.5564
16.9047 54.9964
16.9498 55.3399
16.9949 54.8355
17.04 55.4677
17.0851 56.6841
17.1302 58.1823
17.1754 61.3703
17.2205 66.787
17.2656 74.4728
17.3108 81.9589
17.3559 80.1147
17.401 69.624
17.4462 61.5448
17.4913 58.7828
17.5365 58.5893
17.5815 58.828
17.6268 59.044
17.6718 59.6946
17.7171 60.0603
17.7622 60.9516
17.8074 61.6286
17.8525 64.1438
17.8977 67.7129
17.9428 72.944
17.9881 82.9071
18.0331 101.208
18.0784 123.032
18.1237 137.556
18.1688 127.756
18.214 102.072
18.2591 86.4168
18.3044 91.1867
18.3495 100.071
18.3948 104.032
18.4399 92.8367
18.4852 75.7483
18.5303 65.0288
18.5756 61.4496
18.6207 60.5284
18.666 59.7289
18.7112 59.1658
18.7565 58.3305
18.8016 58.1575
18.8469 57.4917
18.892 57.1583
18.9374 56.7617
18.9825 56.5064
19.0278 56.2059
19.073 56.2869
19.1183 56.7331
19.1635 57.0745
19.2088 58.7227
19.254 61.8598
19.2993 66.3924
19.3447 71.7566
19.3898 74.4053
19.4352 70.356
19.4804 61.876
19.5257 56.0901
19.5709 53.5384
19.6163 53.4561
19.6615 53.2393
19.7068 53.0018
19.752 52.8199
19.7974 53.2539
19.8426 53.8571
19.888 54.509
19.9332 55.7862
19.9786 58.6244
20.0238 62.3334
20.0692 67.1293
20.1144 69.0455
20.1598 67.5077
20.205 62.9344
20.2504 61.9663
20.2957 63.6222
20.3411 64.694
20.3863 62.735
20.4318 57.3013
20.477 52.8779
20.5224 50.8217
20.5677 50.0169
20.6131 49.621
20.6586 49.0847
20.7038 49.0637
20.7493 48.7534
20.7945 48.3459
20.84 48.4213
20.8853 48.2128
20.9307 47.9881
20.976 48.2433
21.0215 48.1179
21.0668 48.5743
21.1122 48.9434
21.1575 49.6713
21.203 50.3981
21.2483 50.9436
21.2938 50.8915
21.3391 49.6037
21.3846 48.4337
21.4299 47.837
21.4754 48.0389
21.5207 48.1561
21.5662 48.6468
21.6116 48.8135
21.6571 49.4736
21.7024 50.5734
21.7479 52.3641
21.7933 55.2726
21.8388 58.8966
21.8843 62.2787
21.9297 63.8451
21.9752 62.1534
22.0206 58.5629
22.0661 56.0532
22.1115 55.598
22.157 55.1768
22.2024 53.4696
22.248 50.7425
22.2933 49.2516
22.3389 48.6371
22.3843 48.459
22.4299 48.0459
22.4753 48.2011
22.5208 47.9911
22.5662 48.0222
22.6118 48.2201
22.6572 48.1788
22.7028 48.8289
22.7483 49.3612
22.7939 49.9815
22.8393 51.7042
22.8849 53.8029
22.9303 55.8765
22.9759 57.1631
23.0214 56.3722
23.067 53.8992
23.1126 50.5556
23.1581 48.6832
23.2037 48.3617
23.2492 48.271
23.2948 48.4555
23.3403 48.7009
23.3859 49.3238
23.4314 50.5598
23.477 52.3649
23.5225 54.5453
23.5682 56.5127
23.6137 57.1892
23.6593 54.5756
23.7048 50.93
23.7505 47.8574
23.796 46.0761
23.8417 45.5072
23.8872 45.1801
23.9329 44.8844
23.9784 44.364
24.0241 44.1997
24.0697 44.1175
24.1154 43.7112
24.1609 43.501
24.2066 43.3533
24.2522 43.1909
24.2979 43.0037
24.3434 42.8674
24.3892 42.9407
24.4349 42.7103
24.4805 42.5494
24.5262 42.7525
24.5718 42.5485
24.6175 42.4439
24.6631 42.3379
24.7089 42.0039
24.7545 41.9921
24.8002 41.8151
24.8458 41.7853
24.8916 41.6107
24.9372 41.7613
24.983 42.2599
25.0286 42.4616
25.0744 43.0242
25.12 43.3088
25.1658 43.9614
25.2114 44.1562
25.2572 44.3528
25.3029 44.4867
25.3487 44.423
25.3943 43.9699
25.4402 42.9797
25.4858 42.0449
25.5316 41.0467
25.5773 40.4648
25.6231 40.5027
25.669 40.2191
25.7147 40.1847
25.7605 40.0313
25.8062 40.0982
25.8521 40.121
25.8977 40.2044
25.9436 40.4371
25.9893 40.5592
26.0352 41.1015
26.0809 41.2445
26.1268 41.1536
26.1725 40.8805
26.2184 40.3453
26.2641 39.994
26.31 39.723
26.3557 39.7082
26.4017 39.7767
26.4474 40.066
26.4933 40.3281
26.5391 40.86
26.585 41.3369
26.6308 41.7284
26.6767 41.6719
26.7225 41.4546
26.7684 41.0719
26.8142 40.3401
26.8601 39.9701
26.9059 39.6206
26.9519 39.1358
26.9979 38.7427
27.0437 38.3636
27.0896 38.4074
27.1354 38.2886
27.1814 38.1947
27.2272 38.0372
27.2732 38.2345
27.3191 38.0059
27.3651 38.1194
27.4109 38.0713
27.4569 38.22
27.5027 38.1605
27.5488 38.1955
27.5946 38.0245
27.6407 37.7184
27.6865 37.6019
27.7326 37.5042
27.7784 37.5366
27.8245 37.4159
27.8703 37.5881
27.9164 38.0109
27.9623 38.1628
28.0084 38.4911
28.0543 38.6989
28.1003 38.7009
28.1462 38.4241
28.1923 38.1001
28.2384 37.5769
28.2843 37.2024
28.3304 36.7768
28.3764 36.4092
28.4225 36.0717
28.4684 35.8265
28.5145 35.6757
28.5605 35.4568
28.6066 35.4108
28.6526 35.2608
28.6987 35.251
28.7447 35.1478
28.7908 35.0138
28.8368 35.0535
28.8829 35.0325
28.9289 34.9981
28.9751 34.7382
29.0211 34.5548
29.0673 34.3423
29.1133 34.1798
29.1595 34.0173
29.2055 34.0088
29.2517 33.9791
29.2977 33.8836
29.3439 33.9587
29.3899 33.7506
29.4361 33.7098
29.4824 33.6322
29.5284 33.4498
29.5746 32.9857
29.6207 32.7524
29.6669 32.7411
29.713 32.7035
29.7593 32.5357
29.8053 32.5658
29.8516 32.4217
29.8977 32.3558
29.9439 32.2493
29.99 32.3614
30.0363 32.0756
30.0824 32.1983
30.1287 32.0731
30.1748 32.2021
30.2211 32.0801
30.2673 31.9552
30.3136 31.9652
30.3597 31.9918
30.406 31.8797
30.4522 31.7379
30.4985 31.6911
30.5447 31.8512
30.591 31.8835
30.6372 31.9362
30.6835 31.8623
30.7297 31.8436
30.7761 31.7427
30.8224 31.6313
30.8686 31.5631
30.915 31.2352
30.9612 31.104
31.0076 30.9627
31.0538 30.8685
31.1002 30.903
31.1464 30.6448
31.1928 30.6483
31.2391 30.7269
31.2855 30.5899
31.3317 30.5265
31.3781 30.594
31.4244 30.6428
31.4708 30.5007
31.5171 30.467
31.5636 30.4572
31.6098 30.1833
31.6563 30.0768
31.7026 29.9584
31.7491 29.8982
31.7953 29.9412
31.8418 29.8852
31.8881 29.9099
31.9346 29.7399
31.9809 29.7875
32.0275 29.6359
32.074 29.5308
32.1203 29.3158
32.1668 29.2254
32.2132 29.0107
32.2597 28.9843
32.306 28.8849
32.3526 28.6349
32.399 28.6871
32.4455 28.4223
32.4919 28.2941
32.5385 28.3385
32.5848 28.1667
32.6314 28.2553
32.6778 28.1312
32.7244 27.9855
32.7708 27.9065
32.8174 27.8643
32.8638 27.6809
32.9104 27.8442
32.9569 27.7326
33.0035 27.5373
33.0499 27.5987
33.0966 27.5501
33.143 27.5682
33.1897 27.411
33.2361 27.3032
33.2828 27.3597
33.3293 27.0984
33.3759 27.0902
33.4226 26.9337
33.4691 26.7563
33.5158 26.705
33.5623 26.6254
33.609 26.5478
33.6555 26.4074
33.7022 26.3054
33.7487 26.3316
33.7954 26.2152
33.842 26.0824
33.8887 26.0612
33.9353 26.0147
33.982 25.9647
34.0286 25.8198
34.0753 25.7932
34.1219 25.6332
34.1687 25.6201
34.2152 25.5159
34.262 25.3389
34.3086 25.2558
34.3554 25.369
34.402 25.198
34.4488 25.0228
34.4954 24.9628
34.5422 24.9753
34.5889 24.7905
34.6357 24.6779
34.6825 24.6934
34.7292 24.5608
34.776 24.5442
34.8227 24.4739
34.8695 24.3685
34.9162 24.3836
34.9631 24.2219
35.0098 24.2637
35.0566 24.1007
35.1033 24.0309
35.1502 24.0107
35.1969 23.9986
35.2438 23.9867
35.2906 23.8472
35.3375 23.7292
35.3842 23.7796
35.4311 23.717
35.4779 23.6905
35.5248 23.6614
35.5716 23.5535
35.6185 23.5131
35.6653 23.3964
35.7123 23.3142
35.759 23.2411
35.806 23.1123
35.8528 23.0198
35.8998 22.953
35.9468 22.9065
35.9936 22.8482
36.0406 22.7917
36.0874 22.7886
36.1345 22.6626
36.1813 22.6255
36.2283 22.4475
36.2752 22.368
36.3222 22.3961
36.3691 22.3118
36.4161 22.1795
36.463 22.1611
36.5101 22.1786
36.557 22.1342
36.6041 21.9541
36.651 21.9765
36.6981 21.9173
36.745 21.8397
36.7921 21.802
36.839 21.6144
36.8861 21.5489
36.9331 21.5588
36.9802 21.46
37.0272 21.3074
37.0743 21.1922
37.1213 21.2691
37.1684 21.1911
37.2154 21.1874
37.2626 21.036
37.3098 20.9697
37.3568 20.9532
37.404 20.8655
37.451 20.7774
37.4982 20.675
37.5452 20.5998
37.5924 20.5374
37.6395 20.6538
37.6867 20.504
37.7337 20.4083
37.781 20.3746
37.8281 20.3028
37.8753 20.1289
37.9224 20.1545
37.9697 20.1122
38.0168 19.8553
38.064 19.9216
38.1111 19.9644
38.1584 19.7748
38.2056 19.7284
38.2529 19.6904
38.3 19.6038
38.3473 19.5828
38.3945 19.4013
38.4418 19.4072
38.489 19.3516
38.5363 19.3213
38.5837 19.2265
38.6309 19.2106
38.6782 19.138
38.7254 19.0272
38.7728 19.0061
38.82 18.9349
38.8674 18.8371
38.9146 18.8832
38.9621 18.732
39.0093 18.727
39.0567 18.6328
39.104 18.5871
39.1514 18.4828
39.1987 18.4599
39.2461 18.4305
39.2934 18.3364
39.3409 18.2718
39.3882 18.2117
39.4356 18.1767
39.483 18.1247
39.5304 17.9817
39.5778 17.9965
39.6253 17.9596
39.6726 17.8528
39.7201 17.8778
39.7675 17.8041
39.815 17.7493
39.8624 17.6905
39.9099 17.6503
39.9575 17.5465
40.0049 17.5288
40.0525 17.4332
40.0999 17.3746
40.1474 17.3248
40.1949 17.295
40.2425 17.1897
40.2899 17.1569
40.3375 17.0985
40.385 17.1003
40.4326 17.1002
40.48 16.8959
40.5277 16.9436
40.5752 16.8873
40.6228 16.7924
40.6703 16.6875
40.718 16.6862
40.7655 16.6188
40.8132 16.6031
40.8607 16.5223
40.9084 16.5208
40.9559 16.454
41.0036 16.4288
41.0512 16.3585
41.0989 16.3256
41.1465 16.234
41.1942 16.1362
41.242 16.1299
41.2896 16.0473
41.3373 15.9664
41.3849 15.9428
41.4327 15.9299
41.4803 15.7588
41.5281 15.8184
41.5758 15.7202
41.6236 15.6602
41.6712 15.6116
41.7191 15.6008
41.7667 15.5141
41.8146 15.503
41.8622 15.4034
41.9101 15.356
41.9578 15.3427
42.0057 15.253
42.0534 15.1945
42.1013 15.1795
42.149 15.1177
42.1969 15.0506
42.2446 15.0047
42.2925 14.9497
42.3403 14.9375
42.3882 14.8745
42.436 14.8322
42.4839 14.7562
42.5319 14.7275
42.5797 14.7154
42.6277 14.6068
42.6755 14.5979
42.7235 14.4881
42.7713 14.4331
42.8193 14.4356
42.8671 14.349
42.9152 14.3328
42.963 14.3034
43.0111 14.2067
43.0589 14.1548
43.107 14.0799
43.1549 14.0757
43.2029 13.9735
43.2508 13.9839
43.2989 13.9015
43.3468 13.8312
43.3949 13.7991
43.4429 13.7537
43.491 13.7439
43.5389 13.7268
43.5871 13.6444
43.635 13.5974
43.6832 13.56
43.7312 13.4683
43.7793 13.4361
43.8273 13.3988
43.8755 13.386
43.9237 13.3219
43.9717 13.2829
44.0199 13.1963
44.068 13.1965
44.1162 13.1451
44.1642 13.089
44.2125 13.0637
44.2606 13.0106
44.3088 12.9865
44.3569 12.8934
44.4052 12.8811
44.4533 12.8134
44.5016 12.7761
44.5497 12.7159
44.598 12.7197
44.6461 12.597
44.6945 12.5887
44.7426 12.5608
44.791 12.4782
44.8391 12.499
44.8875 12.4002
44.9357 12.3822
44.984 12.3274
45.0322 12.2616
45.0806 12.2298
45.1288 12.2243
45.1773 12.1862
45.2257 12.161
45.2739 12.0746
45.3224 12.071
45.3706 12.0258
45.4191 11.9564
45.4673 11.9273
45.5158 11.8265
45.5641 11.7986
45.6126 11.7555
45.6609 11.7139
45.7094 11.6785
45.7577 11.6358
45.8063 11.5953
45.8546 11.5899
45.9031 11.5276
45.9515 11.4496
46.0001 11.4614
46.0484 11.4031
46.097 11.3597
46.1454 11.3
46.194 11.2593
46.2424 11.2404
46.291 11.2136
46.3395 11.1312
46.3881 11.1357
46.4365 11.1283
46.4852 11.0443
46.5337 10.9852
46.5823 10.9705
46.631 10.9058
46.6795 10.8625
46.7282 10.8481
46.7767 10.8173
46.8254 10.7495
46.8739 10.7421
46.9226 10.6751
46.9712 10.6658
47.0199 10.5931
47.0685 10.5668
47.1173 10.5084
47.1658 10.4768
47.2146 10.4332
47.2632 10.388
47.312 10.3551
47.3606 10.2968
47.4095 10.3082
47.4581 10.2598
47.5069 10.2171
47.5556 10.1651
47.6044 10.1037
47.6531 10.1236
47.702 10.0698
47.7507 10.0211
47.7996 9.98123
47.8483 9.9593
47.8972 9.91325
47.9461 9.87001
47.9948 9.84515
48.0438 9.80311
48.0925 9.80806
48.1415 9.73875
48.1902 9.70322
48.2392 9.70125
48.288 9.638
48.337 9.59938
48.3858 9.5689
48.4348 9.52896
48.4837 9.49376
48.5327 9.45764
48.5815 9.39892
48.6306 9.38182
48.6795 9.36526
48.7285 9.32965
48.7774 9.28703
48.8265 9.25892
48.8754 9.23059
48.9245 9.21861
48.9734 9.14649
49.0226 9.1385
49.0715 9.06642
49.1206 9.02257
49.1696 9.04464
49.2188 9.00049
49.2679 8.9444
49.3169 8.94493
49.3661 8.85861
49.4151 8.85369
49.4643 8.79332
49.5134 8.75868
49.5626 8.73408
49.6117 8.67874
49.6609 8.67842
49.71 8.61401
49.7592 8.61955
49.8083 8.5572
49.8576 8.57256
49.9067 8.49651
49.956 8.4592
50.0052 8.43203
50.0545 8.42655
50.1036 8.37162
50.153 8.34133
50.2022 8.34503
50.2515 8.27585
50.3007 8.23639
50.3501 8.19548
50.3993 8.21145
50.4487 8.16756
50.498 8.11681
50.5474 8.09108
50.5966 8.07629
50.6461 8.01766
50.6955 8.01941
50.7448 7.96827
50.7943 7.93
50.8436 7.88993
50.8931 7.87891
50.9424 7.80706
50.9919 7.80078
51.0413 7.7756
51.0908 7.74527
51.1402 7.74685
51.1897 7.70287
51.2391 7.67064
51.2887 7.64642
51.3381 7.5801
51.3877 7.58646
51.4371 7.52932
51.4867 7.4765
51.5362 7.46024
51.5858 7.45755
51.6353 7.40435
51.6849 7.37462
51.7344 7.36256
51.7841 7.34442
51.8336 7.28816
51.8833 7.26946
51.9328 7.22155
51.9826 7.18256
52.0323 7.15633
52.0818 7.14588
52.1316 7.10852
52.1812 7.09645
52.231 7.05684
52.2806 7.03779
52.3304 7.01138
52.38 6.96269
52.4298 6.97398
52.4794 6.88027
52.5293 6.90811
52.5789 6.85244
52.6288 6.83204
52.6785 6.76759
52.7284 6.73197
52.7781 6.74495
52.828 6.70871
52.8777 6.66169
52.9276 6.63393
52.9774 6.65987
53.0273 6.58757
53.0771 6.60629
53.1271 6.54755
53.1769 6.52506
53.2269 6.512
53.2767 6.44917
53.3267 6.39449
53.3765 6.41346
53.4266 6.38374
53.4766 6.35277
53.5265 6.29934
53.5765 6.26988
53.6264 6.24984
53.6765 6.27549
53.7264 6.20714
53.7765 6.20216
53.8265 6.16703
53.8766 6.12726
53.9266 6.10464
53.9767 6.08011
54.0267 6.05618
54.0769 6.03674
54.1269 6.00826
54.1771 5.92908
54.2271 5.97476
54.2773 5.91766
54.3274 5.88658
54.3776 5.84465
54.4277 5.80228
54.478 5.79343
54.528 5.71856
54.5783 5.70735
54.6285 5.61497
54.6788 5.60447
54.7289 5.56541
54.7792 5.56217
54.8296 5.54673
54.8798 5.44605
54.9301 5.40982
54.9803 5.38971
55.0307 5.33477
55.0809 5.35129
55.1314 5.30203
55.1816 5.238
55.232 5.15777
55.2823 5.15825
55.3328 5.10058
55.383 5.01255
55.4335 4.97513
55.4838 4.92494
55.5344 4.8656
55.5847 4.85583
55.6352 4.8398
55.6856 4.85302
55.7361 4.75776