File: XRD/Ni3Fe_FD0581.xy
TT I
1.27165 7.53814
1.31627 6.96296
1.36089 6.94152
1.40551 5.79031
1.45013 6.39257
1.49476 5.22412
1.53938 6.22378
1.584 5.11822
1.62863 5.50135
1.67325 5.23218
1.71787 5.68167
1.7625 5.10133
1.80712 4.97584
1.85174 5.03325
1.89636 4.34762
1.94099 5.00599
1.98562 4.48818
2.03025 4.98625
2.07487 4.57331
2.11949 4.77871
2.16411 4.45984
2.20874 10.3076
2.25338 13.5959
2.298 5.11763
2.34263 5.1143
2.38725 5.60809
2.43188 6.07297
2.4765 6.70801
2.52115 6.49508
2.56577 6.61158
2.6104 7.88546
2.65503 6.88584
2.69965 7.83263
2.7443 8.17656
2.78893 7.87941
2.83356 8.10379
2.87818 8.63888
2.92281 9.12727
2.96744 9.7531
3.01209 10.3591
3.05672 11.2576
3.10135 12.3248
3.14599 12.5546
3.19062 14.0843
3.23527 15.3109
3.2799 16.0811
3.32454 16.7015
3.36917 17.7734
3.4138 18.8562
3.45844 19.3448
3.50309 21.1287
3.54773 21.3509
3.59237 23.214
3.637 55.7958
3.68164 40.2055
3.7263 25.4911
3.77094 25.951
3.81558 26.7992
3.86022 27.5003
3.90486 28.8977
3.9495 29.8551
3.99416 30.9924
4.0388 32.3262
4.08344 33.6741
4.12809 34.2476
4.17273 36.3152
4.21738 40.0185
4.26204 140.862
4.30669 122.157
4.35133 45.4955
4.39598 44.0183
4.44063 49.5484
4.4853 56.2114
4.52995 53.2567
4.5746 54.2362
4.61925 53.5787
4.6639 56.183
4.70855 58.7822
4.75322 62.016
4.79788 66.4823
4.84253 68.5723
4.88719 74.0976
4.93184 76.7727
4.97652 82.336
5.02118 89.2031
5.06583 96.52
5.11049 109.506
5.15515 162.591
5.19981 472.469
5.24449 3216.41
5.28916 12257.8
5.33382 2787.13
5.37848 198.473
5.42315 131.399
5.46783 118.146
5.5125 109.798
5.55716 104.123
5.60183 99.4043
5.6465 97.3402
5.69117 95.9036
5.73586 93.3202
5.78053 95.6976
5.8252 96.2512
5.86988 97.313
5.91455 97.6712
5.95924 108.912
6.00392 269.796
6.0486 1107.76
6.09328 4409.95
6.13795 3304.62
6.18263 241.808
6.22733 93.119
6.27201 82.2215
6.3167 88.2956
6.36138 75.9807
6.40606 69.7232
6.45075 68.4421
6.49545 65.9015
6.54014 63.8335
6.58483 63.3102
6.62952 62.7417
6.67421 77.2378
6.71892 100.071
6.76361 63.4196
6.8083 58.9241
6.853 58.7779
6.89769 57.1794
6.94239 56.3876
6.98711 55.8182
7.03181 55.6958
7.07651 55.7477
7.12121 55.364
7.16591 55.8827
7.21063 55.5121
7.25533 62.3711
7.30004 112.95
7.34475 71.7827
7.38945 55.5089
7.43416 54.3855
7.47889 54.3462
7.5236 54.5754
7.56831 55.2472
7.61303 56.1407
7.65774 55.9501
7.70247 56.6601
7.74719 56.5157
7.79191 56.8143
7.83663 57.1191
7.88135 58.5035
7.92607 58.7524
7.97081 59.9869
8.01553 61.3773
8.06026 62.9763
8.10498 64.369
8.14971 70.6628
8.19446 70.9894
8.23919 69.5568
8.28392 72.3172
8.32865 74.9488
8.37339 79.3555
8.41812 85.3206
8.46288 107.577
8.50761 196.545
8.55235 437.803
8.59709 1239.13
8.64183 2208.25
8.68658 925.623
8.73134 158.607
8.77609 99.8986
8.82083 93.2886
8.86558 91.8356
8.91033 90.7406
8.9551 89.8303
8.99985 85.6572
9.04461 84.2749
9.08936 84.1237
9.13412 83.2199
9.17888 82.853
9.22365 82.9683
9.26841 82.7785
9.31318 84.5071
9.35794 85.2408
9.4027 85.228
9.44749 85.3086
9.49226 85.5842
9.53703 86.6691
9.5818 89.2405
9.62657 93.291
9.67134 95.6669
9.71614 93.5009
9.76091 95.2495
9.80569 98.923
9.85047 101.528
9.89525 115.235
9.94005 132.685
9.98484 209.051
10.0296 381.341
10.0744 865.064
10.1192 1713.17
10.164 1525.65
10.2088 367.879
10.2536 125.262
10.2984 111.338
10.3432 110.21
10.388 106.939
10.4328 128.05
10.4776 171.601
10.5224 299.759
10.5672 520.026
10.612 491.508
10.6568 191.115
10.7017 95.4111
10.7465 86.9581
10.7913 83.6606
10.8361 81.6937
10.8809 79.3052
10.9257 78.0361
10.9706 78.0388
11.0154 75.1936
11.0602 72.9364
11.105 72.1508
11.1499 73.3247
11.1947 76.3671
11.2395 71.488
11.2844 69.2446
11.3292 67.4936
11.374 66.4869
11.4189 66.0094
11.4637 65.0784
11.5086 65.1649
11.5534 66.0073
11.5983 64.8924
11.6431 63.7254
11.688 63.1558
11.7328 63.3191
11.7777 63.0691
11.8225 62.9693
11.8674 62.8942
11.9122 63.131
11.9571 63.3445
12.002 64.8667
12.0468 70.8922
12.0917 81.9125
12.1366 106.672
12.1814 155.941
12.2263 201.405
12.2712 161.099
12.3161 89.0639
12.3609 68.0254
12.4058 64.7352
12.4507 64.7172
12.4956 65.0389
12.5405 65.19
12.5853 65.7468
12.6302 69.4425
12.6751 72.6348
12.72 68.9773
12.7649 68.179
12.8098 68.978
12.8547 70.2569
12.8996 71.8256
12.9445 73.4717
12.9894 74.9134
13.0343 76.8207
13.0792 81.2454
13.1242 95.2265
13.1691 117.845
13.214 158.579
13.2589 252.611
13.3038 375.059
13.3487 421.568
13.3937 248.863
13.4386 121.12
13.4835 110.927
13.5285 126.576
13.5734 168.288
13.6183 256.037
13.6633 350.88
13.7082 330.603
13.7531 180.288
13.7981 96.8113
13.843 82.454
13.888 80.1087
13.9329 77.7174
13.9779 76.248
14.0228 75.0969
14.0678 73.7611
14.1127 73.0905
14.1577 72.5226
14.2027 72.071
14.2476 70.8007
14.2926 70.8558
14.3376 71.1633
14.3825 70.2174
14.4275 69.3211
14.4725 69.2511
14.5175 69.4979
14.5624 69.4414
14.6074 70.5785
14.6524 71.4272
14.6974 71.2817
14.7424 74.7907
14.7874 82.2951
14.8324 92.7022
14.8774 116.557
14.9224 158.957
14.9674 210.622
15.0124 215.781
15.0574 144.506
15.1024 88.9952
15.1474 72.4049
15.1924 70.5049
15.2374 70.1393
15.2824 69.3785
15.3274 68.1777
15.3725 67.1773
15.4175 66.8663
15.4625 66.4572
15.5076 66.5594
15.5526 66.7115
15.5976 66.5657
15.6426 69.214
15.6877 75.057
15.7327 82.6747
15.7778 99.1833
15.8228 131.241
15.8679 173.011
15.9129 193.24
15.958 150.045
16.003 93.3622
16.0481 66.9977
16.0931 63.749
16.1382 62.0448
16.1833 60.8455
16.2283 59.1887
16.2734 58.5181
16.3185 58.4665
16.3636 58.5206
16.4086 57.384
16.4537 56.3015
16.4988 55.79
16.5439 55.9012
16.589 55.5709
16.6341 55.2679
16.6792 54.8949
16.7243 55.252
16.7694 55.1039
16.8145 55.2104
16.8596 55.471
16.9047 56.2658
16.9498 56.4316
16.9949 55.9375
17.04 56.2758
17.0851 57.7963
17.1302 59.2101
17.1754 62.7061
17.2205 68.1038
17.2656 75.2952
17.3108 82.3451
17.3559 81.7424
17.401 70.8534
17.4462 62.1678
17.4913 59.6502
17.5365 59.6257
17.5815 59.6006
17.6268 60.0829
17.6718 60.6364
17.7171 61.3619
17.7622 61.9255
17.8074 63.1458
17.8525 66.3078
17.8977 69.9818
17.9428 75.5376
17.9881 85.5305
18.0331 102.938
18.0784 123.819
18.1237 141.52
18.1688 132.051
18.214 102.894
18.2591 87.1969
18.3044 92.0241
18.3495 101.276
18.3948 106.303
18.4399 95.2145
18.4852 76.5714
18.5303 66.0097
18.5756 62.5262
18.6207 61.7175
18.666 60.7083
18.7112 59.8826
18.7565 59.4453
18.8016 59.07
18.8469 58.5591
18.892 58.3153
18.9374 57.6096
18.9825 57.4779
19.0278 57.3643
19.073 57.5147
19.1183 57.8647
19.1635 58.7379
19.2088 60.1315
19.254 63.0353
19.2993 67.6169
19.3447 72.9708
19.3898 76.2035
19.4352 71.9469
19.4804 62.9608
19.5257 56.8997
19.5709 54.4932
19.6163 54.2504
19.6615 54.1407
19.7068 53.7664
19.752 53.8396
19.7974 54.3092
19.8426 55.0461
19.888 55.5727
19.9332 56.9731
19.9786 59.7272
20.0238 63.5279
20.0692 68.1028
20.1144 70.0895
20.1598 68.2466
20.205 63.7456
20.2504 62.6562
20.2957 64.1587
20.3411 65.734
20.3863 64.2208
20.4318 58.2296
20.477 53.5239
20.5224 51.531
20.5677 51.011
20.6131 50.5047
20.6586 50.0556
20.7038 49.8481
20.7493 49.5381
20.7945 49.2624
20.84 49.0753
20.8853 49.1586
20.9307 48.9957
20.976 49.2097
21.0215 49.0049
21.0668 49.2658
21.1122 49.9804
21.1575 50.597
21.203 51.2103
21.2483 51.7855
21.2938 51.7756
21.3391 50.2889
21.3846 49.2139
21.4299 48.7572
21.4754 48.8509
21.5207 49.011
21.5662 49.3975
21.6116 49.8666
21.6571 50.5251
21.7024 51.527
21.7479 53.3754
21.7933 56.3066
21.8388 59.6587
21.8843 63.2815
21.9297 65.0648
21.9752 63.3659
22.0206 59.6492
22.0661 56.6601
22.1115 56.2665
22.157 56.2939
22.2024 54.4121
22.248 51.4862
22.2933 50.053
22.3389 49.4598
22.3843 49.3278
22.4299 49.0613
22.4753 49.1121
22.5208 48.8755
22.5662 48.9321
22.6118 49.2902
22.6572 49.4535
22.7028 49.785
22.7483 50.1942
22.7939 51.0039
22.8393 52.6079
22.8849 54.6506
22.9303 56.5913
22.9759 58.3478
23.0214 57.4688
23.067 54.474
23.1126 51.2766
23.1581 49.4522
23.2037 49.0573
23.2492 49.415
23.2948 49.2903
23.3403 49.8266
23.3859 50.2662
23.4314 51.5055
23.477 53.3647
23.5225 55.3594
23.5682 57.3085
23.6137 58.2591
23.6593 55.5415
23.7048 51.592
23.7505 48.2932
23.796 46.6956
23.8417 46.2731
23.8872 45.6816
23.9329 45.574
23.9784 45.2025
24.0241 44.9226
24.0697 44.8532
24.1154 44.3105
24.1609 44.2888
24.2066 44.2051
24.2522 44.005
24.2979 43.8616
24.3434 43.6274
24.3892 43.4659
24.4349 43.3117
24.4805 43.0918
24.5262 43.3175
24.5718 43.0643
24.6175 43.2948
24.6631 43.1747
24.7089 42.6854
24.7545 42.7096
24.8002 42.4673
24.8458 42.4881
24.8916 42.2855
24.9372 42.5128
24.983 42.9418
25.0286 43.3592
25.0744 43.7527
25.12 44.1387
25.1658 44.7714
25.2114 45.0555
25.2572 45.0716
25.3029 45.2169
25.3487 45.1279
25.3943 44.9026
25.4402 43.6907
25.4858 42.5623
25.5316 41.7154
25.5773 41.1752
25.6231 41.1764
25.669 40.8275
25.7147 40.7819
25.7605 40.6824
25.8062 40.7637
25.8521 40.9875
25.8977 40.9152
25.9436 41.1169
25.9893 41.2679
26.0352 41.7691
26.0809 41.8919
26.1268 41.993
26.1725 41.5556
26.2184 41.0144
26.2641 40.5234
26.31 40.4149
26.3557 40.4153
26.4017 40.3962
26.4474 40.7748
26.4933 40.9978
26.5391 41.5549
26.585 41.9825
26.6308 42.334
26.6767 42.4858
26.7225 42.1445
26.7684 41.6614
26.8142 41.0919
26.8601 40.6855
26.9059 40.3697
26.9519 39.6152
26.9979 39.5136
27.0437 39.2531
27.0896 38.8982
27.1354 39.0681
27.1814 38.8307
27.2272 38.7851
27.2732 38.8219
27.3191 38.7089
27.3651 38.7174
27.4109 38.7515
27.4569 38.7842
27.5027 38.874
27.5488 39.0928
27.5946 38.7071
27.6407 38.4845
27.6865 38.2708
27.7326 38.1455
27.7784 38.1948
27.8245 38.0718
27.8703 38.3308
27.9164 38.5847
27.9623 38.7991
28.0084 38.9554
28.0543 39.3708
28.1003 39.2753
28.1462 39.0081
28.1923 38.6277
28.2384 38.2497
28.2843 37.7703
28.3304 37.3842
28.3764 36.9812
28.4225 36.5887
28.4684 36.4213
28.5145 36.2517
28.5605 36.2175
28.6066 35.8837
28.6526 35.8437
28.6987 35.7725
28.7447 35.7402
28.7908 35.5731
28.8368 35.6334
28.8829 35.6637
28.9289 35.5391
28.9751 35.3876
29.0211 35.2164
29.0673 34.8102
29.1133 34.8562
29.1595 34.6154
29.2055 34.4856
29.2517 34.577
29.2977 34.4401
29.3439 34.4523
29.3899 34.4973
29.4361 34.3058
29.4824 34.1489
29.5284 33.899
29.5746 33.5645
29.6207 33.3849
29.6669 33.363
29.713 33.2203
29.7593 33.0843
29.8053 33.1184
29.8516 32.9874
29.8977 33.0276
29.9439 32.8805
29.99 32.8556
30.0363 32.6699
30.0824 32.7918
30.1287 32.6636
30.1748 32.707
30.2211 32.6793
30.2673 32.5561
30.3136 32.4959
30.3597 32.3874
30.406 32.3579
30.4522 32.3366
30.4985 32.3517
30.5447 32.3874
30.591 32.2904
30.6372 32.4376
30.6835 32.3916
30.7297 32.356
30.7761 32.335
30.8224 32.1037
30.8686 32.1504
30.915 31.7984
30.9612 31.6543
31.0076 31.5728
31.0538 31.3993
31.1002 31.3492
31.1464 31.1868
31.1928 31.2661
31.2391 31.279
31.2855 31.1937
31.3317 31.0665
31.3781 31.1657
31.4244 31.1306
31.4708 31.003
31.5171 30.98
31.5636 30.897
31.6098 30.699
31.6563 30.5229
31.7026 30.3534
31.7491 30.3478
31.7953 30.3635
31.8418 30.337
31.8881 30.3703
31.9346 30.3212
31.9809 30.205
32.0275 30.0542
32.074 30.059
32.1203 29.813
32.1668 29.6734
32.2132 29.5828
32.2597 29.4691
32.306 29.3524
32.3526 29.1836
32.399 29.1085
32.4455 28.9404
32.4919 28.8914
32.5385 28.8421
32.5848 28.5529
32.6314 28.6169
32.6778 28.5927
32.7244 28.5469
32.7708 28.408
32.8174 28.337
32.8638 28.1904
32.9104 28.3163
32.9569 28.1923
33.0035 28.0012
33.0499 28.0614
33.0966 27.9685
33.143 28.0118
33.1897 27.8798
33.2361 27.7693
33.2828 27.7287
33.3293 27.5563
33.3759 27.5199
33.4226 27.4647
33.4691 27.2075
33.5158 27.1828
33.5623 27.0929
33.609 26.9235
33.6555 26.8158
33.7022 26.8248
33.7487 26.6551
33.7954 26.6446
33.842 26.5722
33.8887 26.5598
33.9353 26.4555
33.982 26.2599
34.0286 26.2101
34.0753 26.1744
34.1219 26.0699
34.1687 26.0026
34.2152 26.0023
34.262 25.8802
34.3086 25.7579
34.3554 25.699
34.402 25.5715
34.4488 25.3804
34.4954 25.4138
34.5422 25.3211
34.5889 25.196
34.6357 25.1391
34.6825 25.1294
34.7292 25.0686
34.776 24.8994
34.8227 24.8876
34.8695 24.8187
34.9162 24.7724
34.9631 24.6228
35.0098 24.6429
35.0566 24.4616
35.1033 24.4607
35.1502 24.4607
35.1969 24.4366
35.2438 24.2753
35.2906 24.2258
35.3375 24.2393
35.3842 24.1847
35.4311 24.137
35.4779 24.1437
35.5248 24.0725
35.5716 23.9232
35.6185 23.8138
35.6653 23.7888
35.7123 23.7303
35.759 23.5678
35.806 23.5682
35.8528 23.4118
35.8998 23.3587
35.9468 23.279
35.9936 23.2031
36.0406 23.1672
36.0874 23.2182
36.1345 23.0444
36.1813 22.9712
36.2283 22.9044
36.2752 22.87
36.3222 22.7497
36.3691 22.7412
36.4161 22.5912
36.463 22.5812
36.5101 22.5187
36.557 22.5281
36.6041 22.3632
36.651 22.2843
36.6981 22.2559
36.745 22.3297
36.7921 22.1161
36.839 21.9547
36.8861 21.908
36.9331 21.8844
36.9802 21.8333
37.0272 21.7037
37.0743 21.6168
37.1213 21.6982
37.1684 21.5518
37.2154 21.4898
37.2626 21.383
37.3098 21.3766
37.3568 21.2187
37.404 21.3432
37.451 21.1456
37.4982 21.0869
37.5452 20.8997
37.5924 20.9222
37.6395 20.9676
37.6867 20.869
37.7337 20.7367
37.781 20.6832
37.8281 20.614
37.8753 20.546
37.9224 20.4465
37.9697 20.3322
38.0168 20.3057
38.064 20.2541
38.1111 20.2263
38.1584 20.0633
38.2056 20.0955
38.2529 20.0409
38.3 20.0411
38.3473 19.9939
38.3945 19.8004
38.4418 19.7964
38.489 19.7458
38.5363 19.6505
38.5837 19.586
38.6309 19.5668
38.6782 19.4582
38.7254 19.384
38.7728 19.3127
38.82 19.2967
38.8674 19.2014
38.9146 19.0907
38.9621 19.0144
39.0093 18.9944
39.0567 19.0541
39.104 18.9325
39.1514 18.8537
39.1987 18.7574
39.2461 18.8045
39.2934 18.6588
39.3409 18.5655
39.3882 18.5658
39.4356 18.5095
39.483 18.4397
39.5304 18.3465
39.5778 18.3129
39.6253 18.2303
39.6726 18.1767
39.7201 18.1401
39.7675 18.1459
39.815 18.0495
39.8624 17.9956
39.9099 17.9809
39.9575 17.8439
40.0049 17.7954
40.0525 17.7328
40.0999 17.7155
40.1474 17.6399
40.1949 17.5667
40.2425 17.4604
40.2899 17.4784
40.3375 17.3575
40.385 17.2926
40.4326 17.2675
40.48 17.2107
40.5277 17.1992
40.5752 17.0852
40.6228 17.1059
40.6703 17.022
40.718 16.9905
40.7655 16.9093
40.8132 16.8419
40.8607 16.8552
40.9084 16.7904
40.9559 16.7014
41.0036 16.6454
41.0512 16.6347
41.0989 16.5872
41.1465 16.4787
41.1942 16.4296
41.242 16.3492
41.2896 16.2953
41.3373 16.2176
41.3849 16.2212
41.4327 16.171
41.4803 16.0809
41.5281 15.9952
41.5758 15.9725
41.6236 15.9536
41.6712 15.8696
41.7191 15.826
41.7667 15.7339
41.8146 15.7708
41.8622 15.656
41.9101 15.6209
41.9578 15.4719
42.0057 15.552
42.0534 15.4679
42.1013 15.3908
42.149 15.3693
42.1969 15.3311
42.2446 15.2778
42.2925 15.1715
42.3403 15.141
42.3882 15.1132
42.436 15.0368
42.4839 14.9447
42.5319 14.9652
42.5797 14.9116
42.6277 14.8403
42.6755 14.7988
42.7235 14.7208
42.7713 14.6997
42.8193 14.6743
42.8671 14.6537
42.9152 14.5716
42.963 14.5044
43.0111 14.4505
43.0589 14.3989
43.107 14.3687
43.1549 14.3436
43.2029 14.2644
43.2508 14.2016
43.2989 14.1637
43.3468 14.1399
43.3949 14.08
43.4429 14.0316
43.491 13.9761
43.5389 13.9009
43.5871 13.8357
43.635 13.8244
43.6832 13.7909
43.7312 13.7162
43.7793 13.675
43.8273 13.586
43.8755 13.5809
43.9237 13.5019
43.9717 13.5044
44.0199 13.4993
44.068 13.3832
44.1162 13.3712
44.1642 13.2909
44.2125 13.2569
44.2606 13.1849
44.3088 13.1747
44.3569 13.1216
44.4052 13.0618
44.4533 13.0018
44.5016 12.9702
44.5497 12.9538
44.598 12.8883
44.6461 12.844
44.6945 12.817
44.7426 12.761
44.791 12.7077
44.8391 12.683
44.8875 12.6161
44.9357 12.559
44.984 12.5434
45.0322 12.5092
45.0806 12.4685
45.1288 12.4283
45.1773 12.3542
45.2257 12.312
45.2739 12.2746
45.3224 12.2406
45.3706 12.1919
45.4191 12.1252
45.4673 12.1205
45.5158 12.0425
45.5641 12.0082
45.6126 11.9743
45.6609 11.939
45.7094 11.8874
45.7577 11.8207
45.8063 11.7923
45.8546 11.7842
45.9031 11.69
45.9515 11.6884
46.0001 11.6201
46.0484 11.6115
46.097 11.5791
46.1454 11.502
46.194 11.4823
46.2424 11.3795
46.291 11.3895
46.3395 11.334
46.3881 11.2727
46.4365 11.2927
46.4852 11.2017
46.5337 11.1709
46.5823 11.1281
46.631 11.1093
46.6795 11.0719
46.7282 11.0209
46.7767 10.9874
46.8254 10.9113
46.8739 10.8609
46.9226 10.8119
46.9712 10.858
47.0199 10.7845
47.0685 10.7105
47.1173 10.6563
47.1658 10.6445
47.2146 10.6285
47.2632 10.5854
47.312 10.5195
47.3606 10.5139
47.4095 10.4423
47.4581 10.4205
47.5069 10.3934
47.5556 10.3292
47.6044 10.2848
47.6531 10.2647
47.702 10.2061
47.7507 10.1586
47.7996 10.1288
47.8483 10.1353
47.8972 10.0691
47.9461 10.0338
47.9948 10.0053
48.0438 9.97397
48.0925 9.93964
48.1415 9.89212
48.1902 9.83515
48.2392 9.84932
48.288 9.79046
48.337 9.74365
48.3858 9.72572
48.4348 9.70152
48.4837 9.69483
48.5327 9.60255
48.5815 9.61584
48.6306 9.60808
48.6795 9.51255
48.7285 9.42091
48.7774 9.46407
48.8265 9.43381
48.8754 9.38263
48.9245 9.33237
48.9734 9.31672
49.0226 9.24833
49.0715 9.24276
49.1206 9.19623
49.1696 9.16914
49.2188 9.10385
49.2679 9.08754
49.3169 9.03144
49.3661 9.0028
49.4151 9.00948
49.4643 8.95632
49.5134 8.92648
49.5626 8.87333
49.6117 8.84122
49.6609 8.78078
49.71 8.74036
49.7592 8.73799
49.8083 8.68766
49.8576 8.66813
49.9067 8.64768
49.956 8.59858
50.0052 8.55948
50.0545 8.53559
50.1036 8.49312
50.153 8.50022
50.2022 8.46619
50.2515 8.39036
50.3007 8.37159
50.3501 8.33948
50.3993 8.2815
50.4487 8.30839
50.498 8.22668
50.5474 8.22526
50.5966 8.16507
50.6461 8.14886
50.6955 8.11248
50.7448 8.10189
50.7943 8.06025
50.8436 8.0267
50.8931 7.99358
50.9424 7.97556
50.9919 7.91162
51.0413 7.91404
51.0908 7.8612
51.1402 7.88005
51.1897 7.80575
51.2391 7.76609
51.2887 7.70102
51.3381 7.72702
51.3877 7.6899
51.4371 7.66003
51.4867 7.63205
51.5362 7.59942
51.5858 7.547
51.6353 7.55203
51.6849 7.50917
51.7344 7.45138
51.7841 7.45316
51.8336 7.41109
51.8833 7.36248
51.9328 7.34233
51.9826 7.30246
52.0323 7.27866
52.0818 7.26494
52.1316 7.23127
52.1812 7.20455
52.231 7.15713
52.2806 7.14142
52.3304 7.0693
52.38 7.08795
52.4298 7.0537
52.4794 7.01918
52.5293 6.95684
52.5789 6.95546
52.6288 6.94451
52.6785 6.89373
52.7284 6.89086
52.7781 6.85841
52.828 6.8099
52.8777 6.77726
52.9276 6.7254
52.9774 6.74683
53.0273 6.69619
53.0771 6.67537
53.1271 6.64273
53.1769 6.62008
53.2269 6.591
53.2767 6.51478
53.3267 6.52974
53.3765 6.5115
53.4266 6.49668
53.4766 6.45712
53.5265 6.43178
53.5765 6.35993
53.6264 6.36765
53.6765 6.3474
53.7264 6.31131
53.7765 6.31344
53.8265 6.25215
53.8766 6.24186
53.9266 6.23374
53.9767 6.17499
54.0267 6.12468
54.0769 6.10603
54.1269 6.08341
54.1771 6.08859
54.2271 6.01967
54.2773 6.01426
54.3274 5.98857
54.3776 5.9257
54.4277 5.91135
54.478 5.87685
54.528 5.86681
54.5783 5.76592
54.6285 5.74139
54.6788 5.70711
54.7289 5.68033
54.7792 5.63921
54.8296 5.61491
54.8798 5.54946
54.9301 5.52854
54.9803 5.46935
55.0307 5.44584
55.0809 5.41853
55.1314 5.39937
55.1816 5.29797
55.232 5.25119
55.2823 5.18352
55.3328 5.19471
55.383 5.09655
55.4335 5.05565
55.4838 5.03295
55.5344 5.00414
55.5847 4.9217
55.6352 4.93363
55.6856 4.83329
55.7361 4.84343