File: XRD/Ni3Fe_FD0560.xy
TT I
1.27165 7.57838
1.31627 6.75683
1.36089 7.17831
1.40551 5.91144
1.45013 6.11298
1.49476 5.6871
1.53938 5.6834
1.584 5.04723
1.62863 4.93053
1.67325 4.93582
1.71787 4.68426
1.7625 5.01636
1.80712 5.04838
1.85174 4.61543
1.89636 5.12951
1.94099 5.11101
1.98562 4.68921
2.03025 4.58595
2.07487 4.77337
2.11949 5.0511
2.16411 5.10486
2.20874 11.2741
2.25338 16.2134
2.298 5.89979
2.34263 5.00448
2.38725 5.44923
2.43188 5.93192
2.4765 6.73649
2.52115 6.71178
2.56577 6.85279
2.6104 7.83724
2.65503 7.29538
2.69965 8.24291
2.7443 7.70409
2.78893 8.33225
2.83356 8.10125
2.87818 8.29733
2.92281 9.134
2.96744 9.5184
3.01209 10.1548
3.05672 10.7553
3.10135 11.912
3.14599 13.2003
3.19062 13.4935
3.23527 14.8739
3.2799 15.9724
3.32454 16.9176
3.36917 18.0037
3.4138 18.8421
3.45844 19.4957
3.50309 21.344
3.54773 21.9148
3.59237 23.1374
3.637 71.0784
3.68164 47.1359
3.7263 25.8549
3.77094 25.7252
3.81558 26.6335
3.86022 27.552
3.90486 29.0227
3.9495 29.9874
3.99416 31.1408
4.0388 32.4246
4.08344 33.5623
4.12809 34.9231
4.17273 36.9258
4.21738 41.4185
4.26204 182.734
4.30669 153.759
4.35133 46.6751
4.39598 44.5729
4.44063 51.8072
4.4853 59.4923
4.52995 51.4978
4.5746 51.9268
4.61925 53.8323
4.6639 56.3234
4.70855 58.516
4.75322 61.7054
4.79788 65.074
4.84253 67.9919
4.88719 72.396
4.93184 76.6509
4.97652 81.9341
5.02118 88.5812
5.06583 96.7878
5.11049 108.906
5.15515 167.972
5.19981 431.206
5.24449 3187.54
5.28916 12265.9
5.33382 2919.16
5.37848 197.784
5.42315 130.833
5.46783 115.489
5.5125 108.033
5.55716 103.404
5.60183 99.3039
5.6465 97.4576
5.69117 95.4709
5.73586 93.7937
5.78053 93.5391
5.8252 93.1532
5.86988 94.7079
5.91455 97.0856
5.95924 107.063
6.00392 250.987
6.0486 1095.89
6.09328 4407.58
6.13795 3340.47
6.18263 246.785
6.22733 94.1508
6.27201 82.9985
6.3167 93.9646
6.36138 77.6749
6.40606 69.248
6.45075 67.5077
6.49545 66.0035
6.54014 64.3057
6.58483 63.2172
6.62952 62.9122
6.67421 84.4946
6.71892 116.041
6.76361 65.3652
6.8083 58.134
6.853 57.7022
6.89769 57.3895
6.94239 56.8988
6.98711 55.7236
7.03181 55.9334
7.07651 55.1645
7.12121 55.2397
7.16591 55.7004
7.21063 55.6238
7.25533 66.3542
7.30004 139.567
7.34475 79.3714
7.38945 56.3153
7.43416 54.5217
7.47889 54.6932
7.5236 54.7719
7.56831 55.455
7.61303 56.6388
7.65774 56.8949
7.70247 56.4085
7.74719 56.8457
7.79191 57.0774
7.83663 57.2772
7.88135 58.1609
7.92607 58.9975
7.97081 60.2386
8.01553 61.4928
8.06026 62.8812
8.10498 64.0107
8.14971 71.5643
8.19446 71.1415
8.23919 70.1147
8.28392 72.4743
8.32865 75.0599
8.37339 79.3
8.41812 86.2858
8.46288 110.45
8.50761 186.395
8.55235 433.785
8.59709 1230.48
8.64183 2177.48
8.68658 938.432
8.73134 161.321
8.77609 100.095
8.82083 93.5511
8.86558 90.4471
8.91033 90.1136
8.9551 90.7238
8.99985 85.7093
9.04461 84.3006
9.08936 83.3106
9.13412 82.6533
9.17888 82.9451
9.22365 83.2003
9.26841 82.8505
9.31318 83.0208
9.35794 83.6587
9.4027 83.9596
9.44749 84.9417
9.49226 85.387
9.53703 86.4489
9.5818 88.4921
9.62657 92.1004
9.67134 97.0015
9.71614 94.1576
9.76091 95.0489
9.80569 98.039
9.85047 101.193
9.89525 119.646
9.94005 134.027
9.98484 199.881
10.0296 378.086
10.0744 856.616
10.1192 1711.43
10.164 1512.64
10.2088 378.033
10.2536 125.512
10.2984 112.472
10.3432 112.476
10.388 106.091
10.4328 125.545
10.4776 170.233
10.5224 297.011
10.5672 520.575
10.612 504.865
10.6568 192.776
10.7017 95.6204
10.7465 87.088
10.7913 83.7372
10.8361 81.3378
10.8809 79.5123
10.9257 78.6471
10.9706 78.3573
11.0154 74.9694
11.0602 73.3664
11.105 72.3497
11.1499 75.2801
11.1947 79.2877
11.2395 72.8566
11.2844 69.7101
11.3292 67.5177
11.374 66.5927
11.4189 66.1173
11.4637 65.5889
11.5086 65.6151
11.5534 67.2972
11.5983 65.4506
11.6431 63.9437
11.688 63.4956
11.7328 63.2325
11.7777 63.3216
11.8225 62.6799
11.8674 63.0203
11.9122 63.1219
11.9571 63.6238
12.002 64.5421
12.0468 69.9455
12.0917 81.6389
12.1366 106.32
12.1814 155.814
12.2263 201.426
12.2712 159.049
12.3161 91.3634
12.3609 68.8742
12.4058 64.8022
12.4507 64.5483
12.4956 64.9013
12.5405 64.8559
12.5853 65.897
12.6302 71.2296
12.6751 75.1127
12.72 69.1901
12.7649 68.0897
12.8098 68.8863
12.8547 70.3015
12.8996 71.5292
12.9445 72.8948
12.9894 74.8073
13.0343 76.8729
13.0792 80.4875
13.1242 92.6435
13.1691 117.641
13.214 157.452
13.2589 249.078
13.3038 372.424
13.3487 421.963
13.3937 255.043
13.4386 122.093
13.4835 109.538
13.5285 125.611
13.5734 167.031
13.6183 256.289
13.6633 353.207
13.7082 336.098
13.7531 180.839
13.7981 96.7936
13.843 82.2795
13.888 80.0952
13.9329 77.6572
13.9779 76.3256
14.0228 75.078
14.0678 73.2542
14.1127 73.1363
14.1577 72.8154
14.2027 72.1433
14.2476 70.9755
14.2926 71.0286
14.3376 71.6357
14.3825 70.6295
14.4275 69.4993
14.4725 69.1806
14.5175 69.4396
14.5624 69.5763
14.6074 71.1802
14.6524 71.8414
14.6974 71.2567
14.7424 73.8728
14.7874 81.6505
14.8324 92.5443
14.8774 115.328
14.9224 157.849
14.9674 209.437
15.0124 215.84
15.0574 142.858
15.1024 88.4687
15.1474 72.6119
15.1924 70.6583
15.2374 70.8733
15.2824 70.0328
15.3274 68.5536
15.3725 67.3277
15.4175 67.0282
15.4625 66.6165
15.5076 66.6512
15.5526 66.571
15.5976 66.4963
15.6426 68.4261
15.6877 74.5803
15.7327 82.4392
15.7778 98.8383
15.8228 131.1
15.8679 172.329
15.9129 194.565
15.958 151.893
16.003 94.0992
16.0481 67.3649
16.0931 64.4093
16.1382 62.5365
16.1833 60.7607
16.2283 59.3164
16.2734 58.7589
16.3185 58.8682
16.3636 58.9839
16.4086 57.711
16.4537 56.6558
16.4988 55.9305
16.5439 55.8576
16.589 55.5738
16.6341 55.3621
16.6792 54.9761
16.7243 55.2215
16.7694 55.2573
16.8145 55.3125
16.8596 55.4693
16.9047 56.6009
16.9498 56.859
16.9949 56.0743
17.04 56.5245
17.0851 57.8398
17.1302 59.744
17.1754 62.7432
17.2205 67.8175
17.2656 75.2746
17.3108 82.8976
17.3559 81.8419
17.401 71.2065
17.4462 62.011
17.4913 59.8726
17.5365 59.4587
17.5815 59.7385
17.6268 60.1309
17.6718 60.9051
17.7171 61.4363
17.7622 61.8152
17.8074 62.7053
17.8525 65.6258
17.8977 70.0734
17.9428 75.6482
17.9881 85.2347
18.0331 102.465
18.0784 124.016
18.1237 141.489
18.1688 131.915
18.214 102.561
18.2591 87.3803
18.3044 91.87
18.3495 101.375
18.3948 106.131
18.4399 95.454
18.4852 76.873
18.5303 66.0197
18.5756 62.5272
18.6207 61.7089
18.666 60.8924
18.7112 60.1099
18.7565 59.2295
18.8016 59.0493
18.8469 58.3927
18.892 58.1503
18.9374 57.6056
18.9825 57.5313
19.0278 57.3447
19.073 57.5019
19.1183 57.9033
19.1635 58.7713
19.2088 60.324
19.254 63.0013
19.2993 67.5425
19.3447 73.0513
19.3898 76.3296
19.4352 72.0505
19.4804 62.8396
19.5257 56.9087
19.5709 54.516
19.6163 54.2194
19.6615 54.0474
19.7068 53.8788
19.752 53.8566
19.7974 54.0747
19.8426 54.9109
19.888 55.5217
19.9332 56.979
19.9786 59.5744
20.0238 63.3166
20.0692 67.7735
20.1144 70.437
20.1598 68.3117
20.205 63.7994
20.2504 62.5607
20.2957 64.3715
20.3411 65.8405
20.3863 64.3679
20.4318 58.2716
20.477 53.5508
20.5224 51.6135
20.5677 51.1782
20.6131 50.5713
20.6586 50.0902
20.7038 49.9622
20.7493 49.4664
20.7945 49.2461
20.84 49.2041
20.8853 49.1561
20.9307 49.0001
20.976 49.1384
21.0215 49.1816
21.0668 49.4679
21.1122 49.9829
21.1575 50.4421
21.203 51.1009
21.2483 51.5876
21.2938 51.5782
21.3391 50.2929
21.3846 49.3899
21.4299 48.7629
21.4754 48.902
21.5207 49.0335
21.5662 49.22
21.6116 49.8672
21.6571 50.5328
21.7024 51.4723
21.7479 53.263
21.7933 56.1256
21.8388 59.447
21.8843 63.2904
21.9297 65.0586
21.9752 63.4765
22.0206 59.6525
22.0661 56.8084
22.1115 56.3687
22.157 56.113
22.2024 54.4903
22.248 51.6105
22.2933 49.9819
22.3389 49.472
22.3843 49.2967
22.4299 49.0136
22.4753 49.1216
22.5208 48.8399
22.5662 48.6787
22.6118 49.1153
22.6572 49.5012
22.7028 49.7264
22.7483 50.2608
22.7939 50.9395
22.8393 52.5762
22.8849 54.6181
22.9303 56.5935
22.9759 58.2355
23.0214 57.3604
23.067 54.3692
23.1126 51.0965
23.1581 49.4966
23.2037 49.101
23.2492 49.3916
23.2948 49.3662
23.3403 49.476
23.3859 50.3186
23.4314 51.5585
23.477 53.3825
23.5225 55.2837
23.5682 57.1706
23.6137 58.1218
23.6593 55.639
23.7048 51.5638
23.7505 48.5013
23.796 46.8776
23.8417 46.3156
23.8872 45.8476
23.9329 45.4656
23.9784 45.1504
24.0241 45.0942
24.0697 44.7648
24.1154 44.4397
24.1609 44.2386
24.2066 44.0753
24.2522 43.9452
24.2979 43.7008
24.3434 43.528
24.3892 43.5062
24.4349 43.2599
24.4805 43.214
24.5262 43.3469
24.5718 43.1696
24.6175 43.0976
24.6631 43.0441
24.7089 42.8391
24.7545 42.7461
24.8002 42.5565
24.8458 42.5402
24.8916 42.3681
24.9372 42.6496
24.983 42.8766
25.0286 43.2216
25.0744 43.6522
25.12 44.1487
25.1658 44.7744
25.2114 45.0411
25.2572 45.1194
25.3029 45.0668
25.3487 45.21
25.3943 44.9039
25.4402 43.6778
25.4858 42.5554
25.5316 41.6562
25.5773 41.1405
25.6231 41.2784
25.669 40.8519
25.7147 40.8487
25.7605 40.8561
25.8062 40.7936
25.8521 40.8885
25.8977 40.9197
25.9436 41.2068
25.9893 41.4529
26.0352 41.8437
26.0809 41.865
26.1268 41.9421
26.1725 41.6498
26.2184 41.0371
26.2641 40.5795
26.31 40.3871
26.3557 40.4348
26.4017 40.3854
26.4474 40.8508
26.4933 41.0692
26.5391 41.7036
26.585 42.0291
26.6308 42.4193
26.6767 42.3971
26.7225 42.3199
26.7684 41.7148
26.8142 41.1403
26.8601 40.5681
26.9059 40.1109
26.9519 39.8027
26.9979 39.4848
27.0437 39.1652
27.0896 38.9942
27.1354 39.0147
27.1814 38.9752
27.2272 38.7885
27.2732 38.7888
27.3191 38.6822
27.3651 38.7733
27.4109 38.6529
27.4569 38.7859
27.5027 38.7684
27.5488 38.7619
27.5946 38.655
27.6407 38.3511
27.6865 38.2668
27.7326 38.1397
27.7784 38.0862
27.8245 38.0972
27.8703 38.2478
27.9164 38.7049
27.9623 38.7125
28.0084 39.0118
28.0543 39.2032
28.1003 39.2243
28.1462 38.9951
28.1923 38.6593
28.2384 37.9988
28.2843 37.7705
28.3304 37.3588
28.3764 36.8782
28.4225 36.6305
28.4684 36.4725
28.5145 36.2076
28.5605 36.0136
28.6066 35.8606
28.6526 35.7388
28.6987 35.8679
28.7447 35.7728
28.7908 35.7265
28.8368 35.7243
28.8829 35.7305
28.9289 35.6139
28.9751 35.3455
29.0211 35.1097
29.0673 34.8773
29.1133 34.9022
29.1595 34.5794
29.2055 34.5683
29.2517 34.5573
29.2977 34.5346
29.3439 34.4455
29.3899 34.3784
29.4361 34.3597
29.4824 34.1353
29.5284 33.8761
29.5746 33.5213
29.6207 33.2987
29.6669 33.2339
29.713 33.1789
29.7593 32.9857
29.8053 33.0757
29.8516 33.1001
29.8977 32.9707
29.9439 32.7971
29.99 32.9011
30.0363 32.7319
30.0824 32.7194
30.1287 32.6142
30.1748 32.7748
30.2211 32.6353
30.2673 32.6054
30.3136 32.6002
30.3597 32.456
30.406 32.3274
30.4522 32.1832
30.4985 32.2993
30.5447 32.4449
30.591 32.4166
30.6372 32.3975
30.6835 32.475
30.7297 32.5046
30.7761 32.3992
30.8224 32.2377
30.8686 32.1125
30.915 31.7766
30.9612 31.6924
31.0076 31.5136
31.0538 31.3612
31.1002 31.3685
31.1464 31.1135
31.1928 31.1679
31.2391 31.2361
31.2855 31.1411
31.3317 30.9949
31.3781 31.1264
31.4244 31.2133
31.4708 31.1644
31.5171 30.9648
31.5636 30.9585
31.6098 30.7663
31.6563 30.4927
31.7026 30.4948
31.7491 30.2984
31.7953 30.3863
31.8418 30.3469
31.8881 30.3196
31.9346 30.2593
31.9809 30.2758
32.0275 30.0995
32.074 30.0412
32.1203 29.7748
32.1668 29.6084
32.2132 29.5629
32.2597 29.3886
32.306 29.3078
32.3526 29.1774
32.399 29.0881
32.4455 29.0299
32.4919 28.9467
32.5385 28.7827
32.5848 28.6916
32.6314 28.6753
32.6778 28.5606
32.7244 28.5146
32.7708 28.3316
32.8174 28.386
32.8638 28.0878
32.9104 28.2941
32.9569 28.2066
33.0035 28.0949
33.0499 28.0754
33.0966 27.9892
33.143 27.959
33.1897 27.8602
33.2361 27.8542
33.2828 27.7723
33.3293 27.5549
33.3759 27.5169
33.4226 27.4931
33.4691 27.2262
33.5158 27.2769
33.5623 27.0957
33.609 26.9529
33.6555 26.8037
33.7022 26.8234
33.7487 26.7151
33.7954 26.5958
33.842 26.5751
33.8887 26.4936
33.9353 26.4613
33.982 26.3139
34.0286 26.2802
34.0753 26.1423
34.1219 26.1388
34.1687 25.9194
34.2152 25.958
34.262 25.7996
34.3086 25.6612
34.3554 25.6874
34.402 25.5251
34.4488 25.4538
34.4954 25.4571
34.5422 25.2761
34.5889 25.2046
34.6357 25.1078
34.6825 25.1104
34.7292 25.0574
34.776 24.8752
34.8227 24.8732
34.8695 24.8319
34.9162 24.704
34.9631 24.6533
35.0098 24.6152
35.0566 24.5419
35.1033 24.5024
35.1502 24.3663
35.1969 24.3514
35.2438 24.3519
35.2906 24.2714
35.3375 24.2387
35.3842 24.0891
35.4311 24.0777
35.4779 24.1082
35.5248 24.0146
35.5716 23.9433
35.6185 23.8118
35.6653 23.7265
35.7123 23.6244
35.759 23.628
35.806 23.4923
35.8528 23.3597
35.8998 23.374
35.9468 23.2282
35.9936 23.2053
36.0406 23.172
36.0874 23.2128
36.1345 23.0505
36.1813 22.9993
36.2283 22.871
36.2752 22.7907
36.3222 22.8259
36.3691 22.7039
36.4161 22.5885
36.463 22.6008
36.5101 22.608
36.557 22.4688
36.6041 22.3043
36.651 22.29
36.6981 22.2112
36.745 22.1775
36.7921 22.0842
36.839 22.0618
36.8861 21.9373
36.9331 21.9237
36.9802 21.8381
37.0272 21.7468
37.0743 21.6467
37.1213 21.6506
37.1684 21.5925
37.2154 21.4243
37.2626 21.3213
37.3098 21.3627
37.3568 21.2617
37.404 21.2637
37.451 21.1289
37.4982 21.0404
37.5452 20.9644
37.5924 20.916
37.6395 20.9487
37.6867 20.8043
37.7337 20.7778
37.781 20.6304
37.8281 20.5497
37.8753 20.5561
37.9224 20.4352
37.9697 20.4336
38.0168 20.3727
38.064 20.2121
38.1111 20.2566
38.1584 20.1065
38.2056 20.1398
38.2529 20.0523
38.3 19.9503
38.3473 19.9572
38.3945 19.787
38.4418 19.7888
38.489 19.7719
38.5363 19.5896
38.5837 19.5618
38.6309 19.5132
38.6782 19.4178
38.7254 19.3739
38.7728 19.3045
38.82 19.2324
38.8674 19.2673
38.9146 19.1681
38.9621 19.069
39.0093 19.0401
39.0567 18.9552
39.104 18.8476
39.1514 18.8293
39.1987 18.8279
39.2461 18.7844
39.2934 18.7213
39.3409 18.5648
39.3882 18.5865
39.4356 18.5076
39.483 18.4564
39.5304 18.3539
39.5778 18.3856
39.6253 18.2564
39.6726 18.2643
39.7201 18.1813
39.7675 18.1049
39.815 18.0544
39.8624 17.996
39.9099 17.9273
39.9575 17.8457
40.0049 17.8267
40.0525 17.7281
40.0999 17.6735
40.1474 17.6677
40.1949 17.5357
40.2425 17.5328
40.2899 17.4641
40.3375 17.3907
40.385 17.3495
40.4326 17.3396
40.48 17.233
40.5277 17.2314
40.5752 17.131
40.6228 17.0865
40.6703 16.9649
40.718 17.0059
40.7655 16.9398
40.8132 16.8516
40.8607 16.8589
40.9084 16.7668
40.9559 16.7096
41.0036 16.7426
41.0512 16.6188
41.0989 16.5977
41.1465 16.5445
41.1942 16.4133
41.242 16.3504
41.2896 16.3395
41.3373 16.2926
41.3849 16.196
41.4327 16.174
41.4803 16.0101
41.5281 16.0449
41.5758 16.0029
41.6236 15.9643
41.6712 15.9204
41.7191 15.7898
41.7667 15.7767
41.8146 15.7372
41.8622 15.6073
41.9101 15.6193
41.9578 15.5701
42.0057 15.526
42.0534 15.4675
42.1013 15.454
42.149 15.3115
42.1969 15.306
42.2446 15.2377
42.2925 15.1907
42.3403 15.1587
42.3882 15.1493
42.436 15.0676
42.4839 14.9651
42.5319 14.9732
42.5797 14.9169
42.6277 14.8409
42.6755 14.8255
42.7235 14.7651
42.7713 14.7324
42.8193 14.6559
42.8671 14.6287
42.9152 14.5654
42.963 14.5138
43.0111 14.4419
43.0589 14.3774
43.107 14.3617
43.1549 14.3421
43.2029 14.2925
43.2508 14.2391
43.2989 14.1576
43.3468 14.1084
43.3949 14.0715
43.4429 14.0424
43.491 13.9875
43.5389 13.9169
43.5871 13.889
43.635 13.8359
43.6832 13.786
43.7312 13.7009
43.7793 13.7006
43.8273 13.6159
43.8755 13.6066
43.9237 13.4816
43.9717 13.5149
44.0199 13.4568
44.068 13.382
44.1162 13.371
44.1642 13.3261
44.2125 13.3184
44.2606 13.211
44.3088 13.1368
44.3569 13.1489
44.4052 13.1152
44.4533 13.0336
44.5016 12.9712
44.5497 12.9376
44.598 12.9476
44.6461 12.8464
44.6945 12.7947
44.7426 12.7473
44.791 12.6949
44.8391 12.7186
44.8875 12.6379
44.9357 12.6
44.984 12.5618
45.0322 12.4677
45.0806 12.452
45.1288 12.4506
45.1773 12.3759
45.2257 12.3591
45.2739 12.2612
45.3224 12.2409
45.3706 12.2081
45.4191 12.125
45.4673 12.0969
45.5158 12.0951
45.5641 12.0301
45.6126 11.9582
45.6609 11.9104
45.7094 11.8429
45.7577 11.8442
45.8063 11.8079
45.8546 11.7549
45.9031 11.7624
45.9515 11.6688
46.0001 11.6528
46.0484 11.6127
46.097 11.5749
46.1454 11.5093
46.194 11.4666
46.2424 11.4274
46.291 11.3695
46.3395 11.3674
46.3881 11.2824
46.4365 11.3055
46.4852 11.2255
46.5337 11.1807
46.5823 11.0993
46.631 11.1094
46.6795 11.0869
46.7282 11.0552
46.7767 11.0343
46.8254 10.9518
46.8739 10.9203
46.9226 10.8412
46.9712 10.858
47.0199 10.8007
47.0685 10.7952
47.1173 10.6813
47.1658 10.6764
47.2146 10.6087
47.2632 10.5699
47.312 10.5591
47.3606 10.4732
47.4095 10.4492
47.4581 10.4424
47.5069 10.3662
47.5556 10.2969
47.6044 10.3142
47.6531 10.26
47.702 10.2365
47.7507 10.1761
47.7996 10.1388
47.8483 10.1331
47.8972 10.0867
47.9461 10.1003
47.9948 10.038
48.0438 10.0074
48.0925 9.95714
48.1415 9.89131
48.1902 9.8524
48.2392 9.86227
48.288 9.80582
48.337 9.76216
48.3858 9.68881
48.4348 9.68785
48.4837 9.69964
48.5327 9.62968
48.5815 9.55698
48.6306 9.56756
48.6795 9.52421
48.7285 9.47843
48.7774 9.46875
48.8265 9.39254
48.8754 9.33471
48.9245 9.34227
48.9734 9.29964
49.0226 9.31049
49.0715 9.23058
49.1206 9.19209
49.1696 9.18879
49.2188 9.12298
49.2679 9.07181
49.3169 9.05218
49.3661 9.00995
49.4151 8.9991
49.4643 8.9665
49.5134 8.90992
49.5626 8.87413
49.6117 8.80948
49.6609 8.84676
49.71 8.74036
49.7592 8.74818
49.8083 8.7212
49.8576 8.6882
49.9067 8.63393
49.956 8.64387
50.0052 8.59347
50.0545 8.53888
50.1036 8.48077
50.153 8.49208
50.2022 8.45995
50.2515 8.39765
50.3007 8.39046
50.3501 8.34379
50.3993 8.31134
50.4487 8.31709
50.498 8.27384
50.5474 8.23062
50.5966 8.19214
50.6461 8.1452
50.6955 8.1417
50.7448 8.0969
50.7943 8.08926
50.8436 8.03133
50.8931 7.99721
50.9424 8.02136
50.9919 7.9584
51.0413 7.92433
51.0908 7.88775
51.1402 7.88482
51.1897 7.82513
51.2391 7.78004
51.2887 7.78019
51.3381 7.68729
51.3877 7.71523
51.4371 7.69211
51.4867 7.59989
51.5362 7.6265
51.5858 7.54037
51.6353 7.53818
51.6849 7.50815
51.7344 7.47022
51.7841 7.44092
51.8336 7.43007
51.8833 7.3749
51.9328 7.34673
51.9826 7.33925
52.0323 7.30888
52.0818 7.24174
52.1316 7.22333
52.1812 7.22863
52.231 7.17626
52.2806 7.13159
52.3304 7.08274
52.38 7.08201
52.4298 7.03787
52.4794 7.01397
52.5293 6.99883
52.5789 6.97998
52.6288 6.95886
52.6785 6.89392
52.7284 6.85726
52.7781 6.83172
52.828 6.79811
52.8777 6.80398
52.9276 6.7555
52.9774 6.7281
53.0273 6.71127
53.0771 6.65531
53.1271 6.63826
53.1769 6.61726
53.2269 6.59444
53.2767 6.54587
53.3267 6.52115
53.3765 6.5061
53.4266 6.4808
53.4766 6.45362
53.5265 6.4292
53.5765 6.41632
53.6264 6.37724
53.6765 6.29635
53.7264 6.34678
53.7765 6.32555
53.8265 6.25933
53.8766 6.19416
53.9266 6.21418
53.9767 6.17357
54.0267 6.18613
54.0769 6.10195
54.1269 6.07484
54.1771 6.08046
54.2271 6.04353
54.2773 6.0137
54.3274 5.94358
54.3776 5.9905
54.4277 5.93428
54.478 5.86997
54.528 5.85609
54.5783 5.78763
54.6285 5.7649
54.6788 5.71392
54.7289 5.70369
54.7792 5.6155
54.8296 5.55725
54.8798 5.55827
54.9301 5.51619
54.9803 5.50425
55.0307 5.45751
55.0809 5.42923
55.1314 5.38644
55.1816 5.32368
55.232 5.27563
55.2823 5.26059
55.3328 5.14649
55.383 5.10966
55.4335 5.08473
55.4838 5.0607
55.5344 5.01898
55.5847 4.94041
55.6352 4.91487
55.6856 4.91528
55.7361 4.79494