File: XRD/Ni3Fe_FD0817.xy
TT I
1.27165 7.32823
1.31627 6.01813
1.36089 6.6249
1.40551 5.87846
1.45013 5.97959
1.49476 5.97868
1.53938 5.79108
1.584 5.86418
1.62863 5.54073
1.67325 4.96374
1.71787 5.0415
1.7625 4.70648
1.80712 4.74177
1.85174 4.10439
1.89636 5.22258
1.94099 4.5005
1.98562 5.30606
2.03025 4.57035
2.07487 4.62131
2.11949 4.76507
2.16411 5.08123
2.20874 8.25435
2.25338 11.6182
2.298 5.35988
2.34263 5.61132
2.38725 5.64328
2.43188 7.26722
2.4765 6.70937
2.52115 7.36744
2.56577 8.10616
2.6104 8.36473
2.65503 8.68238
2.69965 8.95847
2.7443 8.80468
2.78893 8.03373
2.83356 8.17417
2.87818 9.19487
2.92281 9.28753
2.96744 10.0811
3.01209 10.0927
3.05672 11.3103
3.10135 12.0946
3.14599 12.7441
3.19062 14.204
3.23527 15.3845
3.2799 15.6925
3.32454 16.7128
3.36917 17.4127
3.4138 18.6951
3.45844 19.7898
3.50309 20.505
3.54773 21.3429
3.59237 22.6666
3.637 48.1785
3.68164 36.3871
3.7263 25.139
3.77094 25.7461
3.81558 26.2747
3.86022 26.9384
3.90486 29.023
3.9495 29.0341
3.99416 30.5034
4.0388 31.747
4.08344 32.9755
4.12809 34.2725
4.17273 35.8122
4.21738 39.0543
4.26204 117.68
4.30669 106.395
4.35133 43.9799
4.39598 43.142
4.44063 48.1827
4.4853 53.6082
4.52995 56.7291
4.5746 57.584
4.61925 53.4738
4.6639 55.1011
4.70855 57.4835
4.75322 61.1619
4.79788 68.7627
4.84253 67.9617
4.88719 75.413
4.93184 76.2276
4.97652 80.5747
5.02118 86.6716
5.06583 94.0496
5.11049 105.948
5.15515 156.33
5.19981 399.579
5.24449 2877.69
5.28916 12499.3
5.33382 2472.82
5.37848 192.238
5.42315 129.397
5.46783 118.868
5.5125 112.005
5.55716 101.565
5.60183 97.6154
5.6465 95.3844
5.69117 93.754
5.73586 92.562
5.78053 98.1286
5.8252 98.2736
5.86988 101.03
5.91455 95.0039
5.95924 104.235
6.00392 239.885
6.0486 965.006
6.09328 4591.66
6.13795 3016.28
6.18263 208.92
6.22733 89.5798
6.27201 79.7324
6.3167 83.4735
6.36138 74.0099
6.40606 69.5974
6.45075 69.2364
6.49545 65.1352
6.54014 62.5242
6.58483 62.286
6.62952 62.6095
6.67421 72.0532
6.71892 88.5538
6.76361 61.7207
6.8083 59.114
6.853 59.8319
6.89769 56.0771
6.94239 55.8248
6.98711 55.1073
7.03181 55.4317
7.07651 54.6046
7.12121 54.3601
7.16591 55.7711
7.21063 55.1866
7.25533 59.7414
7.30004 98.0045
7.34475 67.2432
7.38945 54.726
7.43416 53.226
7.47889 53.3931
7.5236 53.7864
7.56831 53.9168
7.61303 55.2426
7.65774 55.5033
7.70247 56.457
7.74719 56.0924
7.79191 56.0247
7.83663 56.4361
7.88135 57.0743
7.92607 58.2385
7.97081 59.385
8.01553 60.6508
8.06026 62.0087
8.10498 63.6694
8.14971 70.5504
8.19446 70.5802
8.23919 68.9765
8.28392 71.3285
8.32865 73.6323
8.37339 78.1145
8.41812 83.0353
8.46288 102.332
8.50761 177.01
8.55235 381.756
8.59709 1217.95
8.64183 2195.84
8.68658 834.746
8.73134 146.709
8.77609 96.5849
8.82083 91.7947
8.86558 92.0334
8.91033 91.646
8.9551 89.412
8.99985 84.641
9.04461 83.5733
9.08936 83.6447
9.13412 82.7197
9.17888 81.6043
9.22365 81.6549
9.26841 81.6432
9.31318 84.0431
9.35794 86.4463
9.4027 85.6406
9.44749 84.9768
9.49226 84.4107
9.53703 85.3148
9.5818 89.1784
9.62657 94.336
9.67134 94.8545
9.71614 92.0809
9.76091 94.2081
9.80569 99.1303
9.85047 100.82
9.89525 111.152
9.94005 126.519
9.98484 190.086
10.0296 342.738
10.0744 836.701
10.1192 1829.02
10.164 1517.71
10.2088 348.763
10.2536 120.288
10.2984 108.584
10.3432 107.31
10.388 104.378
10.4328 121.282
10.4776 163.094
10.5224 295.302
10.5672 539.616
10.612 487.946
10.6568 185.21
10.7017 93.8338
10.7465 85.4806
10.7913 82.1391
10.8361 80.3945
10.8809 78.2784
10.9257 77.7435
10.9706 77.3464
11.0154 74.9218
11.0602 72.4104
11.105 70.924
11.1499 71.7554
11.1947 73.6142
11.2395 69.6816
11.2844 67.6362
11.3292 66.1436
11.374 65.3238
11.4189 65.014
11.4637 64.1259
11.5086 63.9501
11.5534 64.5297
11.5983 63.7718
11.6431 62.888
11.688 62.1076
11.7328 62.2399
11.7777 61.9972
11.8225 62.2439
11.8674 62.2463
11.9122 62.1497
11.9571 62.6004
12.002 63.946
12.0468 68.6055
12.0917 78.0757
12.1366 103.153
12.1814 160.342
12.2263 217.271
12.2712 164.776
12.3161 87.2766
12.3609 66.1637
12.4058 63.3139
12.4507 63.4724
12.4956 64.0894
12.5405 64.3636
12.5853 64.8279
12.6302 67.4991
12.6751 70.2644
12.72 67.4621
12.7649 67.0292
12.8098 67.8618
12.8547 69.4015
12.8996 70.9527
12.9445 72.5096
12.9894 74.0773
13.0343 75.5536
13.0792 79.9982
13.1242 92.0925
13.1691 111.385
13.214 149.181
13.2589 249.303
13.3038 392.561
13.3487 413.624
13.3937 235.494
13.4386 117.978
13.4835 106.05
13.5285 119.849
13.5734 161.296
13.6183 259.203
13.6633 365.044
13.7082 328.64
13.7531 169.655
13.7981 93.3233
13.843 81.0306
13.888 79.0385
13.9329 76.5147
13.9779 75.1237
14.0228 73.9746
14.0678 72.3107
14.1127 71.8892
14.1577 71.3409
14.2027 70.6035
14.2476 69.8887
14.2926 69.5805
14.3376 69.29
14.3825 68.9924
14.4275 68.041
14.4725 68.2435
14.5175 68.4047
14.5624 68.266
14.6074 69.065
14.6524 69.9099
14.6974 70.1196
14.7424 73.4703
14.7874 79.1533
14.8324 88.5849
14.8774 111.811
14.9224 160.027
14.9674 218.751
15.0124 220.48
15.0574 140.912
15.1024 85.764
15.1474 70.9997
15.1924 69.705
15.2374 68.9549
15.2824 67.9175
15.3274 66.8526
15.3725 66.1202
15.4175 65.8079
15.4625 65.2873
15.5076 65.1162
15.5526 65.4622
15.5976 65.2306
15.6426 67.6393
15.6877 72.4787
15.7327 79.3211
15.7778 95.3229
15.8228 130.089
15.8679 177.369
15.9129 197.065
15.958 146.301
16.003 88.5609
16.0481 65.67
16.0931 62.4434
16.1382 60.82
16.1833 59.6449
16.2283 58.2274
16.2734 57.7389
16.3185 57.3751
16.3636 57.1267
16.4086 56.2888
16.4537 55.3107
16.4988 54.8677
16.5439 54.9228
16.589 54.6315
16.6341 54.1704
16.6792 53.772
16.7243 54.2876
16.7694 54.0241
16.8145 54.1094
16.8596 54.2902
16.9047 54.9207
16.9498 55.1428
16.9949 54.7536
17.04 55.6345
17.0851 56.738
17.1302 58.209
17.1754 61.2246
17.2205 66.8831
17.2656 75.3746
17.3108 83.9299
17.3559 80.9322
17.401 68.5864
17.4462 60.7764
17.4913 58.7242
17.5365 58.705
17.5815 58.6139
17.6268 59.116
17.6718 59.671
17.7171 59.9574
17.7622 60.7868
17.8074 61.9854
17.8525 64.7269
17.8977 68.1003
17.9428 73.4486
17.9881 82.804
18.0331 101.946
18.0784 125.454
18.1237 141.381
18.1688 126.739
18.214 98.8326
18.2591 84.7134
18.3044 91.2278
18.3495 102.188
18.3948 105.182
18.4399 91.875
18.4852 74.0944
18.5303 64.4622
18.5756 61.2545
18.6207 60.5596
18.666 59.6397
18.7112 59.1195
18.7565 58.3847
18.8016 58.0787
18.8469 57.5961
18.892 57.1713
18.9374 56.556
18.9825 56.4325
19.0278 56.3885
19.073 56.4414
19.1183 56.6753
19.1635 57.4028
19.2088 58.7926
19.254 61.7104
19.2993 66.7241
19.3447 72.7361
19.3898 75.6046
19.4352 69.7802
19.4804 61.2625
19.5257 55.4804
19.5709 53.4518
19.6163 53.3864
19.6615 53.1454
19.7068 52.5937
19.752 52.6466
19.7974 53.16
19.8426 53.722
19.888 54.2653
19.9332 55.7166
19.9786 58.6754
20.0238 63.026
20.0692 67.829
20.1144 69.7319
20.1598 67.0699
20.205 62.1172
20.2504 61.6881
20.2957 63.9548
20.3411 65.2423
20.3863 62.5743
20.4318 56.6374
20.477 52.4698
20.5224 50.6282
20.5677 50.0173
20.6131 49.5635
20.6586 49.0514
20.7038 48.9575
20.7493 48.471
20.7945 48.4175
20.84 48.2304
20.8853 48.3261
20.9307 48.0331
20.976 48.2826
21.0215 48.1184
21.0668 48.3962
21.1122 48.857
21.1575 49.8842
21.203 50.3857
21.2483 51.1368
21.2938 50.9963
21.3391 49.3128
21.3846 48.2443
21.4299 47.8277
21.4754 48.1321
21.5207 48.1144
21.5662 48.6731
21.6116 48.9184
21.6571 49.4553
21.7024 50.4607
21.7479 52.4221
21.7933 55.3882
21.8388 59.0887
21.8843 62.9494
21.9297 64.1704
21.9752 61.8697
22.0206 57.9619
22.0661 55.6933
22.1115 55.8531
22.157 55.4098
22.2024 53.3594
22.248 50.4994
22.2933 49.134
22.3389 48.404
22.3843 48.4019
22.4299 48.1689
22.4753 48.4216
22.5208 48.0555
22.5662 48.209
22.6118 48.413
22.6572 48.3706
22.7028 48.686
22.7483 49.1565
22.7939 50.078
22.8393 51.7652
22.8849 54.0332
22.9303 56.1728
22.9759 57.6216
23.0214 56.5738
23.067 53.469
23.1126 50.1394
23.1581 48.597
23.2037 48.2711
23.2492 48.4716
23.2948 48.3552
23.3403 48.7041
23.3859 49.4564
23.4314 50.6559
23.477 52.4875
23.5225 54.9169
23.5682 57.1034
23.6137 57.6313
23.6593 54.5559
23.7048 50.2057
23.7505 47.4073
23.796 45.9644
23.8417 45.4389
23.8872 44.9634
23.9329 44.7946
23.9784 44.4829
24.0241 44.1633
24.0697 43.9635
24.1154 43.4965
24.1609 43.4116
24.2066 43.3219
24.2522 43.3197
24.2979 43.0318
24.3434 42.8118
24.3892 42.7012
24.4349 42.5161
24.4805 42.4968
24.5262 42.6479
24.5718 42.5586
24.6175 42.5792
24.6631 42.3778
24.7089 42.0141
24.7545 41.9416
24.8002 41.6031
24.8458 41.7922
24.8916 41.6565
24.9372 41.8058
24.983 42.2224
25.0286 42.5229
25.0744 43.0665
25.12 43.4468
25.1658 44.0065
25.2114 44.1768
25.2572 44.3165
25.3029 44.5055
25.3487 44.5189
25.3943 44.054
25.4402 42.7918
25.4858 41.7041
25.5316 40.9072
25.5773 40.4427
25.6231 40.5354
25.669 40.1143
25.7147 40.1132
25.7605 40.01
25.8062 39.9294
25.8521 40.1319
25.8977 40.2402
25.9436 40.4555
25.9893 40.5272
26.0352 41.24
26.0809 41.2929
26.1268 41.4088
26.1725 40.8959
26.2184 40.3288
26.2641 39.8775
26.31 39.6888
26.3557 39.8289
26.4017 39.7843
26.4474 40.0922
26.4933 40.3433
26.5391 40.881
26.585 41.4364
26.6308 41.8673
26.6767 41.9056
26.7225 41.5235
26.7684 40.9906
26.8142 40.4492
26.8601 40.081
26.9059 39.6469
26.9519 39.1806
26.9979 38.7725
27.0437 38.5654
27.0896 38.3766
27.1354 38.3836
27.1814 38.2719
27.2272 38.1767
27.2732 38.2292
27.3191 37.9735
27.3651 38.1661
27.4109 38.0435
27.4569 38.1548
27.5027 38.3346
27.5488 38.2311
27.5946 38.0095
27.6407 37.6956
27.6865 37.6492
27.7326 37.4847
27.7784 37.4637
27.8245 37.2838
27.8703 37.703
27.9164 37.9976
27.9623 38.11
28.0084 38.672
28.0543 38.9617
28.1003 38.6217
28.1462 38.3191
28.1923 38.0907
28.2384 37.495
28.2843 37.1642
28.3304 36.7716
28.3764 36.2919
28.4225 36.0478
28.4684 35.9465
28.5145 35.5025
28.5605 35.4803
28.6066 35.3142
28.6526 35.2376
28.6987 35.2393
28.7447 35.1363
28.7908 35.1056
28.8368 35.1511
28.8829 35.1674
28.9289 34.9505
28.9751 34.8538
29.0211 34.477
29.0673 34.218
29.1133 34.1569
29.1595 33.9853
29.2055 33.8999
29.2517 33.9044
29.2977 34.0047
29.3439 33.9565
29.3899 33.827
29.4361 33.8265
29.4824 33.5527
29.5284 33.2998
29.5746 33.1563
29.6207 32.8377
29.6669 32.7692
29.713 32.7713
29.7593 32.5525
29.8053 32.5765
29.8516 32.4667
29.8977 32.4642
29.9439 32.279
29.99 32.2621
30.0363 32.005
30.0824 32.232
30.1287 32.1695
30.1748 32.043
30.2211 32.0811
30.2673 31.9662
30.3136 32.0353
30.3597 31.8919
30.406 31.8893
30.4522 31.8662
30.4985 31.7305
30.5447 31.8727
30.591 31.9053
30.6372 32.0199
30.6835 31.8545
30.7297 31.8949
30.7761 31.7787
30.8224 31.6508
30.8686 31.5593
30.915 31.2638
30.9612 31.2272
31.0076 31.0123
31.0538 30.9097
31.1002 30.9032
31.1464 30.6192
31.1928 30.6077
31.2391 30.7402
31.2855 30.57
31.3317 30.5729
31.3781 30.7051
31.4244 30.6157
31.4708 30.5791
31.5171 30.5614
31.5636 30.4897
31.6098 30.1823
31.6563 30.0466
31.7026 29.9187
31.7491 29.7712
31.7953 29.8633
31.8418 29.9188
31.8881 29.9018
31.9346 29.8028
31.9809 29.6297
32.0275 29.607
32.074 29.5504
32.1203 29.3224
32.1668 29.1563
32.2132 29.0877
32.2597 28.9255
32.306 28.855
32.3526 28.6543
32.399 28.6556
32.4455 28.4478
32.4919 28.4344
32.5385 28.3146
32.5848 28.2081
32.6314 28.2435
32.6778 28.1565
32.7244 27.9848
32.7708 27.8269
32.8174 27.8834
32.8638 27.7223
32.9104 27.7942
32.9569 27.714
33.0035 27.6083
33.0499 27.555
33.0966 27.5313
33.143 27.5414
33.1897 27.3671
33.2361 27.3911
33.2828 27.2589
33.3293 27.1128
33.3759 27.1201
33.4226 26.8344
33.4691 26.8346
33.5158 26.7675
33.5623 26.5764
33.609 26.4281
33.6555 26.4237
33.7022 26.3836
33.7487 26.302
33.7954 26.134
33.842 26.133
33.8887 26.0224
33.9353 25.9813
33.982 25.8602
34.0286 25.8317
34.0753 25.7341
34.1219 25.6848
34.1687 25.5041
34.2152 25.5548
34.262 25.4435
34.3086 25.3554
34.3554 25.2741
34.402 25.1358
34.4488 25.0758
34.4954 24.9261
34.5422 24.9041
34.5889 24.8108
34.6357 24.7221
34.6825 24.6776
34.7292 24.5907
34.776 24.5414
34.8227 24.3754
34.8695 24.4063
34.9162 24.2825
34.9631 24.1674
35.0098 24.2425
35.0566 24.1097
35.1033 23.9635
35.1502 23.9909
35.1969 23.9745
35.2438 23.8971
35.2906 23.833
35.3375 23.8608
35.3842 23.7171
35.4311 23.7579
35.4779 23.7185
35.5248 23.6691
35.5716 23.5241
35.6185 23.4427
35.6653 23.3577
35.7123 23.332
35.759 23.2354
35.806 23.0578
35.8528 22.9602
35.8998 22.9722
35.9468 22.8946
35.9936 22.9525
36.0406 22.8937
36.0874 22.7744
36.1345 22.5815
36.1813 22.5521
36.2283 22.529
36.2752 22.3201
36.3222 22.4116
36.3691 22.4082
36.4161 22.2892
36.463 22.2387
36.5101 22.2256
36.557 22.1541
36.6041 21.9313
36.651 22.0133
36.6981 21.9093
36.745 21.8416
36.7921 21.7715
36.839 21.6415
36.8861 21.6129
36.9331 21.4993
36.9802 21.493
37.0272 21.4437
37.0743 21.3242
37.1213 21.2849
37.1684 21.2233
37.2154 21.1336
37.2626 21.0697
37.3098 21.0117
37.3568 20.9479
37.404 20.8856
37.451 20.7794
37.4982 20.71
37.5452 20.6699
37.5924 20.578
37.6395 20.5232
37.6867 20.5048
37.7337 20.4035
37.781 20.3355
37.8281 20.2846
37.8753 20.1385
37.9224 20.0793
37.9697 20.0592
38.0168 20.0293
38.064 19.9918
38.1111 19.8942
38.1584 19.7826
38.2056 19.7669
38.2529 19.7444
38.3 19.6173
38.3473 19.6113
38.3945 19.5264
38.4418 19.4716
38.489 19.3566
38.5363 19.3975
38.5837 19.222
38.6309 19.2383
38.6782 19.1458
38.7254 19.0776
38.7728 19.0374
38.82 18.9514
38.8674 18.8976
38.9146 18.8225
38.9621 18.7735
39.0093 18.7178
39.0567 18.6491
39.104 18.596
39.1514 18.5246
39.1987 18.4971
39.2461 18.4676
39.2934 18.4016
39.3409 18.3218
39.3882 18.2262
39.4356 18.171
39.483 18.0722
39.5304 18.1032
39.5778 18.0323
39.6253 17.9722
39.6726 17.8711
39.7201 17.8675
39.7675 17.7311
39.815 17.7069
39.8624 17.66
39.9099 17.6368
39.9575 17.5769
40.0049 17.4837
40.0525 17.4343
40.0999 17.3919
40.1474 17.32
40.1949 17.285
40.2425 17.2564
40.2899 17.1876
40.3375 17.1762
40.385 17.0451
40.4326 17.0146
40.48 16.8916
40.5277 16.9318
40.5752 16.8406
40.6228 16.7739
40.6703 16.7439
40.718 16.6883
40.7655 16.6438
40.8132 16.5628
40.8607 16.505
40.9084 16.4883
40.9559 16.3941
41.0036 16.3572
41.0512 16.3387
41.0989 16.2887
41.1465 16.2739
41.1942 16.1991
41.242 16.0309
41.2896 16.0358
41.3373 15.9872
41.3849 15.9413
41.4327 15.888
41.4803 15.8128
41.5281 15.7811
41.5758 15.7268
41.6236 15.611
41.6712 15.6277
41.7191 15.5559
41.7667 15.5331
41.8146 15.4767
41.8622 15.411
41.9101 15.4105
41.9578 15.2144
42.0057 15.2258
42.0534 15.1979
42.1013 15.1407
42.149 15.0842
42.1969 15.0464
42.2446 15.0256
42.2925 14.9646
42.3403 14.9017
42.3882 14.8717
42.436 14.8421
42.4839 14.7498
42.5319 14.6885
42.5797 14.6816
42.6277 14.6294
42.6755 14.6049
42.7235 14.497
42.7713 14.5113
42.8193 14.4061
42.8671 14.308
42.9152 14.3249
42.963 14.3011
43.0111 14.2403
43.0589 14.1854
43.107 14.0907
43.1549 14.0843
43.2029 14.02
43.2508 14.0227
43.2989 13.9595
43.3468 13.8739
43.3949 13.802
43.4429 13.767
43.491 13.7808
43.5389 13.6966
43.5871 13.6763
43.635 13.6046
43.6832 13.5178
43.7312 13.4748
43.7793 13.444
43.8273 13.4126
43.8755 13.3966
43.9237 13.3246
43.9717 13.266
44.0199 13.2555
44.068 13.1693
44.1162 13.1165
44.1642 13.1388
44.2125 13.0361
44.2606 13.04
44.3088 12.9775
44.3569 12.8943
44.4052 12.904
44.4533 12.8066
44.5016 12.7746
44.5497 12.745
44.598 12.7011
44.6461 12.6405
44.6945 12.5742
44.7426 12.5765
44.791 12.4852
44.8391 12.4846
44.8875 12.4212
44.9357 12.3799
44.984 12.3341
45.0322 12.283
45.0806 12.2514
45.1288 12.2406
45.1773 12.1814
45.2257 12.0907
45.2739 12.1184
45.3224 12.0361
45.3706 12.0306
45.4191 11.919
45.4673 11.9295
45.5158 11.8825
45.5641 11.7952
45.6126 11.8038
45.6609 11.7219
45.7094 11.6973
45.7577 11.6671
45.8063 11.6159
45.8546 11.5391
45.9031 11.5421
45.9515 11.5068
46.0001 11.456
46.0484 11.3855
46.097 11.3504
46.1454 11.3134
46.194 11.3171
46.2424 11.224
46.291 11.1877
46.3395 11.1471
46.3881 11.0953
46.4365 11.1029
46.4852 11.0449
46.5337 11.0165
46.5823 10.9803
46.631 10.9245
46.6795 10.861
46.7282 10.8582
46.7767 10.8481
46.8254 10.7196
46.8739 10.6826
46.9226 10.6445
46.9712 10.6486
47.0199 10.601
47.0685 10.5704
47.1173 10.5265
47.1658 10.4845
47.2146 10.4411
47.2632 10.3976
47.312 10.3736
47.3606 10.2857
47.4095 10.2965
47.4581 10.2783
47.5069 10.197
47.5556 10.1515
47.6044 10.1304
47.6531 10.0819
47.702 10.0439
47.7507 10.0169
47.7996 9.95333
47.8483 10.0083
47.8972 9.93209
47.9461 9.91027
47.9948 9.85639
48.0438 9.83186
48.0925 9.83214
48.1415 9.72537
48.1902 9.67785
48.2392 9.66034
48.288 9.6305
48.337 9.60641
48.3858 9.56977
48.4348 9.51187
48.4837 9.51823
48.5327 9.43851
48.5815 9.41443
48.6306 9.40838
48.6795 9.39773
48.7285 9.32403
48.7774 9.2736
48.8265 9.28735
48.8754 9.2422
48.9245 9.2324
48.9734 9.13686
49.0226 9.08453
49.0715 9.06622
49.1206 9.07506
49.1696 9.04501
49.2188 8.96287
49.2679 8.96321
49.3169 8.88177
49.3661 8.87892
49.4151 8.84494
49.4643 8.82812
49.5134 8.80854
49.5626 8.70918
49.6117 8.71488
49.6609 8.63452
49.71 8.64075
49.7592 8.60898
49.8083 8.57621
49.8576 8.54731
49.9067 8.49712
49.956 8.45412
50.0052 8.41732
50.0545 8.42288
50.1036 8.36603
50.153 8.33355
50.2022 8.31243
50.2515 8.25517
50.3007 8.22061
50.3501 8.1959
50.3993 8.19121
50.4487 8.14321
50.498 8.10415
50.5474 8.10369
50.5966 8.06732
50.6461 8.04117
50.6955 7.97706
50.7448 7.96057
50.7943 7.9498
50.8436 7.90906
50.8931 7.90025
50.9424 7.84653
50.9919 7.82814
51.0413 7.80746
51.0908 7.74625
51.1402 7.73417
51.1897 7.66802
51.2391 7.63601
51.2887 7.61375
51.3381 7.6085
51.3877 7.57818
51.4371 7.53353
51.4867 7.51709
51.5362 7.47607
51.5858 7.44508
51.6353 7.38202
51.6849 7.39347
51.7344 7.37679
51.7841 7.34247
51.8336 7.26546
51.8833 7.27501
51.9328 7.21805
51.9826 7.1783
52.0323 7.17327
52.0818 7.13499
52.1316 7.09922
52.1812 7.10707
52.231 7.05275
52.2806 6.9966
52.3304 6.99478
52.38 6.98492
52.4298 6.95603
52.4794 6.90091
52.5293 6.90839
52.5789 6.86898
52.6288 6.84144
52.6785 6.78554
52.7284 6.77563
52.7781 6.7639
52.828 6.72111
52.8777 6.69571
52.9276 6.64557
52.9774 6.62543
53.0273 6.62384
53.0771 6.5924
53.1271 6.5551
53.1769 6.49581
53.2269 6.53298
53.2767 6.47225
53.3267 6.44143
53.3765 6.43385
53.4266 6.33207
53.4766 6.33375
53.5265 6.31829
53.5765 6.26862
53.6264 6.29551
53.6765 6.22288
53.7264 6.21394
53.7765 6.17929
53.8265 6.172
53.8766 6.10566
53.9266 6.11563
53.9767 6.09686
54.0267 6.05424
54.0769 6.03051
54.1269 5.99169
54.1771 5.98608
54.2271 5.98033
54.2773 5.85833
54.3274 5.88055
54.3776 5.80856
54.4277 5.81048
54.478 5.81226
54.528 5.76467
54.5783 5.71123
54.6285 5.68126
54.6788 5.606
54.7289 5.57237
54.7792 5.52816
54.8296 5.50273
54.8798 5.43466
54.9301 5.46449
54.9803 5.38807
55.0307 5.36759
55.0809 5.33428
55.1314 5.29241
55.1816 5.23503
55.232 5.20535
55.2823 5.15638
55.3328 5.15229
55.383 5.04998
55.4335 5.03991
55.4838 4.99549
55.5344 4.87301
55.5847 4.87667
55.6352 4.90865
55.6856 4.79311
55.7361 4.79826