File: XRD/Ni3Fe_FD0566.xy
TT I
1.27165 7.34418
1.31627 6.41066
1.36089 6.83247
1.40551 5.78631
1.45013 6.32348
1.49476 5.63676
1.53938 6.04509
1.584 5.15842
1.62863 5.28762
1.67325 5.43564
1.71787 5.52821
1.7625 4.83809
1.80712 5.31825
1.85174 4.85219
1.89636 4.36977
1.94099 4.24962
1.98562 4.41894
2.03025 4.56007
2.07487 4.39867
2.11949 4.95466
2.16411 4.44334
2.20874 10.5218
2.25338 15.8831
2.298 5.88648
2.34263 5.08853
2.38725 6.1335
2.43188 5.13207
2.4765 5.91672
2.52115 6.4663
2.56577 6.58827
2.6104 7.79262
2.65503 7.55197
2.69965 8.08095
2.7443 8.18422
2.78893 8.01415
2.83356 8.43147
2.87818 9.30408
2.92281 8.9726
2.96744 9.26535
3.01209 10.2596
3.05672 10.8604
3.10135 12.6822
3.14599 13.1666
3.19062 13.8497
3.23527 14.9713
3.2799 15.5707
3.32454 16.8516
3.36917 17.888
3.4138 19.0583
3.45844 19.8207
3.50309 20.9001
3.54773 21.5365
3.59237 23.6491
3.637 65.159
3.68164 44.8869
3.7263 25.839
3.77094 25.9176
3.81558 26.7757
3.86022 27.8547
3.90486 29.0254
3.9495 29.6112
3.99416 31.1126
4.0388 32.3702
4.08344 33.5029
4.12809 34.1255
4.17273 36.7038
4.21738 40.9294
4.26204 167.856
4.30669 143.018
4.35133 45.9026
4.39598 43.9462
4.44063 50.6309
4.4853 58.5422
4.52995 51.19
4.5746 52.4347
4.61925 54.0513
4.6639 56.209
4.70855 58.6793
4.75322 61.6001
4.79788 64.9714
4.84253 67.9735
4.88719 72.7516
4.93184 76.4369
4.97652 82.1095
5.02118 88.7636
5.06583 96.8925
5.11049 108.542
5.15515 165.516
5.19981 443.423
5.24449 3188.24
5.28916 12317.1
5.33382 2949.67
5.37848 198.195
5.42315 131.025
5.46783 115.91
5.5125 108.003
5.55716 103.251
5.60183 99.2523
5.6465 97.5951
5.69117 95.5769
5.73586 93.5204
5.78053 94.1768
5.8252 93.5097
5.86988 95.1339
5.91455 97.0382
5.95924 107.736
6.00392 257.875
6.0486 1101.32
6.09328 4464.06
6.13795 3383.17
6.18263 250.718
6.22733 93.9152
6.27201 82.5394
6.3167 91.7032
6.36138 77.44
6.40606 69.4168
6.45075 68.0181
6.49545 65.7488
6.54014 64.3285
6.58483 62.9758
6.62952 63.0487
6.67421 81.5539
6.71892 110.817
6.76361 64.9515
6.8083 58.9865
6.853 57.3873
6.89769 57.1531
6.94239 56.6609
6.98711 55.7616
7.03181 55.5572
7.07651 55.6244
7.12121 55.1126
7.16591 55.5742
7.21063 54.9749
7.25533 65.1196
7.30004 131.195
7.34475 77.1667
7.38945 55.8998
7.43416 54.4037
7.47889 53.8481
7.5236 54.8458
7.56831 55.6635
7.61303 56.6126
7.65774 56.6903
7.70247 56.3923
7.74719 56.6197
7.79191 56.9548
7.83663 57.0751
7.88135 58.0592
7.92607 59.0222
7.97081 60.131
8.01553 61.2559
8.06026 62.5755
8.10498 64.2221
8.14971 71.2508
8.19446 70.7549
8.23919 70.0113
8.28392 72.535
8.32865 75.136
8.37339 79.2943
8.41812 85.8199
8.46288 109.17
8.50761 189.587
8.55235 435.858
8.59709 1242.44
8.64183 2206.18
8.68658 957.584
8.73134 161.461
8.77609 99.7271
8.82083 93.2091
8.86558 90.5679
8.91033 90.1201
8.9551 89.9026
8.99985 85.68
9.04461 84.0495
9.08936 83.7378
9.13412 83.0059
9.17888 82.746
9.22365 83.3574
9.26841 82.4877
9.31318 83.3707
9.35794 83.9121
9.4027 84.4239
9.44749 85.0882
9.49226 85.7282
9.53703 86.4017
9.5818 88.2271
9.62657 91.8681
9.67134 96.3882
9.71614 93.5326
9.76091 94.9404
9.80569 97.7966
9.85047 100.87
9.89525 117.612
9.94005 133.413
9.98484 202.891
10.0296 379.41
10.0744 855.636
10.1192 1718.97
10.164 1541.48
10.2088 382.989
10.2536 125.641
10.2984 111.659
10.3432 111.985
10.388 106.104
10.4328 125.923
10.4776 170.724
10.5224 296.436
10.5672 524.081
10.612 501.7
10.6568 192.101
10.7017 95.8434
10.7465 87.2801
10.7913 83.656
10.8361 81.402
10.8809 79.4827
10.9257 78.1586
10.9706 78.4185
11.0154 74.6891
11.0602 73.1896
11.105 72.0816
11.1499 74.0041
11.1947 78.107
11.2395 72.033
11.2844 69.7349
11.3292 67.0174
11.374 66.4388
11.4189 65.7448
11.4637 65.1279
11.5086 65.0466
11.5534 66.8626
11.5983 65.1502
11.6431 63.8121
11.688 63.0739
11.7328 63.1504
11.7777 63.1736
11.8225 62.8331
11.8674 62.7677
11.9122 63.2047
11.9571 63.599
12.002 64.7152
12.0468 70.0768
12.0917 81.5127
12.1366 106.073
12.1814 155.191
12.2263 201.375
12.2712 160.568
12.3161 90.524
12.3609 68.6002
12.4058 64.6199
12.4507 64.6131
12.4956 64.7773
12.5405 64.8266
12.5853 65.7333
12.6302 70.327
12.6751 74.089
12.72 68.8161
12.7649 68.3308
12.8098 68.7273
12.8547 70.1718
12.8996 71.7228
12.9445 73.2529
12.9894 74.7784
13.0343 76.6118
13.0792 80.3903
13.1242 93.1862
13.1691 117.361
13.214 157.21
13.2589 250.214
13.3038 375.655
13.3487 426.376
13.3937 256.446
13.4386 122.112
13.4835 109.999
13.5285 126.272
13.5734 166.52
13.6183 254.239
13.6633 348.66
13.7082 335.329
13.7531 179.591
13.7981 96.1699
13.843 82.1576
13.888 80.2688
13.9329 77.656
13.9779 76.565
14.0228 74.7917
14.0678 73.5215
14.1127 73.2823
14.1577 72.5764
14.2027 71.8403
14.2476 70.8423
14.2926 70.8423
14.3376 71.5468
14.3825 70.3444
14.4275 69.1848
14.4725 69.2136
14.5175 69.1974
14.5624 69.4356
14.6074 70.9152
14.6524 71.5041
14.6974 70.932
14.7424 73.9141
14.7874 81.779
14.8324 92.1658
14.8774 115.507
14.9224 157.764
14.9674 208.074
15.0124 216.742
15.0574 144.606
15.1024 88.9855
15.1474 72.3619
15.1924 70.5964
15.2374 70.5416
15.2824 70.0415
15.3274 68.2039
15.3725 67.1914
15.4175 66.6944
15.4625 66.5083
15.5076 66.4246
15.5526 66.5687
15.5976 66.6394
15.6426 68.4057
15.6877 74.7461
15.7327 82.6828
15.7778 98.7678
15.8228 130.854
15.8679 172.238
15.9129 194.587
15.958 152.592
16.003 94.8458
16.0481 67.4672
16.0931 63.8174
16.1382 62.3056
16.1833 60.7426
16.2283 58.9849
16.2734 58.5218
16.3185 58.5155
16.3636 58.9059
16.4086 57.4676
16.4537 56.3744
16.4988 55.8296
16.5439 55.7989
16.589 55.5337
16.6341 55.2732
16.6792 54.9369
16.7243 55.0645
16.7694 55.0984
16.8145 54.9949
16.8596 55.2394
16.9047 56.5612
16.9498 56.6469
16.9949 56.0137
17.04 56.4203
17.0851 57.8845
17.1302 59.2147
17.1754 62.5184
17.2205 67.8007
17.2656 75.0871
17.3108 82.2924
17.3559 81.5447
17.401 71.0266
17.4462 62.1061
17.4913 59.5712
17.5365 59.5184
17.5815 59.6057
17.6268 59.9876
17.6718 60.7545
17.7171 61.2561
17.7622 61.9814
17.8074 62.6344
17.8525 65.8297
17.8977 69.8399
17.9428 75.7045
17.9881 84.899
18.0331 102.545
18.0784 123.084
18.1237 141.297
18.1688 132.325
18.214 102.833
18.2591 87.3479
18.3044 91.9597
18.3495 101.591
18.3948 106.366
18.4399 95.5517
18.4852 76.9692
18.5303 66.0772
18.5756 62.3781
18.6207 61.4968
18.666 60.8828
18.7112 60.0063
18.7565 59.3925
18.8016 58.9566
18.8469 58.3823
18.892 58.0663
18.9374 57.7188
18.9825 57.548
19.0278 57.3235
19.073 57.53
19.1183 58.0081
19.1635 58.6562
19.2088 60.1709
19.254 62.8992
19.2993 67.2739
19.3447 72.9074
19.3898 76.2401
19.4352 72.0948
19.4804 63.0591
19.5257 56.7702
19.5709 54.5316
19.6163 54.3798
19.6615 54.216
19.7068 53.6027
19.752 53.7345
19.7974 54.1734
19.8426 54.7976
19.888 55.6648
19.9332 56.7504
19.9786 59.6691
20.0238 63.3903
20.0692 67.9366
20.1144 70.6068
20.1598 68.4797
20.205 63.8592
20.2504 62.5751
20.2957 64.3213
20.3411 65.5824
20.3863 63.9023
20.4318 58.3417
20.477 53.7486
20.5224 51.5925
20.5677 51.0199
20.6131 50.4103
20.6586 49.8436
20.7038 49.7607
20.7493 49.3464
20.7945 49.2006
20.84 49.1141
20.8853 49.1839
20.9307 48.9731
20.976 49.1722
21.0215 48.8612
21.0668 49.3332
21.1122 50.0234
21.1575 50.5179
21.203 51.1592
21.2483 51.6414
21.2938 51.7739
21.3391 50.1954
21.3846 49.1498
21.4299 48.8856
21.4754 48.7497
21.5207 49.0378
21.5662 49.3521
21.6116 49.8466
21.6571 50.3769
21.7024 51.4469
21.7479 53.3588
21.7933 56.0499
21.8388 59.7711
21.8843 63.1786
21.9297 65.0415
21.9752 63.5669
22.0206 59.6089
22.0661 56.7531
22.1115 56.3788
22.157 56.1062
22.2024 54.3375
22.248 51.619
22.2933 50.0173
22.3389 49.3325
22.3843 49.1802
22.4299 49.0984
22.4753 49.2221
22.5208 48.8405
22.5662 48.957
22.6118 49.1408
22.6572 49.2639
22.7028 49.8435
22.7483 50.1228
22.7939 50.9135
22.8393 52.4283
22.8849 54.629
22.9303 56.6791
22.9759 58.0431
23.0214 57.4366
23.067 54.4518
23.1126 51.1748
23.1581 49.4332
23.2037 49.1302
23.2492 49.1194
23.2948 49.3116
23.3403 49.5278
23.3859 50.3685
23.4314 51.3539
23.477 53.2628
23.5225 55.4129
23.5682 57.5046
23.6137 58.1238
23.6593 55.7702
23.7048 51.5462
23.7505 48.4386
23.796 46.8111
23.8417 46.2289
23.8872 45.8386
23.9329 45.4643
23.9784 45.1916
24.0241 44.9516
24.0697 44.6724
24.1154 44.3385
24.1609 44.2718
24.2066 44.0506
24.2522 43.9744
24.2979 43.6255
24.3434 43.5417
24.3892 43.416
24.4349 43.3243
24.4805 43.2499
24.5262 43.3761
24.5718 43.1371
24.6175 43.3196
24.6631 43.0938
24.7089 42.6634
24.7545 42.7156
24.8002 42.635
24.8458 42.5215
24.8916 42.4838
24.9372 42.3358
24.983 42.7143
25.0286 43.2575
25.0744 43.6821
25.12 44.03
25.1658 44.6161
25.2114 44.8811
25.2572 45.181
25.3029 45.032
25.3487 45.1942
25.3943 44.826
25.4402 43.5815
25.4858 42.5391
25.5316 41.6703
25.5773 41.133
25.6231 41.0828
25.669 40.9211
25.7147 40.8123
25.7605 40.815
25.8062 40.7171
25.8521 40.9553
25.8977 40.8854
25.9436 41.1233
25.9893 41.3598
26.0352 41.6213
26.0809 41.8501
26.1268 42.0487
26.1725 41.4984
26.2184 41.0461
26.2641 40.6269
26.31 40.3443
26.3557 40.4045
26.4017 40.3897
26.4474 40.6591
26.4933 41.0862
26.5391 41.7279
26.585 41.9662
26.6308 42.3385
26.6767 42.4366
26.7225 42.1941
26.7684 41.6571
26.8142 40.9559
26.8601 40.6977
26.9059 40.257
26.9519 39.6665
26.9979 39.5292
27.0437 39.22
27.0896 38.9689
27.1354 39.0347
27.1814 38.9762
27.2272 38.8242
27.2732 38.7926
27.3191 38.5672
27.3651 38.7789
27.4109 38.7463
27.4569 38.7392
27.5027 38.8182
27.5488 38.8115
27.5946 38.5615
27.6407 38.4108
27.6865 38.3082
27.7326 38.1667
27.7784 38.1039
27.8245 37.9657
27.8703 38.2716
27.9164 38.5733
27.9623 38.7086
28.0084 38.91
28.0543 39.2637
28.1003 39.2813
28.1462 39.073
28.1923 38.5375
28.2384 38.1413
28.2843 37.9595
28.3304 37.3718
28.3764 36.9455
28.4225 36.5946
28.4684 36.4518
28.5145 36.1608
28.5605 36.1171
28.6066 35.8246
28.6526 35.9111
28.6987 35.9122
28.7447 35.7769
28.7908 35.7405
28.8368 35.6844
28.8829 35.6137
28.9289 35.5461
28.9751 35.413
29.0211 35.2031
29.0673 34.8721
29.1133 34.752
29.1595 34.6541
29.2055 34.5681
29.2517 34.5036
29.2977 34.4872
29.3439 34.5708
29.3899 34.3842
29.4361 34.2787
29.4824 34.1494
29.5284 33.9443
29.5746 33.6729
29.6207 33.2898
29.6669 33.3378
29.713 33.207
29.7593 33.0928
29.8053 33.0882
29.8516 33.0504
29.8977 33.0349
29.9439 32.7957
29.99 32.7184
30.0363 32.7586
30.0824 32.6764
30.1287 32.6267
30.1748 32.6803
30.2211 32.5936
30.2673 32.5254
30.3136 32.5325
30.3597 32.3973
30.406 32.4553
30.4522 32.3395
30.4985 32.2239
30.5447 32.4434
30.591 32.4282
30.6372 32.3543
30.6835 32.3815
30.7297 32.4519
30.7761 32.3303
30.8224 32.1733
30.8686 32.066
30.915 31.739
30.9612 31.6668
31.0076 31.4912
31.0538 31.4207
31.1002 31.3971
31.1464 31.165
31.1928 31.1583
31.2391 31.2861
31.2855 31.1032
31.3317 31.0521
31.3781 31.0917
31.4244 31.1431
31.4708 30.9409
31.5171 30.9675
31.5636 31.008
31.6098 30.7678
31.6563 30.5799
31.7026 30.5133
31.7491 30.2653
31.7953 30.4155
31.8418 30.3598
31.8881 30.3423
31.9346 30.242
31.9809 30.3361
32.0275 30.0684
32.074 30.0696
32.1203 29.7765
32.1668 29.7484
32.2132 29.5334
32.2597 29.4854
32.306 29.3114
32.3526 29.1655
32.399 29.1057
32.4455 28.9196
32.4919 28.9139
32.5385 28.8214
32.5848 28.7085
32.6314 28.7193
32.6778 28.5775
32.7244 28.5177
32.7708 28.3642
32.8174 28.302
32.8638 28.1977
32.9104 28.2497
32.9569 28.2532
33.0035 28.1489
33.0499 27.9872
33.0966 27.9806
33.143 28.0096
33.1897 27.8436
33.2361 27.7351
33.2828 27.7223
33.3293 27.6124
33.3759 27.5595
33.4226 27.5253
33.4691 27.2194
33.5158 27.1758
33.5623 27.0383
33.609 26.8559
33.6555 26.7696
33.7022 26.7484
33.7487 26.6952
33.7954 26.6506
33.842 26.5461
33.8887 26.4236
33.9353 26.4628
33.982 26.2888
34.0286 26.1963
34.0753 26.1904
34.1219 26.0314
34.1687 25.9448
34.2152 25.9559
34.262 25.8674
34.3086 25.6052
34.3554 25.6385
34.402 25.5284
34.4488 25.4443
34.4954 25.3465
34.5422 25.2633
34.5889 25.1947
34.6357 25.15
34.6825 25.1053
34.7292 25.0802
34.776 24.9009
34.8227 24.8458
34.8695 24.8569
34.9162 24.7762
34.9631 24.6442
35.0098 24.7012
35.0566 24.4958
35.1033 24.465
35.1502 24.4378
35.1969 24.3483
35.2438 24.2374
35.2906 24.1373
35.3375 24.1209
35.3842 24.0706
35.4311 24.0872
35.4779 24.127
35.5248 23.9372
35.5716 23.9332
35.6185 23.8449
35.6653 23.7414
35.7123 23.6652
35.759 23.6336
35.806 23.5669
35.8528 23.418
35.8998 23.3853
35.9468 23.2869
35.9936 23.1945
36.0406 23.2012
36.0874 23.0791
36.1345 23.0038
36.1813 22.9799
36.2283 22.8411
36.2752 22.8338
36.3222 22.8039
36.3691 22.7015
36.4161 22.5279
36.463 22.5441
36.5101 22.5848
36.557 22.4571
36.6041 22.3451
36.651 22.3521
36.6981 22.2437
36.745 22.1844
36.7921 22.0933
36.839 21.9933
36.8861 21.9826
36.9331 21.8762
36.9802 21.8464
37.0272 21.7133
37.0743 21.5902
37.1213 21.6528
37.1684 21.5607
37.2154 21.4936
37.2626 21.3341
37.3098 21.3041
37.3568 21.2398
37.404 21.1866
37.451 21.0835
37.4982 21.1139
37.5452 20.9675
37.5924 20.8986
37.6395 20.9272
37.6867 20.8198
37.7337 20.7465
37.781 20.6554
37.8281 20.614
37.8753 20.5474
37.9224 20.372
37.9697 20.4343
38.0168 20.3522
38.064 20.2441
38.1111 20.1745
38.1584 20.1362
38.2056 20.1003
38.2529 19.9938
38.3 19.9101
38.3473 19.9078
38.3945 19.8403
38.4418 19.7356
38.489 19.7483
38.5363 19.5623
38.5837 19.643
38.6309 19.5129
38.6782 19.4675
38.7254 19.3439
38.7728 19.3237
38.82 19.2873
38.8674 19.207
38.9146 19.1858
38.9621 19.0019
39.0093 19.0433
39.0567 18.9808
39.104 18.9898
39.1514 18.815
39.1987 18.8469
39.2461 18.7484
39.2934 18.7145
39.3409 18.5465
39.3882 18.5403
39.4356 18.5117
39.483 18.4513
39.5304 18.3407
39.5778 18.3084
39.6253 18.2592
39.6726 18.2384
39.7201 18.0938
39.7675 18.048
39.815 18.0532
39.8624 17.9966
39.9099 17.9194
39.9575 17.8477
40.0049 17.7883
40.0525 17.6743
40.0999 17.7145
40.1474 17.6368
40.1949 17.5147
40.2425 17.5282
40.2899 17.4943
40.3375 17.3605
40.385 17.3594
40.4326 17.2598
40.48 17.2404
40.5277 17.219
40.5752 17.1336
40.6228 17.0699
40.6703 17.0062
40.718 16.9454
40.7655 16.9377
40.8132 16.819
40.8607 16.8453
40.9084 16.8162
40.9559 16.7048
41.0036 16.6188
41.0512 16.5743
41.0989 16.5561
41.1465 16.4739
41.1942 16.4708
41.242 16.3447
41.2896 16.3344
41.3373 16.2503
41.3849 16.1981
41.4327 16.1808
41.4803 16.0777
41.5281 16.0385
41.5758 15.9855
41.6236 15.9087
41.6712 15.8635
41.7191 15.805
41.7667 15.7579
41.8146 15.6752
41.8622 15.708
41.9101 15.6977
41.9578 15.508
42.0057 15.443
42.0534 15.5289
42.1013 15.4385
42.149 15.3614
42.1969 15.377
42.2446 15.2576
42.2925 15.2289
42.3403 15.1729
42.3882 15.1751
42.436 15.0808
42.4839 14.97
42.5319 14.9572
42.5797 14.8918
42.6277 14.8464
42.6755 14.8059
42.7235 14.7547
42.7713 14.6989
42.8193 14.6445
42.8671 14.6075
42.9152 14.596
42.963 14.4857
43.0111 14.4641
43.0589 14.3926
43.107 14.3496
43.1549 14.2709
43.2029 14.2585
43.2508 14.2719
43.2989 14.1467
43.3468 14.0983
43.3949 14.045
43.4429 13.9978
43.491 13.9422
43.5389 13.9253
43.5871 13.8861
43.635 13.7981
43.6832 13.8135
43.7312 13.6841
43.7793 13.6574
43.8273 13.6492
43.8755 13.596
43.9237 13.5151
43.9717 13.502
44.0199 13.4304
44.068 13.3607
44.1162 13.3545
44.1642 13.3122
44.2125 13.2433
44.2606 13.1885
44.3088 13.1543
44.3569 13.1018
44.4052 13.0901
44.4533 13.0022
44.5016 12.9517
44.5497 12.9357
44.598 12.9192
44.6461 12.8111
44.6945 12.769
44.7426 12.7656
44.791 12.717
44.8391 12.6577
44.8875 12.6284
44.9357 12.5774
44.984 12.5048
45.0322 12.4684
45.0806 12.4474
45.1288 12.4128
45.1773 12.3782
45.2257 12.3021
45.2739 12.2659
45.3224 12.1928
45.3706 12.2048
45.4191 12.0492
45.4673 12.1047
45.5158 12.0699
45.5641 12.0439
45.6126 11.9462
45.6609 11.9256
45.7094 11.848
45.7577 11.8168
45.8063 11.8085
45.8546 11.7885
45.9031 11.6625
45.9515 11.6731
46.0001 11.6293
46.0484 11.6265
46.097 11.5774
46.1454 11.5207
46.194 11.5001
46.2424 11.3896
46.291 11.353
46.3395 11.331
46.3881 11.297
46.4365 11.265
46.4852 11.2419
46.5337 11.1819
46.5823 11.1475
46.631 11.0908
46.6795 11.0413
46.7282 11.017
46.7767 10.9629
46.8254 10.9278
46.8739 10.8968
46.9226 10.8487
46.9712 10.8236
47.0199 10.7881
47.0685 10.7878
47.1173 10.6683
47.1658 10.6567
47.2146 10.6103
47.2632 10.5898
47.312 10.547
47.3606 10.4811
47.4095 10.4585
47.4581 10.406
47.5069 10.3687
47.5556 10.3318
47.6044 10.3329
47.6531 10.2598
47.702 10.2149
47.7507 10.2131
47.7996 10.1572
47.8483 10.1305
47.8972 10.1045
47.9461 10.0742
47.9948 10.0159
48.0438 9.92915
48.0925 9.9435
48.1415 9.88349
48.1902 9.8064
48.2392 9.83577
48.288 9.81386
48.337 9.73923
48.3858 9.71201
48.4348 9.69957
48.4837 9.65891
48.5327 9.56113
48.5815 9.56276
48.6306 9.56899
48.6795 9.51139
48.7285 9.4404
48.7774 9.42458
48.8265 9.40584
48.8754 9.34629
48.9245 9.34145
48.9734 9.29918
49.0226 9.28055
49.0715 9.24405
49.1206 9.20979
49.1696 9.13849
49.2188 9.13382
49.2679 9.09101
49.3169 9.05574
49.3661 9.01147
49.4151 8.9782
49.4643 8.94706
49.5134 8.92168
49.5626 8.82866
49.6117 8.84948
49.6609 8.80958
49.71 8.77113
49.7592 8.73705
49.8083 8.72832
49.8576 8.66991
49.9067 8.62331
49.956 8.60414
50.0052 8.57616
50.0545 8.55831
50.1036 8.49057
50.153 8.47398
50.2022 8.45109
50.2515 8.3968
50.3007 8.37491
50.3501 8.35791
50.3993 8.31978
50.4487 8.28437
50.498 8.24542
50.5474 8.23314
50.5966 8.17688
50.6461 8.17243
50.6955 8.14619
50.7448 8.12084
50.7943 8.08553
50.8436 8.0249
50.8931 7.96463
50.9424 7.96187
50.9919 7.92478
51.0413 7.88621
51.0908 7.86137
51.1402 7.80997
51.1897 7.82925
51.2391 7.75806
51.2887 7.70638
51.3381 7.73064
51.3877 7.68437
51.4371 7.62973
51.4867 7.64316
51.5362 7.61264
51.5858 7.55133
51.6353 7.50904
51.6849 7.51335
51.7344 7.44895
51.7841 7.48315
51.8336 7.40887
51.8833 7.38256
51.9328 7.36225
51.9826 7.26173
52.0323 7.29035
52.0818 7.24748
52.1316 7.24617
52.1812 7.21097
52.231 7.15856
52.2806 7.12479
52.3304 7.07342
52.38 7.09453
52.4298 7.04653
52.4794 7.0547
52.5293 6.95547
52.5789 6.96457
52.6288 6.91982
52.6785 6.90082
52.7284 6.87704
52.7781 6.82272
52.828 6.8393
52.8777 6.76816
52.9276 6.74986
52.9774 6.71754
53.0273 6.70251
53.0771 6.70858
53.1271 6.61768
53.1769 6.62631
53.2269 6.63627
53.2767 6.57696
53.3267 6.53098
53.3765 6.55511
53.4266 6.50194
53.4766 6.44437
53.5265 6.43883
53.5765 6.38129
53.6264 6.38531
53.6765 6.36566
53.7264 6.29378
53.7765 6.31748
53.8265 6.22464
53.8766 6.24095
53.9266 6.21191
53.9767 6.15229
54.0267 6.15689
54.0769 6.14207
54.1269 6.08221
54.1771 6.04516
54.2271 6.0923
54.2773 5.98326
54.3274 5.95243
54.3776 5.9601
54.4277 5.93622
54.478 5.85456
54.528 5.82923
54.5783 5.79009
54.6285 5.74584
54.6788 5.71629
54.7289 5.68587
54.7792 5.62862
54.8296 5.62866
54.8798 5.50755
54.9301 5.5133
54.9803 5.49884
55.0307 5.48758
55.0809 5.39727
55.1314 5.36001
55.1816 5.31539
55.232 5.30093
55.2823 5.21527
55.3328 5.17078
55.383 5.16419
55.4335 5.07944
55.4838 5.06161
55.5344 4.95318
55.5847 4.93324
55.6352 4.9592
55.6856 4.91255
55.7361 4.82659