File: XRD/Ni3Fe_FD0204.xy
TT I
1.27165 7.82845
1.31627 7.38124
1.36089 7.01611
1.40551 7.4681
1.45013 6.4772
1.49476 6.19195
1.53938 6.68683
1.584 6.16826
1.62863 6.54776
1.67325 5.58328
1.71787 6.00758
1.7625 5.43248
1.80712 5.46938
1.85174 5.23717
1.89636 4.92488
1.94099 5.56432
1.98562 5.22613
2.03025 5.02294
2.07487 4.56074
2.11949 5.07604
2.16411 4.74219
2.20874 5.03426
2.25338 4.1388
2.298 4.3655
2.34263 4.4224
2.38725 5.02122
2.43188 4.67379
2.4765 4.57395
2.52115 4.69032
2.56577 4.78422
2.6104 5.84163
2.65503 5.42497
2.69965 6.20785
2.7443 5.66878
2.78893 6.56039
2.83356 7.70251
2.87818 8.1441
2.92281 8.29801
2.96744 9.01408
3.01209 9.95567
3.05672 10.9687
3.10135 11.879
3.14599 12.8923
3.19062 13.7703
3.23527 15.2413
3.2799 15.6154
3.32454 16.8919
3.36917 17.4155
3.4138 19.152
3.45844 19.7359
3.50309 21.0247
3.54773 21.2637
3.59237 22.9373
3.637 23.3306
3.68164 24.1603
3.7263 25.4257
3.77094 26.0449
3.81558 26.823
3.86022 27.925
3.90486 29.2327
3.9495 30.4262
3.99416 31.0265
4.0388 32.6662
4.08344 33.6189
4.12809 34.9993
4.17273 36.5981
4.21738 38.3029
4.26204 39.1095
4.30669 40.5932
4.35133 42.859
4.39598 44.6702
4.44063 46.678
4.4853 49.0182
4.52995 51.6623
4.5746 53.4281
4.61925 56.055
4.6639 58.3046
4.70855 61.7537
4.75322 64.6768
4.79788 67.844
4.84253 71.8119
4.88719 76.7695
4.93184 81.5394
4.97652 89.1078
5.02118 97.3163
5.06583 108.703
5.11049 125.377
5.15515 170.606
5.19981 887.908
5.24449 3943.48
5.28916 10201.7
5.33382 4505.6
5.37848 294.539
5.42315 156.697
5.46783 129.941
5.5125 118.791
5.55716 113.671
5.60183 107.915
5.6465 105.326
5.69117 104.021
5.73586 101.85
5.78053 101.722
5.8252 102.202
5.86988 104.467
5.91455 111.687
5.95924 134.883
6.00392 441.954
6.0486 1436.06
6.09328 3488.15
6.13795 3743.94
6.18263 410.234
6.22733 112.55
6.27201 90.1469
6.3167 81.7717
6.36138 76.8865
6.40606 73.1031
6.45075 70.7747
6.49545 68.8136
6.54014 66.7665
6.58483 65.2897
6.62952 64.3843
6.67421 62.8972
6.71892 62.0969
6.76361 60.8241
6.8083 60.0949
6.853 59.1669
6.89769 58.5804
6.94239 58.308
6.98711 57.5445
7.03181 57.5221
7.07651 56.8395
7.12121 56.5132
7.16591 56.068
7.21063 55.7753
7.25533 56.0455
7.30004 55.7341
7.34475 56.2054
7.38945 56.2124
7.43416 55.9186
7.47889 55.775
7.5236 57.3191
7.56831 59.5106
7.61303 57.7075
7.65774 57.3652
7.70247 58.1299
7.74719 58.3139
7.79191 59.4199
7.83663 59.2004
7.88135 60.7661
7.92607 61.5431
7.97081 62.8369
8.01553 64.0325
8.06026 65.3363
8.10498 67.2366
8.14971 68.9011
8.19446 70.8646
8.23919 73.5437
8.28392 76.552
8.32865 79.3417
8.37339 85.1243
8.41812 90.9062
8.46288 109.548
8.50761 286.636
8.55235 602.167
8.59709 1031.41
8.64183 1913.83
8.68658 1297.58
8.73134 245.085
8.77609 113.104
8.82083 100.992
8.86558 96.6187
8.91033 93.3631
8.9551 90.9849
8.99985 89.9443
9.04461 89.031
9.08936 87.9078
9.13412 87.2511
9.17888 86.9069
9.22365 89.016
9.26841 90.5906
9.31318 89.1249
9.35794 88.2186
9.4027 88.4138
9.44749 89.5879
9.49226 90.2229
9.53703 91.0844
9.5818 92.8861
9.62657 93.9169
9.67134 95.5482
9.71614 98.0695
9.76091 100.612
9.80569 103.543
9.85047 106.768
9.89525 113.209
9.94005 134.057
9.98484 302.03
10.0296 530.355
10.0744 780.74
10.1192 1407.71
10.164 1740.11
10.2088 620.319
10.2536 155.462
10.2984 119.008
10.3432 113.891
10.388 114.374
10.4328 158.735
10.4776 215.587
10.5224 277.015
10.5672 427.783
10.612 539.006
10.6568 271.514
10.7017 110.955
10.7465 93.6162
10.7913 88.7978
10.8361 86.006
10.8809 83.5556
10.9257 81.0334
10.9706 79.9711
11.0154 77.9026
11.0602 76.3619
11.105 75.0566
11.1499 73.5901
11.1947 72.4607
11.2395 71.5755
11.2844 70.9252
11.3292 69.9381
11.374 69.3125
11.4189 68.8083
11.4637 67.8265
11.5086 67.3046
11.5534 66.9169
11.5983 66.5422
11.6431 66.8522
11.688 66.0835
11.7328 65.7803
11.7777 65.5411
11.8225 65.2023
11.8674 65.7437
11.9122 66.3893
11.9571 67.3358
12.002 69.2318
12.0468 79.9581
12.0917 95.9348
12.1366 108.266
12.1814 136.802
12.2263 186.846
12.2712 187.479
12.3161 107.335
12.3609 70.9702
12.4058 67.7603
12.4507 67.6407
12.4956 67.451
12.5405 67.5529
12.5853 68.1202
12.6302 68.4587
12.6751 69.062
12.72 69.8816
12.7649 70.9417
12.8098 71.7506
12.8547 73.5651
12.8996 75.0254
12.9445 76.6417
12.9894 78.9885
13.0343 80.7391
13.0792 86.4066
13.1242 109.523
13.1691 150.552
13.214 176.02
13.2589 224.733
13.3038 310.142
13.3487 414.48
13.3937 321.513
13.4386 156.827
13.4835 135.052
13.5285 156.836
13.5734 173.835
13.6183 219.989
13.6633 301.162
13.7082 364.171
13.7531 241.464
13.7981 115.701
13.843 87.9547
13.888 84.5374
13.9329 82.0459
13.9779 80.3148
14.0228 78.5983
14.0678 77.4586
14.1127 76.8283
14.1577 76.2261
14.2027 75.5042
14.2476 74.3993
14.2926 73.8742
14.3376 73.3518
14.3825 72.9511
14.4275 72.74
14.4725 72.8202
14.5175 72.6849
14.5624 72.9398
14.6074 73.2398
14.6524 73.5535
14.6974 74.7354
14.7424 80.5266
14.7874 96.1813
14.8324 108.337
14.8774 118.88
14.9224 142.284
14.9674 181.298
15.0124 219.327
15.0574 177.662
15.1024 105.617
15.1474 77.9256
15.1924 74.2305
15.2374 72.933
15.2824 71.9096
15.3274 71.0353
15.3725 70.3624
15.4175 70.0677
15.4625 69.6422
15.5076 69.4288
15.5526 69.8605
15.5976 70.1707
15.6426 74.1395
15.6877 86.979
15.7327 96.7684
15.7778 103.592
15.8228 120.378
15.8679 149.414
15.9129 185.698
15.958 178.198
16.003 117.836
16.0481 75.0087
16.0931 66.2124
16.1382 64.3063
16.1833 63.4689
16.2283 61.8798
16.2734 61.2991
16.3185 60.6333
16.3636 59.7928
16.4086 59.1385
16.4537 58.6902
16.4988 58.1117
16.5439 58.3006
16.589 58.0152
16.6341 57.59
16.6792 57.3208
16.7243 57.5134
16.7694 57.5536
16.8145 57.3533
16.8596 57.688
16.9047 57.838
16.9498 57.9817
16.9949 58.01
17.04 59.3046
17.0851 62.1069
17.1302 64.2058
17.1754 65.8305
17.2205 68.9133
17.2656 73.1258
17.3108 81.0286
17.3559 85.2317
17.401 79.0381
17.4462 68.1386
17.4913 62.9954
17.5365 62.2892
17.5815 62.5423
17.6268 62.9024
17.6718 63.3211
17.7171 63.8736
17.7622 65.0224
17.8074 66.3113
17.8525 72.2189
17.8977 79.1887
17.9428 83.6997
17.9881 88.2046
18.0331 98.1148
18.0784 112.542
18.1237 136.382
18.1688 146.005
18.214 122.434
18.2591 94.8932
18.3044 89.922
18.3495 95.7971
18.3948 105.738
18.4399 103.123
18.4852 85.476
18.5303 71.1051
18.5756 66.0295
18.6207 64.8464
18.666 63.7806
18.7112 63.0267
18.7565 62.1096
18.8016 61.9306
18.8469 61.1006
18.892 60.8227
18.9374 60.4343
18.9825 60.0192
19.0278 59.9112
19.073 60.3387
19.1183 61.7278
19.1635 62.5813
19.2088 62.9718
19.254 64.5545
19.2993 67.4756
19.3447 71.0172
19.3898 75.837
19.4352 76.7339
19.4804 69.7694
19.5257 61.4256
19.5709 57.6006
19.6163 57.0144
19.6615 56.7529
19.7068 56.3279
19.752 56.0929
19.7974 57.2079
19.8426 58.5367
19.888 59.1909
19.9332 59.8522
19.9786 61.4876
20.0238 63.8675
20.0692 67.9712
20.1144 72.4678
20.1598 73.7854
20.205 68.9122
20.2504 64.7339
20.2957 64.3009
20.3411 66.7194
20.3863 67.759
20.4318 63.3081
20.477 57.4701
20.5224 53.9593
20.5677 53.2655
20.6131 52.7719
20.6586 52.1909
20.7038 52.1592
20.7493 51.6632
20.7945 51.5754
20.84 51.5321
20.8853 51.2322
20.9307 51.2828
20.976 51.643
21.0215 51.4439
21.0668 51.7212
21.1122 52.0034
21.1575 52.367
21.203 52.5948
21.2483 53.3262
21.2938 54.2986
21.3391 53.1225
21.3846 52.1426
21.4299 51.2834
21.4754 51.0834
21.5207 51.3514
21.5662 51.8749
21.6116 53.0113
21.6571 53.9831
21.7024 54.5645
21.7479 55.7373
21.7933 57.3662
21.8388 60.1698
21.8843 63.3103
21.9297 66.6391
21.9752 67.3262
22.0206 63.7466
22.0661 59.166
22.1115 57.9045
22.157 58.2341
22.2024 57.8566
22.248 55.0245
22.2933 52.9027
22.3389 51.6536
22.3843 51.1659
22.4299 51.1006
22.4753 51.1154
22.5208 50.9794
22.5662 50.8903
22.6118 51.5462
22.6572 52.116
22.7028 52.7163
22.7483 53.1458
22.7939 53.3908
22.8393 54.1344
22.8849 55.5455
22.9303 57.0169
22.9759 59.0509
23.0214 60.0849
23.067 58.7045
23.1126 55.0932
23.1581 52.2636
23.2037 51.6119
23.2492 52.0194
23.2948 52.3402
23.3403 52.5244
23.3859 52.8756
23.4314 53.357
23.477 54.2685
23.5225 55.5035
23.5682 57.5177
23.6137 59.6282
23.6593 59.215
23.7048 55.7712
23.7505 51.727
23.796 49.4401
23.8417 48.5983
23.8872 47.9513
23.9329 47.5509
23.9784 47.2893
24.0241 46.8571
24.0697 46.6234
24.1154 46.2625
24.1609 46.1723
24.2066 45.9513
24.2522 45.901
24.2979 45.7856
24.3434 45.5548
24.3892 45.4782
24.4349 45.2301
24.4805 44.9493
24.5262 45.2077
24.5718 45.045
24.6175 44.9924
24.6631 45.0525
24.7089 44.7561
24.7545 44.5329
24.8002 44.4519
24.8458 44.5489
24.8916 44.3478
24.9372 44.409
24.983 44.7644
25.0286 45.0956
25.0744 45.2839
25.12 45.7085
25.1658 46.297
25.2114 46.6235
25.2572 46.6141
25.3029 46.5581
25.3487 46.6777
25.3943 46.8981
25.4402 46.1895
25.4858 45.0213
25.5316 43.8977
25.5773 43.0772
25.6231 43.0252
25.669 42.651
25.7147 42.7603
25.7605 42.523
25.8062 42.692
25.8521 42.7796
25.8977 42.4793
25.9436 42.8319
25.9893 42.8128
26.0352 43.1605
26.0809 43.3165
26.1268 43.6603
26.1725 43.6177
26.2184 43.1171
26.2641 42.6211
26.31 42.4283
26.3557 42.2682
26.4017 42.3451
26.4474 42.6261
26.4933 42.5301
26.5391 43.0447
26.585 43.3374
26.6308 43.7358
26.6767 43.9334
26.7225 44.0229
26.7684 43.5705
26.8142 43.0266
26.8601 42.4866
26.9059 42.1299
26.9519 41.8183
26.9979 41.3512
27.0437 40.8921
27.0896 40.6746
27.1354 40.875
27.1814 40.6044
27.2272 40.6052
27.2732 40.4576
27.3191 40.2173
27.3651 40.3755
27.4109 40.2965
27.4569 40.3422
27.5027 40.393
27.5488 40.4792
27.5946 40.533
27.6407 40.3515
27.6865 40.2481
27.7326 40.0316
27.7784 39.8255
27.8245 39.84
27.8703 39.8311
27.9164 40.23
27.9623 39.9751
28.0084 40.2803
28.0543 40.6476
28.1003 40.7797
28.1462 40.6928
28.1923 40.3064
28.2384 39.9723
28.2843 39.5342
28.3304 39.129
28.3764 38.6513
28.4225 38.2623
28.4684 38.0916
28.5145 37.7499
28.5605 37.5692
28.6066 37.5245
28.6526 37.4497
28.6987 37.2767
28.7447 37.2434
28.7908 37.0892
28.8368 37.0954
28.8829 37.0742
28.9289 37.0476
28.9751 36.9726
29.0211 36.8094
29.0673 36.6218
29.1133 36.2742
29.1595 36.0844
29.2055 35.9797
29.2517 35.9249
29.2977 35.8295
29.3439 35.9062
29.3899 35.8085
29.4361 35.8386
29.4824 35.6482
29.5284 35.43
29.5746 35.0593
29.6207 34.853
29.6669 34.846
29.713 34.671
29.7593 34.5182
29.8053 34.4696
29.8516 34.3982
29.8977 34.4693
29.9439 34.2068
29.99 34.1747
30.0363 34.0838
30.0824 34.1227
30.1287 33.8805
30.1748 34.0031
30.2211 34.0247
30.2673 33.8079
30.3136 34.0538
30.3597 33.9404
30.406 33.7965
30.4522 33.7187
30.4985 33.6743
30.5447 33.633
30.591 33.7222
30.6372 33.6964
30.6835 33.645
30.7297 33.7503
30.7761 33.784
30.8224 33.579
30.8686 33.5966
30.915 33.1343
30.9612 33.0846
31.0076 32.861
31.0538 32.7604
31.1002 32.7269
31.1464 32.4477
31.1928 32.4855
31.2391 32.5878
31.2855 32.4946
31.3317 32.3115
31.3781 32.4113
31.4244 32.2684
31.4708 32.255
31.5171 32.3579
31.5636 32.3055
31.6098 32.0873
31.6563 31.9583
31.7026 31.8074
31.7491 31.7197
31.7953 31.6228
31.8418 31.6305
31.8881 31.5577
31.9346 31.5533
31.9809 31.4573
32.0275 31.4037
32.074 31.3098
32.1203 31.1434
32.1668 31.0139
32.2132 30.8152
32.2597 30.6956
32.306 30.6295
32.3526 30.4036
32.399 30.3715
32.4455 30.1922
32.4919 30.1488
32.5385 30.0815
32.5848 29.8282
32.6314 29.9015
32.6778 29.9311
32.7244 29.6861
32.7708 29.5026
32.8174 29.6049
32.8638 29.4095
32.9104 29.4422
32.9569 29.4767
33.0035 29.1962
33.0499 29.1937
33.0966 29.2013
33.143 29.0766
33.1897 29.0458
33.2361 28.9595
33.2828 28.9847
33.3293 28.7878
33.3759 28.8244
33.4226 28.6068
33.4691 28.5309
33.5158 28.3665
33.5623 28.1997
33.609 28.1411
33.6555 27.9972
33.7022 27.897
33.7487 27.8054
33.7954 27.8272
33.842 27.6257
33.8887 27.6106
33.9353 27.6023
33.982 27.3745
34.0286 27.3604
34.0753 27.2795
34.1219 27.1858
34.1687 27.0867
34.2152 27.0392
34.262 26.8531
34.3086 26.787
34.3554 26.8374
34.402 26.6309
34.4488 26.5417
34.4954 26.5155
34.5422 26.3617
34.5889 26.3345
34.6357 26.2178
34.6825 26.0996
34.7292 26.031
34.776 25.9043
34.8227 25.8732
34.8695 25.7979
34.9162 25.7706
34.9631 25.6921
35.0098 25.7255
35.0566 25.5478
35.1033 25.4926
35.1502 25.4683
35.1969 25.3726
35.2438 25.3418
35.2906 25.2596
35.3375 25.1752
35.3842 25.0979
35.4311 25.1134
35.4779 25.1153
35.5248 25.0219
35.5716 24.9316
35.6185 24.9165
35.6653 24.7202
35.7123 24.6948
35.759 24.6331
35.806 24.5063
35.8528 24.3369
35.8998 24.2693
35.9468 24.2323
35.9936 24.1687
36.0406 24.1708
36.0874 24.061
36.1345 23.9391
36.1813 23.9483
36.2283 23.8117
36.2752 23.7758
36.3222 23.759
36.3691 23.7443
36.4161 23.5553
36.463 23.4782
36.5101 23.5091
36.557 23.4633
36.6041 23.242
36.651 23.1983
36.6981 23.2101
36.745 23.1499
36.7921 23.0609
36.839 22.9335
36.8861 22.9411
36.9331 22.8212
36.9802 22.8006
37.0272 22.6652
37.0743 22.5582
37.1213 22.5241
37.1684 22.3819
37.2154 22.3596
37.2626 22.2904
37.3098 22.3174
37.3568 22.2047
37.404 22.1858
37.451 21.9956
37.4982 21.9399
37.5452 21.876
37.5924 21.8045
37.6395 21.8287
37.6867 21.7368
37.7337 21.6757
37.781 21.5615
37.8281 21.5123
37.8753 21.4124
37.9224 21.334
37.9697 21.2633
38.0168 21.2263
38.064 21.1529
38.1111 21.1116
38.1584 20.9967
38.2056 20.9604
38.2529 20.8608
38.3 20.8256
38.3473 20.7562
38.3945 20.6795
38.4418 20.5634
38.489 20.4826
38.5363 20.4591
38.5837 20.3651
38.6309 20.324
38.6782 20.2582
38.7254 20.1775
38.7728 20.1723
38.82 20.0875
38.8674 20.1096
38.9146 19.9607
38.9621 19.8519
39.0093 19.8426
39.0567 19.7479
39.104 19.714
39.1514 19.6153
39.1987 19.5634
39.2461 19.5763
39.2934 19.488
39.3409 19.3925
39.3882 19.2389
39.4356 19.2959
39.483 19.245
39.5304 19.1394
39.5778 19.164
39.6253 19.013
39.6726 18.9275
39.7201 18.9457
39.7675 18.8737
39.815 18.7369
39.8624 18.7448
39.9099 18.7405
39.9575 18.6446
40.0049 18.5774
40.0525 18.4479
40.0999 18.3616
40.1474 18.4495
40.1949 18.3692
40.2425 18.3049
40.2899 18.2214
40.3375 18.1279
40.385 18.0589
40.4326 18.0388
40.48 17.9445
40.5277 17.9511
40.5752 17.8316
40.6228 17.7576
40.6703 17.8186
40.718 17.6365
40.7655 17.6369
40.8132 17.4974
40.8607 17.6073
40.9084 17.5217
40.9559 17.366
41.0036 17.4274
41.0512 17.2916
41.0989 17.2457
41.1465 17.206
41.1942 17.1918
41.242 17.0925
41.2896 17.0215
41.3373 16.9611
41.3849 16.839
41.4327 16.7835
41.4803 16.745
41.5281 16.7409
41.5758 16.6255
41.6236 16.5912
41.6712 16.5398
41.7191 16.4194
41.7667 16.4014
41.8146 16.4267
41.8622 16.3297
41.9101 16.3223
41.9578 16.153
42.0057 16.1644
42.0534 16.1177
42.1013 16.0381
42.149 15.9865
42.1969 15.9133
42.2446 15.8864
42.2925 15.8294
42.3403 15.8133
42.3882 15.7701
42.436 15.7195
42.4839 15.6435
42.5319 15.5764
42.5797 15.4982
42.6277 15.5131
42.6755 15.4359
42.7235 15.3425
42.7713 15.3175
42.8193 15.2663
42.8671 15.1399
42.9152 15.1846
42.963 15.1043
43.0111 15.0445
43.0589 15.0395
43.107 14.9586
43.1549 14.9319
43.2029 14.8447
43.2508 14.8434
43.2989 14.6915
43.3468 14.6971
43.3949 14.6262
43.4429 14.6042
43.491 14.544
43.5389 14.5143
43.5871 14.4481
43.635 14.3644
43.6832 14.3496
43.7312 14.2705
43.7793 14.2505
43.8273 14.2126
43.8755 14.1346
43.9237 14.106
43.9717 14.0551
44.0199 14.0184
44.068 14.0002
44.1162 13.9296
44.1642 13.8754
44.2125 13.7964
44.2606 13.8179
44.3088 13.7193
44.3569 13.6852
44.4052 13.5851
44.4533 13.5821
44.5016 13.5077
44.5497 13.4957
44.598 13.422
44.6461 13.3675
44.6945 13.3508
44.7426 13.2451
44.791 13.2232
44.8391 13.1866
44.8875 13.161
44.9357 13.0882
44.984 13.0379
45.0322 12.9445
45.0806 12.9563
45.1288 12.9331
45.1773 12.8355
45.2257 12.8372
45.2739 12.7732
45.3224 12.7208
45.3706 12.7051
45.4191 12.6578
45.4673 12.5962
45.5158 12.5881
45.5641 12.485
45.6126 12.4341
45.6609 12.4096
45.7094 12.3557
45.7577 12.3942
45.8063 12.2384
45.8546 12.2337
45.9031 12.2108
45.9515 12.1576
46.0001 12.0741
46.0484 12.0684
46.097 12.0868
46.1454 11.9705
46.194 11.9266
46.2424 11.8856
46.291 11.8443
46.3395 11.8061
46.3881 11.7259
46.4365 11.7159
46.4852 11.7066
46.5337 11.6474
46.5823 11.5671
46.631 11.555
46.6795 11.5245
46.7282 11.4747
46.7767 11.4572
46.8254 11.338
46.8739 11.3593
46.9226 11.2735
46.9712 11.2876
47.0199 11.1861
47.0685 11.1734
47.1173 11.1165
47.1658 11.0695
47.2146 11.059
47.2632 10.983
47.312 10.9817
47.3606 10.9254
47.4095 10.9009
47.4581 10.821
47.5069 10.8063
47.5556 10.742
47.6044 10.7388
47.6531 10.6757
47.702 10.6723
47.7507 10.6396
47.7996 10.5693
47.8483 10.5218
47.8972 10.5005
47.9461 10.4387
47.9948 10.3771
48.0438 10.3922
48.0925 10.3213
48.1415 10.3511
48.1902 10.2511
48.2392 10.2384
48.288 10.2243
48.337 10.1346
48.3858 10.0935
48.4348 10.0576
48.4837 10.0349
48.5327 10.0448
48.5815 9.98061
48.6306 9.94385
48.6795 9.90438
48.7285 9.85704
48.7774 9.84807
48.8265 9.80975
48.8754 9.73779
48.9245 9.69449
48.9734 9.67144
49.0226 9.60911
49.0715 9.63208
49.1206 9.56312
49.1696 9.54232
49.2188 9.45605
49.2679 9.44514
49.3169 9.44644
49.3661 9.36802
49.4151 9.35328
49.4643 9.37262
49.5134 9.23971
49.5626 9.2513
49.6117 9.25469
49.6609 9.18207
49.71 9.17619
49.7592 9.11644
49.8083 9.05314
49.8576 9.05354
49.9067 8.96193
49.956 8.95341
50.0052 8.95466
50.0545 8.90647
50.1036 8.86021
50.153 8.81284
50.2022 8.80816
50.2515 8.75415
50.3007 8.73167
50.3501 8.70027
50.3993 8.65592
50.4487 8.6411
50.498 8.59272
50.5474 8.53293
50.5966 8.50682
50.6461 8.49843
50.6955 8.49411
50.7448 8.43752
50.7943 8.41706
50.8436 8.38574
50.8931 8.34468
50.9424 8.30637
50.9919 8.26125
51.0413 8.24451
51.0908 8.20131
51.1402 8.16521
51.1897 8.16736
51.2391 8.0901
51.2887 8.04628
51.3381 8.05507
51.3877 8.01133
51.4371 7.96744
51.4867 7.91695
51.5362 7.9162
51.5858 7.89111
51.6353 7.7989
51.6849 7.77808
51.7344 7.75556
51.7841 7.77706
51.8336 7.72315
51.8833 7.69175
51.9328 7.64334
51.9826 7.60004
52.0323 7.57759
52.0818 7.53625
52.1316 7.50495
52.1812 7.47911
52.231 7.45403
52.2806 7.40671
52.3304 7.39885
52.38 7.36343
52.4298 7.31043
52.4794 7.25514
52.5293 7.27134
52.5789 7.19875
52.6288 7.22904
52.6785 7.16549
52.7284 7.12907
52.7781 7.12568
52.828 7.08624
52.8777 7.03638
52.9276 7.03291
52.9774 7.02608
53.0273 6.93899
53.0771 6.93592
53.1271 6.9271
53.1769 6.8643
53.2269 6.86281
53.2767 6.81889
53.3267 6.76824
53.3765 6.76172
53.4266 6.70057
53.4766 6.70343
53.5265 6.69646
53.5765 6.66393
53.6264 6.61549
53.6765 6.6199
53.7264 6.55023
53.7765 6.53534
53.8265 6.51535
53.8766 6.50956
53.9266 6.48738
53.9767 6.40032
54.0267 6.41819
54.0769 6.33827
54.1269 6.31015
54.1771 6.26979
54.2271 6.21479
54.2773 6.18602
54.3274 6.23281
54.3776 6.15876
54.4277 6.12695
54.478 6.06757
54.528 6.09033
54.5783 5.97642
54.6285 5.9297
54.6788 5.85976
54.7289 5.84239
54.7792 5.8413
54.8296 5.71664
54.8798 5.74072
54.9301 5.73779
54.9803 5.64631
55.0307 5.57098
55.0809 5.57334
55.1314 5.56866
55.1816 5.45116
55.232 5.43341
55.2823 5.36848
55.3328 5.30508
55.383 5.22822
55.4335 5.19775
55.4838 5.18518
55.5344 5.18211
55.5847 5.05943
55.6352 5.03638
55.6856 4.98618
55.7361 4.99462