File: XRD/Ni3Fe_FD1072.xy
TT I
1.27165 6.81884
1.31627 6.5624
1.36089 6.58583
1.40551 5.6652
1.45013 5.88278
1.49476 6.17369
1.53938 5.66313
1.584 4.89434
1.62863 4.4295
1.67325 4.17511
1.71787 4.37712
1.7625 4.48757
1.80712 4.1028
1.85174 4.31747
1.89636 4.23306
1.94099 4.49167
1.98562 4.04452
2.03025 3.83934
2.07487 4.10132
2.11949 4.56191
2.16411 4.36862
2.20874 4.75241
2.25338 5.8386
2.298 5.49186
2.34263 5.60769
2.38725 5.51774
2.43188 6.33192
2.4765 6.98071
2.52115 7.40271
2.56577 7.92387
2.6104 8.87524
2.65503 8.09817
2.69965 8.5133
2.7443 8.61608
2.78893 8.72044
2.83356 8.81922
2.87818 9.28752
2.92281 8.90569
2.96744 10.291
3.01209 10.5417
3.05672 11.4955
3.10135 11.4509
3.14599 12.7278
3.19062 14.552
3.23527 14.8418
3.2799 14.9792
3.32454 16.2026
3.36917 16.9087
3.4138 17.9416
3.45844 18.482
3.50309 20.0466
3.54773 20.0706
3.59237 21.1731
3.637 27.5706
3.68164 26.5687
3.7263 23.937
3.77094 24.6693
3.81558 25.2207
3.86022 26.0432
3.90486 27.3074
3.9495 28.5055
3.99416 28.9747
4.0388 30.6448
4.08344 31.6032
4.12809 32.6683
4.17273 33.682
4.21738 35.5636
4.26204 51.6268
4.30669 56.4289
4.35133 40.1866
4.39598 41.3744
4.44063 43.2598
4.4853 46.8296
4.52995 46.686
4.5746 48.4075
4.61925 50.6693
4.6639 52.918
4.70855 55.6544
4.75322 58.1755
4.79788 61.1583
4.84253 64.4119
4.88719 68.4853
4.93184 71.6684
4.97652 77.1077
5.02118 83.179
5.06583 89.5583
5.11049 98.2561
5.15515 118.671
5.19981 233.039
5.24449 2525.62
5.28916 13676.8
5.33382 3312.28
5.37848 205.565
5.42315 123.397
5.46783 108.609
5.5125 101.06
5.55716 97.6332
5.60183 93.282
5.6465 91.5782
5.69117 90.1911
5.73586 87.9763
5.78053 87.4582
5.8252 86.4785
5.86988 87.3586
5.91455 89.5568
5.95924 95.528
6.00392 165.959
6.0486 896.067
6.09328 4509.32
6.13795 3630.78
6.18263 236.791
6.22733 87.4047
6.27201 75.8778
6.3167 73.0026
6.36138 68.6812
6.40606 65.1261
6.45075 63.5554
6.49545 62.1591
6.54014 60.1751
6.58483 58.8547
6.62952 58.3111
6.67421 58.8401
6.71892 64.4042
6.76361 56.7842
6.8083 54.811
6.853 53.7156
6.89769 53.6033
6.94239 53.4012
6.98711 52.4938
7.03181 52.3062
7.07651 52.7008
7.12121 51.8117
7.16591 51.555
7.21063 51.8034
7.25533 51.8204
7.30004 61.8542
7.34475 55.9555
7.38945 51.8495
7.43416 51.052
7.47889 51.389
7.5236 58.2358
7.56831 71.5784
7.61303 56.3852
7.65774 52.5403
7.70247 53.1786
7.74719 53.218
7.79191 53.7986
7.83663 53.9416
7.88135 54.7707
7.92607 55.7427
7.97081 56.6361
8.01553 57.765
8.06026 59.0739
8.10498 60.3902
8.14971 62.6409
8.19446 64.5125
8.23919 66.0642
8.28392 68.2031
8.32865 70.7056
8.37339 74.6229
8.41812 78.1171
8.46288 86.5996
8.50761 129.849
8.55235 380.836
8.59709 1115.34
8.64183 2285.24
8.68658 1088.39
8.73134 170.599
8.77609 94.7927
8.82083 88.5692
8.86558 85.7294
8.91033 83.7605
8.9551 82.3514
8.99985 81.3473
9.04461 80.5859
9.08936 79.7401
9.13412 79.2878
9.17888 79.4562
9.22365 90.7361
9.26841 111.046
9.31318 88.5224
9.35794 80.2308
9.4027 79.9555
9.44749 80.845
9.49226 81.3109
9.53703 82.2264
9.5818 83.7151
9.62657 84.7779
9.67134 86.6397
9.71614 87.9339
9.76091 89.7828
9.80569 92.0796
9.85047 94.49
9.89525 99.2322
9.94005 106.566
9.98484 148.532
10.0296 351.339
10.0744 781.887
10.1192 1779.9
10.164 1699.66
10.2088 441.885
10.2536 124.585
10.2984 103.38
10.3432 101.001
10.388 97.9238
10.4328 108.518
10.4776 162.924
10.5224 274.476
10.5672 513.247
10.612 569.228
10.6568 229.313
10.7017 102.498
10.7465 86.3451
10.7913 80.2231
10.8361 78.0603
10.8809 75.8194
10.9257 73.984
10.9706 72.598
11.0154 70.9128
11.0602 69.7703
11.105 68.3982
11.1499 67.3869
11.1947 67.2738
11.2395 65.8901
11.2844 65.1117
11.3292 63.939
11.374 63.0176
11.4189 62.3205
11.4637 61.9962
11.5086 61.6617
11.5534 61.2927
11.5983 60.9163
11.6431 60.7625
11.688 60.5404
11.7328 60.3191
11.7777 59.8186
11.8225 59.8474
11.8674 59.8706
11.9122 61.9608
11.9571 67.8633
12.002 66.158
12.0468 64.4126
12.0917 77.0
12.1366 99.4144
12.1814 147.703
12.2263 204.085
12.2712 174.836
12.3161 96.5313
12.3609 64.7835
12.4058 61.2617
12.4507 61.2269
12.4956 61.4851
12.5405 61.406
12.5853 62.081
12.6302 62.6222
12.6751 64.2837
12.72 64.1691
12.7649 64.6724
12.8098 65.5374
12.8547 66.7546
12.8996 68.2296
12.9445 69.5686
12.9894 71.1097
13.0343 72.773
13.0792 76.8293
13.1242 82.5815
13.1691 108.92
13.214 149.535
13.2589 231.416
13.3038 370.292
13.3487 451.313
13.3937 276.71
13.4386 125.601
13.4835 99.2437
13.5285 120.536
13.5734 157.731
13.6183 237.718
13.6633 357.052
13.7082 361.012
13.7531 203.624
13.7981 99.998
13.843 79.5438
13.888 77.1167
13.9329 74.6991
13.9779 73.6023
14.0228 72.3715
14.0678 71.0529
14.1127 71.8046
14.1577 75.1415
14.2027 73.3165
14.2476 68.8967
14.2926 67.697
14.3376 67.3441
14.3825 66.8591
14.4275 66.4828
14.4725 66.3982
14.5175 66.692
14.5624 66.308
14.6074 66.8424
14.6524 67.3536
14.6974 67.7975
14.7424 68.7564
14.7874 74.5762
14.8324 89.3828
14.8774 110.629
14.9224 149.553
14.9674 209.383
15.0124 227.156
15.0574 157.784
15.1024 93.6308
15.1474 71.0256
15.1924 67.6701
15.2374 66.4919
15.2824 65.9416
15.3274 64.9979
15.3725 64.5424
15.4175 64.4631
15.4625 63.9514
15.5076 63.6551
15.5526 63.4489
15.5976 63.5102
15.6426 64.0431
15.6877 68.8077
15.7327 79.8036
15.7778 95.3572
15.8228 123.586
15.8679 169.873
15.9129 202.485
15.958 167.926
16.003 104.181
16.0481 69.3701
16.0931 62.7275
16.1382 59.6818
16.1833 58.4679
16.2283 56.9956
16.2734 56.2656
16.3185 55.9175
16.3636 55.1596
16.4086 54.693
16.4537 54.1317
16.4988 53.4448
16.5439 53.4961
16.589 53.3625
16.6341 53.1533
16.6792 52.7453
16.7243 52.7878
16.7694 52.8425
16.8145 52.8207
16.8596 52.9185
16.9047 53.6196
16.9498 54.2886
16.9949 53.939
17.04 53.9351
17.0851 54.9414
17.1302 57.3154
17.1754 60.5129
17.2205 65.0133
17.2656 72.4894
17.3108 81.9401
17.3559 82.7341
17.401 72.0097
17.4462 61.4579
17.4913 57.7015
17.5365 57.3123
17.5815 57.2694
17.6268 57.7947
17.6718 58.2638
17.7171 58.9606
17.7622 60.0575
17.8074 60.8164
17.8525 61.832
17.8977 66.8259
17.9428 73.6104
17.9881 82.4848
18.0331 97.8319
18.0784 121.21
18.1237 142.464
18.1688 137.308
18.214 108.582
18.2591 88.269
18.3044 88.758
18.3495 99.4205
18.3948 107.606
18.4399 98.1933
18.4852 78.651
18.5303 65.4759
18.5756 61.3706
18.6207 60.1736
18.666 58.7991
18.7112 58.036
18.7565 57.4209
18.8016 57.1492
18.8469 56.5081
18.892 56.2654
18.9374 55.6481
18.9825 55.4091
19.0278 55.2476
19.073 55.2796
19.1183 55.4536
19.1635 56.4626
19.2088 57.9332
19.254 60.7774
19.2993 65.7071
19.3447 72.0895
19.3898 76.3292
19.4352 71.8867
19.4804 63.3081
19.5257 56.096
19.5709 53.0964
19.6163 52.4597
19.6615 52.315
19.7068 52.0394
19.752 52.0096
19.7974 51.9789
19.8426 52.7841
19.888 53.74
19.9332 55.3739
19.9786 57.5962
20.0238 61.1729
20.0692 66.4794
20.1144 70.5525
20.1598 69.2767
20.205 64.1294
20.2504 61.9905
20.2957 63.4948
20.3411 65.5002
20.3863 63.8552
20.4318 58.1085
20.477 52.848
20.5224 49.9227
20.5677 49.4706
20.6131 48.825
20.6586 48.3712
20.7038 48.2864
20.7493 48.1322
20.7945 48.1862
20.84 47.8654
20.8853 47.5467
20.9307 47.3124
20.976 47.4696
21.0215 47.3938
21.0668 47.8874
21.1122 48.1443
21.1575 48.9131
21.203 49.6813
21.2483 50.4753
21.2938 50.748
21.3391 49.3567
21.3846 48.0464
21.4299 47.3368
21.4754 47.3326
21.5207 47.65
21.5662 47.6439
21.6116 47.9758
21.6571 48.9741
21.7024 50.1645
21.7479 52.1097
21.7933 54.3921
21.8388 58.0975
21.8843 62.9601
21.9297 65.2385
21.9752 63.9702
22.0206 59.8831
22.0661 56.4712
22.1115 55.9791
22.157 56.0979
22.2024 54.2998
22.248 51.1444
22.2933 49.1417
22.3389 48.0227
22.3843 47.8772
22.4299 47.5827
22.4753 47.6839
22.5208 47.5064
22.5662 47.5517
22.6118 47.7383
22.6572 47.7481
22.7028 48.3264
22.7483 49.1428
22.7939 49.8342
22.8393 51.1982
22.8849 53.4495
22.9303 55.8972
22.9759 57.6856
23.0214 57.4478
23.067 54.7151
23.1126 51.0021
23.1581 48.645
23.2037 47.905
23.2492 47.696
23.2948 47.9159
23.3403 48.3888
23.3859 49.3922
23.4314 50.3705
23.477 52.1269
23.5225 54.4222
23.5682 57.3057
23.6137 58.4734
23.6593 56.307
23.7048 51.9324
23.7505 48.3032
23.796 46.0624
23.8417 45.1921
23.8872 44.8739
23.9329 44.3756
23.9784 44.1769
24.0241 43.6444
24.0697 43.4932
24.1154 43.127
24.1609 43.0142
24.2066 42.8962
24.2522 42.7356
24.2979 42.5456
24.3434 42.461
24.3892 42.1863
24.4349 42.1876
24.4805 42.0623
24.5262 42.2641
24.5718 42.0343
24.6175 42.2974
24.6631 42.0644
24.7089 41.7042
24.7545 41.4649
24.8002 41.2192
24.8458 41.3827
24.8916 41.305
24.9372 41.4432
24.983 41.7154
25.0286 42.0352
25.0744 42.598
25.12 43.2131
25.1658 43.9374
25.2114 44.2907
25.2572 44.3245
25.3029 44.5718
25.3487 44.6683
25.3943 44.5539
25.4402 43.224
25.4858 42.0748
25.5316 40.9649
25.5773 40.1647
25.6231 40.1911
25.669 39.7895
25.7147 39.7177
25.7605 39.7972
25.8062 39.8382
25.8521 39.8419
25.8977 39.7824
25.9436 40.1424
25.9893 40.1965
26.0352 40.8671
26.0809 41.1231
26.1268 41.3346
26.1725 40.8927
26.2184 40.3909
26.2641 39.7101
26.31 39.3692
26.3557 39.5561
26.4017 39.5783
26.4474 39.8796
26.4933 40.1056
26.5391 40.7165
26.585 41.2658
26.6308 41.923
26.6767 42.0204
26.7225 42.0386
26.7684 41.2641
26.8142 40.5529
26.8601 40.1414
26.9059 39.7579
26.9519 39.0801
26.9979 38.7412
27.0437 38.4348
27.0896 38.1651
27.1354 38.1595
27.1814 38.0271
27.2272 37.9157
27.2732 37.9933
27.3191 37.67
27.3651 37.813
27.4109 37.7231
27.4569 38.0112
27.5027 38.1058
27.5488 38.0662
27.5946 38.095
27.6407 37.7979
27.6865 37.5474
27.7326 37.3747
27.7784 37.3862
27.8245 37.3149
27.8703 37.5153
27.9164 37.7298
27.9623 38.1593
28.0084 38.4879
28.0543 38.8396
28.1003 38.9011
28.1462 38.6307
28.1923 38.3242
28.2384 37.8505
28.2843 37.298
28.3304 36.9511
28.3764 36.3769
28.4225 35.9468
28.4684 35.7942
28.5145 35.5125
28.5605 35.3071
28.6066 35.1775
28.6526 35.119
28.6987 34.8929
28.7447 34.9244
28.7908 34.8381
28.8368 34.8843
28.8829 34.8818
28.9289 34.8321
28.9751 34.6736
29.0211 34.5534
29.0673 34.1974
29.1133 34.059
29.1595 33.7753
29.2055 33.7759
29.2517 33.7893
29.2977 33.7901
29.3439 33.7778
29.3899 33.7674
29.4361 33.7139
29.4824 33.532
29.5284 33.2473
29.5746 32.9132
29.6207 32.6145
29.6669 32.5657
29.713 32.415
29.7593 32.2581
29.8053 32.4341
29.8516 32.1587
29.8977 32.2297
29.9439 32.015
29.99 32.0356
30.0363 31.891
30.0824 32.0109
30.1287 31.9615
30.1748 31.948
30.2211 31.973
30.2673 31.6974
30.3136 31.8766
30.3597 31.8461
30.406 31.7544
30.4522 31.5629
30.4985 31.5867
30.5447 31.7818
30.591 31.707
30.6372 31.7405
30.6835 31.8272
30.7297 31.9258
30.7761 31.8752
30.8224 31.6472
30.8686 31.4961
30.915 31.1795
30.9612 31.2471
31.0076 30.9411
31.0538 30.8031
31.1002 30.7128
31.1464 30.6051
31.1928 30.4122
31.2391 30.5517
31.2855 30.3321
31.3317 30.506
31.3781 30.4847
31.4244 30.4261
31.4708 30.462
31.5171 30.4734
31.5636 30.5189
31.6098 30.1444
31.6563 30.0106
31.7026 29.9116
31.7491 29.713
31.7953 29.7946
31.8418 29.8542
31.8881 29.8701
31.9346 29.6923
31.9809 29.6905
32.0275 29.6788
32.074 29.5633
32.1203 29.3857
32.1668 29.1391
32.2132 28.9689
32.2597 28.9339
32.306 28.8038
32.3526 28.5706
32.399 28.5531
32.4455 28.4165
32.4919 28.3368
32.5385 28.2451
32.5848 28.0619
32.6314 28.0818
32.6778 28.0239
32.7244 27.9336
32.7708 27.7536
32.8174 27.7979
32.8638 27.6445
32.9104 27.6731
32.9569 27.5748
33.0035 27.5626
33.0499 27.4294
33.0966 27.4038
33.143 27.3785
33.1897 27.3817
33.2361 27.2926
33.2828 27.2865
33.3293 27.1139
33.3759 27.0225
33.4226 26.9017
33.4691 26.7833
33.5158 26.6678
33.5623 26.502
33.609 26.4153
33.6555 26.286
33.7022 26.2067
33.7487 26.1775
33.7954 26.0868
33.842 25.9782
33.8887 25.9351
33.9353 25.9078
33.982 25.7471
34.0286 25.7279
34.0753 25.6585
34.1219 25.5904
34.1687 25.5028
34.2152 25.4618
34.262 25.3183
34.3086 25.2507
34.3554 25.2281
34.402 24.9951
34.4488 24.9427
34.4954 24.9164
34.5422 24.7983
34.5889 24.7328
34.6357 24.6967
34.6825 24.5783
34.7292 24.4859
34.776 24.4087
34.8227 24.3572
34.8695 24.2709
34.9162 24.2452
34.9631 24.1663
35.0098 24.1109
35.0566 23.9976
35.1033 23.9435
35.1502 23.902
35.1969 23.8376
35.2438 23.8259
35.2906 23.8577
35.3375 23.8122
35.3842 23.7385
35.4311 23.6829
35.4779 23.64
35.5248 23.6147
35.5716 23.5407
35.6185 23.3427
35.6653 23.2395
35.7123 23.1903
35.759 23.114
35.806 23.0315
35.8528 22.9137
35.8998 22.9229
35.9468 22.7449
35.9936 22.8738
36.0406 22.5765
36.0874 22.7417
36.1345 22.6915
36.1813 22.5734
36.2283 22.354
36.2752 22.3914
36.3222 22.4249
36.3691 22.2474
36.4161 22.1516
36.463 22.1455
36.5101 22.1355
36.557 22.0957
36.6041 21.9223
36.651 21.8793
36.6981 21.7539
36.745 21.7906
36.7921 21.6752
36.839 21.5867
36.8861 21.4399
36.9331 21.3961
36.9802 21.3892
37.0272 21.2764
37.0743 21.1918
37.1213 21.1467
37.1684 21.143
37.2154 21.0376
37.2626 21.011
37.3098 20.9221
37.3568 20.8008
37.404 20.82
37.451 20.6534
37.4982 20.754
37.5452 20.6104
37.5924 20.505
37.6395 20.5207
37.6867 20.4022
37.7337 20.3203
37.781 20.2286
37.8281 20.249
37.8753 20.0885
37.9224 19.9752
37.9697 20.0527
38.0168 19.9276
38.064 19.8851
38.1111 19.7893
38.1584 19.6626
38.2056 19.7028
38.2529 19.6437
38.3 19.5697
38.3473 19.5261
38.3945 19.3497
38.4418 19.4586
38.489 19.3679
38.5363 19.2484
38.5837 19.2351
38.6309 19.1488
38.6782 19.0436
38.7254 18.9797
38.7728 18.9117
38.82 18.8808
38.8674 18.8842
38.9146 18.8276
38.9621 18.739
39.0093 18.6897
39.0567 18.592
39.104 18.5282
39.1514 18.4543
39.1987 18.4912
39.2461 18.3207
39.2934 18.2791
39.3409 18.2435
39.3882 18.1545
39.4356 18.0932
39.483 18.0442
39.5304 17.9557
39.5778 18.0026
39.6253 17.9026
39.6726 17.7866
39.7201 17.8476
39.7675 17.7567
39.815 17.7222
39.8624 17.6555
39.9099 17.5508
39.9575 17.4553
40.0049 17.4424
40.0525 17.3443
40.0999 17.3195
40.1474 17.311
40.1949 17.2503
40.2425 17.1281
40.2899 17.1243
40.3375 17.058
40.385 16.9667
40.4326 16.9816
40.48 16.8234
40.5277 16.8815
40.5752 16.8059
40.6228 16.7154
40.6703 16.6994
40.718 16.6627
40.7655 16.6248
40.8132 16.54
40.8607 16.5194
40.9084 16.4616
40.9559 16.3896
41.0036 16.3472
41.0512 16.2903
41.0989 16.2623
41.1465 16.149
41.1942 16.1174
41.242 16.0492
41.2896 16.0656
41.3373 15.9017
41.3849 16.0007
41.4327 15.918
41.4803 15.7985
41.5281 15.75
41.5758 15.6525
41.6236 15.5524
41.6712 15.6286
41.7191 15.4805
41.7667 15.4892
41.8146 15.4768
41.8622 15.3354
41.9101 15.3738
41.9578 15.2125
42.0057 15.204
42.0534 15.1803
42.1013 15.1061
42.149 15.0544
42.1969 14.9995
42.2446 14.9486
42.2925 14.9171
42.3403 14.9095
42.3882 14.8486
42.436 14.7664
42.4839 14.723
42.5319 14.6494
42.5797 14.6196
42.6277 14.5517
42.6755 14.5159
42.7235 14.4415
42.7713 14.382
42.8193 14.3672
42.8671 14.3306
42.9152 14.2826
42.963 14.2159
43.0111 14.1783
43.0589 14.0972
43.107 14.0645
43.1549 14.0757
43.2029 13.9927
43.2508 13.9295
43.2989 13.8704
43.3468 13.7915
43.3949 13.7865
43.4429 13.7483
43.491 13.6883
43.5389 13.6324
43.5871 13.6199
43.635 13.5391
43.6832 13.4732
43.7312 13.4356
43.7793 13.3896
43.8273 13.3586
43.8755 13.3395
43.9237 13.2732
43.9717 13.2209
44.0199 13.2216
44.068 13.1678
44.1162 13.0702
44.1642 13.0804
44.2125 13.0077
44.2606 12.996
44.3088 12.8834
44.3569 12.8581
44.4052 12.8402
44.4533 12.7435
44.5016 12.7248
44.5497 12.7004
44.598 12.6552
44.6461 12.5221
44.6945 12.5652
44.7426 12.5119
44.791 12.4496
44.8391 12.4179
44.8875 12.372
44.9357 12.3753
44.984 12.3142
45.0322 12.2728
45.0806 12.1621
45.1288 12.1023
45.1773 12.1023
45.2257 12.0137
45.2739 12.0452
45.3224 11.9968
45.3706 12.0134
45.4191 11.9063
45.4673 11.8813
45.5158 11.8354
45.5641 11.7481
45.6126 11.7566
45.6609 11.6978
45.7094 11.6264
45.7577 11.6241
45.8063 11.553
45.8546 11.5543
45.9031 11.4649
45.9515 11.4691
46.0001 11.3871
46.0484 11.3988
46.097 11.3182
46.1454 11.3
46.194 11.2415
46.2424 11.1781
46.291 11.1341
46.3395 11.147
46.3881 11.0711
46.4365 11.0365
46.4852 10.998
46.5337 10.9361
46.5823 10.9391
46.631 10.856
46.6795 10.8385
46.7282 10.8254
46.7767 10.799
46.8254 10.6783
46.8739 10.6785
46.9226 10.6262
46.9712 10.5973
47.0199 10.5588
47.0685 10.5118
47.1173 10.4641
47.1658 10.4349
47.2146 10.4584
47.2632 10.358
47.312 10.3075
47.3606 10.2777
47.4095 10.2551
47.4581 10.2386
47.5069 10.1712
47.5556 10.14
47.6044 10.0775
47.6531 10.0648
47.702 9.99147
47.7507 9.96368
47.7996 9.97036
47.8483 9.94948
47.8972 9.87857
47.9461 9.83611
47.9948 9.78288
48.0438 9.75203
48.0925 9.7347
48.1415 9.70398
48.1902 9.64832
48.2392 9.6457
48.288 9.61809
48.337 9.55208
48.3858 9.52866
48.4348 9.47556
48.4837 9.48329
48.5327 9.46204
48.5815 9.41072
48.6306 9.36817
48.6795 9.32744
48.7285 9.27046
48.7774 9.2805
48.8265 9.22337
48.8754 9.15236
48.9245 9.13254
48.9734 9.09742
49.0226 9.10827
49.0715 9.06228
49.1206 9.03028
49.1696 8.96057
49.2188 8.97091
49.2679 8.8702
49.3169 8.85392
49.3661 8.83449
49.4151 8.81756
49.4643 8.78395
49.5134 8.7535
49.5626 8.68318
49.6117 8.67155
49.6609 8.6091
49.71 8.57742
49.7592 8.60445
49.8083 8.51102
49.8576 8.50618
49.9067 8.43204
49.956 8.47458
50.0052 8.4124
50.0545 8.39457
50.1036 8.36966
50.153 8.28899
50.2022 8.29721
50.2515 8.27767
50.3007 8.20717
50.3501 8.19551
50.3993 8.11571
50.4487 8.1436
50.498 8.1014
50.5474 8.03278
50.5966 8.01984
50.6461 7.99996
50.6955 7.98329
50.7448 7.92685
50.7943 7.87929
50.8436 7.8791
50.8931 7.87928
50.9424 7.80815
50.9919 7.76531
51.0413 7.75437
51.0908 7.74767
51.1402 7.7099
51.1897 7.63719
51.2391 7.59691
51.2887 7.61256
51.3381 7.54777
51.3877 7.5802
51.4371 7.50006
51.4867 7.46465
51.5362 7.47226
51.5858 7.39785
51.6353 7.40068
51.6849 7.37953
51.7344 7.31028
51.7841 7.31534
51.8336 7.22434
51.8833 7.25364
51.9328 7.17266
51.9826 7.13722
52.0323 7.14117
52.0818 7.10484
52.1316 7.05953
52.1812 7.08151
52.231 7.00604
52.2806 7.00928
52.3304 6.96173
52.38 6.94611
52.4298 6.91666
52.4794 6.8821
52.5293 6.82247
52.5789 6.80531
52.6288 6.79544
52.6785 6.7585
52.7284 6.76379
52.7781 6.7183
52.828 6.64055
52.8777 6.65335
52.9276 6.64113
52.9774 6.60382
53.0273 6.60898
53.0771 6.5384
53.1271 6.52212
53.1769 6.50498
53.2269 6.45083
53.2767 6.46455
53.3267 6.42086
53.3765 6.41169
53.4266 6.40349
53.4766 6.30636
53.5265 6.28671
53.5765 6.3083
53.6264 6.21704
53.6765 6.202
53.7264 6.12489
53.7765 6.14378
53.8265 6.12865
53.8766 6.1008
53.9266 6.09589
53.9767 6.05056
54.0267 6.04071
54.0769 5.98013
54.1269 5.99752
54.1771 5.9249
54.2271 5.90051
54.2773 5.8529
54.3274 5.86995
54.3776 5.82281
54.4277 5.7622
54.478 5.72565
54.528 5.7729
54.5783 5.66771
54.6285 5.64387
54.6788 5.63765
54.7289 5.54099
54.7792 5.54335
54.8296 5.46385
54.8798 5.43038
54.9301 5.39012
54.9803 5.40468
55.0307 5.40901
55.0809 5.25603
55.1314 5.27189
55.1816 5.21961
55.232 5.14303
55.2823 5.13412
55.3328 5.11333
55.383 5.03976
55.4335 5.00243
55.4838 4.94535
55.5344 4.88579
55.5847 4.85038
55.6352 4.8388
55.6856 4.8536
55.7361 4.75251