File: XRD/Ni3Fe_FD0440.xy
TT I
1.27165 7.35923
1.31627 6.81702
1.36089 6.93867
1.40551 6.13163
1.45013 6.59384
1.49476 6.27335
1.53938 5.91152
1.584 5.4358
1.62863 5.75
1.67325 5.24636
1.71787 5.18089
1.7625 5.03967
1.80712 5.02358
1.85174 4.84007
1.89636 4.81175
1.94099 4.98357
1.98562 4.51833
2.03025 5.0206
2.07487 5.12463
2.11949 4.58251
2.16411 4.83058
2.20874 12.0549
2.25338 19.2596
2.298 5.9106
2.34263 4.83413
2.38725 5.61585
2.43188 5.91333
2.4765 6.03623
2.52115 5.95087
2.56577 6.87347
2.6104 7.69041
2.65503 7.77098
2.69965 7.84442
2.7443 8.24516
2.78893 8.3851
2.83356 8.07629
2.87818 8.51413
2.92281 8.99875
2.96744 9.67263
3.01209 10.3422
3.05672 11.0409
3.10135 12.0658
3.14599 13.4012
3.19062 14.353
3.23527 15.1731
3.2799 15.7075
3.32454 16.9718
3.36917 17.457
3.4138 18.9
3.45844 19.6499
3.50309 20.9686
3.54773 22.2925
3.59237 24.3653
3.637 78.1064
3.68164 51.1586
3.7263 26.2972
3.77094 26.106
3.81558 26.6155
3.86022 27.6794
3.90486 28.8044
3.9495 30.4788
3.99416 31.1285
4.0388 32.5223
4.08344 34.0395
4.12809 35.419
4.17273 37.0307
4.21738 42.6363
4.26204 204.021
4.30669 174.268
4.35133 47.6609
4.39598 44.8485
4.44063 52.5105
4.4853 61.6817
4.52995 51.0765
4.5746 51.9143
4.61925 53.8098
4.6639 56.229
4.70855 58.8777
4.75322 62.4908
4.79788 64.7107
4.84253 68.6094
4.88719 72.7653
4.93184 77.0526
4.97652 82.4804
5.02118 89.4263
5.06583 97.9307
5.11049 111.054
5.15515 177.167
5.19981 466.2
5.24449 3304.61
5.28916 11857.5
5.33382 3106.08
5.37848 205.893
5.42315 134.22
5.46783 116.488
5.5125 108.152
5.55716 104.119
5.60183 100.202
5.6465 98.4741
5.69117 96.0069
5.73586 94.5094
5.78053 94.1896
5.8252 93.8441
5.86988 95.1172
5.91455 98.3704
5.95924 109.982
6.00392 259.453
6.0486 1140.2
6.09328 4236.89
6.13795 3464.56
6.18263 281.403
6.22733 97.2684
6.27201 84.3492
6.3167 97.5763
6.36138 79.4333
6.40606 70.2578
6.45075 68.4734
6.49545 66.4745
6.54014 64.5064
6.58483 63.47
6.62952 63.3971
6.67421 87.339
6.71892 125.118
6.76361 67.032
6.8083 59.1874
6.853 57.8913
6.89769 57.6016
6.94239 57.3084
6.98711 56.2218
7.03181 55.921
7.07651 55.8491
7.12121 55.8189
7.16591 55.9448
7.21063 56.1958
7.25533 67.6771
7.30004 149.541
7.34475 84.1056
7.38945 56.6903
7.43416 55.2706
7.47889 54.8743
7.5236 55.3983
7.56831 56.0811
7.61303 57.1407
7.65774 57.7027
7.70247 56.9694
7.74719 56.8427
7.79191 57.5684
7.83663 57.6204
7.88135 58.7007
7.92607 59.6977
7.97081 60.7697
8.01553 61.5911
8.06026 63.601
8.10498 65.0968
8.14971 72.7602
8.19446 72.4888
8.23919 70.9418
8.28392 73.3389
8.32865 75.6035
8.37339 80.0136
8.41812 86.6991
8.46288 113.293
8.50761 192.535
8.55235 447.423
8.59709 1219.17
8.64183 2112.91
8.68658 1020.27
8.73134 173.162
8.77609 102.233
8.82083 94.4786
8.86558 91.2392
8.91033 90.7554
8.9551 91.6238
8.99985 86.6703
9.04461 84.8113
9.08936 84.2747
9.13412 83.1684
9.17888 83.2651
9.22365 83.8084
9.26841 83.2334
9.31318 84.0777
9.35794 84.4062
9.4027 84.4572
9.44749 85.2453
9.49226 85.7782
9.53703 87.1004
9.5818 88.8549
9.62657 92.5093
9.67134 98.01
9.71614 95.0847
9.76091 95.5427
9.80569 98.1044
9.85047 101.973
9.89525 121.892
9.94005 136.918
9.98484 203.992
10.0296 393.022
10.0744 856.87
10.1192 1703.37
10.164 1632.51
10.2088 430.965
10.2536 132.007
10.2984 114.466
10.3432 114.87
10.388 106.842
10.4328 127.144
10.4776 174.868
10.5224 292.19
10.5672 499.127
10.612 502.356
10.6568 207.287
10.7017 98.2411
10.7465 88.0408
10.7913 84.9006
10.8361 82.1762
10.8809 80.1886
10.9257 79.1481
10.9706 79.2617
11.0154 75.606
11.0602 73.792
11.105 72.7833
11.1499 75.7307
11.1947 81.2324
11.2395 74.091
11.2844 70.731
11.3292 68.1666
11.374 67.2961
11.4189 66.5823
11.4637 65.6727
11.5086 66.285
11.5534 68.1458
11.5983 65.9183
11.6431 64.5317
11.688 63.9175
11.7328 63.8136
11.7777 63.7775
11.8225 63.4068
11.8674 63.2101
11.9122 63.8267
11.9571 63.9862
12.002 64.9344
12.0468 70.5536
12.0917 82.7931
12.1366 107.839
12.1814 153.327
12.2263 204.172
12.2712 171.632
12.3161 96.1426
12.3609 70.5123
12.4058 65.5159
12.4507 65.1308
12.4956 65.3833
12.5405 65.1831
12.5853 66.2762
12.6302 72.5916
12.6751 77.1615
12.72 70.1775
12.7649 68.8347
12.8098 69.3561
12.8547 70.6505
12.8996 72.418
12.9445 73.6666
12.9894 75.0131
13.0343 77.3316
13.0792 80.8661
13.1242 93.2598
13.1691 120.139
13.214 159.292
13.2589 244.354
13.3038 359.979
13.3487 423.954
13.3937 269.698
13.4386 127.525
13.4835 111.577
13.5285 128.631
13.5734 166.874
13.6183 248.525
13.6633 339.902
13.7082 348.688
13.7531 193.857
13.7981 98.6338
13.843 82.8323
13.888 80.9457
13.9329 78.3153
13.9779 76.8035
14.0228 75.661
14.0678 74.1629
14.1127 73.5247
14.1577 73.333
14.2027 72.4352
14.2476 71.5723
14.2926 71.4887
14.3376 72.1669
14.3825 71.228
14.4275 70.0977
14.4725 69.8981
14.5175 69.7824
14.5624 70.1738
14.6074 71.9404
14.6524 72.761
14.6974 71.7065
14.7424 74.3026
14.7874 82.3358
14.8324 93.7022
14.8774 115.927
14.9224 155.179
14.9674 201.92
15.0124 218.408
15.0574 152.914
15.1024 92.2064
15.1474 73.512
15.1924 71.6402
15.2374 71.9479
15.2824 71.0718
15.3274 68.8782
15.3725 68.1527
15.4175 67.5732
15.4625 67.0146
15.5076 67.2023
15.5526 67.1002
15.5976 66.9381
15.6426 68.7026
15.6877 75.369
15.7327 83.7954
15.7778 99.6138
15.8228 128.575
15.8679 166.906
15.9129 191.944
15.958 158.975
16.003 97.5458
16.0481 68.9791
16.0931 65.2589
16.1382 63.3895
16.1833 61.4586
16.2283 59.8417
16.2734 59.3117
16.3185 59.3983
16.3636 59.7796
16.4086 58.4645
16.4537 56.917
16.4988 56.377
16.5439 56.2507
16.589 55.9876
16.6341 55.8754
16.6792 55.5196
16.7243 55.6577
16.7694 55.7435
16.8145 55.675
16.8596 56.0791
16.9047 57.5226
16.9498 57.5472
16.9949 56.5546
17.04 56.8389
17.0851 58.4015
17.1302 60.1409
17.1754 63.2029
17.2205 68.083
17.2656 74.8669
17.3108 82.2308
17.3559 82.5675
17.401 72.3598
17.4462 62.905
17.4913 60.1812
17.5365 60.1194
17.5815 60.3067
17.6268 60.5393
17.6718 61.4178
17.7171 61.9533
17.7622 62.5756
17.8074 63.3875
17.8525 66.1643
17.8977 70.789
17.9428 76.5471
17.9881 85.4257
18.0331 101.626
18.0784 120.921
18.1237 139.635
18.1688 133.891
18.214 107.126
18.2591 88.6531
18.3044 91.3492
18.3495 100.182
18.3948 106.98
18.4399 97.7821
18.4852 78.652
18.5303 66.8793
18.5756 63.2826
18.6207 62.1619
18.666 61.4449
18.7112 60.5687
18.7565 59.8704
18.8016 59.3973
18.8469 58.9356
18.892 58.6452
18.9374 58.1627
18.9825 57.9255
19.0278 57.7941
19.073 58.0122
19.1183 58.4686
19.1635 59.3148
19.2088 60.7527
19.254 63.5023
19.2993 67.5142
19.3447 72.9675
19.3898 77.0032
19.4352 73.924
19.4804 64.2576
19.5257 57.6141
19.5709 55.093
19.6163 54.7489
19.6615 54.651
19.7068 54.2713
19.752 54.2968
19.7974 54.4941
19.8426 55.489
19.888 56.109
19.9332 57.4827
19.9786 59.9421
20.0238 63.4339
20.0692 67.8054
20.1144 70.7767
20.1598 69.4384
20.205 64.6748
20.2504 62.9855
20.2957 64.455
20.3411 66.5459
20.3863 64.9519
20.4318 59.5526
20.477 54.5866
20.5224 52.4603
20.5677 51.701
20.6131 51.0745
20.6586 50.4759
20.7038 50.2603
20.7493 49.8678
20.7945 49.7644
20.84 49.6594
20.8853 49.3893
20.9307 49.3636
20.976 49.6039
21.0215 49.4753
21.0668 49.9655
21.1122 50.4225
21.1575 50.8287
21.203 51.765
21.2483 52.2015
21.2938 52.2595
21.3391 50.9632
21.3846 49.9416
21.4299 49.3308
21.4754 49.2113
21.5207 49.2702
21.5662 49.5671
21.6116 50.4488
21.6571 51.0708
21.7024 52.0499
21.7479 53.9049
21.7933 56.4293
21.8388 59.8591
21.8843 63.3597
21.9297 65.4142
21.9752 64.4192
22.0206 60.6606
22.0661 57.2721
22.1115 56.5356
22.157 56.8035
22.2024 55.4347
22.248 52.4212
22.2933 50.809
22.3389 49.9846
22.3843 49.7653
22.4299 49.7183
22.4753 49.6137
22.5208 49.4962
22.5662 49.3083
22.6118 49.7709
22.6572 49.8479
22.7028 50.2628
22.7483 50.7243
22.7939 51.3962
22.8393 52.9231
22.8849 54.9794
22.9303 56.676
22.9759 58.381
23.0214 58.3053
23.067 55.3213
23.1126 52.019
23.1581 50.138
23.2037 49.5282
23.2492 49.7818
23.2948 49.9229
23.3403 50.0182
23.3859 50.7234
23.4314 51.9477
23.477 53.5057
23.5225 55.4643
23.5682 57.5971
23.6137 58.6293
23.6593 56.7755
23.7048 52.8225
23.7505 49.0035
23.796 47.5069
23.8417 46.7946
23.8872 46.397
23.9329 45.8763
23.9784 45.6771
24.0241 45.4122
24.0697 45.197
24.1154 44.801
24.1609 44.6874
24.2066 44.5143
24.2522 44.3647
24.2979 44.0678
24.3434 43.9828
24.3892 43.8528
24.4349 43.9092
24.4805 43.5912
24.5262 43.8283
24.5718 43.6701
24.6175 43.4852
24.6631 43.5269
24.7089 43.2247
24.7545 43.1888
24.8002 43.0217
24.8458 42.9711
24.8916 42.7106
24.9372 42.9405
24.983 43.3656
25.0286 43.6104
25.0744 44.1465
25.12 44.44
25.1658 45.1155
25.2114 45.495
25.2572 45.5471
25.3029 45.4553
25.3487 45.5039
25.3943 45.2637
25.4402 44.1526
25.4858 43.1264
25.5316 42.0741
25.5773 41.6836
25.6231 41.6046
25.669 41.3132
25.7147 41.2558
25.7605 41.102
25.8062 41.2579
25.8521 41.3749
25.8977 41.3882
25.9436 41.5214
25.9893 41.6773
26.0352 42.0832
26.0809 42.1835
26.1268 42.3394
26.1725 42.0205
26.2184 41.5776
26.2641 40.9839
26.31 40.7771
26.3557 40.7675
26.4017 40.8634
26.4474 41.1524
26.4933 41.5916
26.5391 41.9291
26.585 42.2825
26.6308 42.6758
26.6767 42.8313
26.7225 42.8383
26.7684 42.0484
26.8142 41.5966
26.8601 41.2475
26.9059 40.7932
26.9519 40.1559
26.9979 39.7704
27.0437 39.5887
27.0896 39.3538
27.1354 39.2351
27.1814 39.3307
27.2272 39.2287
27.2732 39.1981
27.3191 39.0988
27.3651 39.0183
27.4109 39.1196
27.4569 39.1253
27.5027 39.1327
27.5488 39.2907
27.5946 39.1178
27.6407 38.9782
27.6865 38.7399
27.7326 38.5206
27.7784 38.5464
27.8245 38.5168
27.8703 38.8536
27.9164 38.9302
27.9623 38.9622
28.0084 39.4472
28.0543 39.7605
28.1003 39.6679
28.1462 39.5405
28.1923 39.1519
28.2384 38.5627
28.2843 38.3284
28.3304 37.8115
28.3764 37.3003
28.4225 36.9727
28.4684 36.8714
28.5145 36.5498
28.5605 36.4654
28.6066 36.243
28.6526 36.2244
28.6987 36.2717
28.7447 36.0854
28.7908 36.0799
28.8368 35.9284
28.8829 35.9958
28.9289 35.9213
28.9751 35.7705
29.0211 35.6095
29.0673 35.3104
29.1133 35.2294
29.1595 35.0005
29.2055 34.9171
29.2517 34.908
29.2977 34.9209
29.3439 34.8211
29.3899 34.7422
29.4361 34.8688
29.4824 34.5563
29.5284 34.2558
29.5746 33.946
29.6207 33.7278
29.6669 33.6296
29.713 33.5315
29.7593 33.4251
29.8053 33.4498
29.8516 33.2481
29.8977 33.3426
29.9439 33.2672
29.99 33.1684
30.0363 32.9973
30.0824 33.0788
30.1287 33.102
30.1748 32.9021
30.2211 32.8731
30.2673 32.8271
30.3136 32.9188
30.3597 32.7789
30.406 32.7748
30.4522 32.6983
30.4985 32.5057
30.5447 32.7201
30.591 32.5879
30.6372 32.7901
30.6835 32.6088
30.7297 32.7491
30.7761 32.6459
30.8224 32.4635
30.8686 32.4219
30.915 32.1826
30.9612 32.014
31.0076 31.8755
31.0538 31.6628
31.1002 31.7071
31.1464 31.4929
31.1928 31.4511
31.2391 31.5418
31.2855 31.4964
31.3317 31.3381
31.3781 31.3942
31.4244 31.4062
31.4708 31.4148
31.5171 31.3372
31.5636 31.2864
31.6098 30.9315
31.6563 30.8237
31.7026 30.8217
31.7491 30.6425
31.7953 30.6321
31.8418 30.6521
31.8881 30.6848
31.9346 30.5943
31.9809 30.5847
32.0275 30.3903
32.074 30.349
32.1203 30.1908
32.1668 30.0074
32.2132 29.8131
32.2597 29.7096
32.306 29.6761
32.3526 29.4004
32.399 29.358
32.4455 29.1951
32.4919 29.2298
32.5385 29.0228
32.5848 28.8784
32.6314 28.9467
32.6778 28.8774
32.7244 28.6815
32.7708 28.6238
32.8174 28.6427
32.8638 28.4517
32.9104 28.523
32.9569 28.5479
33.0035 28.3163
33.0499 28.2366
33.0966 28.3215
33.143 28.2425
33.1897 28.08
33.2361 28.0946
33.2828 28.0764
33.3293 27.7738
33.3759 27.8085
33.4226 27.6553
33.4691 27.4781
33.5158 27.5332
33.5623 27.3126
33.609 27.1252
33.6555 27.1644
33.7022 27.003
33.7487 26.9936
33.7954 26.9812
33.842 26.776
33.8887 26.7714
33.9353 26.6711
33.982 26.5171
34.0286 26.4789
34.0753 26.3385
34.1219 26.2916
34.1687 26.163
34.2152 26.1807
34.262 26.1099
34.3086 26.038
34.3554 25.9246
34.402 25.7756
34.4488 25.7072
34.4954 25.5745
34.5422 25.5038
34.5889 25.4622
34.6357 25.3418
34.6825 25.3439
34.7292 25.219
34.776 25.0901
34.8227 25.0873
34.8695 25.0512
34.9162 25.0333
34.9631 24.8883
35.0098 24.9238
35.0566 24.7063
35.1033 24.6767
35.1502 24.6512
35.1969 24.6498
35.2438 24.5564
35.2906 24.4639
35.3375 24.4441
35.3842 24.3721
35.4311 24.3859
35.4779 24.3699
35.5248 24.2595
35.5716 24.2154
35.6185 24.0418
35.6653 24.0448
35.7123 23.9137
35.759 23.7968
35.806 23.7151
35.8528 23.6897
35.8998 23.5433
35.9468 23.4982
35.9936 23.4689
36.0406 23.3517
36.0874 23.4779
36.1345 23.1909
36.1813 23.2026
36.2283 23.0653
36.2752 22.9807
36.3222 23.122
36.3691 22.9355
36.4161 22.7411
36.463 22.795
36.5101 22.8186
36.557 22.695
36.6041 22.6317
36.651 22.5182
36.6981 22.5048
36.745 22.3781
36.7921 22.334
36.839 22.1258
36.8861 22.1314
36.9331 22.06
36.9802 22.0436
37.0272 21.9488
37.0743 21.8609
37.1213 21.7495
37.1684 21.786
37.2154 21.7134
37.2626 21.594
37.3098 21.5689
37.3568 21.4195
37.404 21.4653
37.451 21.3554
37.4982 21.3266
37.5452 21.2127
37.5924 21.1381
37.6395 21.1881
37.6867 21.1059
37.7337 20.9283
37.781 20.8088
37.8281 20.8292
37.8753 20.6856
37.9224 20.6583
37.9697 20.6207
38.0168 20.5957
38.064 20.4655
38.1111 20.4503
38.1584 20.3822
38.2056 20.2922
38.2529 20.1917
38.3 20.1564
38.3473 20.1229
38.3945 20.0502
38.4418 20.0259
38.489 19.9737
38.5363 19.8028
38.5837 19.7385
38.6309 19.6912
38.6782 19.6433
38.7254 19.5414
38.7728 19.471
38.82 19.445
38.8674 19.4763
38.9146 19.3718
38.9621 19.2782
39.0093 19.2596
39.0567 19.1344
39.104 19.0572
39.1514 18.9983
39.1987 19.0287
39.2461 18.9755
39.2934 18.8126
39.3409 18.7896
39.3882 18.7223
39.4356 18.6351
39.483 18.6192
39.5304 18.5833
39.5778 18.4494
39.6253 18.4531
39.6726 18.3525
39.7201 18.3601
39.7675 18.3285
39.815 18.2624
39.8624 18.1497
39.9099 18.1569
39.9575 18.0107
40.0049 17.985
40.0525 17.8729
40.0999 17.887
40.1474 17.8445
40.1949 17.7052
40.2425 17.6429
40.2899 17.6583
40.3375 17.5774
40.385 17.5466
40.4326 17.4913
40.48 17.4512
40.5277 17.3656
40.5752 17.3154
40.6228 17.2243
40.6703 17.2106
40.718 17.1378
40.7655 17.1235
40.8132 17.0614
40.8607 16.9982
40.9084 16.9921
40.9559 16.8828
41.0036 16.8569
41.0512 16.769
41.0989 16.6934
41.1465 16.6441
41.1942 16.6592
41.242 16.4818
41.2896 16.4418
41.3373 16.4374
41.3849 16.3772
41.4327 16.332
41.4803 16.2233
41.5281 16.2432
41.5758 16.1889
41.6236 16.0768
41.6712 16.0052
41.7191 15.946
41.7667 15.9299
41.8146 15.9415
41.8622 15.7873
41.9101 15.7933
41.9578 15.7419
42.0057 15.6669
42.0534 15.7085
42.1013 15.552
42.149 15.4706
42.1969 15.4896
42.2446 15.4522
42.2925 15.4006
42.3403 15.3494
42.3882 15.3339
42.436 15.199
42.4839 15.1175
42.5319 15.1514
42.5797 15.0627
42.6277 15.0593
42.6755 14.9835
42.7235 14.85
42.7713 14.8703
42.8193 14.7802
42.8671 14.7194
42.9152 14.7071
42.963 14.638
43.0111 14.5421
43.0589 14.5261
43.107 14.5408
43.1549 14.4398
43.2029 14.4021
43.2508 14.3758
43.2989 14.296
43.3468 14.2073
43.3949 14.223
43.4429 14.1056
43.491 14.0573
43.5389 13.9975
43.5871 14.0716
43.635 13.9639
43.6832 13.9172
43.7312 13.8586
43.7793 13.7997
43.8273 13.8155
43.8755 13.6835
43.9237 13.6787
43.9717 13.5958
44.0199 13.5419
44.068 13.5373
44.1162 13.4944
44.1642 13.4416
44.2125 13.4199
44.2606 13.349
44.3088 13.3383
44.3569 13.2378
44.4052 13.2267
44.4533 13.1249
44.5016 13.113
44.5497 13.0661
44.598 13.0389
44.6461 12.9298
44.6945 12.933
44.7426 12.8739
44.791 12.8431
44.8391 12.7721
44.8875 12.6914
44.9357 12.7045
44.984 12.6959
45.0322 12.5913
45.0806 12.5438
45.1288 12.5161
45.1773 12.4723
45.2257 12.4406
45.2739 12.4193
45.3224 12.3673
45.3706 12.3463
45.4191 12.2005
45.4673 12.1905
45.5158 12.2007
45.5641 12.1011
45.6126 12.1031
45.6609 12.0243
45.7094 12.0019
45.7577 11.9736
45.8063 11.8678
45.8546 11.9042
45.9031 11.7708
45.9515 11.8113
46.0001 11.723
46.0484 11.711
46.097 11.6698
46.1454 11.6143
46.194 11.5994
46.2424 11.5286
46.291 11.4821
46.3395 11.4848
46.3881 11.3929
46.4365 11.4039
46.4852 11.3191
46.5337 11.329
46.5823 11.2727
46.631 11.1958
46.6795 11.155
46.7282 11.1283
46.7767 11.0665
46.8254 11.0361
46.8739 11.0009
46.9226 10.9418
46.9712 10.912
47.0199 10.8448
47.0685 10.8508
47.1173 10.8071
47.1658 10.7834
47.2146 10.7453
47.2632 10.6767
47.312 10.657
47.3606 10.6037
47.4095 10.5672
47.4581 10.5202
47.5069 10.49
47.5556 10.4666
47.6044 10.3761
47.6531 10.3733
47.702 10.3031
47.7507 10.2831
47.7996 10.2469
47.8483 10.2369
47.8972 10.2096
47.9461 10.1374
47.9948 10.065
48.0438 10.0795
48.0925 10.038
48.1415 10.016
48.1902 9.96298
48.2392 9.9243
48.288 9.85913
48.337 9.8423
48.3858 9.77748
48.4348 9.80942
48.4837 9.77666
48.5327 9.71915
48.5815 9.70774
48.6306 9.65898
48.6795 9.57113
48.7285 9.53614
48.7774 9.53541
48.8265 9.50769
48.8754 9.44557
48.9245 9.4225
48.9734 9.39995
49.0226 9.40663
49.0715 9.334
49.1206 9.28297
49.1696 9.2665
49.2188 9.20772
49.2679 9.17613
49.3169 9.1221
49.3661 9.11303
49.4151 9.07934
49.4643 9.05994
49.5134 9.00592
49.5626 8.96189
49.6117 8.94404
49.6609 8.91026
49.71 8.88329
49.7592 8.84695
49.8083 8.78667
49.8576 8.79248
49.9067 8.70907
49.956 8.69234
50.0052 8.69074
50.0545 8.63168
50.1036 8.61415
50.153 8.60334
50.2022 8.55275
50.2515 8.52193
50.3007 8.46207
50.3501 8.40367
50.3993 8.4072
50.4487 8.38206
50.498 8.32707
50.5474 8.32687
50.5966 8.27069
50.6461 8.25364
50.6955 8.22723
50.7448 8.16511
50.7943 8.12725
50.8436 8.09785
50.8931 8.09152
50.9424 8.04747
50.9919 8.0082
51.0413 7.98877
51.0908 7.9489
51.1402 7.95526
51.1897 7.88679
51.2391 7.85467
51.2887 7.84458
51.3381 7.77357
51.3877 7.75734
51.4371 7.78122
51.4867 7.69829
51.5362 7.66452
51.5858 7.6123
51.6353 7.57795
51.6849 7.56252
51.7344 7.52179
51.7841 7.52443
51.8336 7.46859
51.8833 7.44915
51.9328 7.43327
51.9826 7.33839
52.0323 7.35377
52.0818 7.36449
52.1316 7.30261
52.1812 7.27826
52.231 7.23074
52.2806 7.22492
52.3304 7.188
52.38 7.12268
52.4298 7.08267
52.4794 7.09007
52.5293 7.06741
52.5789 7.03362
52.6288 7.01908
52.6785 6.97133
52.7284 6.96045
52.7781 6.88736
52.828 6.85834
52.8777 6.85155
52.9276 6.81719
52.9774 6.80458
53.0273 6.76718
53.0771 6.73615
53.1271 6.71653
53.1769 6.7334
53.2269 6.69218
53.2767 6.63427
53.3267 6.59437
53.3765 6.61191
53.4266 6.54506
53.4766 6.52507
53.5265 6.47071
53.5765 6.48759
53.6264 6.4219
53.6765 6.42526
53.7264 6.35512
53.7765 6.37786
53.8265 6.33983
53.8766 6.29558
53.9266 6.2787
53.9767 6.22439
54.0267 6.21713
54.0769 6.20018
54.1269 6.11658
54.1771 6.10203
54.2271 6.1037
54.2773 6.02332
54.3274 6.03514
54.3776 5.93575
54.4277 5.95068
54.478 5.91298
54.528 5.92215
54.5783 5.84327
54.6285 5.82461
54.6788 5.75003
54.7289 5.71112
54.7792 5.74755
54.8296 5.57954
54.8798 5.55141
54.9301 5.56533
54.9803 5.54404
55.0307 5.51759
55.0809 5.47122
55.1314 5.40137
55.1816 5.38405
55.232 5.33983
55.2823 5.35694
55.3328 5.19501
55.383 5.17967
55.4335 5.14457
55.4838 5.09599
55.5344 5.04345
55.5847 5.02509
55.6352 5.00805
55.6856 4.92083
55.7361 4.86778