File: XRD/Ni3Fe_FD0610.xy
TT I
1.27165 7.16023
1.31627 6.5725
1.36089 6.7278
1.40551 6.42368
1.45013 6.13264
1.49476 6.44173
1.53938 6.14188
1.584 5.64193
1.62863 5.30241
1.67325 4.62684
1.71787 4.94549
1.7625 5.07721
1.80712 5.13812
1.85174 5.16134
1.89636 5.29448
1.94099 5.29563
1.98562 4.55744
2.03025 4.6434
2.07487 4.65008
2.11949 4.96766
2.16411 4.96038
2.20874 12.4875
2.25338 18.9263
2.298 5.26106
2.34263 5.3295
2.38725 6.38463
2.43188 6.10821
2.4765 6.79732
2.52115 6.23582
2.56577 7.01158
2.6104 8.13696
2.65503 7.95314
2.69965 8.29165
2.7443 8.26696
2.78893 7.60861
2.83356 7.78922
2.87818 8.5606
2.92281 8.88708
2.96744 9.52911
3.01209 10.2595
3.05672 11.1711
3.10135 12.4656
3.14599 13.1241
3.19062 14.3005
3.23527 15.2675
3.2799 15.6929
3.32454 17.0268
3.36917 17.7881
3.4138 18.9059
3.45844 19.6073
3.50309 20.9393
3.54773 21.9415
3.59237 24.2715
3.637 81.5543
3.68164 52.3196
3.7263 26.4099
3.77094 26.4895
3.81558 26.8603
3.86022 27.2002
3.90486 29.1164
3.9495 29.591
3.99416 31.0337
4.0388 32.1302
4.08344 33.3446
4.12809 34.9285
4.17273 36.6352
4.21738 42.1993
4.26204 212.179
4.30669 183.429
4.35133 48.5143
4.39598 44.3857
4.44063 52.9913
4.4853 62.5497
4.52995 50.5847
4.5746 51.0961
4.61925 53.5357
4.6639 55.7
4.70855 58.3209
4.75322 61.1379
4.79788 64.3116
4.84253 67.775
4.88719 71.7879
4.93184 75.7494
4.97652 81.1712
5.02118 87.602
5.06583 95.3235
5.11049 106.808
5.15515 166.883
5.19981 367.438
5.24449 2974.24
5.28916 12446.7
5.33382 3031.03
5.37848 196.13
5.42315 130.766
5.46783 115.077
5.5125 106.738
5.55716 103.33
5.60183 99.323
5.6465 97.4688
5.69117 94.7097
5.73586 92.8281
5.78053 92.0274
5.8252 91.8676
5.86988 92.6757
5.91455 95.3532
5.95924 103.419
6.00392 214.938
6.0486 1008.15
6.09328 4355.63
6.13795 3507.9
6.18263 259.313
6.22733 94.186
6.27201 83.1441
6.3167 98.0477
6.36138 79.5701
6.40606 69.3212
6.45075 67.8059
6.49545 65.7007
6.54014 64.0414
6.58483 63.0095
6.62952 63.2778
6.67421 89.0684
6.71892 128.617
6.76361 67.6086
6.8083 58.5828
6.853 57.9751
6.89769 57.3284
6.94239 56.7228
6.98711 56.324
7.03181 55.7418
7.07651 55.6274
7.12121 54.9352
7.16591 55.2403
7.21063 55.3244
7.25533 69.0194
7.30004 158.753
7.34475 85.3201
7.38945 56.5603
7.43416 54.7816
7.47889 54.4572
7.5236 55.0353
7.56831 55.6951
7.61303 56.8279
7.65774 57.4503
7.70247 56.2118
7.74719 56.5555
7.79191 57.1695
7.83663 57.2771
7.88135 58.248
7.92607 58.8917
7.97081 59.985
8.01553 61.1994
8.06026 62.5786
8.10498 64.5142
8.14971 72.6265
8.19446 71.8202
8.23919 69.8561
8.28392 72.3792
8.32865 74.4597
8.37339 78.6642
8.41812 85.3169
8.46288 110.745
8.50761 167.23
8.55235 398.571
8.59709 1212.16
8.64183 2160.01
8.68658 1004.77
8.73134 187.663
8.77609 100.526
8.82083 93.4284
8.86558 90.2686
8.91033 90.169
8.9551 90.9195
8.99985 85.9407
9.04461 83.9173
9.08936 83.0888
9.13412 82.5932
9.17888 82.8556
9.22365 83.0284
9.26841 82.3275
9.31318 83.0081
9.35794 83.3216
9.4027 83.3096
9.44749 84.2148
9.49226 85.2228
9.53703 86.0771
9.5818 87.7645
9.62657 92.2112
9.67134 97.9398
9.71614 94.1036
9.76091 94.3152
9.80569 96.7158
9.85047 100.493
9.89525 120.934
9.94005 132.99
9.98484 180.713
10.0296 351.398
10.0744 842.658
10.1192 1690.69
10.164 1571.34
10.2088 419.5
10.2536 129.376
10.2984 113.283
10.3432 113.673
10.388 105.388
10.4328 119.798
10.4776 164.098
10.5224 290.379
10.5672 504.579
10.612 492.672
10.6568 206.245
10.7017 97.4694
10.7465 87.2548
10.7913 83.7813
10.8361 81.3676
10.8809 79.4727
10.9257 78.6239
10.9706 78.829
11.0154 75.1335
11.0602 73.2382
11.105 72.3172
11.1499 75.6276
11.1947 81.3911
11.2395 73.4162
11.2844 70.386
11.3292 67.2871
11.374 66.4043
11.4189 65.7663
11.4637 65.2602
11.5086 65.742
11.5534 67.8975
11.5983 65.1707
11.6431 63.9659
11.688 63.1437
11.7328 63.3417
11.7777 63.1181
11.8225 62.8199
11.8674 62.2551
11.9122 63.0222
11.9571 63.3241
12.002 64.0963
12.0468 68.4176
12.0917 79.7649
12.1366 104.205
12.1814 154.49
12.2263 203.156
12.2712 166.565
12.3161 97.5376
12.3609 70.2404
12.4058 64.9704
12.4507 64.4737
12.4956 64.7074
12.5405 64.7363
12.5853 65.7143
12.6302 72.3834
12.6751 76.7748
12.72 69.7819
12.7649 68.147
12.8098 68.6224
12.8547 69.8519
12.8996 71.2711
12.9445 72.5328
12.9894 74.7443
13.0343 76.3386
13.0792 79.235
13.1242 89.0817
13.1691 113.227
13.214 151.827
13.2589 244.2
13.3038 368.242
13.3487 419.979
13.3937 272.302
13.4386 128.861
13.4835 107.062
13.5285 121.976
13.5734 161.926
13.6183 250.307
13.6633 342.337
13.7082 337.101
13.7531 193.696
13.7981 100.637
13.843 82.5114
13.888 79.8386
13.9329 77.6063
13.9779 76.3157
14.0228 74.8364
14.0678 73.2242
14.1127 73.0876
14.1577 72.8758
14.2027 71.9722
14.2476 70.6105
14.2926 70.8926
14.3376 71.8092
14.3825 70.541
14.4275 69.5147
14.4725 69.2051
14.5175 69.384
14.5624 69.2857
14.6074 71.1292
14.6524 71.495
14.6974 70.6015
14.7424 72.6036
14.7874 79.3368
14.8324 90.1387
14.8774 112.976
14.9224 155.495
14.9674 204.479
15.0124 214.453
15.0574 153.146
15.1024 93.7573
15.1474 73.1333
15.1924 70.9125
15.2374 71.1471
15.2824 70.3672
15.3274 68.5147
15.3725 67.2002
15.4175 66.7738
15.4625 66.3828
15.5076 66.663
15.5526 66.5499
15.5976 66.0826
15.6426 67.1299
15.6877 72.8926
15.7327 80.8813
15.7778 96.7272
15.8228 128.866
15.8679 168.961
15.9129 189.514
15.958 155.436
16.003 98.5248
16.0481 68.9007
16.0931 64.4557
16.1382 62.8799
16.1833 61.206
16.2283 59.2568
16.2734 58.6363
16.3185 58.849
16.3636 59.2523
16.4086 58.0996
16.4537 56.4684
16.4988 55.8814
16.5439 55.8951
16.589 55.4804
16.6341 55.2316
16.6792 54.8393
16.7243 55.0893
16.7694 55.2755
16.8145 55.0984
16.8596 55.456
16.9047 57.0592
16.9498 57.0465
16.9949 56.1814
17.04 56.1979
17.0851 57.4377
17.1302 59.1133
17.1754 62.1372
17.2205 67.1798
17.2656 74.8668
17.3108 81.66
17.3559 81.8592
17.401 72.8479
17.4462 63.1592
17.4913 59.6326
17.5365 59.4094
17.5815 59.5288
17.6268 60.0777
17.6718 60.6991
17.7171 61.0928
17.7622 61.813
17.8074 62.2089
17.8525 64.5972
17.8977 68.9402
17.9428 74.3593
17.9881 83.6375
18.0331 101.551
18.0784 121.41
18.1237 138.352
18.1688 132.054
18.214 106.324
18.2591 88.6607
18.3044 91.4277
18.3495 100.395
18.3948 105.398
18.4399 97.4896
18.4852 79.4065
18.5303 66.9757
18.5756 62.6387
18.6207 61.7255
18.666 61.0512
18.7112 60.0328
18.7565 59.3192
18.8016 59.0964
18.8469 58.3641
18.892 58.2362
18.9374 57.7576
18.9825 57.5045
19.0278 57.2942
19.073 57.3924
19.1183 57.581
19.1635 58.4032
19.2088 59.9006
19.254 62.6731
19.2993 67.2259
19.3447 72.8116
19.3898 76.1824
19.4352 72.4977
19.4804 64.3131
19.5257 57.6475
19.5709 54.6591
19.6163 54.3145
19.6615 54.0198
19.7068 53.5482
19.752 53.7522
19.7974 53.8817
19.8426 54.8231
19.888 55.3069
19.9332 56.5839
19.9786 59.3412
20.0238 62.8732
20.0692 67.5354
20.1144 69.7412
20.1598 68.5129
20.205 64.2456
20.2504 62.967
20.2957 64.2755
20.3411 65.555
20.3863 64.2666
20.4318 58.9965
20.477 54.2296
20.5224 51.6849
20.5677 51.1805
20.6131 50.6974
20.6586 50.0196
20.7038 49.8179
20.7493 49.404
20.7945 49.3188
20.84 49.0659
20.8853 48.9711
20.9307 48.7284
20.976 49.0767
21.0215 48.7863
21.0668 49.2381
21.1122 49.8877
21.1575 50.3422
21.203 50.9526
21.2483 51.6425
21.2938 51.509
21.3391 50.3561
21.3846 49.2419
21.4299 48.805
21.4754 48.792
21.5207 48.8959
21.5662 49.0477
21.6116 49.4616
21.6571 50.2705
21.7024 51.2834
21.7479 53.1214
21.7933 55.8238
21.8388 59.3313
21.8843 62.6388
21.9297 64.3831
21.9752 63.4758
22.0206 60.2001
22.0661 57.329
22.1115 56.3661
22.157 56.0851
22.2024 54.5632
22.248 51.9159
22.2933 50.2566
22.3389 49.3777
22.3843 49.2401
22.4299 49.1838
22.4753 49.1448
22.5208 48.8995
22.5662 48.8586
22.6118 48.993
22.6572 48.8828
22.7028 49.5748
22.7483 50.1646
22.7939 50.8676
22.8393 52.4087
22.8849 54.566
22.9303 56.289
22.9759 57.8413
23.0214 57.4306
23.067 55.1186
23.1126 51.4731
23.1581 49.7387
23.2037 49.0386
23.2492 49.2311
23.2948 49.0665
23.3403 49.2775
23.3859 49.9955
23.4314 51.2805
23.477 52.9825
23.5225 55.237
23.5682 57.0942
23.6137 57.8101
23.6593 55.7879
23.7048 51.9693
23.7505 48.7127
23.796 46.9147
23.8417 46.2501
23.8872 45.9354
23.9329 45.604
23.9784 45.259
24.0241 44.9803
24.0697 44.8433
24.1154 44.3942
24.1609 44.2162
24.2066 44.1263
24.2522 44.0278
24.2979 43.8245
24.3434 43.5244
24.3892 43.6358
24.4349 43.482
24.4805 43.1981
24.5262 43.4396
24.5718 43.1286
24.6175 43.3127
24.6631 43.0145
24.7089 42.7783
24.7545 42.7752
24.8002 42.4288
24.8458 42.5138
24.8916 42.2213
24.9372 42.3866
24.983 42.8647
25.0286 43.1451
25.0744 43.5418
25.12 43.9185
25.1658 44.6225
25.2114 44.8868
25.2572 45.1431
25.3029 45.1614
25.3487 45.1331
25.3943 44.8762
25.4402 43.8671
25.4858 42.7566
25.5316 41.7088
25.5773 41.2218
25.6231 41.1253
25.669 40.9057
25.7147 40.7608
25.7605 40.5482
25.8062 40.8142
25.8521 40.8582
25.8977 40.7661
25.9436 41.178
25.9893 41.2346
26.0352 41.6741
26.0809 41.7564
26.1268 41.8453
26.1725 41.5013
26.2184 41.1118
26.2641 40.4471
26.31 40.4272
26.3557 40.488
26.4017 40.3184
26.4474 40.6578
26.4933 41.0376
26.5391 41.4203
26.585 42.0263
26.6308 42.2204
26.6767 42.3477
26.7225 42.3218
26.7684 41.7033
26.8142 41.1371
26.8601 40.685
26.9059 40.4028
26.9519 39.7381
26.9979 39.4729
27.0437 39.0724
27.0896 39.0317
27.1354 38.9315
27.1814 38.8104
27.2272 38.6936
27.2732 38.698
27.3191 38.6186
27.3651 38.7231
27.4109 38.6418
27.4569 38.7748
27.5027 38.6928
27.5488 38.8388
27.5946 38.6382
27.6407 38.2776
27.6865 38.2779
27.7326 38.0547
27.7784 38.2028
27.8245 38.0463
27.8703 38.351
27.9164 38.5884
27.9623 38.6415
28.0084 38.9001
28.0543 39.209
28.1003 39.1843
28.1462 39.0121
28.1923 38.7141
28.2384 38.3011
28.2843 37.8425
28.3304 37.3345
28.3764 36.8608
28.4225 36.7346
28.4684 36.4649
28.5145 36.0929
28.5605 36.1464
28.6066 35.9667
28.6526 35.8781
28.6987 35.7802
28.7447 35.7929
28.7908 35.7335
28.8368 35.6175
28.8829 35.6361
28.9289 35.6142
28.9751 35.3799
29.0211 35.1604
29.0673 34.8444
29.1133 34.6919
29.1595 34.6339
29.2055 34.6288
29.2517 34.5424
29.2977 34.4829
29.3439 34.3808
29.3899 34.3555
29.4361 34.3723
29.4824 34.1076
29.5284 33.9656
29.5746 33.6818
29.6207 33.3938
29.6669 33.2075
29.713 33.2334
29.7593 32.9831
29.8053 33.1926
29.8516 32.9525
29.8977 33.0021
29.9439 32.9044
29.99 32.7887
30.0363 32.6405
30.0824 32.6562
30.1287 32.6976
30.1748 32.6257
30.2211 32.6629
30.2673 32.5204
30.3136 32.5932
30.3597 32.4211
30.406 32.3665
30.4522 32.2557
30.4985 32.2129
30.5447 32.3886
30.591 32.3146
30.6372 32.3973
30.6835 32.4196
30.7297 32.2893
30.7761 32.3316
30.8224 32.2212
30.8686 31.9918
30.915 31.8718
30.9612 31.65
31.0076 31.4365
31.0538 31.3476
31.1002 31.2569
31.1464 31.1088
31.1928 31.0306
31.2391 31.1665
31.2855 31.1468
31.3317 31.0829
31.3781 31.0886
31.4244 31.2005
31.4708 30.9668
31.5171 31.08
31.5636 31.0157
31.6098 30.6987
31.6563 30.5606
31.7026 30.4858
31.7491 30.4184
31.7953 30.5021
31.8418 30.3627
31.8881 30.3748
31.9346 30.2719
31.9809 30.2194
32.0275 30.1088
32.074 30.0089
32.1203 29.8415
32.1668 29.7472
32.2132 29.6251
32.2597 29.4945
32.306 29.418
32.3526 29.2111
32.399 29.2202
32.4455 28.947
32.4919 28.8982
32.5385 28.8462
32.5848 28.5899
32.6314 28.7597
32.6778 28.6369
32.7244 28.4493
32.7708 28.351
32.8174 28.3852
32.8638 28.2194
32.9104 28.298
32.9569 28.2138
33.0035 28.0024
33.0499 28.0737
33.0966 27.9731
33.143 27.9447
33.1897 27.8042
33.2361 27.7831
33.2828 27.7821
33.3293 27.524
33.3759 27.5828
33.4226 27.3895
33.4691 27.263
33.5158 27.2667
33.5623 27.1253
33.609 26.8757
33.6555 26.7923
33.7022 26.7155
33.7487 26.691
33.7954 26.6949
33.842 26.5419
33.8887 26.5464
33.9353 26.4221
33.982 26.33
34.0286 26.154
34.0753 26.2723
34.1219 26.0869
34.1687 25.9236
34.2152 25.9683
34.262 25.8615
34.3086 25.7786
34.3554 25.7043
34.402 25.5788
34.4488 25.4845
34.4954 25.3906
34.5422 25.2927
34.5889 25.1791
34.6357 25.1572
34.6825 25.0928
34.7292 25.0696
34.776 24.9415
34.8227 24.8667
34.8695 24.7841
34.9162 24.8392
34.9631 24.634
35.0098 24.6481
35.0566 24.5036
35.1033 24.452
35.1502 24.4183
35.1969 24.3812
35.2438 24.2939
35.2906 24.2674
35.3375 24.2127
35.3842 24.1693
35.4311 24.1949
35.4779 24.0343
35.5248 24.0866
35.5716 23.9434
35.6185 23.8985
35.6653 23.8103
35.7123 23.641
35.759 23.6005
35.806 23.4827
35.8528 23.4074
35.8998 23.3663
35.9468 23.2239
35.9936 23.2629
36.0406 23.1836
36.0874 23.1042
36.1345 23.0565
36.1813 22.984
36.2283 22.9115
36.2752 22.8033
36.3222 22.8105
36.3691 22.652
36.4161 22.6468
36.463 22.6672
36.5101 22.5565
36.557 22.4946
36.6041 22.3282
36.651 22.3193
36.6981 22.3373
36.745 22.2158
36.7921 22.0478
36.839 21.9952
36.8861 21.9391
36.9331 21.901
36.9802 21.8686
37.0272 21.7725
37.0743 21.7022
37.1213 21.6654
37.1684 21.542
37.2154 21.4959
37.2626 21.3631
37.3098 21.3726
37.3568 21.3039
37.404 21.2464
37.451 21.1053
37.4982 21.1113
37.5452 20.973
37.5924 20.9012
37.6395 20.91
37.6867 20.872
37.7337 20.7322
37.781 20.6747
37.8281 20.6289
37.8753 20.4901
37.9224 20.4284
37.9697 20.4232
38.0168 20.3318
38.064 20.2664
38.1111 20.2844
38.1584 20.1625
38.2056 20.1373
38.2529 20.0152
38.3 19.952
38.3473 19.885
38.3945 19.7598
38.4418 19.752
38.489 19.7617
38.5363 19.5994
38.5837 19.5907
38.6309 19.4954
38.6782 19.5074
38.7254 19.3773
38.7728 19.3667
38.82 19.3212
38.8674 19.2294
38.9146 19.1726
38.9621 19.0913
39.0093 19.0643
39.0567 18.985
39.104 18.9243
39.1514 18.8646
39.1987 18.8138
39.2461 18.772
39.2934 18.6921
39.3409 18.5609
39.3882 18.5321
39.4356 18.474
39.483 18.44
39.5304 18.3835
39.5778 18.3503
39.6253 18.2503
39.6726 18.2229
39.7201 18.23
39.7675 18.0746
39.815 18.0856
39.8624 17.9842
39.9099 18.0037
39.9575 17.8366
40.0049 17.8003
40.0525 17.7777
40.0999 17.6865
40.1474 17.6641
40.1949 17.6174
40.2425 17.4956
40.2899 17.4931
40.3375 17.4152
40.385 17.2857
40.4326 17.2854
40.48 17.2378
40.5277 17.2332
40.5752 17.1656
40.6228 17.0589
40.6703 17.0538
40.718 17.0497
40.7655 16.9155
40.8132 16.8843
40.8607 16.8569
40.9084 16.757
40.9559 16.7484
41.0036 16.6615
41.0512 16.6462
41.0989 16.5942
41.1465 16.4868
41.1942 16.4554
41.242 16.3458
41.2896 16.3344
41.3373 16.2808
41.3849 16.229
41.4327 16.1302
41.4803 16.0468
41.5281 16.0367
41.5758 15.994
41.6236 15.9538
41.6712 15.8751
41.7191 15.7799
41.7667 15.7882
41.8146 15.729
41.8622 15.6847
41.9101 15.6282
41.9578 15.6029
42.0057 15.4865
42.0534 15.4804
42.1013 15.4295
42.149 15.371
42.1969 15.2887
42.2446 15.3074
42.2925 15.2329
42.3403 15.1617
42.3882 15.0955
42.436 15.118
42.4839 14.9996
42.5319 14.9594
42.5797 14.8868
42.6277 14.8916
42.6755 14.8196
42.7235 14.7433
42.7713 14.7854
42.8193 14.6531
42.8671 14.5579
42.9152 14.6364
42.963 14.5017
43.0111 14.4912
43.0589 14.3708
43.107 14.3285
43.1549 14.3031
43.2029 14.2338
43.2508 14.2267
43.2989 14.1755
43.3468 14.0724
43.3949 14.0092
43.4429 14.0439
43.491 13.961
43.5389 13.9071
43.5871 13.8858
43.635 13.8632
43.6832 13.7874
43.7312 13.6924
43.7793 13.6776
43.8273 13.6521
43.8755 13.5664
43.9237 13.5539
43.9717 13.5195
44.0199 13.4587
44.068 13.3809
44.1162 13.3464
44.1642 13.3064
44.2125 13.2493
44.2606 13.2242
44.3088 13.1764
44.3569 13.187
44.4052 13.1334
44.4533 13.0341
44.5016 12.9648
44.5497 12.9275
44.598 12.9009
44.6461 12.8381
44.6945 12.7929
44.7426 12.747
44.791 12.6583
44.8391 12.6913
44.8875 12.5768
44.9357 12.5773
44.984 12.5457
45.0322 12.493
45.0806 12.4566
45.1288 12.4311
45.1773 12.3586
45.2257 12.3508
45.2739 12.2688
45.3224 12.2804
45.3706 12.2024
45.4191 12.122
45.4673 12.1546
45.5158 12.0275
45.5641 11.9708
45.6126 11.9795
45.6609 11.9529
45.7094 11.8812
45.7577 11.832
45.8063 11.7833
45.8546 11.7526
45.9031 11.7485
45.9515 11.7003
46.0001 11.6596
46.0484 11.6422
46.097 11.5788
46.1454 11.5655
46.194 11.503
46.2424 11.4436
46.291 11.3797
46.3395 11.3441
46.3881 11.3262
46.4365 11.2893
46.4852 11.2331
46.5337 11.1715
46.5823 11.1556
46.631 11.0729
46.6795 11.0668
46.7282 11.0501
46.7767 10.9987
46.8254 10.8968
46.8739 10.8612
46.9226 10.859
46.9712 10.8147
47.0199 10.754
47.0685 10.763
47.1173 10.6682
47.1658 10.6497
47.2146 10.6144
47.2632 10.5624
47.312 10.5463
47.3606 10.5189
47.4095 10.4585
47.4581 10.4006
47.5069 10.3588
47.5556 10.332
47.6044 10.3303
47.6531 10.2523
47.702 10.2563
47.7507 10.165
47.7996 10.1404
47.8483 10.1225
47.8972 10.0914
47.9461 10.0684
47.9948 9.97292
48.0438 9.96395
48.0925 9.97267
48.1415 9.93063
48.1902 9.8608
48.2392 9.85497
48.288 9.80054
48.337 9.75682
48.3858 9.70609
48.4348 9.69265
48.4837 9.68639
48.5327 9.62509
48.5815 9.59212
48.6306 9.51261
48.6795 9.50846
48.7285 9.47617
48.7774 9.46795
48.8265 9.41906
48.8754 9.35364
48.9245 9.3637
48.9734 9.30262
49.0226 9.27905
49.0715 9.25594
49.1206 9.15984
49.1696 9.1423
49.2188 9.12129
49.2679 9.12573
49.3169 9.07286
49.3661 8.96301
49.4151 8.97128
49.4643 8.98675
49.5134 8.93201
49.5626 8.85
49.6117 8.84556
49.6609 8.8061
49.71 8.74557
49.7592 8.75504
49.8083 8.67697
49.8576 8.67686
49.9067 8.63113
49.956 8.6034
50.0052 8.57447
50.0545 8.54786
50.1036 8.52697
50.153 8.45317
50.2022 8.44359
50.2515 8.44598
50.3007 8.36161
50.3501 8.31382
50.3993 8.31944
50.4487 8.27572
50.498 8.25447
50.5474 8.24187
50.5966 8.16393
50.6461 8.16508
50.6955 8.1121
50.7448 8.11517
50.7943 8.06898
50.8436 8.06174
50.8931 8.021
50.9424 7.97484
50.9919 7.95988
51.0413 7.91936
51.0908 7.85512
51.1402 7.81937
51.1897 7.81594
51.2391 7.77383
51.2887 7.74517
51.3381 7.73153
51.3877 7.69537
51.4371 7.65839
51.4867 7.61563
51.5362 7.60914
51.5858 7.60226
51.6353 7.52228
51.6849 7.48342
51.7344 7.47434
51.7841 7.4447
51.8336 7.43244
51.8833 7.37372
51.9328 7.35054
51.9826 7.31069
52.0323 7.28576
52.0818 7.24137
52.1316 7.22565
52.1812 7.1966
52.231 7.1667
52.2806 7.14281
52.3304 7.12586
52.38 7.08032
52.4298 7.06494
52.4794 6.98295
52.5293 6.98323
52.5789 6.95992
52.6288 6.9378
52.6785 6.90702
52.7284 6.9292
52.7781 6.82238
52.828 6.80736
52.8777 6.75709
52.9276 6.75689
52.9774 6.72836
53.0273 6.6807
53.0771 6.6741
53.1271 6.66576
53.1769 6.63965
53.2269 6.57205
53.2767 6.57118
53.3267 6.54359
53.3765 6.49895
53.4266 6.47651
53.4766 6.43163
53.5265 6.40805
53.5765 6.42297
53.6264 6.41982
53.6765 6.32378
53.7264 6.29786
53.7765 6.22575
53.8265 6.27862
53.8766 6.19815
53.9266 6.18777
53.9767 6.14677
54.0267 6.19292
54.0769 6.08954
54.1269 6.07867
54.1771 6.07891
54.2271 6.04268
54.2773 5.97425
54.3274 5.98675
54.3776 5.92562
54.4277 5.86013
54.478 5.88838
54.528 5.81966
54.5783 5.79677
54.6285 5.72838
54.6788 5.73847
54.7289 5.6694
54.7792 5.63837
54.8296 5.57332
54.8798 5.57943
54.9301 5.50827
54.9803 5.4888
55.0307 5.43258
55.0809 5.41108
55.1314 5.43216
55.1816 5.32493
55.232 5.25974
55.2823 5.2262
55.3328 5.1729
55.383 5.09325
55.4335 5.08511
55.4838 4.99569
55.5344 4.96614
55.5847 4.95162
55.6352 4.92415
55.6856 4.92765
55.7361 4.82639