File: XRD/Ni3Fe_FD0074.xy
TT I
1.27165 15.2959
1.31627 13.6942
1.36089 13.6319
1.40551 11.4438
1.45013 11.6616
1.49476 11.4851
1.53938 10.6806
1.584 10.6027
1.62863 10.0205
1.67325 10.1355
1.71787 10.0356
1.7625 9.33868
1.80712 8.60929
1.85174 9.91585
1.89636 8.9486
1.94099 9.74284
1.98562 9.00144
2.03025 8.67561
2.07487 8.55344
2.11949 8.84195
2.16411 9.41603
2.20874 7.75064
2.25338 8.12175
2.298 8.52841
2.34263 8.65967
2.38725 8.2368
2.43188 7.7843
2.4765 8.04608
2.52115 7.59827
2.56577 7.80081
2.6104 8.79282
2.65503 8.61033
2.69965 9.47737
2.7443 9.37207
2.78893 10.0917
2.83356 10.7364
2.87818 12.582
2.92281 13.1633
2.96744 15.26
3.01209 16.2011
3.05672 18.2192
3.10135 20.315
3.14599 20.2116
3.19062 20.9329
3.23527 20.2665
3.2799 19.6855
3.32454 19.1243
3.36917 18.3741
3.4138 19.1323
3.45844 19.2601
3.50309 20.0486
3.54773 20.1989
3.59237 20.3551
3.637 20.6679
3.68164 21.4339
3.7263 22.0155
3.77094 22.6214
3.81558 22.9368
3.86022 23.9742
3.90486 24.7272
3.9495 25.707
3.99416 25.9919
4.0388 27.2258
4.08344 28.4212
4.12809 28.4859
4.17273 30.0145
4.21738 31.6134
4.26204 33.2225
4.30669 34.6441
4.35133 37.1548
4.39598 37.7855
4.44063 38.1752
4.4853 39.7892
4.52995 41.9233
4.5746 43.8923
4.61925 45.9399
4.6639 47.9675
4.70855 50.6375
4.75322 54.0298
4.79788 57.1235
4.84253 61.3325
4.88719 66.7302
4.93184 73.7223
4.97652 84.0311
5.02118 99.4654
5.06583 116.579
5.11049 142.193
5.15515 207.447
5.19981 600.768
5.24449 2066.84
5.28916 3030.72
5.33382 6864.39
5.37848 2059.23
5.42315 392.191
5.46783 195.105
5.5125 147.485
5.55716 126.3
5.60183 112.436
5.6465 106.458
5.69117 102.136
5.73586 99.0994
5.78053 99.6248
5.8252 101.392
5.86988 108.727
5.91455 122.878
5.95924 158.956
6.00392 320.724
6.0486 813.372
6.09328 957.005
6.13795 2271.45
6.18263 1251.45
6.22733 269.497
6.27201 128.491
6.3167 92.1579
6.36138 76.112
6.40606 66.8807
6.45075 61.858
6.49545 58.4259
6.54014 55.3683
6.58483 53.2829
6.62952 51.8046
6.67421 50.4479
6.71892 49.191
6.76361 48.4763
6.8083 47.2105
6.853 46.5396
6.89769 46.1342
6.94239 45.9815
6.98711 45.5401
7.03181 45.7667
7.07651 45.7864
7.12121 46.058
7.16591 44.9918
7.21063 44.1019
7.25533 43.6332
7.30004 44.3773
7.34475 44.4387
7.38945 44.9274
7.43416 45.6117
7.47889 49.2176
7.5236 81.7906
7.56831 209.2
7.61303 117.222
7.65774 55.2364
7.70247 47.5319
7.74719 46.0975
7.79191 46.1386
7.83663 45.7508
7.88135 46.6516
7.92607 47.0373
7.97081 47.9412
8.01553 48.3106
8.06026 49.9271
8.10498 51.0792
8.14971 52.4392
8.19446 53.8435
8.23919 56.6722
8.28392 59.6713
8.32865 62.554
8.37339 67.6048
8.41812 74.3624
8.46288 90.7496
8.50761 158.744
8.55235 388.483
8.59709 355.098
8.64183 447.645
8.68658 1255.65
8.73134 775.448
8.77609 186.102
8.82083 108.127
8.86558 88.2881
8.91033 81.1081
8.9551 76.4086
8.99985 74.3235
9.04461 73.4182
9.08936 72.8305
9.13412 73.8638
9.17888 79.4971
9.22365 130.551
9.26841 339.894
9.31318 218.625
9.35794 90.8822
9.4027 74.9916
9.44749 72.0418
9.49226 70.8111
9.53703 70.6407
9.5818 71.7815
9.62657 71.9702
9.67134 72.9903
9.71614 74.4425
9.76091 76.4663
9.80569 79.1411
9.85047 82.4665
9.89525 89.3187
9.94005 103.53
9.98484 164.716
10.0296 360.487
10.0744 338.69
10.1192 289.276
10.164 723.575
10.2088 1171.71
10.2536 431.574
10.2984 143.589
10.3432 106.495
10.388 95.1158
10.4328 105.268
10.4776 158.099
10.5224 147.147
10.5672 125.534
10.612 221.752
10.6568 395.4
10.7017 252.896
10.7465 132.36
10.7913 80.8418
10.8361 69.0625
10.8809 65.0213
10.9257 62.2272
10.9706 60.7194
11.0154 58.8543
11.0602 57.7305
11.105 56.7104
11.1499 55.3185
11.1947 54.4884
11.2395 53.676
11.2844 53.3297
11.3292 52.2542
11.374 51.7495
11.4189 51.4918
11.4637 50.5888
11.5086 50.2595
11.5534 49.8527
11.5983 49.9356
11.6431 50.0502
11.688 49.6249
11.7328 49.7008
11.7777 50.0266
11.8225 50.4493
11.8674 51.8836
11.9122 59.6677
11.9571 101.494
12.002 111.167
12.0468 75.3504
12.0917 71.3455
12.1366 72.9429
12.1814 65.7569
12.2263 70.0654
12.2712 107.122
12.3161 137.176
12.3609 86.3868
12.4058 58.9492
12.4507 53.2868
12.4956 51.6482
12.5405 50.7314
12.5853 50.9263
12.6302 50.6529
12.6751 50.7202
12.72 51.4964
12.7649 51.9758
12.8098 52.566
12.8547 53.2059
12.8996 54.6255
12.9445 55.9918
12.9894 57.5205
13.0343 59.7493
13.0792 67.6375
13.1242 83.3088
13.1691 106.641
13.214 126.084
13.2589 106.191
13.3038 97.7013
13.3487 132.953
13.3937 260.469
13.4386 269.5
13.4835 142.402
13.5285 124.596
13.5734 122.345
13.6183 98.5557
13.6633 95.8057
13.7082 143.728
13.7531 258.042
13.7981 210.126
13.843 97.42
13.888 71.0555
13.9329 64.8607
13.9779 62.9211
14.0228 61.424
14.0678 60.9068
14.1127 66.2321
14.1577 96.212
14.2027 103.57
14.2476 75.1979
14.2926 59.5478
14.3376 56.5238
14.3825 55.5237
14.4275 54.7287
14.4725 54.479
14.5175 54.1908
14.5624 53.9592
14.6074 54.0926
14.6524 54.4727
14.6974 55.0832
14.7424 56.816
14.7874 63.3883
14.8324 78.3557
14.8774 79.6322
14.9224 70.1556
14.9674 69.2264
15.0124 85.0531
15.0574 138.89
15.1024 155.661
15.1474 95.6591
15.1924 66.7749
15.2374 58.3449
15.2824 55.0246
15.3274 53.3909
15.3725 52.638
15.4175 52.2345
15.4625 51.6237
15.5076 51.419
15.5526 51.7456
15.5976 51.7728
15.6426 53.2246
15.6877 58.0869
15.7327 70.1318
15.7778 73.0933
15.8228 64.7387
15.8679 61.9781
15.9129 68.9548
15.958 103.965
16.003 144.842
16.0481 116.27
16.0931 80.829
16.1382 63.4871
16.1833 53.0862
16.2283 48.604
16.2734 47.0565
16.3185 46.0147
16.3636 45.1272
16.4086 44.4368
16.4537 44.2993
16.4988 43.7195
16.5439 43.5608
16.589 43.3008
16.6341 43.1019
16.6792 42.679
16.7243 43.0014
16.7694 42.937
16.8145 42.9842
16.8596 43.3505
16.9047 44.981
16.9498 49.12
16.9949 49.3667
17.04 46.2988
17.0851 45.2088
17.1302 47.1507
17.1754 48.4671
17.2205 47.1416
17.2656 46.1585
17.3108 46.8818
17.3559 49.959
17.401 59.3633
17.4462 63.5304
17.4913 54.1916
17.5365 47.8946
17.5815 46.3337
17.6268 46.3825
17.6718 46.5674
17.7171 47.4839
17.7622 50.826
17.8074 53.6038
17.8525 53.3351
17.8977 55.9049
17.9428 61.935
17.9881 61.3048
18.0331 57.0591
18.0784 55.6989
18.1237 59.9861
18.1688 75.9747
18.214 107.095
18.2591 108.194
18.3044 75.8574
18.3495 59.5562
18.3948 57.8997
18.4399 65.5831
18.4852 80.3527
18.5303 75.8003
18.5756 61.1801
18.6207 54.4872
18.666 50.6079
18.7112 48.0057
18.7565 47.0368
18.8016 46.471
18.8469 45.994
18.892 45.6071
18.9374 45.2107
18.9825 45.0478
19.0278 44.8515
19.073 44.7166
19.1183 45.3357
19.1635 46.5582
19.2088 47.4015
19.254 47.1629
19.2993 48.2968
19.3447 52.6127
19.3898 53.7596
19.4352 53.0722
19.4804 56.8136
19.5257 57.2441
19.5709 49.6954
19.6163 44.7523
19.6615 42.9068
19.7068 42.3545
19.752 42.1308
19.7974 42.1052
19.8426 42.7459
19.888 43.8643
19.9332 44.2143
19.9786 43.5737
20.0238 42.7031
20.0692 43.3111
20.1144 45.0416
20.1598 48.4685
20.205 53.1148
20.2504 53.6723
20.2957 47.731
20.3411 43.9847
20.3863 44.5295
20.4318 48.6026
20.477 50.9163
20.5224 46.2556
20.5677 41.8255
20.6131 40.0389
20.6586 39.4999
20.7038 39.3167
20.7493 39.6577
20.7945 41.2433
20.84 41.1495
20.8853 39.7402
20.9307 38.5664
20.976 38.4073
21.0215 38.2678
21.0668 38.5113
21.1122 38.1831
21.1575 37.9945
21.203 37.8942
21.2483 37.8168
21.2938 38.3201
21.3391 39.237
21.3846 40.2101
21.4299 39.6426
21.4754 39.0834
21.5207 38.655
21.5662 38.6126
21.6116 38.6539
21.6571 39.5644
21.7024 40.3686
21.7479 40.5893
21.7933 39.831
21.8388 39.8664
21.8843 40.4575
21.9297 41.3892
21.9752 43.7505
22.0206 48.5443
22.0661 50.575
22.1115 46.7952
22.157 43.7995
22.2024 43.587
22.248 44.465
22.2933 43.8493
22.3389 41.0483
22.3843 39.2721
22.4299 38.4885
22.4753 38.2349
22.5208 38.0282
22.5662 38.0083
22.6118 38.1279
22.6572 38.2171
22.7028 38.9665
22.7483 39.8989
22.7939 40.1102
22.8393 39.8283
22.8849 39.2055
22.9303 38.8219
22.9759 38.857
23.0214 39.7623
23.067 42.558
23.1126 45.4769
23.1581 44.4868
23.2037 41.1597
23.2492 39.2088
23.2948 39.0266
23.3403 39.5214
23.3859 40.2737
23.4314 40.1799
23.477 39.8715
23.5225 39.0524
23.5682 38.4696
23.6137 38.7983
23.6593 40.1728
23.7048 43.6574
23.7505 45.3139
23.796 42.3266
23.8417 38.5836
23.8872 36.8414
23.9329 36.1634
23.9784 35.7911
24.0241 35.6462
24.0697 35.4452
24.1154 35.2973
24.1609 34.9047
24.2066 34.572
24.2522 34.5057
24.2979 34.3246
24.3434 34.156
24.3892 33.9083
24.4349 33.7876
24.4805 33.6556
24.5262 33.6694
24.5718 33.5077
24.6175 33.8281
24.6631 34.1868
24.7089 34.2517
24.7545 34.0591
24.8002 33.5683
24.8458 33.4271
24.8916 33.2038
24.9372 33.2665
24.983 33.2577
25.0286 33.2967
25.0744 33.4785
25.12 33.4233
25.1658 33.4844
25.2114 33.2635
25.2572 33.9032
25.3029 34.405
25.3487 34.4843
25.3943 33.9419
25.4402 33.9921
25.4858 35.0218
25.5316 35.1508
25.5773 33.9483
25.6231 32.9265
25.669 32.2709
25.7147 32.232
25.7605 31.8972
25.8062 32.2778
25.8521 32.4037
25.8977 32.1329
25.9436 31.8656
25.9893 31.5132
26.0352 31.6365
26.0809 31.4896
26.1268 31.5018
26.1725 31.7694
26.2184 32.4095
26.2641 32.8816
26.31 32.7009
26.3557 32.1976
26.4017 31.7717
26.4474 31.7671
26.4933 31.5673
26.5391 31.5391
26.585 31.5263
26.6308 31.4506
26.6767 31.4874
26.7225 31.8509
26.7684 32.662
26.8142 33.0901
26.8601 32.7221
26.9059 32.2823
26.9519 32.2181
26.9979 32.2253
27.0437 31.6531
27.0896 31.1063
27.1354 30.8149
27.1814 30.5409
27.2272 30.4803
27.2732 30.4425
27.3191 30.2709
27.3651 30.2661
27.4109 30.0634
27.4569 30.1793
27.5027 30.0848
27.5488 30.1935
27.5946 30.0083
27.6407 30.1151
27.6865 30.43
27.7326 30.473
27.7784 30.2483
27.8245 29.8894
27.8703 29.8216
27.9164 29.7016
27.9623 29.7452
28.0084 29.8725
28.0543 29.9922
28.1003 29.8366
28.1462 29.9076
28.1923 30.2886
28.2384 30.5516
28.2843 30.2404
28.3304 29.8649
28.3764 29.7458
28.4225 29.6584
28.4684 29.3361
28.5145 28.7579
28.5605 28.5616
28.6066 28.434
28.6526 28.4148
28.6987 28.1649
28.7447 27.973
28.7908 27.8271
28.8368 27.7917
28.8829 27.7131
28.9289 27.7055
28.9751 27.5529
29.0211 27.6749
29.0673 27.6837
29.1133 27.6492
29.1595 27.4805
29.2055 27.1308
29.2517 27.0483
29.2977 26.8947
29.3439 26.7884
29.3899 26.7097
29.4361 26.5554
29.4824 26.5572
29.5284 26.6597
29.5746 26.7521
29.6207 26.5468
29.6669 26.3201
29.713 26.2097
29.7593 26.0929
29.8053 25.8991
29.8516 25.9098
29.8977 25.8731
29.9439 25.7853
29.99 25.722
30.0363 25.6255
30.0824 25.7276
30.1287 25.5505
30.1748 25.4986
30.2211 25.4788
30.2673 25.3241
30.3136 25.4902
30.3597 25.4275
30.406 25.4594
30.4522 25.4169
30.4985 25.1747
30.5447 25.3156
30.591 25.0867
30.6372 25.0262
30.6835 24.923
30.7297 24.9215
30.7761 25.0429
30.8224 25.1598
30.8686 25.2133
30.915 25.2614
30.9612 25.147
31.0076 24.8587
31.0538 24.8212
31.1002 24.7655
31.1464 24.5961
31.1928 24.4602
31.2391 24.501
31.2855 24.3539
31.3317 24.3045
31.3781 24.2171
31.4244 24.134
31.4708 24.0643
31.5171 24.0653
31.5636 24.1753
31.6098 24.0582
31.6563 24.0815
31.7026 24.2019
31.7491 23.9889
31.7953 23.8441
31.8418 23.7076
31.8881 23.637
31.9346 23.5584
31.9809 23.5225
32.0275 23.4255
32.074 23.4879
32.1203 23.4953
32.1668 23.5284
32.2132 23.339
32.2597 23.2874
32.306 23.2213
32.3526 22.991
32.399 22.8485
32.4455 22.7184
32.4919 22.6991
32.5385 22.547
32.5848 22.4205
32.6314 22.4529
32.6778 22.4702
32.7244 22.3645
32.7708 22.2792
32.8174 22.2225
32.8638 22.1689
32.9104 22.1537
32.9569 22.11
33.0035 21.9518
33.0499 21.9207
33.0966 21.8518
33.143 21.7954
33.1897 21.6944
33.2361 21.6746
33.2828 21.6576
33.3293 21.5186
33.3759 21.5743
33.4226 21.4835
33.4691 21.5703
33.5158 21.4604
33.5623 21.3995
33.609 21.1726
33.6555 21.0934
33.7022 20.9457
33.7487 20.9189
33.7954 20.8022
33.842 20.7664
33.8887 20.7322
33.9353 20.6433
33.982 20.5582
34.0286 20.5121
34.0753 20.5334
34.1219 20.4712
34.1687 20.3888
34.2152 20.2946
34.262 20.1837
34.3086 20.0925
34.3554 20.071
34.402 19.9327
34.4488 19.9359
34.4954 19.8363
34.5422 19.9014
34.5889 19.7739
34.6357 19.6972
34.6825 19.5713
34.7292 19.5015
34.776 19.4348
34.8227 19.376
34.8695 19.4349
34.9162 19.3098
34.9631 19.1318
35.0098 19.2093
35.0566 19.1159
35.1033 19.037
35.1502 19.0035
35.1969 18.9608
35.2438 18.9381
35.2906 18.8817
35.3375 18.7698
35.3842 18.7529
35.4311 18.6818
35.4779 18.6778
35.5248 18.6455
35.5716 18.6164
35.6185 18.6318
35.6653 18.6443
35.7123 18.522
35.759 18.3948
35.806 18.3902
35.8528 18.2176
35.8998 18.2687
35.9468 18.0961
35.9936 18.0783
36.0406 18.0549
36.0874 18.0381
36.1345 17.9328
36.1813 17.8584
36.2283 17.8421
36.2752 17.7423
36.3222 17.786
36.3691 17.7089
36.4161 17.5794
36.463 17.5815
36.5101 17.586
36.557 17.5133
36.6041 17.3269
36.651 17.418
36.6981 17.3216
36.745 17.2165
36.7921 17.1867
36.839 17.2055
36.8861 17.11
36.9331 17.0706
36.9802 16.9671
37.0272 16.9294
37.0743 16.9073
37.1213 16.8203
37.1684 16.7882
37.2154 16.7215
37.2626 16.6685
37.3098 16.6486
37.3568 16.5738
37.404 16.5121
37.451 16.4277
37.4982 16.4157
37.5452 16.311
37.5924 16.2657
37.6395 16.3048
37.6867 16.1946
37.7337 16.1065
37.781 16.1093
37.8281 16.0316
37.8753 15.9699
37.9224 15.9438
37.9697 15.9023
38.0168 15.8003
38.064 15.7869
38.1111 15.7708
38.1584 15.6214
38.2056 15.6643
38.2529 15.5252
38.3 15.4489
38.3473 15.5262
38.3945 15.4446
38.4418 15.3814
38.489 15.3403
38.5363 15.2833
38.5837 15.2138
38.6309 15.1672
38.6782 15.1493
38.7254 15.0408
38.7728 15.0274
38.82 14.9465
38.8674 14.9777
38.9146 14.9181
38.9621 14.847
39.0093 14.8396
39.0567 14.7755
39.104 14.7353
39.1514 14.6345
39.1987 14.5784
39.2461 14.5321
39.2934 14.558
39.3409 14.4558
39.3882 14.3906
39.4356 14.3526
39.483 14.3749
39.5304 14.2502
39.5778 14.2147
39.6253 14.1929
39.6726 14.1317
39.7201 14.0823
39.7675 14.0422
39.815 14.0404
39.8624 13.9474
39.9099 13.9374
39.9575 13.8857
40.0049 13.8745
40.0525 13.7684
40.0999 13.7328
40.1474 13.6972
40.1949 13.6743
40.2425 13.6456
40.2899 13.6004
40.3375 13.5473
40.385 13.5275
40.4326 13.4535
40.48 13.3721
40.5277 13.3745
40.5752 13.3052
40.6228 13.2461
40.6703 13.2738
40.718 13.1871
40.7655 13.1974
40.8132 13.0671
40.8607 13.0624
40.9084 13.0838
40.9559 13.0092
41.0036 12.9517
41.0512 12.9402
41.0989 12.9079
41.1465 12.8191
41.1942 12.8206
41.242 12.7585
41.2896 12.6984
41.3373 12.6431
41.3849 12.7139
41.4327 12.5759
41.4803 12.5019
41.5281 12.4753
41.5758 12.3781
41.6236 12.3666
41.6712 12.349
41.7191 12.2806
41.7667 12.258
41.8146 12.2818
41.8622 12.171
41.9101 12.1808
41.9578 12.0594
42.0057 12.0886
42.0534 12.0012
42.1013 12.0197
42.149 11.9613
42.1969 11.9246
42.2446 11.8666
42.2925 11.8455
42.3403 11.8008
42.3882 11.8042
42.436 11.7533
42.4839 11.6578
42.5319 11.6687
42.5797 11.5811
42.6277 11.5908
42.6755 11.5437
42.7235 11.4708
42.7713 11.4583
42.8193 11.4276
42.8671 11.3564
42.9152 11.3166
42.963 11.3018
43.0111 11.2651
43.0589 11.2056
43.107 11.2161
43.1549 11.1482
43.2029 11.0876
43.2508 11.0881
43.2989 11.0432
43.3468 10.9548
43.3949 10.9977
43.4429 10.9153
43.491 10.9015
43.5389 10.8749
43.5871 10.8262
43.635 10.7897
43.6832 10.7523
43.7312 10.7026
43.7793 10.6318
43.8273 10.6266
43.8755 10.5687
43.9237 10.5388
43.9717 10.5563
44.0199 10.5106
44.068 10.482
44.1162 10.38
44.1642 10.4076
44.2125 10.3376
44.2606 10.3203
44.3088 10.2594
44.3569 10.2366
44.4052 10.2337
44.4533 10.1857
44.5016 10.0806
44.5497 10.0528
44.598 10.1017
44.6461 9.98727
44.6945 10.0009
44.7426 9.97638
44.791 9.93109
44.8391 9.88531
44.8875 9.84078
44.9357 9.82163
44.984 9.81682
45.0322 9.73799
45.0806 9.67617
45.1288 9.72423
45.1773 9.6435
45.2257 9.6472
45.2739 9.59523
45.3224 9.50922
45.3706 9.51778
45.4191 9.44953
45.4673 9.48316
45.5158 9.44961
45.5641 9.39241
45.6126 9.33212
45.6609 9.30564
45.7094 9.25024
45.7577 9.27014
45.8063 9.19786
45.8546 9.18878
45.9031 9.15223
45.9515 9.10897
46.0001 9.09543
46.0484 9.09731
46.097 9.0262
46.1454 9.02723
46.194 9.00525
46.2424 8.95075
46.291 8.92141
46.3395 8.88638
46.3881 8.81985
46.4365 8.81515
46.4852 8.77833
46.5337 8.75939
46.5823 8.71352
46.631 8.67772
46.6795 8.63283
46.7282 8.63224
46.7767 8.58952
46.8254 8.52814
46.8739 8.51561
46.9226 8.52671
46.9712 8.45486
47.0199 8.43078
47.0685 8.37323
47.1173 8.37905
47.1658 8.33545
47.2146 8.29971
47.2632 8.26158
47.312 8.24124
47.3606 8.20204
47.4095 8.18096
47.4581 8.15611
47.5069 8.14668
47.5556 8.08988
47.6044 8.04425
47.6531 8.03699
47.702 8.02739
47.7507 8.00258
47.7996 7.94842
47.8483 7.93542
47.8972 7.92986
47.9461 7.8445
47.9948 7.82878
48.0438 7.8024
48.0925 7.81764
48.1415 7.74354
48.1902 7.71436
48.2392 7.71288
48.288 7.6716
48.337 7.62138
48.3858 7.58739
48.4348 7.5925
48.4837 7.57175
48.5327 7.56421
48.5815 7.5214
48.6306 7.48995
48.6795 7.48245
48.7285 7.42497
48.7774 7.42852
48.8265 7.38583
48.8754 7.34536
48.9245 7.31772
48.9734 7.29798
49.0226 7.27008
49.0715 7.24391
49.1206 7.21444
49.1696 7.16981
49.2188 7.18737
49.2679 7.11585
49.3169 7.09492
49.3661 7.0917
49.4151 7.05865
49.4643 7.0457
49.5134 7.01216
49.5626 6.96423
49.6117 6.95107
49.6609 6.91971
49.71 6.85511
49.7592 6.88862
49.8083 6.83628
49.8576 6.83679
49.9067 6.76766
49.956 6.77604
50.0052 6.74728
50.0545 6.73405
50.1036 6.6835
50.153 6.64241
50.2022 6.69263
50.2515 6.62699
50.3007 6.58183
50.3501 6.53134
50.3993 6.53861
50.4487 6.54018
50.498 6.49287
50.5474 6.47963
50.5966 6.41473
50.6461 6.40772
50.6955 6.41994
50.7448 6.3998
50.7943 6.35592
50.8436 6.33832
50.8931 6.28533
50.9424 6.2867
50.9919 6.25139
51.0413 6.20707
51.0908 6.23976
51.1402 6.19386
51.1897 6.14084
51.2391 6.1533
51.2887 6.10036
51.3381 6.05915
51.3877 6.04269
51.4371 6.00528
51.4867 5.99352
51.5362 5.96667
51.5858 5.952
51.6353 5.96697
51.6849 5.90222
51.7344 5.87123
51.7841 5.87147
51.8336 5.85266
51.8833 5.83619
51.9328 5.77663
51.9826 5.73031
52.0323 5.73966
52.0818 5.71071
52.1316 5.68132
52.1812 5.67905
52.231 5.62026
52.2806 5.62607
52.3304 5.61372
52.38 5.56748
52.4298 5.51495
52.4794 5.56244
52.5293 5.49539
52.5789 5.50568
52.6288 5.4766
52.6785 5.41969
52.7284 5.44659
52.7781 5.40196
52.828 5.37725
52.8777 5.36434
52.9276 5.32984
52.9774 5.30582
53.0273 5.29451
53.0771 5.25544
53.1271 5.26965
53.1769 5.2275
53.2269 5.22727
53.2767 5.1658
53.3267 5.15925
53.3765 5.12533
53.4266 5.12999
53.4766 5.08403
53.5265 5.03299
53.5765 5.04397
53.6264 5.00188
53.6765 4.99434
53.7264 4.94007
53.7765 4.96238
53.8265 4.92612
53.8766 4.89839
53.9266 4.9063
53.9767 4.82734
54.0267 4.86538
54.0769 4.80586
54.1269 4.77361
54.1771 4.73862
54.2271 4.71717
54.2773 4.6915
54.3274 4.61817
54.3776 4.62808
54.4277 4.59025
54.478 4.57321
54.528 4.47017
54.5783 4.45367
54.6285 4.43976
54.6788 4.41344
54.7289 4.38426
54.7792 4.34972
54.8296 4.27149
54.8798 4.25508
54.9301 4.20578
54.9803 4.20602
55.0307 4.19322
55.0809 4.12316
55.1314 4.08919
55.1816 4.09225
55.232 4.04919
55.2823 3.97934
55.3328 3.94243
55.383 3.92359
55.4335 3.88635
55.4838 3.76461
55.5344 3.82433
55.5847 3.78669
55.6352 3.7049
55.6856 3.67937
55.7361 3.64013