File: XRD/Ni3Fe_FD0858.xy
TT I
1.27165 7.46462
1.31627 6.69129
1.36089 6.78704
1.40551 5.62655
1.45013 5.79683
1.49476 5.57916
1.53938 5.7624
1.584 5.1184
1.62863 5.03698
1.67325 5.27611
1.71787 5.43776
1.7625 5.09543
1.80712 4.81461
1.85174 4.90199
1.89636 5.14049
1.94099 4.73293
1.98562 4.46343
2.03025 5.38512
2.07487 5.08959
2.11949 4.5998
2.16411 4.75865
2.20874 14.1948
2.25338 23.4861
2.298 5.98684
2.34263 5.89661
2.38725 6.28493
2.43188 6.4039
2.4765 7.15381
2.52115 7.03079
2.56577 7.61947
2.6104 8.45345
2.65503 7.71541
2.69965 8.13764
2.7443 8.82982
2.78893 8.66589
2.83356 8.94864
2.87818 9.13307
2.92281 8.73856
2.96744 9.52997
3.01209 10.2395
3.05672 10.8854
3.10135 12.3818
3.14599 13.1319
3.19062 14.9776
3.23527 15.0536
3.2799 15.6807
3.32454 17.2978
3.36917 17.7236
3.4138 18.7319
3.45844 19.6345
3.50309 20.9399
3.54773 21.9243
3.59237 23.4891
3.637 91.9219
3.68164 58.653
3.7263 25.9931
3.77094 25.665
3.81558 26.4956
3.86022 27.4372
3.90486 28.8033
3.9495 29.512
3.99416 30.7766
4.0388 31.631
4.08344 33.802
4.12809 35.0768
4.17273 36.8334
4.21738 42.5124
4.26204 247.98
4.30669 219.069
4.35133 48.47
4.39598 44.2627
4.44063 53.768
4.4853 65.3239
4.52995 49.8341
4.5746 50.6283
4.61925 52.7624
4.6639 54.6871
4.70855 57.3939
4.75322 60.1169
4.79788 62.3872
4.84253 66.2402
4.88719 70.1041
4.93184 73.6746
4.97652 78.7923
5.02118 84.8595
5.06583 91.8468
5.11049 102.246
5.15515 166.331
5.19981 295.429
5.24449 2489.91
5.28916 12358.1
5.33382 2710.41
5.37848 177.065
5.42315 125.022
5.46783 111.012
5.5125 103.969
5.55716 100.056
5.60183 96.8295
5.6465 94.6072
5.69117 92.5058
5.73586 90.4476
5.78053 89.9707
5.8252 89.4331
5.86988 89.3649
5.91455 91.9462
5.95924 97.5347
6.00392 175.894
6.0486 837.787
6.09328 4394.53
6.13795 3230.64
6.18263 222.094
6.22733 90.1482
6.27201 80.9639
6.3167 101.118
6.36138 79.9134
6.40606 68.2285
6.45075 66.5062
6.49545 64.8162
6.54014 62.9556
6.58483 61.9732
6.62952 62.3142
6.67421 93.4216
6.71892 142.179
6.76361 68.4773
6.8083 57.892
6.853 57.0104
6.89769 56.4005
6.94239 56.0384
6.98711 55.3276
7.03181 55.055
7.07651 54.8395
7.12121 54.9021
7.16591 54.4275
7.21063 55.2719
7.25533 70.5361
7.30004 175.845
7.34475 91.0161
7.38945 56.2351
7.43416 54.4352
7.47889 53.7715
7.5236 54.0027
7.56831 54.7117
7.61303 56.49
7.65774 56.5578
7.70247 55.5073
7.74719 55.4984
7.79191 56.336
7.83663 56.2211
7.88135 57.3033
7.92607 58.1209
7.97081 59.3057
8.01553 60.0628
8.06026 61.3902
8.10498 62.7165
8.14971 72.5881
8.19446 71.3257
8.23919 68.7305
8.28392 70.6996
8.32865 72.8349
8.37339 77.0186
8.41812 83.2073
8.46288 111.29
8.50761 146.767
8.55235 342.056
8.59709 1132.14
8.64183 2218.0
8.68658 931.824
8.73134 163.834
8.77609 97.4723
8.82083 90.9243
8.86558 88.1279
8.91033 88.4494
8.9551 90.7969
8.99985 84.5105
9.04461 82.2426
9.08936 81.7668
9.13412 80.9316
9.17888 80.8125
9.22365 81.5448
9.26841 80.6417
9.31318 81.3065
9.35794 81.6014
9.4027 81.7619
9.44749 82.8558
9.49226 83.2526
9.53703 84.3265
9.5818 86.2157
9.62657 90.674
9.67134 97.0556
9.71614 92.1689
9.76091 92.2105
9.80569 94.649
9.85047 97.9907
9.89525 121.82
9.94005 132.819
9.98484 158.727
10.0296 305.804
10.0744 779.198
10.1192 1763.31
10.164 1572.78
10.2088 397.071
10.2536 124.221
10.2984 111.509
10.3432 113.148
10.388 102.86
10.4328 112.269
10.4776 149.445
10.5224 274.507
10.5672 527.202
10.612 504.241
10.6568 201.924
10.7017 95.6447
10.7465 85.1572
10.7913 81.8556
10.8361 80.0328
10.8809 77.8615
10.9257 77.4078
10.9706 77.8262
11.0154 73.9286
11.0602 71.7338
11.105 70.7106
11.1499 75.4633
11.1947 82.5971
11.2395 73.5903
11.2844 69.5677
11.3292 66.6582
11.374 65.1375
11.4189 64.8341
11.4637 64.2257
11.5086 64.4315
11.5534 67.5531
11.5983 64.8581
11.6431 63.0849
11.688 62.2173
11.7328 62.0811
11.7777 61.9937
11.8225 61.5231
11.8674 61.6961
11.9122 61.8473
11.9571 62.1076
12.002 62.552
12.0468 65.8064
12.0917 75.7812
12.1366 99.119
12.1814 153.071
12.2263 209.477
12.2712 167.181
12.3161 95.2187
12.3609 69.7593
12.4058 63.8439
12.4507 63.5043
12.4956 63.4587
12.5405 63.6161
12.5853 64.766
12.6302 72.5668
12.6751 77.8763
12.72 69.2
12.7649 66.7579
12.8098 67.4267
12.8547 68.6409
12.8996 70.1865
12.9445 71.0343
12.9894 72.8334
13.0343 74.6967
13.0792 77.2506
13.1242 84.3295
13.1691 105.35
13.214 140.241
13.2589 232.436
13.3038 374.472
13.3487 423.695
13.3937 258.221
13.4386 121.279
13.4835 101.087
13.5285 114.298
13.5734 151.766
13.6183 247.093
13.6633 358.25
13.7082 335.715
13.7531 181.639
13.7981 95.8296
13.843 80.5521
13.888 78.4065
13.9329 75.7054
13.9779 74.7887
14.0228 73.1583
14.0678 71.8153
14.1127 71.4322
14.1577 71.5414
14.2027 70.4095
14.2476 69.1835
14.2926 69.5174
14.3376 70.6393
14.3825 69.3833
14.4275 67.8897
14.4725 67.3482
14.5175 67.8538
14.5624 68.2275
14.6074 70.0692
14.6524 70.7085
14.6974 69.564
14.7424 70.2611
14.7874 75.7869
14.8324 85.2507
14.8774 106.481
14.9224 152.157
14.9674 211.539
15.0124 218.779
15.0574 147.486
15.1024 89.8854
15.1474 71.3819
15.1924 69.3043
15.2374 70.0915
15.2824 69.2482
15.3274 67.163
15.3725 65.9244
15.4175 65.1837
15.4625 65.0441
15.5076 65.4956
15.5526 65.2784
15.5976 64.6708
15.6426 65.3259
15.6877 69.5252
15.7327 76.4998
15.7778 91.2498
15.8228 124.437
15.8679 170.897
15.9129 194.69
15.958 153.683
16.003 93.6912
16.0481 67.1883
16.0931 63.7898
16.1382 61.8793
16.1833 59.8143
16.2283 58.1054
16.2734 57.5542
16.3185 57.8275
16.3636 58.5809
16.4086 57.0539
16.4537 55.4738
16.4988 54.7377
16.5439 54.8607
16.589 54.5032
16.6341 53.9691
16.6792 53.839
16.7243 54.1306
16.7694 54.0704
16.8145 54.0947
16.8596 54.4057
16.9047 56.2148
16.9498 56.1958
16.9949 54.8046
17.04 54.9699
17.0851 55.8863
17.1302 57.263
17.1754 60.491
17.2205 65.6379
17.2656 73.8863
17.3108 83.3729
17.3559 81.6112
17.401 70.0744
17.4462 60.9922
17.4913 58.177
17.5365 58.249
17.5815 58.1567
17.6268 58.681
17.6718 59.4831
17.7171 60.0756
17.7622 60.2929
17.8074 60.6927
17.8525 62.5549
17.8977 66.2392
17.9428 71.5862
17.9881 80.0533
18.0331 97.9988
18.0784 121.089
18.1237 137.598
18.1688 127.606
18.214 100.353
18.2591 84.4181
18.3044 89.7729
18.3495 100.411
18.3948 104.329
18.4399 93.7574
18.4852 76.1159
18.5303 65.0436
18.5756 61.1781
18.6207 60.5102
18.666 59.5315
18.7112 58.7198
18.7565 58.1442
18.8016 57.7421
18.8469 57.3189
18.892 56.7908
18.9374 56.4407
18.9825 56.2336
19.0278 56.014
19.073 56.073
19.1183 56.4861
19.1635 57.1581
19.2088 58.5165
19.254 61.0111
19.2993 65.6082
19.3447 72.5026
19.3898 75.928
19.4352 71.1036
19.4804 62.2612
19.5257 55.8511
19.5709 53.6135
19.6163 53.3509
19.6615 52.9767
19.7068 52.6319
19.752 52.5136
19.7974 52.8738
19.8426 53.5055
19.888 54.0524
19.9332 55.0
19.9786 57.6964
20.0238 61.6371
20.0692 66.5451
20.1144 68.9025
20.1598 67.0645
20.205 62.4875
20.2504 61.4724
20.2957 63.6429
20.3411 65.1615
20.3863 63.3327
20.4318 57.6425
20.477 52.8294
20.5224 50.9833
20.5677 50.3587
20.6131 49.6669
20.6586 49.0047
20.7038 48.6962
20.7493 48.4707
20.7945 48.2612
20.84 48.1932
20.8853 47.9695
20.9307 47.8234
20.976 48.0015
21.0215 47.9456
21.0668 48.2073
21.1122 48.7038
21.1575 49.4979
21.203 50.4097
21.2483 50.9632
21.2938 50.8052
21.3391 49.3554
21.3846 48.2603
21.4299 47.6882
21.4754 47.604
21.5207 47.7929
21.5662 48.0541
21.6116 48.305
21.6571 48.9373
21.7024 49.9096
21.7479 51.4806
21.7933 54.3946
21.8388 58.3323
21.8843 62.1223
21.9297 63.5849
21.9752 62.0461
22.0206 58.4068
22.0661 55.8341
22.1115 55.3792
22.157 55.1794
22.2024 53.25
22.248 50.7542
22.2933 49.0844
22.3389 48.4242
22.3843 48.3647
22.4299 48.3146
22.4753 48.413
22.5208 47.9916
22.5662 47.939
22.6118 47.9056
22.6572 47.9822
22.7028 48.3888
22.7483 48.8294
22.7939 49.4751
22.8393 51.0437
22.8849 53.4753
22.9303 55.8954
22.9759 57.386
23.0214 56.5308
23.067 53.7633
23.1126 50.5137
23.1581 48.6008
23.2037 48.1626
23.2492 48.1996
23.2948 47.9238
23.3403 48.3424
23.3859 48.7961
23.4314 50.0537
23.477 51.818
23.5225 54.3683
23.5682 56.5008
23.6137 57.2609
23.6593 54.6917
23.7048 50.9325
23.7505 47.7253
23.796 46.0639
23.8417 45.5233
23.8872 44.9233
23.9329 44.7187
23.9784 44.2752
24.0241 44.1157
24.0697 44.0757
24.1154 43.5478
24.1609 43.3834
24.2066 43.2011
24.2522 43.163
24.2979 42.9271
24.3434 42.5001
24.3892 42.5042
24.4349 42.5821
24.4805 42.3306
24.5262 42.5428
24.5718 42.3521
24.6175 42.3462
24.6631 42.2859
24.7089 42.0254
24.7545 41.9266
24.8002 41.6347
24.8458 41.7147
24.8916 41.5586
24.9372 41.6737
24.983 41.9147
25.0286 42.3097
25.0744 42.6414
25.12 43.2211
25.1658 43.7662
25.2114 44.1713
25.2572 44.1938
25.3029 44.3295
25.3487 44.4759
25.3943 44.0884
25.4402 42.9536
25.4858 41.9297
25.5316 40.9689
25.5773 40.3212
25.6231 40.3609
25.669 39.9928
25.7147 39.9691
25.7605 39.9662
25.8062 40.0548
25.8521 40.045
25.8977 40.0845
25.9436 40.3768
25.9893 40.34
26.0352 40.9443
26.0809 41.0591
26.1268 41.1192
26.1725 40.7247
26.2184 40.2418
26.2641 39.8379
26.31 39.6178
26.3557 39.6624
26.4017 39.5326
26.4474 39.8558
26.4933 40.2202
26.5391 40.7114
26.585 41.169
26.6308 41.5576
26.6767 41.547
26.7225 41.3787
26.7684 40.8641
26.8142 40.4251
26.8601 39.9905
26.9059 39.4215
26.9519 38.9103
26.9979 38.7585
27.0437 38.3657
27.0896 38.2068
27.1354 38.3069
27.1814 38.091
27.2272 38.1535
27.2732 38.1004
27.3191 37.8041
27.3651 37.9616
27.4109 37.9499
27.4569 37.975
27.5027 38.0589
27.5488 38.1139
27.5946 37.9551
27.6407 37.7022
27.6865 37.5752
27.7326 37.4399
27.7784 37.3245
27.8245 37.1625
27.8703 37.5446
27.9164 37.7273
27.9623 37.9446
28.0084 38.1728
28.0543 38.673
28.1003 38.4306
28.1462 38.2104
28.1923 37.9937
28.2384 37.468
28.2843 37.2318
28.3304 36.748
28.3764 36.2707
28.4225 36.0422
28.4684 35.8492
28.5145 35.4845
28.5605 35.3603
28.6066 35.1784
28.6526 35.1699
28.6987 35.033
28.7447 34.9553
28.7908 34.952
28.8368 34.9234
28.8829 35.0049
28.9289 34.7659
28.9751 34.7569
29.0211 34.4144
29.0673 34.1988
29.1133 34.1734
29.1595 33.9252
29.2055 33.8707
29.2517 34.0203
29.2977 33.8986
29.3439 33.838
29.3899 33.8059
29.4361 33.6889
29.4824 33.5303
29.5284 33.2582
29.5746 32.9824
29.6207 32.7339
29.6669 32.6217
29.713 32.6464
29.7593 32.4812
29.8053 32.5094
29.8516 32.3311
29.8977 32.378
29.9439 32.157
29.99 32.1516
30.0363 32.0963
30.0824 32.0306
30.1287 31.9569
30.1748 32.0015
30.2211 31.9074
30.2673 31.8945
30.3136 31.9172
30.3597 31.8126
30.406 31.7457
30.4522 31.6576
30.4985 31.5347
30.5447 31.6926
30.591 31.7167
30.6372 31.8337
30.6835 31.6847
30.7297 31.8082
30.7761 31.6838
30.8224 31.5481
30.8686 31.4525
30.915 31.201
30.9612 31.0757
31.0076 30.9966
31.0538 30.8228
31.1002 30.6388
31.1464 30.4718
31.1928 30.5316
31.2391 30.5879
31.2855 30.3952
31.3317 30.4309
31.3781 30.5295
31.4244 30.4604
31.4708 30.466
31.5171 30.4327
31.5636 30.3466
31.6098 30.0758
31.6563 29.9744
31.7026 29.9347
31.7491 29.7096
31.7953 29.7749
31.8418 29.7765
31.8881 29.8578
31.9346 29.7159
31.9809 29.64
32.0275 29.5314
32.074 29.4964
32.1203 29.1719
32.1668 29.1315
32.2132 28.971
32.2597 28.8982
32.306 28.8563
32.3526 28.5578
32.399 28.5546
32.4455 28.3851
32.4919 28.3182
32.5385 28.2621
32.5848 28.1499
32.6314 28.1576
32.6778 28.025
32.7244 27.8854
32.7708 27.7625
32.8174 27.827
32.8638 27.75
32.9104 27.7167
32.9569 27.6696
33.0035 27.4336
33.0499 27.5108
33.0966 27.464
33.143 27.4174
33.1897 27.3245
33.2361 27.3224
33.2828 27.2113
33.3293 27.079
33.3759 27.0
33.4226 26.9493
33.4691 26.8217
33.5158 26.6429
33.5623 26.5715
33.609 26.4527
33.6555 26.3398
33.7022 26.239
33.7487 26.1705
33.7954 26.146
33.842 26.0384
33.8887 26.0521
33.9353 25.9588
33.982 25.7868
34.0286 25.6808
34.0753 25.6775
34.1219 25.4487
34.1687 25.5051
34.2152 25.5072
34.262 25.296
34.3086 25.3076
34.3554 25.2415
34.402 25.0518
34.4488 24.9691
34.4954 24.919
34.5422 24.8071
34.5889 24.8153
34.6357 24.5549
34.6825 24.6097
34.7292 24.5904
34.776 24.4248
34.8227 24.3771
34.8695 24.3386
34.9162 24.2526
34.9631 24.1362
35.0098 24.1632
35.0566 24.0299
35.1033 24.0248
35.1502 23.9613
35.1969 23.9054
35.2438 23.8549
35.2906 23.8363
35.3375 23.731
35.3842 23.7225
35.4311 23.6462
35.4779 23.6157
35.5248 23.5673
35.5716 23.4264
35.6185 23.4982
35.6653 23.338
35.7123 23.2497
35.759 23.1979
35.806 23.0675
35.8528 22.8824
35.8998 22.9174
35.9468 22.8495
35.9936 22.8092
36.0406 22.6618
36.0874 22.6913
36.1345 22.543
36.1813 22.5307
36.2283 22.4462
36.2752 22.3608
36.3222 22.3536
36.3691 22.3242
36.4161 22.1605
36.463 22.0772
36.5101 22.1666
36.557 22.0723
36.6041 21.8519
36.651 21.883
36.6981 21.8814
36.745 21.7175
36.7921 21.7115
36.839 21.6059
36.8861 21.5368
36.9331 21.4404
36.9802 21.3467
37.0272 21.2777
37.0743 21.3133
37.1213 21.174
37.1684 21.1618
37.2154 20.9961
37.2626 20.985
37.3098 20.8666
37.3568 20.8319
37.404 20.8092
37.451 20.75
37.4982 20.6594
37.5452 20.5384
37.5924 20.5408
37.6395 20.5231
37.6867 20.4124
37.7337 20.4602
37.781 20.3005
37.8281 20.1976
37.8753 20.1379
37.9224 20.0994
37.9697 19.9912
38.0168 19.9482
38.064 19.9308
38.1111 19.8167
38.1584 19.7458
38.2056 19.6943
38.2529 19.6238
38.3 19.6142
38.3473 19.5829
38.3945 19.4371
38.4418 19.3704
38.489 19.4067
38.5363 19.3099
38.5837 19.2181
38.6309 19.154
38.6782 19.0389
38.7254 19.0284
38.7728 18.9687
38.82 18.823
38.8674 18.8662
38.9146 18.8403
38.9621 18.7622
39.0093 18.6918
39.0567 18.6482
39.104 18.5793
39.1514 18.4763
39.1987 18.4587
39.2461 18.4057
39.2934 18.3478
39.3409 18.2275
39.3882 18.1626
39.4356 18.189
39.483 18.0633
39.5304 18.0673
39.5778 18.0462
39.6253 17.8889
39.6726 17.8427
39.7201 17.7824
39.7675 17.7543
39.815 17.7549
39.8624 17.6634
39.9099 17.6417
39.9575 17.4532
40.0049 17.4648
40.0525 17.4167
40.0999 17.3776
40.1474 17.3498
40.1949 17.1828
40.2425 17.1337
40.2899 17.2002
40.3375 17.077
40.385 17.0756
40.4326 16.9661
40.48 16.8463
40.5277 16.8814
40.5752 16.88
40.6228 16.7278
40.6703 16.6935
40.718 16.7143
40.7655 16.6054
40.8132 16.5382
40.8607 16.5347
40.9084 16.4274
40.9559 16.4599
41.0036 16.3634
41.0512 16.2861
41.0989 16.2258
41.1465 16.1665
41.1942 16.222
41.242 16.0448
41.2896 15.9532
41.3373 15.9882
41.3849 15.934
41.4327 15.9147
41.4803 15.7648
41.5281 15.761
41.5758 15.7401
41.6236 15.5702
41.6712 15.6342
41.7191 15.5175
41.7667 15.5017
41.8146 15.4622
41.8622 15.4504
41.9101 15.4077
41.9578 15.2815
42.0057 15.2596
42.0534 15.1813
42.1013 15.1418
42.149 15.0931
42.1969 15.0066
42.2446 14.9656
42.2925 14.9508
42.3403 14.9153
42.3882 14.8798
42.436 14.8542
42.4839 14.6916
42.5319 14.719
42.5797 14.6229
42.6277 14.6035
42.6755 14.6179
42.7235 14.4312
42.7713 14.4721
42.8193 14.4054
42.8671 14.3797
42.9152 14.2924
42.963 14.2504
43.0111 14.1705
43.0589 14.1654
43.107 14.1174
43.1549 14.0902
43.2029 14.002
43.2508 13.9478
43.2989 13.927
43.3468 13.8434
43.3949 13.797
43.4429 13.7879
43.491 13.7153
43.5389 13.677
43.5871 13.6499
43.635 13.5854
43.6832 13.4795
43.7312 13.4707
43.7793 13.4555
43.8273 13.4108
43.8755 13.3457
43.9237 13.3086
43.9717 13.2558
44.0199 13.1867
44.068 13.2126
44.1162 13.162
44.1642 13.1437
44.2125 13.0711
44.2606 12.9946
44.3088 12.9456
44.3569 12.8754
44.4052 12.9285
44.4533 12.806
44.5016 12.7426
44.5497 12.7013
44.598 12.6653
44.6461 12.6131
44.6945 12.5796
44.7426 12.519
44.791 12.4725
44.8391 12.4565
44.8875 12.4056
44.9357 12.3602
44.984 12.323
45.0322 12.2762
45.0806 12.1941
45.1288 12.1838
45.1773 12.1099
45.2257 12.117
45.2739 12.0726
45.3224 11.9934
45.3706 11.9843
45.4191 11.9186
45.4673 11.8862
45.5158 11.8394
45.5641 11.7731
45.6126 11.7562
45.6609 11.7534
45.7094 11.6571
45.7577 11.6414
45.8063 11.5906
45.8546 11.5984
45.9031 11.4895
45.9515 11.4494
46.0001 11.4522
46.0484 11.3913
46.097 11.3367
46.1454 11.2934
46.194 11.315
46.2424 11.2696
46.291 11.2131
46.3395 11.1547
46.3881 11.081
46.4365 11.1035
46.4852 11.0327
46.5337 10.9574
46.5823 10.9392
46.631 10.8511
46.6795 10.9076
46.7282 10.8122
46.7767 10.7746
46.8254 10.6892
46.8739 10.7066
46.9226 10.6806
46.9712 10.6409
47.0199 10.5909
47.0685 10.5362
47.1173 10.4875
47.1658 10.4492
47.2146 10.408
47.2632 10.4046
47.312 10.3646
47.3606 10.3118
47.4095 10.2914
47.4581 10.2374
47.5069 10.2103
47.5556 10.1561
47.6044 10.1649
47.6531 10.076
47.702 10.0546
47.7507 10.0267
47.7996 9.98039
47.8483 9.97252
47.8972 9.91176
47.9461 9.86786
47.9948 9.80418
48.0438 9.78361
48.0925 9.78553
48.1415 9.70536
48.1902 9.71885
48.2392 9.67834
48.288 9.64721
48.337 9.58617
48.3858 9.54393
48.4348 9.51839
48.4837 9.47879
48.5327 9.46689
48.5815 9.39019
48.6306 9.41066
48.6795 9.34942
48.7285 9.28352
48.7774 9.28184
48.8265 9.27446
48.8754 9.18546
48.9245 9.16011
48.9734 9.16261
49.0226 9.12979
49.0715 9.04574
49.1206 9.05997
49.1696 9.00575
49.2188 8.97969
49.2679 8.93363
49.3169 8.88613
49.3661 8.83564
49.4151 8.82166
49.4643 8.77349
49.5134 8.76863
49.5626 8.69384
49.6117 8.7076
49.6609 8.64554
49.71 8.6142
49.7592 8.57618
49.8083 8.56403
49.8576 8.52298
49.9067 8.47639
49.956 8.46974
50.0052 8.43613
50.0545 8.40043
50.1036 8.35343
50.153 8.2912
50.2022 8.27704
50.2515 8.22147
50.3007 8.20756
50.3501 8.20703
50.3993 8.15898
50.4487 8.16624
50.498 8.11684
50.5474 8.08731
50.5966 8.06111
50.6461 8.02417
50.6955 8.0157
50.7448 7.93852
50.7943 7.91032
50.8436 7.91058
50.8931 7.86529
50.9424 7.81577
50.9919 7.80544
51.0413 7.77069
51.0908 7.78357
51.1402 7.70808
51.1897 7.6745
51.2391 7.63428
51.2887 7.60888
51.3381 7.57445
51.3877 7.55094
51.4371 7.52848
51.4867 7.50302
51.5362 7.46262
51.5858 7.45018
51.6353 7.37607
51.6849 7.39031
51.7344 7.32977
51.7841 7.36798
51.8336 7.26286
51.8833 7.24972
51.9328 7.22633
51.9826 7.1689
52.0323 7.13305
52.0818 7.12354
52.1316 7.12689
52.1812 7.11279
52.231 7.02276
52.2806 7.02088
52.3304 6.96146
52.38 6.95334
52.4298 6.93699
52.4794 6.91459
52.5293 6.8858
52.5789 6.82571
52.6288 6.82389
52.6785 6.77741
52.7284 6.7579
52.7781 6.71079
52.828 6.68957
52.8777 6.68052
52.9276 6.64507
52.9774 6.64785
53.0273 6.61257
53.0771 6.55958
53.1271 6.54545
53.1769 6.50427
53.2269 6.51931
53.2767 6.4427
53.3267 6.43057
53.3765 6.38957
53.4266 6.35801
53.4766 6.3351
53.5265 6.30206
53.5765 6.31597
53.6264 6.26042
53.6765 6.27288
53.7264 6.23182
53.7765 6.178
53.8265 6.15104
53.8766 6.1276
53.9266 6.10026
53.9767 6.04117
54.0267 6.03619
54.0769 6.02423
54.1269 5.99574
54.1771 5.94006
54.2271 5.9387
54.2773 5.88817
54.3274 5.90483
54.3776 5.84758
54.4277 5.82042
54.478 5.81699
54.528 5.79238
54.5783 5.71929
54.6285 5.65503
54.6788 5.62668
54.7289 5.56738
54.7792 5.55922
54.8296 5.50384
54.8798 5.45776
54.9301 5.4121
54.9803 5.40647
55.0307 5.3524
55.0809 5.28776
55.1314 5.30646
55.1816 5.23318
55.232 5.23324
55.2823 5.12063
55.3328 5.10062
55.383 5.0573
55.4335 4.98331
55.4838 4.95152
55.5344 4.90061
55.5847 4.90295
55.6352 4.82116
55.6856 4.77802
55.7361 4.77545