File: XRD/Ni3Fe_FD1032.xy
TT I
1.27165 6.70137
1.31627 6.52549
1.36089 6.49371
1.40551 6.00489
1.45013 6.29461
1.49476 5.19855
1.53938 5.49419
1.584 4.76177
1.62863 4.95869
1.67325 4.3735
1.71787 5.17441
1.7625 4.48961
1.80712 4.54196
1.85174 4.21061
1.89636 4.07705
1.94099 4.71804
1.98562 4.31871
2.03025 4.27449
2.07487 3.91314
2.11949 4.59289
2.16411 4.35912
2.20874 5.2035
2.25338 6.5737
2.298 5.61037
2.34263 4.97614
2.38725 5.7309
2.43188 6.54102
2.4765 6.89653
2.52115 7.24125
2.56577 7.87204
2.6104 8.21377
2.65503 8.02083
2.69965 8.14285
2.7443 8.36915
2.78893 8.44999
2.83356 8.43952
2.87818 8.82646
2.92281 9.53705
2.96744 9.43062
3.01209 10.1113
3.05672 10.8211
3.10135 11.8432
3.14599 12.8966
3.19062 13.8648
3.23527 14.6638
3.2799 15.2495
3.32454 16.4735
3.36917 17.2432
3.4138 18.1743
3.45844 18.7289
3.50309 19.6098
3.54773 20.3562
3.59237 21.0598
3.637 28.3126
3.68164 26.9345
3.7263 23.8146
3.77094 24.7784
3.81558 25.5924
3.86022 25.6046
3.90486 27.3132
3.9495 28.3172
3.99416 29.0612
4.0388 30.1547
4.08344 31.5499
4.12809 32.1886
4.17273 33.6097
4.21738 35.6547
4.26204 52.6227
4.30669 57.2087
4.35133 40.7839
4.39598 40.4275
4.44063 43.3288
4.4853 45.7655
4.52995 46.8162
4.5746 48.3489
4.61925 50.3256
4.6639 52.9952
4.70855 55.2889
4.75322 57.4733
4.79788 60.522
4.84253 64.0681
4.88719 67.707
4.93184 71.1963
4.97652 76.3377
5.02118 82.4177
5.06583 89.063
5.11049 97.2796
5.15515 117.248
5.19981 228.312
5.24449 2419.51
5.28916 13479.6
5.33382 3359.29
5.37848 221.943
5.42315 124.207
5.46783 108.085
5.5125 100.613
5.55716 96.6955
5.60183 93.0031
5.6465 90.5946
5.69117 89.4914
5.73586 88.1126
5.78053 86.5775
5.8252 85.8339
5.86988 86.8672
5.91455 88.6479
5.95924 94.8342
6.00392 160.192
6.0486 864.693
6.09328 4533.72
6.13795 3566.21
6.18263 243.403
6.22733 86.9222
6.27201 75.9458
6.3167 72.5842
6.36138 68.3675
6.40606 64.5726
6.45075 63.0617
6.49545 61.5423
6.54014 59.8768
6.58483 58.5473
6.62952 57.5253
6.67421 58.3134
6.71892 64.2949
6.76361 56.6651
6.8083 54.1844
6.853 53.5774
6.89769 53.0852
6.94239 53.3119
6.98711 52.1993
7.03181 52.0074
7.07651 51.9948
7.12121 51.6396
7.16591 51.1545
7.21063 50.8281
7.25533 51.4993
7.30004 61.9937
7.34475 55.8884
7.38945 51.6628
7.43416 51.0234
7.47889 51.6452
7.5236 60.3482
7.56831 78.0598
7.61303 57.7075
7.65774 52.8451
7.70247 53.0652
7.74719 52.8452
7.79191 53.5656
7.83663 53.7862
7.88135 54.6399
7.92607 54.9717
7.97081 56.6961
8.01553 57.0743
8.06026 58.7311
8.10498 59.9394
8.14971 62.439
8.19446 63.6149
8.23919 64.9909
8.28392 68.186
8.32865 70.0414
8.37339 73.8244
8.41812 77.3108
8.46288 85.4859
8.50761 125.535
8.55235 358.355
8.59709 1062.91
8.64183 2242.25
8.68658 1109.68
8.73134 177.694
8.77609 94.7881
8.82083 88.0289
8.86558 85.6696
8.91033 83.194
8.9551 82.332
8.99985 80.6521
9.04461 79.6986
9.08936 79.1972
9.13412 78.5489
9.17888 79.4105
9.22365 93.2558
9.26841 120.229
9.31318 91.6651
9.35794 79.9183
9.4027 79.5582
9.44749 80.1144
9.49226 80.5955
9.53703 81.2372
9.5818 82.7571
9.62657 84.1312
9.67134 85.7444
9.71614 87.5339
9.76091 88.7453
9.80569 91.1395
9.85047 93.5422
9.89525 98.2012
9.94005 105.627
9.98484 145.091
10.0296 336.554
10.0744 751.708
10.1192 1743.23
10.164 1681.22
10.2088 449.804
10.2536 126.345
10.2984 102.514
10.3432 100.313
10.388 97.1311
10.4328 106.629
10.4776 156.886
10.5224 262.669
10.5672 502.369
10.612 541.198
10.6568 227.263
10.7017 105.871
10.7465 86.5771
10.7913 79.7336
10.8361 77.2788
10.8809 74.9371
10.9257 73.1902
10.9706 72.1715
11.0154 70.3378
11.0602 68.9507
11.105 67.7421
11.1499 66.667
11.1947 67.1424
11.2395 65.4933
11.2844 64.3474
11.3292 63.2679
11.374 62.6339
11.4189 62.2357
11.4637 61.7287
11.5086 60.9459
11.5534 60.7522
11.5983 60.5317
11.6431 60.2527
11.688 59.7538
11.7328 59.4453
11.7777 59.5723
11.8225 59.5649
11.8674 59.7561
11.9122 61.9407
11.9571 69.5474
12.002 67.5834
12.0468 64.1333
12.0917 75.8477
12.1366 97.7212
12.1814 145.878
12.2263 206.953
12.2712 176.048
12.3161 96.2249
12.3609 64.1986
12.4058 60.9681
12.4507 60.9297
12.4956 61.0044
12.5405 61.085
12.5853 61.4232
12.6302 62.2217
12.6751 63.6752
12.72 63.8283
12.7649 63.8347
12.8098 64.6234
12.8547 66.1296
12.8996 67.5747
12.9445 68.3662
12.9894 70.4946
13.0343 72.3725
13.0792 76.3886
13.1242 82.046
13.1691 106.172
13.214 144.103
13.2589 223.044
13.3038 361.36
13.3487 440.494
13.3937 281.449
13.4386 127.535
13.4835 98.468
13.5285 118.032
13.5734 153.588
13.6183 233.428
13.6633 352.878
13.7082 363.178
13.7531 208.339
13.7981 101.327
13.843 79.4822
13.888 76.6846
13.9329 73.9922
13.9779 73.2315
14.0228 71.6833
14.0678 70.4682
14.1127 71.9147
14.1577 76.4275
14.2027 74.3491
14.2476 68.8154
14.2926 67.1304
14.3376 67.1199
14.3825 66.5111
14.4275 65.943
14.4725 65.999
14.5175 66.1081
14.5624 65.946
14.6074 66.3485
14.6524 66.7011
14.6974 67.0355
14.7424 68.1791
14.7874 73.8161
14.8324 87.4765
14.8774 107.523
14.9224 145.913
14.9674 206.992
15.0124 229.081
15.0574 161.355
15.1024 93.7487
15.1474 70.7084
15.1924 67.7822
15.2374 66.4355
15.2824 65.4177
15.3274 64.5361
15.3725 63.9878
15.4175 63.7545
15.4625 63.3748
15.5076 63.0209
15.5526 62.8769
15.5976 62.9985
15.6426 63.2594
15.6877 67.9341
15.7327 78.4423
15.7778 93.0493
15.8228 120.564
15.8679 167.11
15.9129 200.891
15.958 167.924
16.003 103.452
16.0481 69.556
16.0931 63.1127
16.1382 59.6424
16.1833 58.0707
16.2283 56.5685
16.2734 55.9415
16.3185 55.3886
16.3636 54.8825
16.4086 54.2078
16.4537 53.744
16.4988 53.151
16.5439 53.0165
16.589 52.9612
16.6341 52.7608
16.6792 52.4579
16.7243 52.6297
16.7694 52.4386
16.8145 52.2504
16.8596 52.5583
16.9047 53.4624
16.9498 54.0634
16.9949 53.8645
17.04 53.3383
17.0851 54.4941
17.1302 56.5802
17.1754 59.5955
17.2205 64.284
17.2656 71.9091
17.3108 81.2003
17.3559 82.4142
17.401 71.7163
17.4462 61.1272
17.4913 57.2654
17.5365 56.9765
17.5815 56.8631
17.6268 57.4694
17.6718 57.6936
17.7171 58.5801
17.7622 59.878
17.8074 60.4283
17.8525 61.5985
17.8977 65.8974
17.9428 72.2697
17.9881 80.7502
18.0331 96.4083
18.0784 120.139
18.1237 141.745
18.1688 137.521
18.214 108.835
18.2591 87.9518
18.3044 88.3775
18.3495 98.6794
18.3948 106.743
18.4399 97.782
18.4852 79.2204
18.5303 65.5346
18.5756 61.113
18.6207 59.831
18.666 58.6256
18.7112 57.883
18.7565 57.1403
18.8016 56.9945
18.8469 56.2842
18.892 55.9386
18.9374 55.2495
18.9825 55.184
19.0278 54.7801
19.073 54.8708
19.1183 54.8751
19.1635 55.9388
19.2088 57.5893
19.254 59.9859
19.2993 65.1166
19.3447 71.7897
19.3898 75.8943
19.4352 72.3027
19.4804 63.0662
19.5257 56.1731
19.5709 52.8405
19.6163 51.983
19.6615 52.0211
19.7068 51.497
19.752 51.4252
19.7974 51.5406
19.8426 52.3142
19.888 53.2772
19.9332 54.5458
19.9786 57.0867
20.0238 60.2707
20.0692 66.1852
20.1144 70.1135
20.1598 68.8398
20.205 63.6597
20.2504 61.4258
20.2957 63.1866
20.3411 65.4331
20.3863 64.1734
20.4318 57.8927
20.477 52.6094
20.5224 49.888
20.5677 48.8443
20.6131 48.55
20.6586 48.2459
20.7038 48.031
20.7493 47.817
20.7945 47.9583
20.84 47.8599
20.8853 47.2471
20.9307 47.0687
20.976 47.1966
21.0215 47.1624
21.0668 47.3579
21.1122 47.8091
21.1575 48.5029
21.203 49.3276
21.2483 50.3282
21.2938 50.577
21.3391 48.9609
21.3846 47.5834
21.4299 47.1614
21.4754 47.1081
21.5207 47.1668
21.5662 47.5338
21.6116 47.6405
21.6571 48.5867
21.7024 49.8159
21.7479 51.4516
21.7933 53.7821
21.8388 57.5793
21.8843 62.4607
21.9297 65.1079
21.9752 63.8638
22.0206 59.697
22.0661 56.1556
22.1115 55.7535
22.157 55.8487
22.2024 54.1328
22.248 50.9601
22.2933 49.0718
22.3389 47.7844
22.3843 47.5401
22.4299 47.3192
22.4753 47.2564
22.5208 47.1619
22.5662 47.1217
22.6118 47.3677
22.6572 47.4043
22.7028 48.0939
22.7483 48.6957
22.7939 49.5082
22.8393 50.8659
22.8849 52.9449
22.9303 55.5452
22.9759 57.4967
23.0214 57.263
23.067 54.4464
23.1126 50.9374
23.1581 48.3544
23.2037 47.6237
23.2492 47.5159
23.2948 47.5385
23.3403 48.2741
23.3859 49.045
23.4314 50.0569
23.477 51.8047
23.5225 54.3153
23.5682 57.0502
23.6137 58.4568
23.6593 56.3331
23.7048 51.9591
23.7505 48.0685
23.796 45.8667
23.8417 45.0608
23.8872 44.4757
23.9329 44.2015
23.9784 43.7346
24.0241 43.4936
24.0697 43.2905
24.1154 42.8992
24.1609 42.7153
24.2066 42.5752
24.2522 42.4063
24.2979 42.2642
24.3434 42.0398
24.3892 42.0436
24.4349 41.9629
24.4805 41.7361
24.5262 42.0334
24.5718 41.9367
24.6175 42.0212
24.6631 41.887
24.7089 41.454
24.7545 41.2552
24.8002 41.1316
24.8458 41.0036
24.8916 41.0452
24.9372 41.0878
24.983 41.471
25.0286 41.8084
25.0744 42.3699
25.12 43.0531
25.1658 43.6555
25.2114 43.9745
25.2572 44.096
25.3029 44.2792
25.3487 44.4925
25.3943 44.1389
25.4402 43.2039
25.4858 41.89
25.5316 40.679
25.5773 39.9802
25.6231 39.8262
25.669 39.5815
25.7147 39.4964
25.7605 39.4529
25.8062 39.5515
25.8521 39.7199
25.8977 39.6
25.9436 39.9215
25.9893 40.1049
26.0352 40.6778
26.0809 40.8478
26.1268 41.2049
26.1725 40.8418
26.2184 40.2001
26.2641 39.5669
26.31 39.2265
26.3557 39.3077
26.4017 39.223
26.4474 39.5969
26.4933 39.8486
26.5391 40.4843
26.585 40.9919
26.6308 41.5992
26.6767 41.8841
26.7225 41.8235
26.7684 41.1458
26.8142 40.3682
26.8601 39.8606
26.9059 39.569
26.9519 38.8462
26.9979 38.5274
27.0437 38.1347
27.0896 37.8144
27.1354 37.9431
27.1814 37.8393
27.2272 37.7066
27.2732 37.6634
27.3191 37.5998
27.3651 37.7853
27.4109 37.659
27.4569 37.6736
27.5027 37.8817
27.5488 37.9278
27.5946 37.8014
27.6407 37.3998
27.6865 37.4486
27.7326 37.1013
27.7784 37.0622
27.8245 37.056
27.8703 37.3332
27.9164 37.508
27.9623 37.9268
28.0084 38.2639
28.0543 38.7118
28.1003 38.7194
28.1462 38.52
28.1923 38.2018
28.2384 37.5866
28.2843 37.2621
28.3304 36.6781
28.3764 36.1168
28.4225 35.6684
28.4684 35.5564
28.5145 35.2579
28.5605 35.0842
28.6066 34.8843
28.6526 34.8194
28.6987 34.7869
28.7447 34.746
28.7908 34.602
28.8368 34.6359
28.8829 34.742
28.9289 34.6809
28.9751 34.3386
29.0211 34.2515
29.0673 34.0465
29.1133 33.7866
29.1595 33.7555
29.2055 33.6084
29.2517 33.546
29.2977 33.4942
29.3439 33.5221
29.3899 33.5888
29.4361 33.6245
29.4824 33.2754
29.5284 33.1545
29.5746 32.756
29.6207 32.386
29.6669 32.3714
29.713 32.2875
29.7593 32.1505
29.8053 32.0908
29.8516 32.0333
29.8977 32.0684
29.9439 31.8165
29.99 31.8481
30.0363 31.8095
30.0824 31.8458
30.1287 31.7068
30.1748 31.7916
30.2211 31.6724
30.2673 31.6488
30.3136 31.7293
30.3597 31.6226
30.406 31.4954
30.4522 31.4068
30.4985 31.3265
30.5447 31.5389
30.591 31.4139
30.6372 31.6481
30.6835 31.6082
30.7297 31.7274
30.7761 31.6364
30.8224 31.5661
30.8686 31.3525
30.915 31.0833
30.9612 31.0148
31.0076 30.708
31.0538 30.5494
31.1002 30.5236
31.1464 30.3359
31.1928 30.3499
31.2391 30.4115
31.2855 30.2456
31.3317 30.2606
31.3781 30.3976
31.4244 30.3366
31.4708 30.2959
31.5171 30.317
31.5636 30.326
31.6098 30.0282
31.6563 29.7643
31.7026 29.7387
31.7491 29.6342
31.7953 29.7002
31.8418 29.5659
31.8881 29.5968
31.9346 29.4966
31.9809 29.5404
32.0275 29.3943
32.074 29.2118
32.1203 29.132
32.1668 28.9766
32.2132 28.7745
32.2597 28.6461
32.306 28.687
32.3526 28.3951
32.399 28.407
32.4455 28.2385
32.4919 28.1491
32.5385 28.0924
32.5848 27.9478
32.6314 27.981
32.6778 27.8813
32.7244 27.7211
32.7708 27.5677
32.8174 27.6071
32.8638 27.4639
32.9104 27.4661
32.9569 27.4846
33.0035 27.274
33.0499 27.2969
33.0966 27.3726
33.143 27.3052
33.1897 27.1873
33.2361 27.1515
33.2828 27.0579
33.3293 26.9038
33.3759 26.912
33.4226 26.7006
33.4691 26.6565
33.5158 26.4995
33.5623 26.3594
33.609 26.192
33.6555 26.0907
33.7022 26.013
33.7487 26.0119
33.7954 25.9508
33.842 25.8438
33.8887 25.802
33.9353 25.7216
33.982 25.6919
34.0286 25.5543
34.0753 25.4482
34.1219 25.4258
34.1687 25.3557
34.2152 25.2646
34.262 25.2038
34.3086 25.0848
34.3554 24.9033
34.402 24.879
34.4488 24.7557
34.4954 24.7151
34.5422 24.7081
34.5889 24.513
34.6357 24.4495
34.6825 24.4014
34.7292 24.365
34.776 24.106
34.8227 24.238
34.8695 24.1661
34.9162 24.0966
34.9631 23.9985
35.0098 23.9727
35.0566 23.9204
35.1033 23.783
35.1502 23.791
35.1969 23.7663
35.2438 23.7344
35.2906 23.615
35.3375 23.6267
35.3842 23.6043
35.4311 23.5131
35.4779 23.5773
35.5248 23.3887
35.5716 23.3861
35.6185 23.2836
35.6653 23.174
35.7123 23.1038
35.759 22.9648
35.806 22.9856
35.8528 22.8941
35.8998 22.7724
35.9468 22.6794
35.9936 22.6921
36.0406 22.587
36.0874 22.5605
36.1345 22.5062
36.1813 22.4559
36.2283 22.3555
36.2752 22.2097
36.3222 22.2261
36.3691 22.1348
36.4161 22.0019
36.463 22.0609
36.5101 21.9685
36.557 21.9508
36.6041 21.7328
36.651 21.8701
36.6981 21.7076
36.745 21.6425
36.7921 21.5585
36.839 21.444
36.8861 21.3748
36.9331 21.2536
36.9802 21.2352
37.0272 21.1794
37.0743 21.1203
37.1213 21.0712
37.1684 21.0265
37.2154 20.9793
37.2626 20.9017
37.3098 20.7648
37.3568 20.7112
37.404 20.7065
37.451 20.6699
37.4982 20.4617
37.5452 20.4224
37.5924 20.3708
37.6395 20.3699
37.6867 20.3278
37.7337 20.2312
37.781 20.1385
37.8281 20.088
37.8753 19.9597
37.9224 19.9125
37.9697 19.8376
38.0168 19.7957
38.064 19.7705
38.1111 19.6751
38.1584 19.6241
38.2056 19.5392
38.2529 19.5643
38.3 19.3947
38.3473 19.4211
38.3945 19.2597
38.4418 19.1724
38.489 19.2111
38.5363 19.0903
38.5837 19.1019
38.6309 18.9609
38.6782 18.9178
38.7254 18.8667
38.7728 18.8834
38.82 18.7996
38.8674 18.7861
38.9146 18.6584
38.9621 18.5732
39.0093 18.5421
39.0567 18.4933
39.104 18.4135
39.1514 18.313
39.1987 18.2946
39.2461 18.2815
39.2934 18.2287
39.3409 18.1306
39.3882 18.0332
39.4356 17.975
39.483 17.9264
39.5304 17.8673
39.5778 17.8776
39.6253 17.7739
39.6726 17.7224
39.7201 17.705
39.7675 17.6844
39.815 17.5542
39.8624 17.5439
39.9099 17.4908
39.9575 17.3592
40.0049 17.353
40.0525 17.2755
40.0999 17.3088
40.1474 17.2107
40.1949 17.1221
40.2425 17.0821
40.2899 17.0864
40.3375 17.0169
40.385 16.8822
40.4326 16.907
40.48 16.7717
40.5277 16.7867
40.5752 16.7017
40.6228 16.6519
40.6703 16.5566
40.718 16.5015
40.7655 16.4816
40.8132 16.4599
40.8607 16.3985
40.9084 16.3881
40.9559 16.3156
41.0036 16.3172
41.0512 16.2121
41.0989 16.1547
41.1465 16.0939
41.1942 16.0383
41.242 15.9422
41.2896 15.8737
41.3373 15.8564
41.3849 15.8316
41.4327 15.7749
41.4803 15.687
41.5281 15.6621
41.5758 15.6206
41.6236 15.5187
41.6712 15.4548
41.7191 15.4048
41.7667 15.4422
41.8146 15.3536
41.8622 15.2873
41.9101 15.247
41.9578 15.1055
42.0057 15.1126
42.0534 15.0777
42.1013 15.0211
42.149 15.0218
42.1969 14.8759
42.2446 14.833
42.2925 14.833
42.3403 14.7417
42.3882 14.7636
42.436 14.6943
42.4839 14.6353
42.5319 14.6163
42.5797 14.5166
42.6277 14.5179
42.6755 14.4304
42.7235 14.3566
42.7713 14.3646
42.8193 14.2376
42.8671 14.2569
42.9152 14.2238
42.963 14.1411
43.0111 14.0278
43.0589 14.0561
43.107 13.9707
43.1549 13.9566
43.2029 13.9012
43.2508 13.8597
43.2989 13.8151
43.3468 13.7258
43.3949 13.7275
43.4429 13.6894
43.491 13.5586
43.5389 13.5621
43.5871 13.5204
43.635 13.497
43.6832 13.4051
43.7312 13.3991
43.7793 13.3516
43.8273 13.3442
43.8755 13.2482
43.9237 13.1915
43.9717 13.1895
44.0199 13.1052
44.068 13.1671
44.1162 12.9914
44.1642 12.9818
44.2125 12.9396
44.2606 12.9159
44.3088 12.8634
44.3569 12.7618
44.4052 12.7963
44.4533 12.6951
44.5016 12.6496
44.5497 12.6511
44.598 12.5672
44.6461 12.4732
44.6945 12.4553
44.7426 12.3971
44.791 12.3705
44.8391 12.3162
44.8875 12.3264
44.9357 12.2542
44.984 12.2371
45.0322 12.206
45.0806 12.1144
45.1288 12.0801
45.1773 12.0043
45.2257 11.9884
45.2739 11.9544
45.3224 11.8871
45.3706 11.8895
45.4191 11.8198
45.4673 11.8227
45.5158 11.7605
45.5641 11.7124
45.6126 11.6699
45.6609 11.5841
45.7094 11.5718
45.7577 11.5621
45.8063 11.4631
45.8546 11.4418
45.9031 11.4122
45.9515 11.3592
46.0001 11.3421
46.0484 11.2889
46.097 11.2723
46.1454 11.2335
46.194 11.1844
46.2424 11.1506
46.291 11.1049
46.3395 11.0302
46.3881 11.0268
46.4365 10.9838
46.4852 10.9119
46.5337 10.8971
46.5823 10.8393
46.631 10.8074
46.6795 10.7742
46.7282 10.7435
46.7767 10.7096
46.8254 10.6582
46.8739 10.6396
46.9226 10.5968
46.9712 10.5387
47.0199 10.4941
47.0685 10.4724
47.1173 10.4194
47.1658 10.3521
47.2146 10.36
47.2632 10.2863
47.312 10.3041
47.3606 10.209
47.4095 10.1973
47.4581 10.1369
47.5069 10.1047
47.5556 10.0796
47.6044 10.0538
47.6531 10.0154
47.702 9.98741
47.7507 9.93658
47.7996 9.8784
47.8483 9.84966
47.8972 9.82703
47.9461 9.83804
47.9948 9.73494
48.0438 9.69847
48.0925 9.70103
48.1415 9.65755
48.1902 9.62801
48.2392 9.59452
48.288 9.53059
48.337 9.55789
48.3858 9.49525
48.4348 9.44983
48.4837 9.43971
48.5327 9.41045
48.5815 9.35612
48.6306 9.30445
48.6795 9.25656
48.7285 9.21525
48.7774 9.21869
48.8265 9.17056
48.8754 9.137
48.9245 9.15392
48.9734 9.06793
49.0226 9.03693
49.0715 8.97897
49.1206 8.96252
49.1696 8.93992
49.2188 8.86537
49.2679 8.82044
49.3169 8.83137
49.3661 8.7906
49.4151 8.73386
49.4643 8.73135
49.5134 8.69676
49.5626 8.64609
49.6117 8.61908
49.6609 8.6107
49.71 8.52761
49.7592 8.50188
49.8083 8.49511
49.8576 8.51636
49.9067 8.44036
49.956 8.40046
50.0052 8.38399
50.0545 8.33758
50.1036 8.30352
50.153 8.29136
50.2022 8.21333
50.2515 8.20378
50.3007 8.14254
50.3501 8.13394
50.3993 8.14407
50.4487 8.08314
50.498 8.05802
50.5474 8.02252
50.5966 7.98686
50.6461 7.95078
50.6955 7.93611
50.7448 7.91867
50.7943 7.87996
50.8436 7.83494
50.8931 7.81807
50.9424 7.76506
50.9919 7.76857
51.0413 7.7127
51.0908 7.66974
51.1402 7.63803
51.1897 7.61663
51.2391 7.5894
51.2887 7.56994
51.3381 7.48088
51.3877 7.49951
51.4371 7.44708
51.4867 7.42941
51.5362 7.44068
51.5858 7.40719
51.6353 7.32031
51.6849 7.3271
51.7344 7.29009
51.7841 7.27984
51.8336 7.23887
51.8833 7.19712
51.9328 7.15131
51.9826 7.12685
52.0323 7.16002
52.0818 7.08927
52.1316 7.03503
52.1812 7.03866
52.231 6.97823
52.2806 6.95552
52.3304 6.95133
52.38 6.90462
52.4298 6.87449
52.4794 6.82847
52.5293 6.83917
52.5789 6.80539
52.6288 6.74924
52.6785 6.70576
52.7284 6.70878
52.7781 6.70807
52.828 6.63361
52.8777 6.59544
52.9276 6.59576
52.9774 6.56199
53.0273 6.51952
53.0771 6.50715
53.1271 6.46484
53.1769 6.4395
53.2269 6.43651
53.2767 6.40077
53.3267 6.39528
53.3765 6.35002
53.4266 6.26969
53.4766 6.28488
53.5265 6.22579
53.5765 6.23888
53.6264 6.25504
53.6765 6.21253
53.7264 6.16212
53.7765 6.15526
53.8265 6.09788
53.8766 6.05178
53.9266 6.04238
53.9767 6.04387
54.0267 6.04703
54.0769 5.9864
54.1269 5.92273
54.1771 5.87377
54.2271 5.8828
54.2773 5.87491
54.3274 5.84144
54.3776 5.80579
54.4277 5.79718
54.478 5.73543
54.528 5.6841
54.5783 5.6761
54.6285 5.62294
54.6788 5.56301
54.7289 5.52764
54.7792 5.50259
54.8296 5.45004
54.8798 5.39142
54.9301 5.38717
54.9803 5.33913
55.0307 5.34289
55.0809 5.27899
55.1314 5.26807
55.1816 5.23022
55.232 5.11456
55.2823 5.09982
55.3328 5.03734
55.383 4.97103
55.4335 4.97852
55.4838 4.93586
55.5344 4.93523
55.5847 4.81637
55.6352 4.81114
55.6856 4.7941
55.7361 4.72177