File: XRD/Ni3Fe_FD0606.xy
TT I
1.27165 7.03096
1.31627 6.91553
1.36089 7.0371
1.40551 6.8009
1.45013 6.22141
1.49476 6.35579
1.53938 5.56868
1.584 5.65505
1.62863 5.43282
1.67325 4.82578
1.71787 4.91711
1.7625 4.92377
1.80712 5.07337
1.85174 4.50656
1.89636 3.79042
1.94099 5.20373
1.98562 5.12375
2.03025 4.89399
2.07487 4.41454
2.11949 4.63426
2.16411 4.89802
2.20874 12.2724
2.25338 17.9536
2.298 5.40358
2.34263 5.32682
2.38725 6.1765
2.43188 5.99342
2.4765 7.1947
2.52115 6.84584
2.56577 7.02058
2.6104 8.21955
2.65503 7.57445
2.69965 8.44983
2.7443 7.94677
2.78893 7.4994
2.83356 8.30313
2.87818 8.94706
2.92281 8.47739
2.96744 9.5786
3.01209 10.0409
3.05672 11.0286
3.10135 12.3681
3.14599 13.1083
3.19062 14.0598
3.23527 14.7577
3.2799 15.8475
3.32454 17.1832
3.36917 17.7004
3.4138 19.011
3.45844 19.8502
3.50309 21.2665
3.54773 21.6522
3.59237 23.5362
3.637 74.9258
3.68164 49.3607
3.7263 25.9532
3.77094 26.2475
3.81558 26.7139
3.86022 27.7741
3.90486 29.4912
3.9495 29.7988
3.99416 30.893
4.0388 32.0011
4.08344 33.9357
4.12809 35.1029
4.17273 36.8818
4.21738 42.3063
4.26204 193.382
4.30669 164.592
4.35133 47.5767
4.39598 44.6849
4.44063 52.416
4.4853 60.6993
4.52995 50.639
4.5746 52.0639
4.61925 53.812
4.6639 55.633
4.70855 58.8984
4.75322 61.52
4.79788 64.7775
4.84253 67.9641
4.88719 71.9752
4.93184 75.6194
4.97652 81.1808
5.02118 87.8756
5.06583 95.7666
5.11049 107.286
5.15515 164.007
5.19981 386.784
5.24449 3028.85
5.28916 12124.1
5.33382 2973.53
5.37848 196.891
5.42315 130.91
5.46783 115.697
5.5125 107.431
5.55716 103.589
5.60183 99.3685
5.6465 97.3667
5.69117 94.6416
5.73586 93.0188
5.78053 92.3335
5.8252 92.8066
5.86988 94.107
5.91455 95.649
5.95924 104.43
6.00392 226.542
6.0486 1033.84
6.09328 4272.49
6.13795 3460.7
6.18263 259.594
6.22733 94.1678
6.27201 83.1128
6.3167 95.3379
6.36138 78.4224
6.40606 69.3108
6.45075 68.0737
6.49545 66.266
6.54014 64.026
6.58483 63.0432
6.62952 62.7683
6.67421 86.6902
6.71892 120.982
6.76361 66.2308
6.8083 59.1102
6.853 58.1007
6.89769 56.6792
6.94239 56.7097
6.98711 56.1202
7.03181 55.8099
7.07651 55.7379
7.12121 55.3996
7.16591 55.4157
7.21063 55.6746
7.25533 67.284
7.30004 145.751
7.34475 81.771
7.38945 56.5108
7.43416 54.5928
7.47889 54.7319
7.5236 54.7544
7.56831 55.7133
7.61303 56.7444
7.65774 56.7027
7.70247 56.4318
7.74719 56.5763
7.79191 57.2785
7.83663 56.9205
7.88135 58.1306
7.92607 59.0931
7.97081 59.8381
8.01553 61.1212
8.06026 62.9924
8.10498 64.3469
8.14971 72.0231
8.19446 71.448
8.23919 70.4405
8.28392 72.1664
8.32865 74.5844
8.37339 79.2416
8.41812 85.5588
8.46288 108.814
8.50761 173.407
8.55235 406.909
8.59709 1217.73
8.64183 2148.69
8.68658 1007.39
8.73134 179.958
8.77609 100.902
8.82083 93.3853
8.86558 90.5369
8.91033 90.2155
8.9551 90.8786
8.99985 85.828
9.04461 84.1924
9.08936 83.3729
9.13412 82.7683
9.17888 82.8075
9.22365 82.9508
9.26841 82.5776
9.31318 83.5423
9.35794 83.8777
9.4027 84.0238
9.44749 84.9011
9.49226 85.3429
9.53703 85.8178
9.5818 88.3415
9.62657 92.6084
9.67134 97.4692
9.71614 94.3265
9.76091 94.8872
9.80569 97.8051
9.85047 100.948
9.89525 119.44
9.94005 131.588
9.98484 187.919
10.0296 363.332
10.0744 853.018
10.1192 1691.64
10.164 1556.11
10.2088 419.707
10.2536 129.849
10.2984 112.992
10.3432 113.477
10.388 105.528
10.4328 121.517
10.4776 165.425
10.5224 293.165
10.5672 506.04
10.612 486.367
10.6568 207.457
10.7017 97.9051
10.7465 87.2062
10.7913 83.7406
10.8361 81.7851
10.8809 79.4362
10.9257 78.3373
10.9706 78.7382
11.0154 75.1718
11.0602 73.2769
11.105 72.0558
11.1499 75.242
11.1947 80.0824
11.2395 73.1414
11.2844 70.2139
11.3292 67.5393
11.374 66.4878
11.4189 66.2035
11.4637 65.3023
11.5086 65.6649
11.5534 67.6778
11.5983 65.6094
11.6431 64.0516
11.688 63.4887
11.7328 63.5849
11.7777 63.1634
11.8225 62.8615
11.8674 63.1308
11.9122 63.0569
11.9571 63.1614
12.002 64.2369
12.0468 68.4349
12.0917 80.3456
12.1366 105.274
12.1814 155.496
12.2263 198.499
12.2712 165.456
12.3161 96.8834
12.3609 69.6607
12.4058 64.7496
12.4507 64.6579
12.4956 64.7514
12.5405 65.2118
12.5853 65.9776
12.6302 71.7627
12.6751 75.8088
12.72 69.6282
12.7649 68.4449
12.8098 69.0932
12.8547 70.2142
12.8996 71.7818
12.9445 72.6413
12.9894 74.5945
13.0343 76.6881
13.0792 79.6759
13.1242 90.2156
13.1691 114.339
13.214 154.161
13.2589 249.079
13.3038 368.359
13.3487 417.941
13.3937 272.049
13.4386 129.472
13.4835 108.073
13.5285 123.208
13.5734 163.736
13.6183 251.843
13.6633 339.816
13.7082 333.996
13.7531 193.504
13.7981 100.989
13.843 82.6196
13.888 80.2311
13.9329 77.691
13.9779 76.1002
14.0228 75.0133
14.0678 73.6452
14.1127 73.0597
14.1577 72.8053
14.2027 71.9372
14.2476 70.8973
14.2926 71.0133
14.3376 71.3635
14.3825 70.3098
14.4275 69.3869
14.4725 69.375
14.5175 69.5478
14.5624 69.6222
14.6074 71.2529
14.6524 71.7292
14.6974 71.0609
14.7424 73.0481
14.7874 80.073
14.8324 90.9742
14.8774 114.559
14.9224 157.547
14.9674 206.09
15.0124 214.86
15.0574 152.388
15.1024 93.6668
15.1474 73.1867
15.1924 70.9468
15.2374 70.9655
15.2824 70.1788
15.3274 68.2562
15.3725 67.0627
15.4175 66.9997
15.4625 66.7511
15.5076 66.7897
15.5526 66.6946
15.5976 66.214
15.6426 67.3519
15.6877 73.3797
15.7327 81.3766
15.7778 97.6483
15.8228 129.685
15.8679 168.791
15.9129 188.38
15.958 154.685
16.003 98.9187
16.0481 68.913
16.0931 64.5589
16.1382 62.7652
16.1833 60.9429
16.2283 59.4571
16.2734 58.6868
16.3185 58.8193
16.3636 59.206
16.4086 57.7987
16.4537 56.6939
16.4988 55.7998
16.5439 55.9785
16.589 55.5321
16.6341 55.1062
16.6792 54.9774
16.7243 55.2053
16.7694 55.3819
16.8145 55.0738
16.8596 55.398
16.9047 56.8087
16.9498 56.6996
16.9949 56.0774
17.04 56.2492
17.0851 57.5907
17.1302 59.3453
17.1754 62.4521
17.2205 67.636
17.2656 74.7631
17.3108 81.4292
17.3559 82.2426
17.401 72.8357
17.4462 63.4291
17.4913 59.7434
17.5365 59.355
17.5815 59.7073
17.6268 59.9662
17.6718 60.6806
17.7171 61.1193
17.7622 61.7718
17.8074 62.5599
17.8525 65.0717
17.8977 68.8463
17.9428 74.997
17.9881 84.6283
18.0331 102.039
18.0784 122.296
18.1237 138.154
18.1688 132.543
18.214 106.435
18.2591 88.6528
18.3044 91.8265
18.3495 99.84
18.3948 104.422
18.4399 96.68
18.4852 79.4487
18.5303 67.0378
18.5756 62.738
18.6207 61.7428
18.666 60.8915
18.7112 60.3814
18.7565 59.3271
18.8016 59.0761
18.8469 58.3672
18.892 58.1441
18.9374 57.8223
18.9825 57.3648
19.0278 57.287
19.073 57.2691
19.1183 57.8771
19.1635 58.3821
19.2088 60.0246
19.254 62.9498
19.2993 67.2806
19.3447 72.663
19.3898 75.7416
19.4352 72.3273
19.4804 64.3176
19.5257 57.5278
19.5709 54.7708
19.6163 54.2854
19.6615 53.9879
19.7068 53.734
19.752 53.6283
19.7974 53.9248
19.8426 54.912
19.888 55.5739
19.9332 56.8125
19.9786 59.6555
20.0238 63.1523
20.0692 67.234
20.1144 69.7879
20.1598 68.5412
20.205 64.4944
20.2504 63.0533
20.2957 63.9383
20.3411 65.0386
20.3863 64.0256
20.4318 59.1139
20.477 54.2934
20.5224 51.9861
20.5677 51.2685
20.6131 50.6531
20.6586 50.0718
20.7038 49.8011
20.7493 49.3364
20.7945 49.3579
20.84 49.3388
20.8853 49.0336
20.9307 48.9982
20.976 49.1123
21.0215 48.981
21.0668 49.3242
21.1122 49.905
21.1575 50.4845
21.203 51.085
21.2483 51.6487
21.2938 51.6181
21.3391 50.3523
21.3846 49.3304
21.4299 48.6041
21.4754 48.7857
21.5207 48.8383
21.5662 49.1467
21.6116 49.6252
21.6571 50.2763
21.7024 51.2358
21.7479 53.1891
21.7933 56.1492
21.8388 59.4912
21.8843 62.6569
21.9297 64.6366
21.9752 63.447
22.0206 60.2483
22.0661 57.2852
22.1115 56.3817
22.157 56.1599
22.2024 54.5868
22.248 51.9429
22.2933 50.1389
22.3389 49.5024
22.3843 49.2966
22.4299 49.2266
22.4753 49.2116
22.5208 48.8606
22.5662 48.8961
22.6118 49.0072
22.6572 49.4017
22.7028 49.7794
22.7483 50.2466
22.7939 50.974
22.8393 52.4905
22.8849 54.6197
22.9303 56.3421
22.9759 57.7611
23.0214 57.4844
23.067 55.075
23.1126 51.6254
23.1581 49.6898
23.2037 49.1599
23.2492 49.1699
23.2948 49.1167
23.3403 49.5654
23.3859 50.1085
23.4314 51.3879
23.477 53.2455
23.5225 55.2528
23.5682 56.9945
23.6137 57.8861
23.6593 55.9958
23.7048 52.158
23.7505 48.9159
23.796 47.0102
23.8417 46.3361
23.8872 45.8947
23.9329 45.7265
23.9784 45.2392
24.0241 44.9013
24.0697 44.9706
24.1154 44.2851
24.1609 44.3194
24.2066 44.2334
24.2522 44.1495
24.2979 43.7736
24.3434 43.6757
24.3892 43.5859
24.4349 43.4676
24.4805 43.2854
24.5262 43.365
24.5718 43.3282
24.6175 43.1616
24.6631 43.1211
24.7089 43.0035
24.7545 42.5862
24.8002 42.614
24.8458 42.4607
24.8916 42.3094
24.9372 42.5963
24.983 42.8699
25.0286 43.187
25.0744 43.5922
25.12 44.164
25.1658 44.5415
25.2114 44.9456
25.2572 45.1937
25.3029 45.0703
25.3487 45.2127
25.3943 44.8042
25.4402 43.8419
25.4858 42.7745
25.5316 41.8684
25.5773 41.2699
25.6231 41.174
25.669 40.7613
25.7147 40.9707
25.7605 40.7413
25.8062 40.8002
25.8521 40.9606
25.8977 40.8262
25.9436 41.2323
25.9893 41.3022
26.0352 41.7387
26.0809 41.7605
26.1268 41.9891
26.1725 41.6272
26.2184 41.1231
26.2641 40.7304
26.31 40.5509
26.3557 40.4011
26.4017 40.3647
26.4474 40.7641
26.4933 41.031
26.5391 41.6462
26.585 42.0132
26.6308 42.4591
26.6767 42.452
26.7225 42.3529
26.7684 41.7701
26.8142 41.1184
26.8601 40.6648
26.9059 40.3336
26.9519 39.8225
26.9979 39.5556
27.0437 39.2243
27.0896 38.9223
27.1354 39.1446
27.1814 38.9223
27.2272 38.8178
27.2732 38.8791
27.3191 38.629
27.3651 38.7383
27.4109 38.6778
27.4569 38.8553
27.5027 38.805
27.5488 38.9289
27.5946 38.6729
27.6407 38.5206
27.6865 38.3049
27.7326 38.1748
27.7784 38.2134
27.8245 38.1155
27.8703 38.3225
27.9164 38.591
27.9623 38.8029
28.0084 39.0617
28.0543 39.4339
28.1003 39.1296
28.1462 39.1615
28.1923 38.8
28.2384 38.2482
28.2843 37.9644
28.3304 37.5021
28.3764 36.9985
28.4225 36.7244
28.4684 36.4671
28.5145 36.3368
28.5605 36.1485
28.6066 35.9936
28.6526 36.0318
28.6987 35.8673
28.7447 35.7515
28.7908 35.7613
28.8368 35.6651
28.8829 35.6987
28.9289 35.5364
28.9751 35.4622
29.0211 35.2165
29.0673 34.9129
29.1133 34.8162
29.1595 34.7501
29.2055 34.6168
29.2517 34.6502
29.2977 34.5021
29.3439 34.4651
29.3899 34.5494
29.4361 34.273
29.4824 34.1982
29.5284 34.0625
29.5746 33.6927
29.6207 33.2617
29.6669 33.3786
29.713 33.1647
29.7593 33.2043
29.8053 33.1892
29.8516 33.0108
29.8977 33.0547
29.9439 32.8151
29.99 32.8382
30.0363 32.6785
30.0824 32.829
30.1287 32.6433
30.1748 32.6218
30.2211 32.7776
30.2673 32.3655
30.3136 32.7199
30.3597 32.5062
30.406 32.4819
30.4522 32.3562
30.4985 32.2682
30.5447 32.3736
30.591 32.4225
30.6372 32.4953
30.6835 32.4078
30.7297 32.4097
30.7761 32.3532
30.8224 32.0893
30.8686 32.1145
30.915 31.902
30.9612 31.7808
31.0076 31.6008
31.0538 31.4002
31.1002 31.4433
31.1464 31.2558
31.1928 31.1756
31.2391 31.2298
31.2855 31.1421
31.3317 31.1465
31.3781 31.2069
31.4244 31.2117
31.4708 31.018
31.5171 30.9726
31.5636 30.9619
31.6098 30.7045
31.6563 30.5795
31.7026 30.568
31.7491 30.2752
31.7953 30.4746
31.8418 30.2685
31.8881 30.2817
31.9346 30.269
31.9809 30.2191
32.0275 30.1092
32.074 30.1044
32.1203 29.7842
32.1668 29.7408
32.2132 29.5881
32.2597 29.5081
32.306 29.3528
32.3526 29.19
32.399 29.1817
32.4455 28.9264
32.4919 28.8888
32.5385 28.7696
32.5848 28.6295
32.6314 28.6746
32.6778 28.6422
32.7244 28.5305
32.7708 28.3786
32.8174 28.3557
32.8638 28.2729
32.9104 28.3541
32.9569 28.2161
33.0035 28.0748
33.0499 28.0787
33.0966 28.027
33.143 28.0656
33.1897 27.8955
33.2361 27.798
33.2828 27.7131
33.3293 27.6852
33.3759 27.5174
33.4226 27.4885
33.4691 27.3264
33.5158 27.246
33.5623 27.0237
33.609 26.9866
33.6555 26.916
33.7022 26.8197
33.7487 26.7885
33.7954 26.6093
33.842 26.6209
33.8887 26.4566
33.9353 26.4175
33.982 26.4083
34.0286 26.3182
34.0753 26.177
34.1219 26.0682
34.1687 26.0269
34.2152 25.9032
34.262 25.7465
34.3086 25.7027
34.3554 25.8549
34.402 25.5845
34.4488 25.5428
34.4954 25.4086
34.5422 25.3636
34.5889 25.171
34.6357 25.1709
34.6825 25.0798
34.7292 25.0483
34.776 24.9633
34.8227 24.8213
34.8695 24.7628
34.9162 24.7447
34.9631 24.6494
35.0098 24.6784
35.0566 24.5108
35.1033 24.4783
35.1502 24.454
35.1969 24.4272
35.2438 24.3251
35.2906 24.2001
35.3375 24.2013
35.3842 24.1438
35.4311 24.1435
35.4779 24.0799
35.5248 24.1182
35.5716 23.898
35.6185 23.8787
35.6653 23.7541
35.7123 23.6937
35.759 23.6077
35.806 23.5292
35.8528 23.3616
35.8998 23.3531
35.9468 23.3341
35.9936 23.317
36.0406 23.1877
36.0874 23.2006
36.1345 23.0888
36.1813 23.0032
36.2283 22.8504
36.2752 22.8489
36.3222 22.8232
36.3691 22.6871
36.4161 22.6428
36.463 22.6497
36.5101 22.5837
36.557 22.5198
36.6041 22.39
36.651 22.3286
36.6981 22.2194
36.745 22.2103
36.7921 22.1178
36.839 21.9629
36.8861 21.9316
36.9331 21.8962
36.9802 21.8091
37.0272 21.6889
37.0743 21.6242
37.1213 21.5965
37.1684 21.588
37.2154 21.4993
37.2626 21.3736
37.3098 21.3886
37.3568 21.3397
37.404 21.2614
37.451 21.1542
37.4982 21.0701
37.5452 21.0048
37.5924 20.8794
37.6395 20.9424
37.6867 20.8368
37.7337 20.8197
37.781 20.6652
37.8281 20.5974
37.8753 20.5361
37.9224 20.4808
37.9697 20.4492
38.0168 20.3691
38.064 20.2972
38.1111 20.2931
38.1584 20.1274
38.2056 20.0628
38.2529 20.0957
38.3 19.9686
38.3473 19.9556
38.3945 19.8696
38.4418 19.7846
38.489 19.8326
38.5363 19.6266
38.5837 19.5353
38.6309 19.5219
38.6782 19.4348
38.7254 19.3873
38.7728 19.403
38.82 19.245
38.8674 19.2693
38.9146 19.1701
38.9621 19.1727
39.0093 19.0514
39.0567 19.0021
39.104 18.9093
39.1514 18.8515
39.1987 18.7908
39.2461 18.7845
39.2934 18.7503
39.3409 18.5832
39.3882 18.5348
39.4356 18.4451
39.483 18.4565
39.5304 18.4048
39.5778 18.294
39.6253 18.2412
39.6726 18.2635
39.7201 18.2327
39.7675 18.1455
39.815 18.102
39.8624 17.9553
39.9099 17.9828
39.9575 17.8784
40.0049 17.8804
40.0525 17.7264
40.0999 17.6605
40.1474 17.6564
40.1949 17.5748
40.2425 17.529
40.2899 17.4628
40.3375 17.4671
40.385 17.4024
40.4326 17.3354
40.48 17.2421
40.5277 17.2504
40.5752 17.1748
40.6228 17.0573
40.6703 17.0577
40.718 17.0391
40.7655 16.948
40.8132 16.9339
40.8607 16.8385
40.9084 16.8222
40.9559 16.7169
41.0036 16.7044
41.0512 16.6309
41.0989 16.5567
41.1465 16.5001
41.1942 16.4667
41.242 16.3836
41.2896 16.3718
41.3373 16.3448
41.3849 16.222
41.4327 16.1846
41.4803 16.1396
41.5281 16.1382
41.5758 15.9829
41.6236 15.9364
41.6712 15.9103
41.7191 15.8837
41.7667 15.8377
41.8146 15.7743
41.8622 15.6768
41.9101 15.6495
41.9578 15.5633
42.0057 15.5416
42.0534 15.4783
42.1013 15.4469
42.149 15.3877
42.1969 15.2796
42.2446 15.2608
42.2925 15.1955
42.3403 15.1767
42.3882 15.16
42.436 15.1294
42.4839 14.9973
42.5319 14.9818
42.5797 14.9563
42.6277 14.8791
42.6755 14.8128
42.7235 14.804
42.7713 14.7086
42.8193 14.6782
42.8671 14.6797
42.9152 14.5568
42.963 14.5166
43.0111 14.4717
43.0589 14.459
43.107 14.3781
43.1549 14.351
43.2029 14.2386
43.2508 14.2644
43.2989 14.1766
43.3468 14.0627
43.3949 14.0765
43.4429 14.0305
43.491 13.9741
43.5389 13.9404
43.5871 13.8851
43.635 13.8585
43.6832 13.7873
43.7312 13.7427
43.7793 13.6718
43.8273 13.6462
43.8755 13.6119
43.9237 13.564
43.9717 13.5071
44.0199 13.4257
44.068 13.3975
44.1162 13.3459
44.1642 13.338
44.2125 13.2275
44.2606 13.2678
44.3088 13.1712
44.3569 13.153
44.4052 13.087
44.4533 12.9942
44.5016 12.9696
44.5497 12.9903
44.598 12.9091
44.6461 12.9005
44.6945 12.8193
44.7426 12.7601
44.791 12.7713
44.8391 12.7256
44.8875 12.6237
44.9357 12.6233
44.984 12.548
45.0322 12.4792
45.0806 12.4485
45.1288 12.4053
45.1773 12.3632
45.2257 12.3012
45.2739 12.2615
45.3224 12.2688
45.3706 12.1896
45.4191 12.1662
45.4673 12.0995
45.5158 12.0454
45.5641 11.9877
45.6126 11.963
45.6609 11.9349
45.7094 11.9356
45.7577 11.8345
45.8063 11.8148
45.8546 11.7656
45.9031 11.7271
45.9515 11.7035
46.0001 11.6329
46.0484 11.5928
46.097 11.5771
46.1454 11.5403
46.194 11.4855
46.2424 11.4386
46.291 11.38
46.3395 11.3444
46.3881 11.3122
46.4365 11.2899
46.4852 11.2191
46.5337 11.1702
46.5823 11.1599
46.631 11.08
46.6795 11.0561
46.7282 11.0426
46.7767 10.9909
46.8254 10.9378
46.8739 10.9024
46.9226 10.8503
46.9712 10.8324
47.0199 10.809
47.0685 10.7204
47.1173 10.6727
47.1658 10.6412
47.2146 10.6488
47.2632 10.5936
47.312 10.5802
47.3606 10.4857
47.4095 10.4945
47.4581 10.4716
47.5069 10.4453
47.5556 10.3557
47.6044 10.2996
47.6531 10.2658
47.702 10.2283
47.7507 10.2233
47.7996 10.1155
47.8483 10.1457
47.8972 10.1127
47.9461 10.0492
47.9948 10.0046
48.0438 9.95349
48.0925 9.99109
48.1415 9.93536
48.1902 9.87449
48.2392 9.86505
48.288 9.76833
48.337 9.76051
48.3858 9.73312
48.4348 9.67185
48.4837 9.70819
48.5327 9.64203
48.5815 9.62986
48.6306 9.54529
48.6795 9.50719
48.7285 9.50048
48.7774 9.44833
48.8265 9.44293
48.8754 9.35722
48.9245 9.35517
48.9734 9.31942
49.0226 9.2864
49.0715 9.24379
49.1206 9.21961
49.1696 9.19055
49.2188 9.12855
49.2679 9.06725
49.3169 9.04481
49.3661 9.01214
49.4151 8.96162
49.4643 8.96563
49.5134 8.9311
49.5626 8.86734
49.6117 8.84729
49.6609 8.84888
49.71 8.76993
49.7592 8.76441
49.8083 8.70357
49.8576 8.70051
49.9067 8.66655
49.956 8.63169
50.0052 8.56048
50.0545 8.53163
50.1036 8.50938
50.153 8.50055
50.2022 8.45158
50.2515 8.4248
50.3007 8.37667
50.3501 8.37958
50.3993 8.31946
50.4487 8.30857
50.498 8.24972
50.5474 8.24226
50.5966 8.1974
50.6461 8.16875
50.6955 8.10314
50.7448 8.11692
50.7943 8.08195
50.8436 8.04509
50.8931 8.01502
50.9424 7.96869
50.9919 7.93529
51.0413 7.89687
51.0908 7.91548
51.1402 7.85592
51.1897 7.81763
51.2391 7.77913
51.2887 7.74672
51.3381 7.71698
51.3877 7.71455
51.4371 7.67803
51.4867 7.6248
51.5362 7.6128
51.5858 7.58782
51.6353 7.54437
51.6849 7.5038
51.7344 7.44895
51.7841 7.46298
51.8336 7.40618
51.8833 7.37779
51.9328 7.33651
51.9826 7.29668
52.0323 7.2784
52.0818 7.26638
52.1316 7.19531
52.1812 7.19047
52.231 7.15641
52.2806 7.14466
52.3304 7.11434
52.38 7.04685
52.4298 7.0395
52.4794 7.02208
52.5293 6.96394
52.5789 6.98545
52.6288 6.95453
52.6785 6.88985
52.7284 6.86483
52.7781 6.82421
52.828 6.80624
52.8777 6.76726
52.9276 6.77712
52.9774 6.71877
53.0273 6.72873
53.0771 6.67702
53.1271 6.6607
53.1769 6.61357
53.2269 6.5821
53.2767 6.53322
53.3267 6.51572
53.3765 6.52256
53.4266 6.48651
53.4766 6.46426
53.5265 6.42341
53.5765 6.41344
53.6264 6.34854
53.6765 6.34678
53.7264 6.32108
53.7765 6.28691
53.8265 6.26592
53.8766 6.21382
53.9266 6.16957
53.9767 6.18171
54.0267 6.14625
54.0769 6.1113
54.1269 6.13505
54.1771 6.05833
54.2271 6.03995
54.2773 6.05827
54.3274 5.97743
54.3776 5.9708
54.4277 5.90727
54.478 5.88522
54.528 5.8625
54.5783 5.81485
54.6285 5.72893
54.6788 5.74308
54.7289 5.67248
54.7792 5.64717
54.8296 5.61062
54.8798 5.56872
54.9301 5.49807
54.9803 5.48389
55.0307 5.48143
55.0809 5.40018
55.1314 5.38587
55.1816 5.329
55.232 5.24059
55.2823 5.23349
55.3328 5.18555
55.383 5.14488
55.4335 5.15397
55.4838 5.07842
55.5344 5.00885
55.5847 4.99391
55.6352 4.94182
55.6856 4.89959
55.7361 4.84373