File: XRD/Ni3Fe_FD1078.xy
TT I
1.27165 6.64893
1.31627 6.09417
1.36089 5.46737
1.40551 6.28422
1.45013 5.62018
1.49476 5.44832
1.53938 5.37418
1.584 4.63695
1.62863 4.75566
1.67325 4.61421
1.71787 4.94789
1.7625 4.27279
1.80712 3.85747
1.85174 4.23705
1.89636 3.72152
1.94099 4.38024
1.98562 3.95532
2.03025 3.88952
2.07487 3.90356
2.11949 4.7395
2.16411 4.25843
2.20874 5.25158
2.25338 5.84168
2.298 4.87623
2.34263 5.27381
2.38725 5.43239
2.43188 5.75007
2.4765 7.20642
2.52115 7.38915
2.56577 7.25505
2.6104 8.6693
2.65503 8.31822
2.69965 8.04975
2.7443 8.42456
2.78893 8.6708
2.83356 8.08577
2.87818 8.28834
2.92281 8.70447
2.96744 9.14266
3.01209 9.6832
3.05672 10.854
3.10135 11.9285
3.14599 12.9179
3.19062 14.3716
3.23527 14.7834
3.2799 15.0281
3.32454 16.3251
3.36917 16.5831
3.4138 18.205
3.45844 18.1072
3.50309 20.0346
3.54773 20.1224
3.59237 21.2671
3.637 27.5015
3.68164 26.3066
3.7263 23.8202
3.77094 24.3872
3.81558 25.0445
3.86022 25.8589
3.90486 27.2834
3.9495 28.6245
3.99416 29.1633
4.0388 30.4588
4.08344 31.4836
4.12809 32.0177
4.17273 33.6201
4.21738 35.3214
4.26204 51.7643
4.30669 56.3787
4.35133 40.7052
4.39598 40.7139
4.44063 43.1057
4.4853 46.268
4.52995 46.548
4.5746 48.4628
4.61925 50.7969
4.6639 52.7868
4.70855 55.7713
4.75322 58.3844
4.79788 60.5574
4.84253 64.3418
4.88719 67.782
4.93184 71.4122
4.97652 77.1803
5.02118 82.7063
5.06583 89.17
5.11049 98.0037
5.15515 118.404
5.19981 231.393
5.24449 2526.67
5.28916 13702.6
5.33382 3318.55
5.37848 203.846
5.42315 122.836
5.46783 108.456
5.5125 100.909
5.55716 97.3839
5.60183 93.5712
5.6465 91.5649
5.69117 89.2272
5.73586 87.776
5.78053 87.0071
5.8252 86.2714
5.86988 87.0428
5.91455 89.2377
5.95924 95.305
6.00392 164.715
6.0486 892.047
6.09328 4452.99
6.13795 3699.94
6.18263 238.645
6.22733 87.2539
6.27201 76.3642
6.3167 73.0383
6.36138 68.5185
6.40606 64.8981
6.45075 63.2069
6.49545 62.0411
6.54014 59.9513
6.58483 58.9212
6.62952 58.0689
6.67421 58.6251
6.71892 64.1213
6.76361 56.4076
6.8083 54.5721
6.853 53.8314
6.89769 53.5994
6.94239 53.327
6.98711 52.6059
7.03181 52.2511
7.07651 52.1488
7.12121 51.8086
7.16591 51.8506
7.21063 51.0413
7.25533 51.9255
7.30004 62.0545
7.34475 55.8028
7.38945 51.5644
7.43416 51.0547
7.47889 51.4525
7.5236 57.9904
7.56831 71.0724
7.61303 56.1879
7.65774 52.7475
7.70247 53.1969
7.74719 53.2329
7.79191 53.6775
7.83663 54.1082
7.88135 54.7289
7.92607 55.9161
7.97081 56.8329
8.01553 57.6045
8.06026 59.0231
8.10498 60.2379
8.14971 62.1907
8.19446 64.2502
8.23919 65.907
8.28392 68.5937
8.32865 70.4823
8.37339 74.3321
8.41812 77.9402
8.46288 86.3801
8.50761 129.341
8.55235 380.636
8.59709 1115.04
8.64183 2287.3
8.68658 1096.88
8.73134 173.387
8.77609 94.9476
8.82083 88.6136
8.86558 85.43
8.91033 83.7457
8.9551 82.3122
8.99985 81.1211
9.04461 80.0796
9.08936 79.2647
9.13412 78.7757
9.17888 79.3597
9.22365 90.142
9.26841 110.632
9.31318 88.1673
9.35794 79.9605
9.4027 80.1845
9.44749 80.8103
9.49226 81.2519
9.53703 81.8294
9.5818 83.4062
9.62657 84.5249
9.67134 86.5409
9.71614 87.7698
9.76091 89.4999
9.80569 91.9528
9.85047 93.8989
9.89525 98.7718
9.94005 106.326
9.98484 147.705
10.0296 353.373
10.0744 780.083
10.1192 1765.35
10.164 1705.68
10.2088 442.657
10.2536 124.993
10.2984 103.066
10.3432 100.992
10.388 98.0109
10.4328 108.136
10.4776 163.239
10.5224 275.012
10.5672 514.781
10.612 572.42
10.6568 228.903
10.7017 103.056
10.7465 85.8958
10.7913 80.4255
10.8361 77.7271
10.8809 75.5017
10.9257 73.6137
10.9706 72.6081
11.0154 70.7963
11.0602 69.2209
11.105 68.0094
11.1499 66.8522
11.1947 67.2982
11.2395 65.7189
11.2844 64.8987
11.3292 63.9813
11.374 63.1846
11.4189 62.4919
11.4637 62.0794
11.5086 61.3064
11.5534 61.2257
11.5983 60.8905
11.6431 60.5565
11.688 60.0068
11.7328 59.9754
11.7777 59.7444
11.8225 59.6978
11.8674 59.7925
11.9122 61.7291
11.9571 67.4649
12.002 65.837
12.0468 64.1263
12.0917 77.2555
12.1366 99.3736
12.1814 147.183
12.2263 203.046
12.2712 175.787
12.3161 96.7969
12.3609 64.6137
12.4058 61.3857
12.4507 61.3867
12.4956 61.3638
12.5405 61.5477
12.5853 62.1753
12.6302 62.5752
12.6751 64.1449
12.72 63.9297
12.7649 64.4699
12.8098 65.2091
12.8547 66.5488
12.8996 68.1215
12.9445 69.2372
12.9894 71.1623
13.0343 72.7455
13.0792 76.4615
13.1242 82.6962
13.1691 108.519
13.214 149.359
13.2589 231.227
13.3038 370.271
13.3487 451.183
13.3937 277.292
13.4386 125.806
13.4835 98.9977
13.5285 120.667
13.5734 157.938
13.6183 237.621
13.6633 356.601
13.7082 360.414
13.7531 204.571
13.7981 100.003
13.843 79.5433
13.888 76.8442
13.9329 74.5766
13.9779 73.4719
14.0228 72.2841
14.0678 70.7291
14.1127 71.5953
14.1577 74.6268
14.2027 72.9019
14.2476 68.667
14.2926 67.3782
14.3376 67.5369
14.3825 67.0149
14.4275 66.475
14.4725 66.2055
14.5175 66.4306
14.5624 66.3444
14.6074 66.888
14.6524 67.2776
14.6974 67.4288
14.7424 68.5543
14.7874 74.8027
14.8324 88.9223
14.8774 110.873
14.9224 149.258
14.9674 209.317
15.0124 226.715
15.0574 158.742
15.1024 93.5022
15.1474 70.9666
15.1924 67.8897
15.2374 66.5468
15.2824 65.7343
15.3274 65.0456
15.3725 64.5732
15.4175 64.2732
15.4625 63.6392
15.5076 63.5458
15.5526 63.457
15.5976 63.5242
15.6426 63.9095
15.6877 68.5949
15.7327 80.1475
15.7778 95.555
15.8228 123.682
15.8679 169.592
15.9129 202.913
15.958 169.338
16.003 104.444
16.0481 69.2979
16.0931 62.9538
16.1382 59.7939
16.1833 58.3356
16.2283 57.0073
16.2734 56.3852
16.3185 55.6041
16.3636 55.2182
16.4086 54.5813
16.4537 54.1341
16.4988 53.5601
16.5439 53.5088
16.589 53.2197
16.6341 52.9375
16.6792 52.4755
16.7243 52.8315
16.7694 52.9195
16.8145 52.6531
16.8596 52.9858
16.9047 53.4637
16.9498 54.4578
16.9949 53.8809
17.04 53.9642
17.0851 54.9973
17.1302 57.3411
17.1754 60.5435
17.2205 64.8685
17.2656 72.4286
17.3108 81.9887
17.3559 82.6755
17.401 72.1194
17.4462 61.3633
17.4913 57.5909
17.5365 57.318
17.5815 57.3882
17.6268 57.6423
17.6718 58.1256
17.7171 58.906
17.7622 60.0346
17.8074 60.7315
17.8525 62.0369
17.8977 66.6512
17.9428 73.5106
17.9881 82.3005
18.0331 97.8448
18.0784 121.121
18.1237 142.287
18.1688 137.795
18.214 108.778
18.2591 88.4149
18.3044 88.6874
18.3495 99.3619
18.3948 107.377
18.4399 98.6272
18.4852 78.799
18.5303 65.762
18.5756 61.3051
18.6207 60.0731
18.666 58.8923
18.7112 58.0817
18.7565 57.5614
18.8016 57.0963
18.8469 56.3134
18.892 56.0205
18.9374 55.587
18.9825 55.3222
19.0278 55.2415
19.073 55.068
19.1183 55.2495
19.1635 56.4112
19.2088 58.217
19.254 60.6511
19.2993 65.5721
19.3447 72.0415
19.3898 76.0308
19.4352 71.9994
19.4804 63.2657
19.5257 56.294
19.5709 52.9397
19.6163 52.5749
19.6615 52.2511
19.7068 51.8929
19.752 51.8186
19.7974 52.0495
19.8426 52.7699
19.888 53.8242
19.9332 55.38
19.9786 57.6639
20.0238 61.1872
20.0692 66.493
20.1144 70.3846
20.1598 69.2355
20.205 64.2177
20.2504 61.6576
20.2957 63.5301
20.3411 65.634
20.3863 63.9378
20.4318 58.3055
20.477 52.9383
20.5224 50.057
20.5677 49.4425
20.6131 48.8069
20.6586 48.4937
20.7038 48.2799
20.7493 47.9921
20.7945 47.9742
20.84 47.8367
20.8853 47.5778
20.9307 47.4371
20.976 47.3467
21.0215 47.5487
21.0668 47.9671
21.1122 48.1672
21.1575 48.9197
21.203 49.8392
21.2483 50.5358
21.2938 50.5401
21.3391 49.1233
21.3846 48.0257
21.4299 47.3928
21.4754 47.4202
21.5207 47.5179
21.5662 47.5475
21.6116 47.693
21.6571 49.0495
21.7024 50.1791
21.7479 52.0096
21.7933 54.4181
21.8388 58.1314
21.8843 62.8889
21.9297 65.2484
21.9752 64.041
22.0206 59.8896
22.0661 56.5432
22.1115 55.94
22.157 56.0164
22.2024 54.3281
22.248 51.2093
22.2933 49.0139
22.3389 48.0835
22.3843 47.7315
22.4299 47.5476
22.4753 47.7073
22.5208 47.5701
22.5662 47.4543
22.6118 47.5488
22.6572 47.6634
22.7028 48.3504
22.7483 48.9795
22.7939 49.8284
22.8393 51.3519
22.8849 53.4181
22.9303 55.7377
22.9759 57.7891
23.0214 57.4341
23.067 54.7688
23.1126 51.0883
23.1581 48.6466
23.2037 47.883
23.2492 47.7376
23.2948 47.8891
23.3403 48.5707
23.3859 49.4187
23.4314 50.5759
23.477 52.3449
23.5225 54.5499
23.5682 57.1095
23.6137 58.6136
23.6593 56.6527
23.7048 52.0629
23.7505 48.2662
23.796 46.1243
23.8417 45.2549
23.8872 44.7238
23.9329 44.2398
23.9784 43.9245
24.0241 43.7546
24.0697 43.6587
24.1154 43.116
24.1609 42.9028
24.2066 42.8179
24.2522 42.641
24.2979 42.374
24.3434 42.3705
24.3892 42.2664
24.4349 42.0658
24.4805 42.0307
24.5262 42.1676
24.5718 42.1362
24.6175 42.1184
24.6631 42.026
24.7089 41.6424
24.7545 41.4705
24.8002 41.4056
24.8458 41.2967
24.8916 41.3695
24.9372 41.5062
24.983 41.6843
25.0286 42.0513
25.0744 42.6389
25.12 43.2446
25.1658 43.8822
25.2114 44.2803
25.2572 44.508
25.3029 44.6414
25.3487 44.5977
25.3943 44.3254
25.4402 43.3601
25.4858 42.0194
25.5316 40.8763
25.5773 40.1538
25.6231 40.2367
25.669 39.7806
25.7147 39.6949
25.7605 39.5889
25.8062 39.7612
25.8521 39.9012
25.8977 40.007
25.9436 40.1036
25.9893 40.3073
26.0352 40.9383
26.0809 41.1074
26.1268 41.2547
26.1725 40.9672
26.2184 40.3715
26.2641 39.6816
26.31 39.4417
26.3557 39.4878
26.4017 39.507
26.4474 39.8325
26.4933 40.1487
26.5391 40.6215
26.585 41.3855
26.6308 41.9495
26.6767 42.0749
26.7225 41.8715
26.7684 41.3754
26.8142 40.5977
26.8601 40.1446
26.9059 39.8378
26.9519 39.137
26.9979 38.7293
27.0437 38.3834
27.0896 38.2414
27.1354 38.0876
27.1814 38.1641
27.2272 37.9015
27.2732 37.9282
27.3191 37.7995
27.3651 37.9006
27.4109 37.8847
27.4569 37.8936
27.5027 38.1926
27.5488 38.1272
27.5946 37.8617
27.6407 37.7876
27.6865 37.6736
27.7326 37.3029
27.7784 37.3325
27.8245 37.2909
27.8703 37.4349
27.9164 37.8291
27.9623 38.1893
28.0084 38.38
28.0543 38.9005
28.1003 38.9449
28.1462 38.719
28.1923 38.3666
28.2384 37.917
28.2843 37.38
28.3304 36.6794
28.3764 36.2901
28.4225 36.0176
28.4684 35.7125
28.5145 35.3006
28.5605 35.3474
28.6066 35.1753
28.6526 35.16
28.6987 35.0743
28.7447 35.0374
28.7908 34.8758
28.8368 34.9277
28.8829 34.9869
28.9289 34.8665
28.9751 34.6846
29.0211 34.4365
29.0673 34.185
29.1133 34.0049
29.1595 33.8674
29.2055 33.837
29.2517 33.7489
29.2977 33.7354
29.3439 33.6757
29.3899 33.6576
29.4361 33.6259
29.4824 33.5359
29.5284 33.2961
29.5746 32.9415
29.6207 32.6144
29.6669 32.5863
29.713 32.3837
29.7593 32.2646
29.8053 32.3513
29.8516 32.2204
29.8977 32.2527
29.9439 32.0434
29.99 32.0412
30.0363 31.9225
30.0824 31.9764
30.1287 31.8159
30.1748 32.0186
30.2211 32.001
30.2673 31.7869
30.3136 31.9071
30.3597 31.7461
30.406 31.5641
30.4522 31.6658
30.4985 31.6465
30.5447 31.7879
30.591 31.7358
30.6372 31.8419
30.6835 31.8805
30.7297 31.9842
30.7761 31.8384
30.8224 31.586
30.8686 31.5739
30.915 31.2749
30.9612 31.1123
31.0076 30.9546
31.0538 30.717
31.1002 30.7157
31.1464 30.5276
31.1928 30.4689
31.2391 30.4772
31.2855 30.3446
31.3317 30.4527
31.3781 30.5592
31.4244 30.517
31.4708 30.5051
31.5171 30.3717
31.5636 30.5018
31.6098 30.2652
31.6563 29.981
31.7026 29.9569
31.7491 29.7459
31.7953 29.8189
31.8418 29.7271
31.8881 29.8
31.9346 29.7216
31.9809 29.7524
32.0275 29.54
32.074 29.4769
32.1203 29.2322
32.1668 29.2412
32.2132 28.9829
32.2597 28.8937
32.306 28.8103
32.3526 28.5486
32.399 28.5205
32.4455 28.3766
32.4919 28.318
32.5385 28.2446
32.5848 28.1284
32.6314 28.0137
32.6778 28.0216
32.7244 27.8405
32.7708 27.7247
32.8174 27.7701
32.8638 27.5799
32.9104 27.7245
32.9569 27.683
33.0035 27.4062
33.0499 27.5157
33.0966 27.4129
33.143 27.4347
33.1897 27.4313
33.2361 27.2558
33.2828 27.304
33.3293 27.1026
33.3759 27.0814
33.4226 26.9237
33.4691 26.6985
33.5158 26.6738
33.5623 26.4902
33.609 26.3507
33.6555 26.2988
33.7022 26.2782
33.7487 26.2373
33.7954 26.0672
33.842 26.0114
33.8887 26.0361
33.9353 25.8983
33.982 25.81
34.0286 25.717
34.0753 25.6969
34.1219 25.5081
34.1687 25.5081
34.2152 25.438
34.262 25.3347
34.3086 25.1519
34.3554 25.2464
34.402 25.0184
34.4488 24.9993
34.4954 24.8871
34.5422 24.8094
34.5889 24.719
34.6357 24.6018
34.6825 24.6182
34.7292 24.4169
34.776 24.404
34.8227 24.3537
34.8695 24.3129
34.9162 24.1925
34.9631 24.1342
35.0098 24.0791
35.0566 24.0671
35.1033 23.9545
35.1502 23.927
35.1969 23.879
35.2438 23.8524
35.2906 23.8713
35.3375 23.7047
35.3842 23.6681
35.4311 23.6908
35.4779 23.638
35.5248 23.6643
35.5716 23.4511
35.6185 23.4532
35.6653 23.289
35.7123 23.2592
35.759 23.1213
35.806 23.0478
35.8528 22.9388
35.8998 22.9298
35.9468 22.8309
35.9936 22.8107
36.0406 22.7168
36.0874 22.6338
36.1345 22.5258
36.1813 22.4513
36.2283 22.3874
36.2752 22.3688
36.3222 22.4012
36.3691 22.3298
36.4161 22.1221
36.463 22.1336
36.5101 22.1887
36.557 22.1595
36.6041 21.8874
36.651 21.9194
36.6981 21.8481
36.745 21.791
36.7921 21.6763
36.839 21.5862
36.8861 21.5051
36.9331 21.4175
36.9802 21.4106
37.0272 21.324
37.0743 21.2648
37.1213 21.1774
37.1684 21.1326
37.2154 21.0939
37.2626 20.9585
37.3098 20.9053
37.3568 20.7887
37.404 20.8597
37.451 20.6907
37.4982 20.5864
37.5452 20.5824
37.5924 20.5125
37.6395 20.517
37.6867 20.4277
37.7337 20.3352
37.781 20.2606
37.8281 20.2572
37.8753 20.1263
37.9224 20.034
37.9697 19.9996
38.0168 19.9358
38.064 19.8176
38.1111 19.7668
38.1584 19.7422
38.2056 19.6574
38.2529 19.6374
38.3 19.5348
38.3473 19.5116
38.3945 19.3963
38.4418 19.4041
38.489 19.2764
38.5363 19.2361
38.5837 19.1914
38.6309 19.0827
38.6782 19.1189
38.7254 18.9978
38.7728 19.0153
38.82 18.899
38.8674 18.8171
38.9146 18.7632
38.9621 18.7179
39.0093 18.6545
39.0567 18.5865
39.104 18.5392
39.1514 18.48
39.1987 18.4055
39.2461 18.301
39.2934 18.3051
39.3409 18.229
39.3882 18.1245
39.4356 18.1419
39.483 18.0718
39.5304 17.9947
39.5778 17.96
39.6253 17.8602
39.6726 17.8667
39.7201 17.791
39.7675 17.7616
39.815 17.679
39.8624 17.6105
39.9099 17.5759
39.9575 17.4826
40.0049 17.4597
40.0525 17.4055
40.0999 17.3079
40.1474 17.3454
40.1949 17.2014
40.2425 17.1365
40.2899 17.143
40.3375 17.0321
40.385 16.9899
40.4326 16.9573
40.48 16.9301
40.5277 16.8665
40.5752 16.7771
40.6228 16.6911
40.6703 16.6753
40.718 16.6338
40.7655 16.577
40.8132 16.5365
40.8607 16.4743
40.9084 16.4888
40.9559 16.4064
41.0036 16.3113
41.0512 16.2709
41.0989 16.2816
41.1465 16.1905
41.1942 16.1144
41.242 16.0462
41.2896 15.959
41.3373 16.0062
41.3849 15.9488
41.4327 15.8398
41.4803 15.7427
41.5281 15.7439
41.5758 15.6727
41.6236 15.6147
41.6712 15.5511
41.7191 15.4704
41.7667 15.424
41.8146 15.3908
41.8622 15.394
41.9101 15.3397
41.9578 15.2524
42.0057 15.227
42.0534 15.0788
42.1013 15.1025
42.149 15.0476
42.1969 15.0106
42.2446 14.9623
42.2925 14.9219
42.3403 14.8717
42.3882 14.8129
42.436 14.8397
42.4839 14.6761
42.5319 14.663
42.5797 14.6144
42.6277 14.537
42.6755 14.5307
42.7235 14.4703
42.7713 14.4225
42.8193 14.3638
42.8671 14.2839
42.9152 14.2512
42.963 14.231
43.0111 14.1509
43.0589 14.1786
43.107 14.033
43.1549 14.0369
43.2029 13.9517
43.2508 13.955
43.2989 13.888
43.3468 13.8181
43.3949 13.7976
43.4429 13.7846
43.491 13.7121
43.5389 13.6091
43.5871 13.5768
43.635 13.5419
43.6832 13.5258
43.7312 13.475
43.7793 13.4028
43.8273 13.3662
43.8755 13.2969
43.9237 13.2253
43.9717 13.2104
44.0199 13.1876
44.068 13.1703
44.1162 13.1019
44.1642 13.082
44.2125 12.9869
44.2606 12.949
44.3088 12.8764
44.3569 12.8842
44.4052 12.8075
44.4533 12.7521
44.5016 12.6735
44.5497 12.7229
44.598 12.6702
44.6461 12.6032
44.6945 12.5641
44.7426 12.4971
44.791 12.4466
44.8391 12.4111
44.8875 12.3821
44.9357 12.339
44.984 12.2979
45.0322 12.1887
45.0806 12.2023
45.1288 12.1839
45.1773 12.1287
45.2257 12.0569
45.2739 12.0746
45.3224 11.9897
45.3706 11.9716
45.4191 11.8773
45.4673 11.9075
45.5158 11.8024
45.5641 11.7902
45.6126 11.7349
45.6609 11.6391
45.7094 11.6556
45.7577 11.6144
45.8063 11.5597
45.8546 11.5585
45.9031 11.4806
45.9515 11.4668
46.0001 11.4002
46.0484 11.3661
46.097 11.3122
46.1454 11.2733
46.194 11.2187
46.2424 11.239
46.291 11.1782
46.3395 11.1085
46.3881 11.0997
46.4365 11.0606
46.4852 11.0291
46.5337 10.9788
46.5823 10.9331
46.631 10.8959
46.6795 10.8982
46.7282 10.7743
46.7767 10.8013
46.8254 10.7346
46.8739 10.6885
46.9226 10.6183
46.9712 10.5903
47.0199 10.5579
47.0685 10.5222
47.1173 10.4703
47.1658 10.4184
47.2146 10.4726
47.2632 10.344
47.312 10.3498
47.3606 10.2846
47.4095 10.2406
47.4581 10.2272
47.5069 10.1436
47.5556 10.1535
47.6044 10.0924
47.6531 10.0266
47.702 10.0296
47.7507 9.98348
47.7996 9.9075
47.8483 9.95099
47.8972 9.90194
47.9461 9.85148
47.9948 9.77514
48.0438 9.76115
48.0925 9.79211
48.1415 9.71004
48.1902 9.60725
48.2392 9.61539
48.288 9.55878
48.337 9.58855
48.3858 9.51614
48.4348 9.48187
48.4837 9.50462
48.5327 9.44408
48.5815 9.41228
48.6306 9.34074
48.6795 9.3117
48.7285 9.26397
48.7774 9.27427
48.8265 9.21372
48.8754 9.18577
48.9245 9.19733
48.9734 9.14346
49.0226 9.1374
49.0715 9.05356
49.1206 8.98305
49.1696 8.94484
49.2188 8.9608
49.2679 8.90145
49.3169 8.87296
49.3661 8.84806
49.4151 8.77053
49.4643 8.81763
49.5134 8.74403
49.5626 8.65506
49.6117 8.67002
49.6609 8.65964
49.71 8.60389
49.7592 8.5301
49.8083 8.53012
49.8576 8.49592
49.9067 8.47334
49.956 8.45359
50.0052 8.40952
50.0545 8.39018
50.1036 8.35707
50.153 8.3185
50.2022 8.27581
50.2515 8.22612
50.3007 8.21962
50.3501 8.14921
50.3993 8.14844
50.4487 8.1187
50.498 8.10587
50.5474 8.07141
50.5966 8.02842
50.6461 7.99605
50.6955 7.96579
50.7448 7.94898
50.7943 7.93234
50.8436 7.91027
50.8931 7.83067
50.9424 7.81686
50.9919 7.8009
51.0413 7.71207
51.0908 7.73717
51.1402 7.70101
51.1897 7.68313
51.2391 7.61799
51.2887 7.56961
51.3381 7.58694
51.3877 7.52983
51.4371 7.50532
51.4867 7.49276
51.5362 7.4687
51.5858 7.41232
51.6353 7.38846
51.6849 7.34661
51.7344 7.32664
51.7841 7.3133
51.8336 7.258
51.8833 7.25055
51.9328 7.20544
51.9826 7.1499
52.0323 7.14347
52.0818 7.10305
52.1316 7.06836
52.1812 7.03559
52.231 7.01104
52.2806 6.96782
52.3304 6.9744
52.38 6.9405
52.4298 6.92604
52.4794 6.87183
52.5293 6.8435
52.5789 6.79453
52.6288 6.82258
52.6785 6.75708
52.7284 6.73546
52.7781 6.69239
52.828 6.68344
52.8777 6.63692
52.9276 6.62465
52.9774 6.60874
53.0273 6.57708
53.0771 6.52519
53.1271 6.51017
53.1769 6.49039
53.2269 6.47118
53.2767 6.44495
53.3267 6.38825
53.3765 6.40271
53.4266 6.3511
53.4766 6.29389
53.5265 6.34425
53.5765 6.26852
53.6264 6.26014
53.6765 6.21752
53.7264 6.17102
53.7765 6.15852
53.8265 6.18015
53.8766 6.10207
53.9266 6.09766
53.9767 6.07276
54.0267 6.03862
54.0769 5.99288
54.1269 5.95789
54.1771 5.94601
54.2271 5.91552
54.2773 5.90385
54.3274 5.84182
54.3776 5.79362
54.4277 5.79847
54.478 5.84833
54.528 5.71436
54.5783 5.66678
54.6285 5.62872
54.6788 5.60032
54.7289 5.56511
54.7792 5.51934
54.8296 5.47278
54.8798 5.43427
54.9301 5.42916
54.9803 5.4087
55.0307 5.35293
55.0809 5.32606
55.1314 5.33232
55.1816 5.19422
55.232 5.18431
55.2823 5.12495
55.3328 5.0656
55.383 5.06411
55.4335 4.99879
55.4838 4.96501
55.5344 4.90264
55.5847 4.83094
55.6352 4.88103
55.6856 4.82507
55.7361 4.70887