File: XRD/Ni3Fe_FD0012.xy
TT I
1.27165 36.6948
1.31627 36.1391
1.36089 36.7683
1.40551 32.8614
1.45013 32.1128
1.49476 32.0842
1.53938 30.7584
1.584 29.3819
1.62863 28.7215
1.67325 27.4571
1.71787 27.4617
1.7625 26.3723
1.80712 26.775
1.85174 25.9396
1.89636 26.4184
1.94099 25.6656
1.98562 25.0172
2.03025 25.1241
2.07487 25.6365
2.11949 26.1956
2.16411 26.5698
2.20874 26.1836
2.25338 26.0612
2.298 26.889
2.34263 26.496
2.38725 25.7429
2.43188 26.1812
2.4765 26.8051
2.52115 26.0279
2.56577 27.851
2.6104 27.8572
2.65503 28.3894
2.69965 29.3621
2.7443 31.27
2.78893 34.1831
2.83356 36.6856
2.87818 39.8278
2.92281 44.2442
2.96744 49.8635
3.01209 58.3269
3.05672 65.9031
3.10135 76.798
3.14599 83.0701
3.19062 84.9505
3.23527 79.7717
3.2799 70.5894
3.32454 59.6206
3.36917 51.1024
3.4138 45.1301
3.45844 41.2893
3.50309 40.1914
3.54773 39.6813
3.59237 39.719
3.637 40.8744
3.68164 41.3078
3.7263 42.0808
3.77094 41.8542
3.81558 41.3423
3.86022 41.491
3.90486 42.4093
3.9495 43.7642
3.99416 45.0617
4.0388 47.9926
4.08344 51.0745
4.12809 54.4872
4.17273 59.966
4.21738 66.3133
4.26204 73.0873
4.30669 77.6311
4.35133 79.783
4.39598 76.671
4.44063 72.0997
4.4853 68.6545
4.52995 64.4733
4.5746 60.3321
4.61925 57.5964
4.6639 54.9105
4.70855 54.6911
4.75322 55.4958
4.79788 56.9749
4.84253 60.0778
4.88719 64.4855
4.93184 69.8833
4.97652 78.0156
5.02118 91.7501
5.06583 114.868
5.11049 136.306
5.15515 173.158
5.19981 255.489
5.24449 496.935
5.28916 1023.28
5.33382 2700.62
5.37848 4043.31
5.42315 1451.44
5.46783 418.227
5.5125 228.831
5.55716 162.923
5.60183 128.893
5.6465 113.687
5.69117 106.148
5.73586 100.465
5.78053 96.0561
5.8252 95.1821
5.86988 99.2914
5.91455 107.672
5.95924 124.183
6.00392 160.551
6.0486 244.807
6.09328 411.643
6.13795 707.411
6.18263 1257.93
6.22733 879.437
6.27201 357.915
6.3167 181.388
6.36138 114.539
6.40606 86.5823
6.45075 73.676
6.49545 65.39
6.54014 59.9883
6.58483 56.3929
6.62952 54.8679
6.67421 54.0273
6.71892 53.6259
6.76361 53.5736
6.8083 52.3076
6.853 51.1324
6.89769 50.4131
6.94239 49.4111
6.98711 48.4903
7.03181 48.2818
7.07651 48.8766
7.12121 49.8426
7.16591 51.829
7.21063 53.7112
7.25533 57.2014
7.30004 63.5201
7.34475 69.7096
7.38945 71.7575
7.43416 67.4545
7.47889 63.5191
7.5236 64.0034
7.56831 92.7212
7.61303 167.523
7.65774 97.557
7.70247 51.7266
7.74719 44.1777
7.79191 41.5328
7.83663 40.0015
7.88135 39.7613
7.92607 39.2826
7.97081 39.695
8.01553 39.7442
8.06026 40.5255
8.10498 40.9091
8.14971 41.783
8.19446 42.8891
8.23919 44.5975
8.28392 46.3865
8.32865 47.9018
8.37339 51.4457
8.41812 55.518
8.46288 62.3109
8.50761 72.8075
8.55235 94.5219
8.59709 143.742
8.64183 199.889
8.68658 316.09
8.73134 646.583
8.77609 745.555
8.82083 355.215
8.86558 159.368
8.91033 102.932
8.9551 80.9737
8.99985 71.3143
9.04461 65.0832
9.08936 61.3036
9.13412 59.0524
9.17888 59.2819
9.22365 65.1522
9.26841 106.028
9.31318 243.992
9.35794 196.144
9.4027 77.9795
9.44749 56.5621
9.49226 52.2642
9.53703 50.0458
9.5818 49.7773
9.62657 49.9195
9.67134 50.2848
9.71614 51.3348
9.76091 52.5089
9.80569 54.1166
9.85047 56.1192
9.89525 59.602
9.94005 64.5057
9.98484 72.6265
10.0296 89.1053
10.0744 123.751
10.1192 169.501
10.164 214.504
10.2088 389.414
10.2536 754.123
10.2984 696.356
10.3432 322.716
10.388 151.24
10.4328 101.2
10.4776 84.1567
10.5224 82.79
10.5672 89.1472
10.612 94.394
10.6568 128.446
10.7017 236.796
10.7465 296.808
10.7913 185.67
10.8361 87.8957
10.8809 57.9016
10.9257 49.2628
10.9706 46.009
11.0154 43.8549
11.0602 42.438
11.105 41.7726
11.1499 41.1354
11.1947 40.7536
11.2395 40.4269
11.2844 40.2401
11.3292 40.0156
11.374 39.5353
11.4189 39.3075
11.4637 38.5552
11.5086 38.2814
11.5534 37.9199
11.5983 37.5906
11.6431 37.6109
11.688 37.5081
11.7328 37.3814
11.7777 37.0981
11.8225 37.1185
11.8674 37.7614
11.9122 39.2141
11.9571 43.9507
12.002 65.9843
12.0468 96.2323
12.0917 73.6168
12.1366 49.0158
12.1814 46.0083
12.2263 48.0162
12.2712 52.3777
12.3161 63.9978
12.3609 87.2668
12.4058 97.3488
12.4507 74.5207
12.4956 55.2964
12.5405 46.3165
12.5853 42.5512
12.6302 40.4507
12.6751 39.6515
12.72 39.5826
12.7649 40.0186
12.8098 39.7138
12.8547 39.6819
12.8996 39.5868
12.9445 39.2319
12.9894 39.6268
13.0343 40.0949
13.0792 41.4352
13.1242 44.2006
13.1691 53.7311
13.214 61.8385
13.2589 61.8005
13.3038 65.7527
13.3487 70.5798
13.3937 83.7035
13.4386 122.977
13.4835 200.415
13.5285 225.591
13.5734 154.128
13.6183 101.065
13.6633 84.2887
13.7082 79.2933
13.7531 89.2149
13.7981 131.797
13.843 205.552
13.888 197.803
13.9329 114.691
13.9779 69.4336
14.0228 53.2098
14.0678 46.494
14.1127 44.2423
14.1577 45.2677
14.2027 58.4415
14.2476 85.4023
14.2926 81.8485
14.3376 52.1444
14.3825 40.5712
14.4275 38.2079
14.4725 37.214
14.5175 36.4996
14.5624 36.1582
14.6074 36.1631
14.6524 36.2545
14.6974 36.403
14.7424 36.8687
14.7874 37.3382
14.8324 38.6045
14.8774 40.8877
14.9224 44.8113
14.9674 48.274
15.0124 49.9913
15.0574 55.4728
15.1024 70.7716
15.1474 104.763
15.1924 133.767
15.2374 111.841
15.2824 74.1827
15.3274 53.3395
15.3725 44.7184
15.4175 41.271
15.4625 39.3873
15.5076 38.1946
15.5526 37.9456
15.5976 37.3629
15.6426 37.189
15.6877 37.3777
15.7327 38.1327
15.7778 39.5355
15.8228 42.6235
15.8679 45.8108
15.9129 47.4487
15.958 50.983
16.003 60.2961
16.0481 83.5423
16.0931 119.962
16.1382 133.099
16.1833 105.202
16.2283 70.2242
16.2734 49.073
16.3185 40.869
16.3636 37.0375
16.4086 35.0771
16.4537 33.9557
16.4988 32.9586
16.5439 32.4929
16.589 31.9267
16.6341 31.6083
16.6792 31.152
16.7243 30.9738
16.7694 31.0023
16.8145 30.7741
16.8596 30.7985
16.9047 31.1957
16.9498 31.7989
16.9949 34.0096
17.04 38.6807
17.0851 39.7816
17.1302 35.3692
17.1754 32.7217
17.2205 32.5355
17.2656 33.1092
17.3108 33.6421
17.3559 33.7273
17.401 34.7556
17.4462 37.5138
17.4913 43.2001
17.5365 51.0469
17.5815 51.5316
17.6268 43.7544
17.6718 37.6033
17.7171 35.001
17.7622 34.3112
17.8074 34.9267
17.8525 38.0528
17.8977 41.6511
17.9428 41.146
17.9881 38.2106
18.0331 39.0462
18.0784 41.1596
18.1237 42.1763
18.1688 42.986
18.214 47.4664
18.2591 57.5452
18.3044 79.1025
18.3495 103.852
18.3948 102.926
18.4399 77.4884
18.4852 59.8624
18.5303 57.6381
18.5756 65.7504
18.6207 77.8078
18.666 74.2628
18.7112 59.7882
18.7565 46.4585
18.8016 39.3507
18.8469 36.1664
18.892 34.7625
18.9374 33.6069
18.9825 33.1827
19.0278 32.8331
19.073 32.5091
19.1183 32.1424
19.1635 31.9377
19.2088 32.6457
19.254 33.1272
19.2993 33.8023
19.3447 34.9453
19.3898 37.5776
19.4352 43.9586
19.4804 48.8926
19.5257 47.3051
19.5709 45.664
19.6163 49.2844
19.6615 50.0026
19.7068 43.9574
19.752 37.8252
19.7974 34.4444
19.8426 32.5588
19.888 31.5052
19.9332 31.0965
19.9786 31.206
20.0238 31.4655
20.0692 31.8006
20.1144 31.8834
20.1598 32.1862
20.205 33.1085
20.2504 35.5941
20.2957 39.6434
20.3411 45.5214
20.3863 48.7969
20.4318 44.8293
20.477 40.0365
20.5224 39.6135
20.5677 43.3062
20.6131 46.2106
20.6586 42.7113
20.7038 36.7245
20.7493 32.6528
20.7945 31.1327
20.84 31.0449
20.8853 32.6971
20.9307 33.9234
20.976 32.856
21.0215 29.9982
21.0668 28.4993
21.1122 28.1193
21.1575 27.9604
21.203 27.9458
21.2483 27.9522
21.2938 27.8727
21.3391 27.8932
21.3846 28.2033
21.4299 28.8009
21.4754 30.1806
21.5207 32.0382
21.5662 32.5453
21.6116 31.53
21.6571 30.1578
21.7024 29.2581
21.7479 28.9
21.7933 29.2156
21.8388 29.7935
21.8843 30.3597
21.9297 30.3917
21.9752 31.0489
22.0206 32.422
22.0661 34.4468
22.1115 38.2354
22.157 44.3057
22.2024 50.4751
22.248 50.7334
22.2933 46.7218
22.3389 42.6125
22.3843 40.8971
22.4299 40.1289
22.4753 37.9549
22.5208 34.4019
22.5662 31.7094
22.6118 30.5191
22.6572 29.6617
22.7028 29.3163
22.7483 29.1483
22.7939 29.1539
22.8393 29.5339
22.8849 30.5996
22.9303 31.6344
22.9759 31.9773
23.0214 31.1637
23.067 30.837
23.1126 31.4995
23.1581 33.0579
23.2037 36.6214
23.2492 41.884
23.2948 44.278
23.3403 41.4625
23.3859 36.2716
23.4314 33.2241
23.477 32.3666
23.5225 33.1126
23.5682 34.5136
23.6137 34.8315
23.6593 33.4291
23.7048 32.468
23.7505 33.1609
23.796 35.396
23.8417 40.1454
23.8872 45.4132
23.9329 46.2281
23.9784 41.1054
24.0241 34.8907
24.0697 31.349
24.1154 29.5095
24.1609 28.8498
24.2066 28.5128
24.2522 28.1502
24.2979 27.2101
24.3434 26.7045
24.3892 26.3055
24.4349 26.0888
24.4805 25.9038
24.5262 25.8397
24.5718 25.649
24.6175 25.5633
24.6631 25.7768
24.7089 25.8659
24.7545 26.6836
24.8002 27.4303
24.8458 27.7697
24.8916 27.1386
24.9372 26.4373
24.983 26.2096
25.0286 25.745
25.0744 25.6848
25.12 25.468
25.1658 25.5878
25.2114 25.7886
25.2572 26.0932
25.3029 26.4086
25.3487 27.1078
25.3943 28.0709
25.4402 29.2954
25.4858 30.2764
25.5316 30.7553
25.5773 30.5074
25.6231 31.439
25.669 32.6156
25.7147 33.0287
25.7605 30.9451
25.8062 28.368
25.8521 26.971
25.8977 26.3549
25.9436 26.5204
25.9893 26.6622
26.0352 26.4794
26.0809 25.7558
26.1268 25.2896
26.1725 25.1327
26.2184 25.1896
26.2641 25.4175
26.31 25.9236
26.3557 26.8751
26.4017 28.0518
26.4474 29.1706
26.4933 28.8204
26.5391 27.94
26.585 26.7935
26.6308 26.2103
26.6767 25.7151
26.7225 25.7274
26.7684 25.8404
26.8142 26.1599
26.8601 26.6836
26.9059 27.8413
26.9519 29.7438
26.9979 31.5475
27.0437 32.0734
27.0896 31.4879
27.1354 30.7236
27.1814 29.4194
27.2272 28.0684
27.2732 26.6351
27.3191 25.4695
27.3651 24.9986
27.4109 24.4913
27.4569 24.3743
27.5027 24.177
27.5488 24.1935
27.5946 24.138
27.6407 24.315
27.6865 24.3996
27.7326 24.3385
27.7784 24.4726
27.8245 24.8981
27.8703 25.5416
27.9164 25.9037
27.9623 25.6298
28.0084 25.2298
28.0543 24.8176
28.1003 24.8568
28.1462 25.4442
28.1923 25.9948
28.2384 26.141
28.2843 26.1268
28.3304 26.5472
28.3764 27.8825
28.4225 29.3509
28.4684 29.7806
28.5145 28.5973
28.5605 27.8694
28.6066 27.601
28.6526 26.925
28.6987 25.9558
28.7447 24.9359
28.7908 24.0184
28.8368 23.39
28.8829 23.0275
28.9289 22.6869
28.9751 22.4324
29.0211 22.4322
29.0673 22.3167
29.1133 22.3151
29.1595 22.543
29.2055 22.721
29.2517 23.2624
29.2977 23.3802
29.3439 23.1389
29.3899 22.6331
29.4361 22.158
29.4824 21.751
29.5284 21.8324
29.5746 21.7669
29.6207 21.7429
29.6669 21.9883
29.713 22.2537
29.7593 22.6462
29.8053 22.8725
29.8516 22.6867
29.8977 22.059
29.9439 21.5244
29.99 21.2115
30.0363 21.0681
30.0824 20.9336
30.1287 21.0351
30.1748 21.1061
30.2211 21.4685
30.2673 21.382
30.3136 21.3704
30.3597 21.0658
30.406 20.7968
30.4522 20.7776
30.4985 20.9125
30.5447 21.2058
30.591 21.399
30.6372 21.6013
30.6835 21.4005
30.7297 21.2659
30.7761 20.9856
30.8224 20.9913
30.8686 20.9562
30.915 21.0064
30.9612 21.2689
31.0076 21.6972
31.0538 22.4207
31.1002 23.2032
31.1464 23.5145
31.1928 23.3445
31.2391 22.9622
31.2855 22.511
31.3317 21.9156
31.3781 21.427
31.4244 20.8673
31.4708 20.5852
31.5171 20.5332
31.5636 20.349
31.6098 20.3205
31.6563 20.5106
31.7026 20.6198
31.7491 20.8047
31.7953 21.0159
31.8418 21.3289
31.8881 21.9084
31.9346 21.9516
31.9809 21.5065
32.0275 20.9556
32.074 20.5526
32.1203 20.3364
32.1668 20.3711
32.2132 20.5477
32.2597 20.5833
32.306 20.9316
32.3526 21.1498
32.399 21.4024
32.4455 21.1142
32.4919 20.7638
32.5385 20.4247
32.5848 20.0091
32.6314 19.7033
32.6778 19.5233
32.7244 19.2007
32.7708 18.9552
32.8174 18.8011
32.8638 18.7061
32.9104 18.7851
32.9569 18.6753
33.0035 18.6094
33.0499 18.7438
33.0966 18.8123
33.143 18.9287
33.1897 18.754
33.2361 18.5446
33.2828 18.4315
33.3293 18.3744
33.3759 18.3662
33.4226 18.3772
33.4691 18.5094
33.5158 18.7169
33.5623 19.0265
33.609 19.1999
33.6555 19.3615
33.7022 19.3808
33.7487 19.3314
33.7954 19.1148
33.842 18.6674
33.8887 18.2895
33.9353 17.9751
33.982 17.8944
34.0286 17.801
34.0753 17.7346
34.1219 17.5983
34.1687 17.5862
34.2152 17.5952
34.262 17.5912
34.3086 17.6276
34.3554 17.6897
34.402 17.5988
34.4488 17.3965
34.4954 17.2739
34.5422 17.1011
34.5889 17.0364
34.6357 16.9912
34.6825 17.0344
34.7292 17.0409
34.776 17.0748
34.8227 17.0169
34.8695 17.0023
34.9162 16.8337
34.9631 16.6997
35.0098 16.6325
35.0566 16.3703
35.1033 16.3465
35.1502 16.213
35.1969 16.3172
35.2438 16.2923
35.2906 16.2082
35.3375 16.2517
35.3842 16.3143
35.4311 16.3329
35.4779 16.3164
35.5248 16.2412
35.5716 16.1942
35.6185 16.2388
35.6653 16.3253
35.7123 16.3425
35.759 16.4786
35.806 16.5893
35.8528 16.8045
35.8998 16.9997
35.9468 17.1386
35.9936 16.9974
36.0406 16.7841
36.0874 16.6216
36.1345 16.391
36.1813 16.1654
36.2283 15.8901
36.2752 15.7821
36.3222 15.709
36.3691 15.6256
36.4161 15.5597
36.463 15.5818
36.5101 15.6423
36.557 15.7073
36.6041 15.7362
36.651 15.7484
36.6981 15.7272
36.745 15.5566
36.7921 15.4525
36.839 15.2875
36.8861 15.316
36.9331 15.3232
36.9802 15.2851
37.0272 15.3896
37.0743 15.3562
37.1213 15.3989
37.1684 15.3151
37.2154 15.2013
37.2626 14.9891
37.3098 14.8501
37.3568 14.7587
37.404 14.7452
37.451 14.5636
37.4982 14.5999
37.5452 14.541
37.5924 14.4546
37.6395 14.4636
37.6867 14.3701
37.7337 14.3652
37.781 14.3394
37.8281 14.2459
37.8753 14.2341
37.9224 14.126
37.9697 14.097
38.0168 14.0644
38.064 14.0491
38.1111 14.0767
38.1584 14.0736
38.2056 14.0739
38.2529 14.022
38.3 13.8546
38.3473 13.8693
38.3945 13.7343
38.4418 13.666
38.489 13.5796
38.5363 13.5547
38.5837 13.5206
38.6309 13.5203
38.6782 13.4608
38.7254 13.5355
38.7728 13.5177
38.82 13.5093
38.8674 13.4941
38.9146 13.354
38.9621 13.3007
39.0093 13.2634
39.0567 13.3096
39.104 13.2471
39.1514 13.1808
39.1987 13.3147
39.2461 13.2413
39.2934 13.1567
39.3409 12.9751
39.3882 12.8967
39.4356 12.7499
39.483 12.7957
39.5304 12.714
39.5778 12.7086
39.6253 12.6698
39.6726 12.5719
39.7201 12.6301
39.7675 12.5762
39.815 12.5396
39.8624 12.5541
39.9099 12.5199
39.9575 12.4318
40.0049 12.3886
40.0525 12.3399
40.0999 12.3199
40.1474 12.3466
40.1949 12.3152
40.2425 12.3242
40.2899 12.3705
40.3375 12.3499
40.385 12.3343
40.4326 12.2542
40.48 12.1731
40.5277 12.1236
40.5752 12.0758
40.6228 12.0246
40.6703 12.0088
40.718 11.9534
40.7655 11.9137
40.8132 11.9163
40.8607 11.9002
40.9084 11.8559
40.9559 11.8211
41.0036 11.7904
41.0512 11.6902
41.0989 11.7298
41.1465 11.7127
41.1942 11.6927
41.242 11.7041
41.2896 11.7041
41.3373 11.6389
41.3849 11.5568
41.4327 11.4689
41.4803 11.4172
41.5281 11.3971
41.5758 11.284
41.6236 11.2241
41.6712 11.2214
41.7191 11.1765
41.7667 11.1445
41.8146 11.1635
41.8622 11.0489
41.9101 11.0996
41.9578 10.9733
42.0057 10.9937
42.0534 10.9799
42.1013 10.981
42.149 10.9467
42.1969 10.9468
42.2446 10.9614
42.2925 10.9636
42.3403 10.8862
42.3882 10.8416
42.436 10.7844
42.4839 10.6749
42.5319 10.6332
42.5797 10.5728
42.6277 10.5647
42.6755 10.4728
42.7235 10.4441
42.7713 10.4487
42.8193 10.3911
42.8671 10.3244
42.9152 10.3449
42.963 10.2827
43.0111 10.2012
43.0589 10.187
43.107 10.1238
43.1549 10.1463
43.2029 10.0891
43.2508 10.0729
43.2989 10.0046
43.3468 9.97996
43.3949 9.93851
43.4429 9.85272
43.491 9.86897
43.5389 9.82523
43.5871 9.78771
43.635 9.74691
43.6832 9.76213
43.7312 9.72892
43.7793 9.68424
43.8273 9.62298
43.8755 9.6427
43.9237 9.62378
43.9717 9.54146
44.0199 9.56291
44.068 9.53957
44.1162 9.5136
44.1642 9.49023
44.2125 9.44998
44.2606 9.43824
44.3088 9.45906
44.3569 9.40216
44.4052 9.35339
44.4533 9.30252
44.5016 9.23149
44.5497 9.27654
44.598 9.2125
44.6461 9.14611
44.6945 9.15114
44.7426 9.13718
44.791 9.08581
44.8391 9.09895
44.8875 9.03872
44.9357 9.03512
44.984 8.99267
45.0322 8.9468
45.0806 8.94473
45.1288 8.95997
45.1773 8.88857
45.2257 8.86867
45.2739 8.85322
45.3224 8.78341
45.3706 8.76545
45.4191 8.69671
45.4673 8.66816
45.5158 8.67053
45.5641 8.5723
45.6126 8.61273
45.6609 8.54482
45.7094 8.5359
45.7577 8.51757
45.8063 8.4937
45.8546 8.46624
45.9031 8.42819
45.9515 8.39268
46.0001 8.37395
46.0484 8.35269
46.097 8.33542
46.1454 8.31664
46.194 8.28994
46.2424 8.2194
46.291 8.24802
46.3395 8.15683
46.3881 8.11909
46.4365 8.10044
46.4852 8.12054
46.5337 8.01997
46.5823 8.06697
46.631 8.0261
46.6795 8.01961
46.7282 7.96096
46.7767 7.93598
46.8254 7.852
46.8739 7.83782
46.9226 7.77604
46.9712 7.79408
47.0199 7.80883
47.0685 7.75982
47.1173 7.70116
47.1658 7.68103
47.2146 7.65266
47.2632 7.61979
47.312 7.58533
47.3606 7.54351
47.4095 7.55984
47.4581 7.48529
47.5069 7.5017
47.5556 7.46363
47.6044 7.45964
47.6531 7.40923
47.702 7.36946
47.7507 7.36046
47.7996 7.32923
47.8483 7.30419
47.8972 7.30773
47.9461 7.27091
47.9948 7.23598
48.0438 7.17967
48.0925 7.20488
48.1415 7.16369
48.1902 7.12016
48.2392 7.12114
48.288 7.10221
48.337 7.07004
48.3858 7.0177
48.4348 7.00321
48.4837 6.96836
48.5327 6.98286
48.5815 6.90663
48.6306 6.90222
48.6795 6.87499
48.7285 6.82636
48.7774 6.81906
48.8265 6.80129
48.8754 6.75862
48.9245 6.74695
48.9734 6.75269
49.0226 6.73859
49.0715 6.67247
49.1206 6.65879
49.1696 6.61478
49.2188 6.61604
49.2679 6.58765
49.3169 6.55025
49.3661 6.50778
49.4151 6.51793
49.4643 6.50263
49.5134 6.43555
49.5626 6.43017
49.6117 6.43464
49.6609 6.42023
49.71 6.40291
49.7592 6.37881
49.8083 6.3414
49.8576 6.32784
49.9067 6.29878
49.956 6.29606
50.0052 6.24394
50.0545 6.23824
50.1036 6.20079
50.153 6.20821
50.2022 6.16832
50.2515 6.14176
50.3007 6.12051
50.3501 6.06351
50.3993 6.09493
50.4487 6.04534
50.498 6.05253
50.5474 6.04047
50.5966 6.02777
50.6461 5.99792
50.6955 5.95328
50.7448 5.92186
50.7943 5.91579
50.8436 5.88388
50.8931 5.86975
50.9424 5.83789
50.9919 5.82428
51.0413 5.77705
51.0908 5.75125
51.1402 5.75974
51.1897 5.72412
51.2391 5.71053
51.2887 5.69094
51.3381 5.66204
51.3877 5.66314
51.4371 5.64004
51.4867 5.58307
51.5362 5.58777
51.5858 5.54681
51.6353 5.52916
51.6849 5.50858
51.7344 5.51133
51.7841 5.46642
51.8336 5.47209
51.8833 5.42576
51.9328 5.37152
51.9826 5.38531
52.0323 5.34726
52.0818 5.36386
52.1316 5.28391
52.1812 5.30616
52.231 5.24155
52.2806 5.21973
52.3304 5.24282
52.38 5.2059
52.4298 5.21507
52.4794 5.15935
52.5293 5.14137
52.5789 5.1685
52.6288 5.08741
52.6785 5.08061
52.7284 5.05028
52.7781 5.05947
52.828 5.02957
52.8777 5.01022
52.9276 4.99732
52.9774 4.97694
53.0273 4.93481
53.0771 4.91438
53.1271 4.92025
53.1769 4.88958
53.2269 4.84278
53.2767 4.88277
53.3267 4.79554
53.3765 4.81957
53.4266 4.80031
53.4766 4.77313
53.5265 4.716
53.5765 4.71197
53.6264 4.70076
53.6765 4.67993
53.7264 4.6586
53.7765 4.66555
53.8265 4.63439
53.8766 4.63044
53.9266 4.56667
53.9767 4.52777
54.0267 4.55303
54.0769 4.50439
54.1269 4.50745
54.1771 4.46443
54.2271 4.42124
54.2773 4.38138
54.3274 4.35448
54.3776 4.34999
54.4277 4.33958
54.478 4.30034
54.528 4.26588
54.5783 4.18959
54.6285 4.20013
54.6788 4.17746
54.7289 4.09463
54.7792 4.12251
54.8296 4.08044
54.8798 4.01791
54.9301 4.0002
54.9803 3.95749
55.0307 4.00366
55.0809 3.94431
55.1314 3.92492
55.1816 3.83815
55.232 3.81099
55.2823 3.80969
55.3328 3.72047
55.383 3.68011
55.4335 3.67434
55.4838 3.65469
55.5344 3.62794
55.5847 3.59478
55.6352 3.53262
55.6856 3.54777
55.7361 3.54472