File: XRD/Ni3Fe_FD0416.xy
TT I
1.27165 8.03083
1.31627 7.24947
1.36089 6.9549
1.40551 6.70455
1.45013 5.77347
1.49476 5.92537
1.53938 6.06813
1.584 5.64788
1.62863 5.41773
1.67325 5.0339
1.71787 4.60689
1.7625 5.56234
1.80712 5.41654
1.85174 5.33458
1.89636 5.08316
1.94099 4.60643
1.98562 4.86002
2.03025 4.73516
2.07487 4.83094
2.11949 5.03804
2.16411 5.33513
2.20874 16.9816
2.25338 29.4841
2.298 6.09938
2.34263 4.993
2.38725 5.51608
2.43188 5.84785
2.4765 6.31046
2.52115 6.31152
2.56577 7.02716
2.6104 7.22795
2.65503 7.47444
2.69965 7.89946
2.7443 7.98538
2.78893 8.00577
2.83356 7.91939
2.87818 8.6762
2.92281 8.67518
2.96744 9.62114
3.01209 10.4468
3.05672 11.5025
3.10135 12.6018
3.14599 13.3094
3.19062 13.9335
3.23527 15.2133
3.2799 15.9083
3.32454 16.8242
3.36917 17.9691
3.4138 19.1088
3.45844 20.138
3.50309 21.2794
3.54773 22.3947
3.59237 24.8141
3.637 119.063
3.68164 73.5434
3.7263 27.4107
3.77094 27.2064
3.81558 27.1744
3.86022 28.0533
3.90486 29.4623
3.9495 30.5998
3.99416 31.605
4.0388 32.7328
4.08344 34.5726
4.12809 35.5573
4.17273 38.0155
4.21738 45.8552
4.26204 323.963
4.30669 285.544
4.35133 52.2362
4.39598 46.0638
4.44063 57.4168
4.4853 73.4631
4.52995 52.3058
4.5746 52.344
4.61925 54.4437
4.6639 56.356
4.70855 59.0245
4.75322 62.0519
4.79788 64.9761
4.84253 68.6292
4.88719 72.5507
4.93184 76.2251
4.97652 82.4054
5.02118 88.3863
5.06583 96.8938
5.11049 109.724
5.15515 201.64
5.19981 421.704
5.24449 2871.85
5.28916 11426.2
5.33382 3534.69
5.37848 222.846
5.42315 137.564
5.46783 118.808
5.5125 109.488
5.55716 104.963
5.60183 101.232
5.6465 99.2812
5.69117 96.2863
5.73586 94.2991
5.78053 94.1967
5.8252 93.5732
5.86988 93.6107
5.91455 96.7344
5.95924 106.509
6.00392 228.148
6.0486 1005.11
6.09328 3857.54
6.13795 3560.93
6.18263 312.667
6.22733 100.003
6.27201 87.2996
6.3167 114.766
6.36138 86.3855
6.40606 70.7887
6.45075 68.9642
6.49545 66.8855
6.54014 65.3945
6.58483 64.7642
6.62952 64.6609
6.67421 105.46
6.71892 177.796
6.76361 73.6878
6.8083 60.4085
6.853 58.8494
6.89769 58.3694
6.94239 57.9856
6.98711 57.53
7.03181 56.9061
7.07651 56.8783
7.12121 56.9206
7.16591 57.0117
7.21063 57.3228
7.25533 76.7079
7.30004 228.243
7.34475 108.194
7.38945 58.9375
7.43416 56.2714
7.47889 55.9365
7.5236 56.1755
7.56831 56.8741
7.61303 59.0659
7.65774 59.2105
7.70247 57.4995
7.74719 57.6514
7.79191 58.1128
7.83663 58.2031
7.88135 58.829
7.92607 59.8258
7.97081 61.3308
8.01553 62.3604
8.06026 63.4854
8.10498 65.1922
8.14971 77.9105
8.19446 76.0786
8.23919 71.0044
8.28392 72.9525
8.32865 75.1971
8.37339 79.9716
8.41812 87.6245
8.46288 125.466
8.50761 175.396
8.55235 399.137
8.59709 1062.13
8.64183 2076.66
8.68658 1128.2
8.73134 194.631
8.77609 104.475
8.82083 95.7187
8.86558 92.0245
8.91033 92.4195
8.9551 95.8576
8.99985 87.7145
9.04461 84.8543
9.08936 84.321
9.13412 83.4094
9.17888 83.1793
9.22365 84.382
9.26841 83.4716
9.31318 84.4227
9.35794 84.1436
9.4027 84.5085
9.44749 84.9635
9.49226 86.0029
9.53703 87.0712
9.5818 88.6499
9.62657 94.7652
9.67134 103.825
9.71614 95.8436
9.76091 95.239
9.80569 98.3085
9.85047 102.045
9.89525 133.362
9.94005 149.309
9.98484 184.702
10.0296 353.735
10.0744 746.484
10.1192 1577.51
10.164 1769.54
10.2088 513.123
10.2536 141.221
10.2984 119.633
10.3432 121.506
10.388 108.075
10.4328 121.329
10.4776 162.79
10.5224 262.663
10.5672 472.83
10.612 529.973
10.6568 231.416
10.7017 102.447
10.7465 88.9347
10.7913 85.3605
10.8361 82.7629
10.8809 80.8714
10.9257 80.4738
10.9706 82.206
11.0154 76.8216
11.0602 74.6998
11.105 73.8477
11.1499 79.7018
11.1947 90.6756
11.2395 78.3349
11.2844 73.0441
11.3292 69.3611
11.374 67.5964
11.4189 67.2273
11.4637 66.7259
11.5086 66.9721
11.5534 71.6071
11.5983 67.6382
11.6431 64.9685
11.688 64.236
11.7328 64.4015
11.7777 64.3338
11.8225 64.1933
11.8674 63.8433
11.9122 64.2812
11.9571 64.4206
12.002 65.0312
12.0468 69.5181
12.0917 81.4229
12.1366 102.073
12.1814 141.399
12.2263 199.595
12.2712 184.449
12.3161 110.071
12.3609 74.8813
12.4058 66.7094
12.4507 65.7224
12.4956 65.8971
12.5405 66.1727
12.5853 67.2097
12.6302 77.664
12.6751 85.2471
12.72 72.9842
12.7649 69.366
12.8098 69.685
12.8547 71.1985
12.8996 72.3802
12.9445 73.7176
12.9894 75.5088
13.0343 77.3081
13.0792 80.4889
13.1242 90.0983
13.1691 115.803
13.214 149.877
13.2589 221.926
13.3038 336.206
13.3487 431.74
13.3937 299.783
13.4386 138.446
13.4835 109.56
13.5285 123.835
13.5734 156.422
13.6183 227.191
13.6633 328.825
13.7082 363.539
13.7531 219.356
13.7981 106.882
13.843 84.5369
13.888 81.453
13.9329 78.755
13.9779 77.4405
14.0228 76.1433
14.0678 74.6316
14.1127 74.1444
14.1577 74.5361
14.2027 73.3869
14.2476 72.1661
14.2926 72.138
14.3376 73.8132
14.3825 72.2614
14.4275 70.4012
14.4725 70.0937
14.5175 70.517
14.5624 70.3864
14.6074 73.2537
14.6524 74.1856
14.6974 72.0927
14.7424 73.3364
14.7874 80.3826
14.8324 90.9986
14.8774 109.355
14.9224 144.007
14.9674 193.453
15.0124 223.101
15.0574 164.479
15.1024 100.481
15.1474 74.9882
15.1924 72.562
15.2374 73.8261
15.2824 72.8391
15.3274 70.13
15.3725 68.3018
15.4175 67.851
15.4625 67.3982
15.5076 68.1654
15.5526 67.7819
15.5976 67.1152
15.6426 68.2478
15.6877 73.7842
15.7327 81.7674
15.7778 94.8398
15.8228 119.583
15.8679 157.756
15.9129 192.96
15.958 171.309
16.003 108.16
16.0481 72.0757
16.0931 67.39
16.1382 65.0257
16.1833 62.5077
16.2283 60.4586
16.2734 59.9054
16.3185 60.5013
16.3636 61.8472
16.4086 59.7623
16.4537 57.8216
16.4988 56.9434
16.5439 56.6998
16.589 56.4882
16.6341 56.3351
16.6792 55.918
16.7243 56.3219
16.7694 56.4054
16.8145 56.2114
16.8596 56.628
16.9047 58.8077
16.9498 59.289
16.9949 57.1209
17.04 57.2748
17.0851 58.125
17.1302 60.1023
17.1754 62.8933
17.2205 66.6398
17.2656 73.1646
17.3108 81.0601
17.3559 83.7209
17.401 74.6897
17.4462 64.6162
17.4913 60.5741
17.5365 60.3783
17.5815 60.6812
17.6268 60.7062
17.6718 61.7263
17.7171 62.2941
17.7622 62.5382
17.8074 63.125
17.8525 65.5602
17.8977 69.7901
17.9428 75.4158
17.9881 82.7728
18.0331 96.582
18.0784 115.107
18.1237 136.716
18.1688 137.698
18.214 112.103
18.2591 89.5251
18.3044 89.3713
18.3495 97.5809
18.3948 107.274
18.4399 101.928
18.4852 82.7067
18.5303 68.8538
18.5756 63.9077
18.6207 62.7501
18.666 62.0942
18.7112 61.1826
18.7565 60.4098
18.8016 60.012
18.8469 59.2369
18.892 59.2141
18.9374 58.3893
18.9825 58.3942
19.0278 58.4604
19.073 58.2886
19.1183 58.8452
19.1635 59.7946
19.2088 61.1534
19.254 62.8331
19.2993 66.1988
19.3447 72.2543
19.3898 77.5731
19.4352 75.5466
19.4804 66.6023
19.5257 58.946
19.5709 55.6947
19.6163 55.2281
19.6615 55.0461
19.7068 54.5458
19.752 54.567
19.7974 54.7722
19.8426 55.6786
19.888 56.4086
19.9332 57.4732
19.9786 59.4723
20.0238 62.3465
20.0692 66.9363
20.1144 70.8058
20.1598 70.5627
20.205 65.8239
20.2504 62.863
20.2957 63.8551
20.3411 66.2653
20.3863 66.3288
20.4318 61.095
20.477 55.7931
20.5224 53.2092
20.5677 52.4367
20.6131 51.6033
20.6586 50.9667
20.7038 50.8157
20.7493 50.2606
20.7945 50.1122
20.84 50.0636
20.8853 49.8458
20.9307 49.5626
20.976 49.9513
21.0215 49.8129
21.0668 50.1403
21.1122 50.5493
21.1575 50.9766
21.203 51.5174
21.2483 52.3125
21.2938 52.6398
21.3391 51.5974
21.3846 50.2175
21.4299 49.4529
21.4754 49.4029
21.5207 49.6631
21.5662 49.9017
21.6116 50.2578
21.6571 51.0816
21.7024 52.1288
21.7479 53.4233
21.7933 55.7806
21.8388 58.7519
21.8843 62.6286
21.9297 65.6176
21.9752 65.8952
22.0206 62.0338
22.0661 58.0117
22.1115 56.9769
22.157 57.2734
22.2024 56.2462
22.248 53.2612
22.2933 51.3143
22.3389 50.353
22.3843 50.2839
22.4299 50.2566
22.4753 50.2212
22.5208 49.9203
22.5662 49.587
22.6118 49.868
22.6572 49.9157
22.7028 50.4272
22.7483 50.8355
22.7939 51.4823
22.8393 52.7108
22.8849 54.3456
22.9303 56.3846
22.9759 58.3853
23.0214 59.1858
23.067 56.7101
23.1126 53.0191
23.1581 50.7
23.2037 49.9112
23.2492 49.8928
23.2948 50.0377
23.3403 50.1274
23.3859 50.5537
23.4314 51.5995
23.477 52.986
23.5225 54.8042
23.5682 57.1243
23.6137 58.988
23.6593 57.6897
23.7048 54.0088
23.7505 49.8264
23.796 47.8912
23.8417 47.1767
23.8872 46.6213
23.9329 46.304
23.9784 45.977
24.0241 45.685
24.0697 45.4619
24.1154 45.2581
24.1609 45.0757
24.2066 44.9472
24.2522 44.897
24.2979 44.5398
24.3434 44.2654
24.3892 44.2736
24.4349 44.1628
24.4805 43.8942
24.5262 43.958
24.5718 43.8007
24.6175 43.9738
24.6631 43.9903
24.7089 43.5666
24.7545 43.4224
24.8002 43.3317
24.8458 43.2295
24.8916 42.972
24.9372 43.1572
24.983 43.3539
25.0286 43.7074
25.0744 44.0825
25.12 44.4702
25.1658 45.0718
25.2114 45.5667
25.2572 45.6894
25.3029 45.5391
25.3487 45.6928
25.3943 45.6882
25.4402 44.939
25.4858 43.8736
25.5316 42.6124
25.5773 41.9581
25.6231 41.8393
25.669 41.4768
25.7147 41.5235
25.7605 41.2831
25.8062 41.521
25.8521 41.5678
25.8977 41.5513
25.9436 41.7618
25.9893 41.7293
26.0352 42.199
26.0809 42.3694
26.1268 42.6182
26.1725 42.463
26.2184 41.8494
26.2641 41.2682
26.31 41.0079
26.3557 41.0915
26.4017 40.9764
26.4474 41.3125
26.4933 41.4647
26.5391 42.1014
26.585 42.4318
26.6308 42.7223
26.6767 43.0358
26.7225 43.043
26.7684 42.5729
26.8142 41.921
26.8601 41.4382
26.9059 41.0371
26.9519 40.4786
26.9979 40.166
27.0437 39.896
27.0896 39.6316
27.1354 39.7594
27.1814 39.4735
27.2272 39.5107
27.2732 39.3998
27.3191 39.1969
27.3651 39.381
27.4109 39.2423
27.4569 39.3166
27.5027 39.3398
27.5488 39.3863
27.5946 39.2678
27.6407 39.1685
27.6865 39.0386
27.7326 38.8605
27.7784 38.6904
27.8245 38.756
27.8703 38.7512
27.9164 39.0394
27.9623 39.0926
28.0084 39.4987
28.0543 39.8319
28.1003 39.8365
28.1462 39.7491
28.1923 39.3516
28.2384 38.8407
28.2843 38.5668
28.3304 38.1692
28.3764 37.5612
28.4225 37.3561
28.4684 37.1199
28.5145 36.8166
28.5605 36.7022
28.6066 36.5607
28.6526 36.3499
28.6987 36.4715
28.7447 36.3606
28.7908 36.2285
28.8368 36.2562
28.8829 36.272
28.9289 36.157
28.9751 36.151
29.0211 35.7823
29.0673 35.5047
29.1133 35.4077
29.1595 35.2145
29.2055 35.1307
29.2517 35.0419
29.2977 35.2043
29.3439 35.0034
29.3899 35.0196
29.4361 34.9837
29.4824 34.8454
29.5284 34.658
29.5746 34.2765
29.6207 33.8392
29.6669 33.8432
29.713 33.672
29.7593 33.684
29.8053 33.6524
29.8516 33.5988
29.8977 33.5743
29.9439 33.3964
29.99 33.3098
30.0363 33.1936
30.0824 33.1691
30.1287 33.0918
30.1748 33.1316
30.2211 33.2474
30.2673 32.9804
30.3136 33.1515
30.3597 32.987
30.406 33.0113
30.4522 32.7203
30.4985 32.7507
30.5447 32.8565
30.591 32.7326
30.6372 32.8873
30.6835 32.7489
30.7297 33.0163
30.7761 32.8217
30.8224 32.7411
30.8686 32.6422
30.915 32.3498
30.9612 32.2796
31.0076 32.0611
31.0538 31.8609
31.1002 31.8516
31.1464 31.6312
31.1928 31.6915
31.2391 31.681
31.2855 31.5633
31.3317 31.5258
31.3781 31.5998
31.4244 31.6161
31.4708 31.6315
31.5171 31.5683
31.5636 31.382
31.6098 31.2605
31.6563 31.0611
31.7026 30.9379
31.7491 30.6688
31.7953 30.8771
31.8418 30.7813
31.8881 30.8189
31.9346 30.788
31.9809 30.6684
32.0275 30.6406
32.074 30.5858
32.1203 30.3356
32.1668 30.3275
32.2132 30.0464
32.2597 30.05
32.306 29.8388
32.3526 29.6093
32.399 29.5683
32.4455 29.4087
32.4919 29.3348
32.5385 29.3725
32.5848 29.196
32.6314 29.2504
32.6778 29.0478
32.7244 28.9015
32.7708 28.8195
32.8174 28.7659
32.8638 28.6283
32.9104 28.8059
32.9569 28.6311
33.0035 28.5068
33.0499 28.4492
33.0966 28.437
33.143 28.4634
33.1897 28.3302
33.2361 28.3212
33.2828 28.1177
33.3293 28.0967
33.3759 28.0441
33.4226 27.9018
33.4691 27.7929
33.5158 27.6739
33.5623 27.5502
33.609 27.3591
33.6555 27.3079
33.7022 27.2384
33.7487 27.1089
33.7954 27.0381
33.842 26.9652
33.8887 26.8682
33.9353 26.9312
33.982 26.8397
34.0286 26.6744
34.0753 26.5355
34.1219 26.5152
34.1687 26.4451
34.2152 26.366
34.262 26.2041
34.3086 26.1727
34.3554 26.0679
34.402 25.9322
34.4488 25.9141
34.4954 25.8956
34.5422 25.7932
34.5889 25.6944
34.6357 25.5722
34.6825 25.4877
34.7292 25.3721
34.776 25.2308
34.8227 25.2309
34.8695 25.2056
34.9162 25.1438
34.9631 24.9729
35.0098 25.0769
35.0566 24.895
35.1033 24.8585
35.1502 24.8094
35.1969 24.7534
35.2438 24.7292
35.2906 24.5998
35.3375 24.512
35.3842 24.5252
35.4311 24.519
35.4779 24.4873
35.5248 24.4396
35.5716 24.3065
35.6185 24.238
35.6653 24.1623
35.7123 24.091
35.759 23.9657
35.806 23.9207
35.8528 23.793
35.8998 23.6686
35.9468 23.7083
35.9936 23.6003
36.0406 23.6071
36.0874 23.5096
36.1345 23.387
36.1813 23.3236
36.2283 23.259
36.2752 23.2058
36.3222 23.179
36.3691 23.0591
36.4161 22.8834
36.463 23.0268
36.5101 22.9449
36.557 22.9031
36.6041 22.6735
36.651 22.6988
36.6981 22.599
36.745 22.5278
36.7921 22.4546
36.839 22.3544
36.8861 22.2856
36.9331 22.1903
36.9802 22.1756
37.0272 22.1008
37.0743 21.9801
37.1213 21.965
37.1684 21.8962
37.2154 21.8179
37.2626 21.7123
37.3098 21.6578
37.3568 21.6192
37.404 21.6183
37.451 21.4832
37.4982 21.4741
37.5452 21.3636
37.5924 21.2552
37.6395 21.3371
37.6867 21.1685
37.7337 21.1042
37.781 21.0134
37.8281 21.0468
37.8753 20.8498
37.9224 20.7943
37.9697 20.6309
38.0168 20.6886
38.064 20.6175
38.1111 20.6161
38.1584 20.463
38.2056 20.3877
38.2529 20.307
38.3 20.3049
38.3473 20.311
38.3945 20.1137
38.4418 20.1515
38.489 20.0896
38.5363 19.9213
38.5837 19.8923
38.6309 19.834
38.6782 19.7949
38.7254 19.7023
38.7728 19.6189
38.82 19.5948
38.8674 19.5597
38.9146 19.5088
38.9621 19.353
39.0093 19.2535
39.0567 19.3332
39.104 19.2252
39.1514 19.1834
39.1987 19.1502
39.2461 19.06
39.2934 19.0349
39.3409 18.8716
39.3882 18.7911
39.4356 18.782
39.483 18.7299
39.5304 18.6473
39.5778 18.6897
39.6253 18.6003
39.6726 18.5127
39.7201 18.472
39.7675 18.4217
39.815 18.3417
39.8624 18.2498
39.9099 18.2667
39.9575 18.1599
40.0049 18.0381
40.0525 18.0358
40.0999 17.9601
40.1474 17.9135
40.1949 17.8836
40.2425 17.8186
40.2899 17.7606
40.3375 17.7479
40.385 17.6554
40.4326 17.5392
40.48 17.5601
40.5277 17.5126
40.5752 17.3813
40.6228 17.3446
40.6703 17.3251
40.718 17.2291
40.7655 17.2054
40.8132 17.1498
40.8607 17.0837
40.9084 17.0941
40.9559 16.9612
41.0036 16.951
41.0512 16.8785
41.0989 16.9128
41.1465 16.7926
41.1942 16.7523
41.242 16.6028
41.2896 16.5918
41.3373 16.5412
41.3849 16.4888
41.4327 16.4566
41.4803 16.4009
41.5281 16.2827
41.5758 16.2352
41.6236 16.1942
41.6712 16.1695
41.7191 16.1074
41.7667 16.0527
41.8146 16.0456
41.8622 15.9214
41.9101 15.9051
41.9578 15.7875
42.0057 15.8037
42.0534 15.7225
42.1013 15.6922
42.149 15.5987
42.1969 15.5756
42.2446 15.5187
42.2925 15.484
42.3403 15.387
42.3882 15.3256
42.436 15.2751
42.4839 15.2686
42.5319 15.1957
42.5797 15.1562
42.6277 15.1285
42.6755 15.0775
42.7235 15.0107
42.7713 14.967
42.8193 14.9396
42.8671 14.8356
42.9152 14.7293
42.963 14.7385
43.0111 14.7318
43.0589 14.6196
43.107 14.6626
43.1549 14.5437
43.2029 14.514
43.2508 14.4285
43.2989 14.3972
43.3468 14.3521
43.3949 14.3193
43.4429 14.2106
43.491 14.1915
43.5389 14.1554
43.5871 14.1014
43.635 14.1012
43.6832 14.0481
43.7312 13.974
43.7793 13.9159
43.8273 13.8825
43.8755 13.8178
43.9237 13.7311
43.9717 13.7401
44.0199 13.6852
44.068 13.6624
44.1162 13.5385
44.1642 13.5566
44.2125 13.5001
44.2606 13.4436
44.3088 13.4049
44.3569 13.3323
44.4052 13.3099
44.4533 13.2544
44.5016 13.191
44.5497 13.1564
44.598 13.1449
44.6461 13.0604
44.6945 13.0068
44.7426 12.9731
44.791 12.8636
44.8391 12.8884
44.8875 12.8644
44.9357 12.8059
44.984 12.7795
45.0322 12.6925
45.0806 12.6557
45.1288 12.6502
45.1773 12.6007
45.2257 12.54
45.2739 12.4741
45.3224 12.466
45.3706 12.4462
45.4191 12.3043
45.4673 12.2988
45.5158 12.2546
45.5641 12.2518
45.6126 12.2088
45.6609 12.1004
45.7094 12.0479
45.7577 12.0142
45.8063 11.9695
45.8546 11.9849
45.9031 11.8808
45.9515 11.8755
46.0001 11.7909
46.0484 11.7928
46.097 11.7513
46.1454 11.7404
46.194 11.6647
46.2424 11.67
46.291 11.5749
46.3395 11.492
46.3881 11.4816
46.4365 11.4643
46.4852 11.4275
46.5337 11.326
46.5823 11.3661
46.631 11.2922
46.6795 11.2639
46.7282 11.1544
46.7767 11.156
46.8254 11.1114
46.8739 11.0905
46.9226 10.9865
46.9712 10.9883
47.0199 11.007
47.0685 10.9261
47.1173 10.8705
47.1658 10.8023
47.2146 10.8104
47.2632 10.7457
47.312 10.7047
47.3606 10.6605
47.4095 10.6208
47.4581 10.5784
47.5069 10.5271
47.5556 10.509
47.6044 10.4777
47.6531 10.4436
47.702 10.3887
47.7507 10.3594
47.7996 10.3055
47.8483 10.2539
47.8972 10.2694
47.9461 10.2083
47.9948 10.166
48.0438 10.124
48.0925 10.11
48.1415 10.0538
48.1902 10.0372
48.2392 10.0105
48.288 9.96042
48.337 9.9367
48.3858 9.90102
48.4348 9.8753
48.4837 9.87803
48.5327 9.82328
48.5815 9.72839
48.6306 9.73863
48.6795 9.69793
48.7285 9.6631
48.7774 9.60154
48.8265 9.57322
48.8754 9.52164
48.9245 9.50773
48.9734 9.45034
49.0226 9.44477
49.0715 9.41353
49.1206 9.32801
49.1696 9.29491
49.2188 9.30868
49.2679 9.25519
49.3169 9.21246
49.3661 9.17494
49.4151 9.1646
49.4643 9.11091
49.5134 9.08344
49.5626 9.01273
49.6117 8.9999
49.6609 8.96286
49.71 8.89465
49.7592 8.92067
49.8083 8.86959
49.8576 8.87595
49.9067 8.79269
49.956 8.7729
50.0052 8.75762
50.0545 8.69758
50.1036 8.6489
50.153 8.6288
50.2022 8.58167
50.2515 8.60768
50.3007 8.49087
50.3501 8.48846
50.3993 8.48398
50.4487 8.42185
50.498 8.39233
50.5474 8.36974
50.5966 8.34559
50.6461 8.31476
50.6955 8.30659
50.7448 8.23573
50.7943 8.22413
50.8436 8.19194
50.8931 8.15041
50.9424 8.14394
50.9919 8.08896
51.0413 8.06378
51.0908 7.98941
51.1402 7.97518
51.1897 7.96368
51.2391 7.93906
51.2887 7.89432
51.3381 7.81931
51.3877 7.8413
51.4371 7.79943
51.4867 7.69545
51.5362 7.74129
51.5858 7.73544
51.6353 7.66051
51.6849 7.61868
51.7344 7.65176
51.7841 7.60331
51.8336 7.5294
51.8833 7.52151
51.9328 7.49635
51.9826 7.41479
52.0323 7.39811
52.0818 7.37982
52.1316 7.33303
52.1812 7.32464
52.231 7.30305
52.2806 7.27035
52.3304 7.19543
52.38 7.19068
52.4298 7.17897
52.4794 7.15183
52.5293 7.11066
52.5789 7.09225
52.6288 7.08298
52.6785 7.04041
52.7284 6.9979
52.7781 6.97831
52.828 6.94094
52.8777 6.89802
52.9276 6.88911
52.9774 6.9007
53.0273 6.84699
53.0771 6.76643
53.1271 6.76973
53.1769 6.69929
53.2269 6.71714
53.2767 6.64775
53.3267 6.64248
53.3765 6.67099
53.4266 6.57156
53.4766 6.57352
53.5265 6.53041
53.5765 6.5141
53.6264 6.46141
53.6765 6.47589
53.7264 6.43401
53.7765 6.40008
53.8265 6.38364
53.8766 6.27147
53.9266 6.29706
53.9767 6.25476
54.0267 6.24267
54.0769 6.26937
54.1269 6.161
54.1771 6.14668
54.2271 6.11774
54.2773 6.09544
54.3274 6.07027
54.3776 6.01269
54.4277 5.99982
54.478 5.98177
54.528 5.91582
54.5783 5.87154
54.6285 5.82042
54.6788 5.84589
54.7289 5.79185
54.7792 5.71313
54.8296 5.67682
54.8798 5.63039
54.9301 5.55549
54.9803 5.58818
55.0307 5.58758
55.0809 5.48092
55.1314 5.43074
55.1816 5.42518
55.232 5.36921
55.2823 5.31305
55.3328 5.27719
55.383 5.16228
55.4335 5.23111
55.4838 5.12846
55.5344 5.05026
55.5847 5.04144
55.6352 5.03821
55.6856 4.9943
55.7361 4.9144