File: XRD/Ni3Fe_FD0210.xy
TT I
1.27165 8.47146
1.31627 7.50364
1.36089 7.47866
1.40551 6.84677
1.45013 6.67543
1.49476 6.78583
1.53938 6.59663
1.584 5.68111
1.62863 5.92492
1.67325 5.70267
1.71787 5.63197
1.7625 5.4356
1.80712 5.41251
1.85174 5.26974
1.89636 5.51559
1.94099 5.64684
1.98562 4.93632
2.03025 5.16678
2.07487 5.06928
2.11949 5.10461
2.16411 4.59847
2.20874 4.9645
2.25338 4.23374
2.298 4.62731
2.34263 4.93455
2.38725 4.57755
2.43188 4.33514
2.4765 5.16974
2.52115 5.15969
2.56577 4.93247
2.6104 5.80476
2.65503 5.46827
2.69965 6.10314
2.7443 5.92864
2.78893 6.32327
2.83356 6.85437
2.87818 8.05084
2.92281 8.17523
2.96744 9.15945
3.01209 10.5437
3.05672 11.3914
3.10135 12.1408
3.14599 13.0275
3.19062 14.3213
3.23527 14.6503
3.2799 16.1808
3.32454 17.0955
3.36917 17.5467
3.4138 18.907
3.45844 19.7117
3.50309 21.3741
3.54773 21.498
3.59237 22.559
3.637 23.2407
3.68164 24.0273
3.7263 25.0865
3.77094 26.221
3.81558 26.6567
3.86022 27.5157
3.90486 29.271
3.9495 30.1956
3.99416 31.1379
4.0388 32.7219
4.08344 33.8761
4.12809 35.3191
4.17273 36.7516
4.21738 38.1368
4.26204 39.4021
4.30669 40.1306
4.35133 43.0685
4.39598 44.8669
4.44063 46.3467
4.4853 48.69
4.52995 51.495
4.5746 53.6135
4.61925 55.5809
4.6639 58.2506
4.70855 61.3075
4.75322 64.3568
4.79788 68.0933
4.84253 71.8838
4.88719 77.0045
4.93184 81.5985
4.97652 89.0101
5.02118 96.8375
5.06583 108.255
5.11049 124.879
5.15515 170.265
5.19981 885.181
5.24449 3943.86
5.28916 10522.0
5.33382 4435.45
5.37848 283.721
5.42315 155.314
5.46783 129.926
5.5125 118.689
5.55716 112.623
5.60183 107.439
5.6465 104.829
5.69117 103.998
5.73586 101.337
5.78053 102.043
5.8252 102.173
5.86988 105.19
5.91455 111.408
5.95924 134.785
6.00392 443.439
6.0486 1429.78
6.09328 3561.34
6.13795 3798.66
6.18263 395.999
6.22733 111.651
6.27201 90.0502
6.3167 81.5934
6.36138 76.5284
6.40606 73.0201
6.45075 71.1898
6.49545 68.5545
6.54014 67.0299
6.58483 65.7152
6.62952 64.2702
6.67421 62.616
6.71892 61.913
6.76361 60.6196
6.8083 60.0092
6.853 59.1257
6.89769 59.0237
6.94239 58.5103
6.98711 57.5437
7.03181 57.2204
7.07651 57.0386
7.12121 56.6509
7.16591 56.8443
7.21063 55.7703
7.25533 55.9533
7.30004 55.8299
7.34475 56.0055
7.38945 56.0012
7.43416 55.532
7.47889 55.6552
7.5236 57.0437
7.56831 57.9478
7.61303 57.1384
7.65774 57.2256
7.70247 58.2953
7.74719 58.484
7.79191 59.224
7.83663 59.1446
7.88135 60.6752
7.92607 61.4296
7.97081 62.7911
8.01553 63.9442
8.06026 65.29
8.10498 66.7938
8.14971 68.8462
8.19446 71.0689
8.23919 73.5839
8.28392 76.5592
8.32865 79.5147
8.37339 84.6666
8.41812 90.9241
8.46288 110.401
8.50761 290.781
8.55235 595.555
8.59709 1044.26
8.64183 1944.73
8.68658 1270.17
8.73134 238.432
8.77609 111.716
8.82083 100.861
8.86558 96.445
8.91033 93.453
8.9551 91.1569
8.99985 89.8309
9.04461 89.2476
9.08936 88.1399
9.13412 87.1221
9.17888 87.2473
9.22365 87.8957
9.26841 88.5945
9.31318 88.696
9.35794 88.6167
9.4027 88.3987
9.44749 89.5026
9.49226 89.9131
9.53703 91.0177
9.5818 92.7689
9.62657 94.3112
9.67134 96.1689
9.71614 97.741
9.76091 100.315
9.80569 103.696
9.85047 107.063
9.89525 112.843
9.94005 134.662
9.98484 302.671
10.0296 525.981
10.0744 788.401
10.1192 1414.91
10.164 1734.16
10.2088 606.447
10.2536 155.411
10.2984 118.97
10.3432 113.544
10.388 114.886
10.4328 159.595
10.4776 214.084
10.5224 279.359
10.5672 434.537
10.612 527.766
10.6568 262.659
10.7017 108.947
10.7465 93.0397
10.7913 88.6979
10.8361 85.7583
10.8809 83.3717
10.9257 80.8588
10.9706 79.9233
11.0154 78.0026
11.0602 76.1181
11.105 75.2002
11.1499 73.4646
11.1947 72.2278
11.2395 71.3688
11.2844 71.0462
11.3292 69.9393
11.374 69.2012
11.4189 68.8926
11.4637 67.8268
11.5086 67.1509
11.5534 66.9457
11.5983 66.7387
11.6431 66.6729
11.688 65.9067
11.7328 65.9841
11.7777 65.8457
11.8225 65.4902
11.8674 65.8059
11.9122 66.2009
11.9571 66.883
12.002 68.5269
12.0468 79.6847
12.0917 95.2273
12.1366 108.658
12.1814 137.141
12.2263 188.059
12.2712 185.218
12.3161 106.533
12.3609 70.5406
12.4058 67.7017
12.4507 67.4534
12.4956 67.4942
12.5405 67.7818
12.5853 68.0991
12.6302 68.6236
12.6751 69.0822
12.72 69.9749
12.7649 70.9722
12.8098 71.8812
12.8547 73.3175
12.8996 74.8513
12.9445 76.4491
12.9894 78.6075
13.0343 80.6829
13.0792 86.0555
13.1242 109.8
13.1691 149.5
13.214 175.467
13.2589 224.984
13.3038 312.232
13.3487 416.91
13.3937 316.902
13.4386 153.722
13.4835 134.708
13.5285 155.513
13.5734 173.43
13.6183 221.17
13.6633 305.399
13.7082 363.403
13.7531 239.728
13.7981 115.189
13.843 87.788
13.888 84.5653
13.9329 81.619
13.9779 80.2512
14.0228 78.6904
14.0678 77.1677
14.1127 76.572
14.1577 75.709
14.2027 75.1182
14.2476 74.4623
14.2926 73.6339
14.3376 73.2423
14.3825 72.9254
14.4275 72.6251
14.4725 72.6608
14.5175 72.9385
14.5624 72.8216
14.6074 73.0059
14.6524 73.6955
14.6974 74.5536
14.7424 80.365
14.7874 95.9306
14.8324 107.688
14.8774 119.324
14.9224 142.93
14.9674 183.311
15.0124 221.279
15.0574 177.735
15.1024 106.313
15.1474 77.9095
15.1924 74.223
15.2374 72.6686
15.2824 71.7684
15.3274 70.923
15.3725 70.3616
15.4175 70.0682
15.4625 69.4925
15.5076 69.4427
15.5526 69.5119
15.5976 69.8769
15.6426 74.5139
15.6877 86.9553
15.7327 96.1099
15.7778 103.781
15.8228 121.406
15.8679 150.714
15.9129 187.653
15.958 178.556
16.003 116.132
16.0481 74.3776
16.0931 66.1645
16.1382 64.2126
16.1833 63.1166
16.2283 62.0695
16.2734 61.2472
16.3185 60.5457
16.3636 59.8089
16.4086 59.0265
16.4537 58.7127
16.4988 58.286
16.5439 58.11
16.589 57.7983
16.6341 57.6496
16.6792 57.3611
16.7243 57.3881
16.7694 57.3056
16.8145 57.2282
16.8596 57.4522
16.9047 57.8012
16.9498 57.7284
16.9949 57.9351
17.04 59.3873
17.0851 62.201
17.1302 64.1714
17.1754 65.9035
17.2205 68.7694
17.2656 73.7048
17.3108 81.3489
17.3559 85.4229
17.401 78.3897
17.4462 67.4834
17.4913 62.7381
17.5365 62.2173
17.5815 62.4788
17.6268 62.8866
17.6718 63.3996
17.7171 63.791
17.7622 64.9581
17.8074 66.4485
17.8525 72.5023
17.8977 78.9131
17.9428 83.3115
17.9881 88.0137
18.0331 98.4906
18.0784 113.469
18.1237 137.247
18.1688 146.119
18.214 121.309
18.2591 94.6976
18.3044 89.9898
18.3495 96.4239
18.3948 106.497
18.4399 103.337
18.4852 85.2091
18.5303 71.1672
18.5756 65.8996
18.6207 64.9235
18.666 63.8098
18.7112 63.0916
18.7565 61.9482
18.8016 61.7734
18.8469 61.172
18.892 60.7681
18.9374 60.3792
18.9825 59.8819
19.0278 59.7701
19.073 60.5482
19.1183 61.5723
19.1635 62.361
19.2088 63.0166
19.254 64.5759
19.2993 67.3683
19.3447 71.2255
19.3898 76.1191
19.4352 76.5953
19.4804 69.2618
19.5257 61.1315
19.5709 57.4641
19.6163 56.579
19.6615 56.4373
19.7068 56.021
19.752 56.3759
19.7974 57.0622
19.8426 58.2478
19.888 59.0282
19.9332 59.6635
19.9786 61.6179
20.0238 63.8631
20.0692 68.2608
20.1144 72.7367
20.1598 73.567
20.205 68.5155
20.2504 64.5209
20.2957 64.4906
20.3411 66.4858
20.3863 67.7234
20.4318 62.8876
20.477 57.2568
20.5224 54.0997
20.5677 53.2244
20.6131 52.8275
20.6586 52.2976
20.7038 52.1088
20.7493 51.5706
20.7945 51.5643
20.84 51.4585
20.8853 51.3237
20.9307 51.3278
20.976 51.614
21.0215 51.3792
21.0668 51.531
21.1122 51.7567
21.1575 52.2158
21.203 52.6232
21.2483 53.2191
21.2938 54.2044
21.3391 53.0634
21.3846 51.7713
21.4299 50.988
21.4754 50.8917
21.5207 51.0992
21.5662 51.9584
21.6116 53.0412
21.6571 53.7632
21.7024 54.4837
21.7479 55.5672
21.7933 57.4409
21.8388 60.0577
21.8843 63.4465
21.9297 66.5889
21.9752 67.1113
22.0206 63.6247
22.0661 59.0707
22.1115 57.8541
22.157 58.6313
22.2024 57.7218
22.248 55.028
22.2933 52.6922
22.3389 51.6372
22.3843 51.5173
22.4299 51.13
22.4753 51.1389
22.5208 51.0356
22.5662 51.1088
22.6118 51.4188
22.6572 52.034
22.7028 52.7443
22.7483 53.111
22.7939 53.2426
22.8393 54.2144
22.8849 55.5773
22.9303 56.9629
22.9759 59.0453
23.0214 60.143
23.067 58.4966
23.1126 54.8834
23.1581 52.2904
23.2037 51.6717
23.2492 51.8842
23.2948 52.3763
23.3403 52.6693
23.3859 52.7397
23.4314 53.2865
23.477 54.3259
23.5225 55.5614
23.5682 57.5069
23.6137 59.6033
23.6593 59.2073
23.7048 55.8075
23.7505 51.7424
23.796 49.3439
23.8417 48.5761
23.8872 47.9017
23.9329 47.6209
23.9784 47.2193
24.0241 46.8577
24.0697 46.6373
24.1154 46.3518
24.1609 46.1279
24.2066 46.0847
24.2522 45.912
24.2979 45.6748
24.3434 45.4608
24.3892 45.2428
24.4349 45.088
24.4805 44.9587
24.5262 45.1971
24.5718 44.91
24.6175 45.1341
24.6631 45.0258
24.7089 44.7425
24.7545 44.5016
24.8002 44.4491
24.8458 44.6934
24.8916 44.3907
24.9372 44.6036
24.983 44.9039
25.0286 45.2362
25.0744 45.4961
25.12 45.5666
25.1658 46.3597
25.2114 46.7027
25.2572 46.6708
25.3029 46.4546
25.3487 46.7205
25.3943 46.8975
25.4402 46.1079
25.4858 45.0797
25.5316 43.6549
25.5773 43.0987
25.6231 43.0163
25.669 42.5919
25.7147 42.6656
25.7605 42.7102
25.8062 42.699
25.8521 42.7259
25.8977 42.5559
25.9436 42.7052
25.9893 42.8342
26.0352 43.2346
26.0809 43.1823
26.1268 43.7265
26.1725 43.5096
26.2184 43.2447
26.2641 42.6049
26.31 42.4128
26.3557 42.3961
26.4017 42.2405
26.4474 42.4914
26.4933 42.6629
26.5391 43.0743
26.585 43.2135
26.6308 43.7059
26.6767 44.0853
26.7225 44.0771
26.7684 43.5086
26.8142 42.9876
26.8601 42.3302
26.9059 42.1045
26.9519 41.6439
26.9979 41.2907
27.0437 41.0514
27.0896 40.7597
27.1354 40.7945
27.1814 40.5104
27.2272 40.5159
27.2732 40.5505
27.3191 40.3277
27.3651 40.3178
27.4109 40.2441
27.4569 40.2925
27.5027 40.4314
27.5488 40.4663
27.5946 40.32
27.6407 40.2332
27.6865 40.1709
27.7326 39.8681
27.7784 39.817
27.8245 39.7531
27.8703 40.0509
27.9164 40.1228
27.9623 40.0452
28.0084 40.3173
28.0543 40.7046
28.1003 40.7878
28.1462 40.7018
28.1923 40.2954
28.2384 39.7674
28.2843 39.5655
28.3304 39.115
28.3764 38.6874
28.4225 38.3581
28.4684 38.145
28.5145 37.7564
28.5605 37.5725
28.6066 37.3952
28.6526 37.5542
28.6987 37.3473
28.7447 37.2095
28.7908 37.1283
28.8368 37.0889
28.8829 37.0308
28.9289 37.2372
28.9751 36.9109
29.0211 36.7463
29.0673 36.3951
29.1133 36.395
29.1595 36.1235
29.2055 36.0229
29.2517 36.0916
29.2977 35.8882
29.3439 35.8677
29.3899 35.7674
29.4361 35.6293
29.4824 35.6208
29.5284 35.566
29.5746 35.1862
29.6207 34.8067
29.6669 34.7328
29.713 34.5564
29.7593 34.4751
29.8053 34.5085
29.8516 34.4161
29.8977 34.4069
29.9439 34.2313
29.99 34.1849
30.0363 34.0269
30.0824 34.0072
30.1287 34.0363
30.1748 33.9833
30.2211 34.0015
30.2673 33.8242
30.3136 34.0448
30.3597 33.7835
30.406 33.7463
30.4522 33.6808
30.4985 33.5635
30.5447 33.6328
30.591 33.6181
30.6372 33.7758
30.6835 33.6134
30.7297 33.6737
30.7761 33.6916
30.8224 33.5906
30.8686 33.3934
30.915 33.151
30.9612 33.1092
31.0076 32.8915
31.0538 32.7795
31.1002 32.6822
31.1464 32.5269
31.1928 32.488
31.2391 32.4547
31.2855 32.3482
31.3317 32.2887
31.3781 32.373
31.4244 32.4023
31.4708 32.4144
31.5171 32.2392
31.5636 32.2321
31.6098 32.1144
31.6563 31.9918
31.7026 31.685
31.7491 31.6144
31.7953 31.6184
31.8418 31.5061
31.8881 31.4739
31.9346 31.4253
31.9809 31.5416
32.0275 31.3656
32.074 31.3413
32.1203 31.08
32.1668 31.0722
32.2132 30.9264
32.2597 30.7036
32.306 30.5704
32.3526 30.469
32.399 30.3527
32.4455 30.1635
32.4919 30.1757
32.5385 30.0285
32.5848 29.8461
32.6314 29.8306
32.6778 29.8721
32.7244 29.6923
32.7708 29.5265
32.8174 29.6036
32.8638 29.4202
32.9104 29.4916
32.9569 29.5197
33.0035 29.1598
33.0499 29.192
33.0966 29.1516
33.143 29.1563
33.1897 29.0726
33.2361 28.9336
33.2828 28.9337
33.3293 28.6984
33.3759 28.7847
33.4226 28.6147
33.4691 28.4569
33.5158 28.4405
33.5623 28.2581
33.609 28.0356
33.6555 28.0163
33.7022 27.8675
33.7487 27.7691
33.7954 27.8751
33.842 27.6917
33.8887 27.6234
33.9353 27.6077
33.982 27.4703
34.0286 27.3748
34.0753 27.2768
34.1219 27.0836
34.1687 27.1217
34.2152 27.0669
34.262 26.8848
34.3086 26.7439
34.3554 26.7261
34.402 26.6365
34.4488 26.5212
34.4954 26.4906
34.5422 26.367
34.5889 26.1959
34.6357 26.217
34.6825 26.1632
34.7292 26.009
34.776 25.9122
34.8227 25.9512
34.8695 25.8526
34.9162 25.787
34.9631 25.6994
35.0098 25.6582
35.0566 25.5479
35.1033 25.5002
35.1502 25.5502
35.1969 25.3952
35.2438 25.3549
35.2906 25.2132
35.3375 25.2875
35.3842 25.1642
35.4311 25.1312
35.4779 25.0832
35.5248 25.0627
35.5716 24.9511
35.6185 24.7707
35.6653 24.7849
35.7123 24.6461
35.759 24.5827
35.806 24.44
35.8528 24.35
35.8998 24.2994
35.9468 24.1799
35.9936 24.2237
36.0406 24.094
36.0874 24.1069
36.1345 24.0043
36.1813 23.9081
36.2283 23.8006
36.2752 23.7725
36.3222 23.749
36.3691 23.6569
36.4161 23.5437
36.463 23.5946
36.5101 23.4897
36.557 23.4142
36.6041 23.2667
36.651 23.2375
36.6981 23.173
36.745 23.0805
36.7921 23.0353
36.839 22.9679
36.8861 22.8554
36.9331 22.7099
36.9802 22.7303
37.0272 22.616
37.0743 22.5765
37.1213 22.4363
37.1684 22.3868
37.2154 22.4017
37.2626 22.289
37.3098 22.3075
37.3568 22.1492
37.404 22.0731
37.451 21.9961
37.4982 21.9428
37.5452 21.8468
37.5924 21.8032
37.6395 21.8227
37.6867 21.7264
37.7337 21.6269
37.781 21.4819
37.8281 21.448
37.8753 21.3535
37.9224 21.3138
37.9697 21.258
38.0168 21.1232
38.064 21.0951
38.1111 21.0546
38.1584 21.0696
38.2056 20.9338
38.2529 20.8924
38.3 20.7742
38.3473 20.7869
38.3945 20.6737
38.4418 20.6141
38.489 20.5767
38.5363 20.4499
38.5837 20.398
38.6309 20.3282
38.6782 20.2446
38.7254 20.1347
38.7728 20.1307
38.82 20.0194
38.8674 19.9858
38.9146 19.9309
38.9621 19.8197
39.0093 19.8657
39.0567 19.7502
39.104 19.7059
39.1514 19.5677
39.1987 19.5933
39.2461 19.574
39.2934 19.4375
39.3409 19.3835
39.3882 19.2774
39.4356 19.1982
39.483 19.2486
39.5304 19.1318
39.5778 19.0718
39.6253 19.0422
39.6726 18.9434
39.7201 18.9474
39.7675 18.8087
39.815 18.7778
39.8624 18.6629
39.9099 18.6265
39.9575 18.6086
40.0049 18.5876
40.0525 18.4697
40.0999 18.4214
40.1474 18.3511
40.1949 18.322
40.2425 18.2612
40.2899 18.1332
40.3375 18.238
40.385 18.0604
40.4326 18.0378
40.48 17.9594
40.5277 17.9218
40.5752 17.852
40.6228 17.7733
40.6703 17.7325
40.718 17.6839
40.7655 17.6371
40.8132 17.51
40.8607 17.575
40.9084 17.4173
40.9559 17.4522
41.0036 17.2977
41.0512 17.3481
41.0989 17.2262
41.1465 17.1708
41.1942 17.1379
41.242 17.0523
41.2896 16.9786
41.3373 16.9254
41.3849 16.8832
41.4327 16.7886
41.4803 16.7645
41.5281 16.6924
41.5758 16.6891
41.6236 16.6201
41.6712 16.5253
41.7191 16.398
41.7667 16.4262
41.8146 16.4123
41.8622 16.3689
41.9101 16.2826
41.9578 16.1349
42.0057 16.1979
42.0534 16.0802
42.1013 16.0521
42.149 16.0479
42.1969 15.9412
42.2446 15.9059
42.2925 15.8387
42.3403 15.7967
42.3882 15.777
42.436 15.7217
42.4839 15.5788
42.5319 15.5519
42.5797 15.5103
42.6277 15.4964
42.6755 15.4575
42.7235 15.3247
42.7713 15.3296
42.8193 15.2892
42.8671 15.2058
42.9152 15.1657
42.963 15.0763
43.0111 15.0303
43.0589 14.9621
43.107 14.9662
43.1549 14.9076
43.2029 14.8292
43.2508 14.8574
43.2989 14.7774
43.3468 14.7114
43.3949 14.6434
43.4429 14.5566
43.491 14.5489
43.5389 14.4405
43.5871 14.4589
43.635 14.4012
43.6832 14.3775
43.7312 14.2813
43.7793 14.2596
43.8273 14.1999
43.8755 14.1511
43.9237 14.0922
43.9717 14.0518
44.0199 14.0424
44.068 13.9496
44.1162 13.9093
44.1642 13.8693
44.2125 13.8694
44.2606 13.8185
44.3088 13.6638
44.3569 13.6635
44.4052 13.6376
44.4533 13.5916
44.5016 13.5187
44.5497 13.4736
44.598 13.41
44.6461 13.3776
44.6945 13.3337
44.7426 13.2735
44.791 13.2085
44.8391 13.2182
44.8875 13.1557
44.9357 13.0673
44.984 13.029
45.0322 12.9857
45.0806 12.96
45.1288 12.8882
45.1773 12.8778
45.2257 12.828
45.2739 12.7602
45.3224 12.6812
45.3706 12.7188
45.4191 12.6115
45.4673 12.6144
45.5158 12.5667
45.5641 12.5307
45.6126 12.4696
45.6609 12.3988
45.7094 12.3634
45.7577 12.3123
45.8063 12.2399
45.8546 12.2865
45.9031 12.1804
45.9515 12.1308
46.0001 12.1059
46.0484 12.0185
46.097 12.0267
46.1454 11.9403
46.194 11.9312
46.2424 11.8938
46.291 11.8266
46.3395 11.8567
46.3881 11.742
46.4365 11.7496
46.4852 11.6762
46.5337 11.6049
46.5823 11.6078
46.631 11.5172
46.6795 11.5425
46.7282 11.4685
46.7767 11.4377
46.8254 11.3501
46.8739 11.345
46.9226 11.2949
46.9712 11.2362
47.0199 11.1818
47.0685 11.1638
47.1173 11.0836
47.1658 11.0826
47.2146 11.0086
47.2632 10.9328
47.312 10.9691
47.3606 10.9169
47.4095 10.8904
47.4581 10.8066
47.5069 10.7965
47.5556 10.7702
47.6044 10.6985
47.6531 10.691
47.702 10.6391
47.7507 10.6247
47.7996 10.5682
47.8483 10.5081
47.8972 10.53
47.9461 10.4611
47.9948 10.3794
48.0438 10.3581
48.0925 10.3455
48.1415 10.297
48.1902 10.2555
48.2392 10.256
48.288 10.2082
48.337 10.1421
48.3858 10.1387
48.4348 10.0987
48.4837 10.0707
48.5327 9.99972
48.5815 9.97776
48.6306 9.93962
48.6795 9.90116
48.7285 9.84902
48.7774 9.82181
48.8265 9.78763
48.8754 9.75802
48.9245 9.72118
48.9734 9.66352
49.0226 9.64615
49.0715 9.6065
49.1206 9.56491
49.1696 9.50027
49.2188 9.48143
49.2679 9.46813
49.3169 9.40476
49.3661 9.38722
49.4151 9.35788
49.4643 9.29564
49.5134 9.29644
49.5626 9.19725
49.6117 9.20422
49.6609 9.16952
49.71 9.08069
49.7592 9.09915
49.8083 9.04024
49.8576 9.00818
49.9067 8.96743
49.956 8.95836
50.0052 8.93642
50.0545 8.89257
50.1036 8.8275
50.153 8.79111
50.2022 8.78931
50.2515 8.73103
50.3007 8.75838
50.3501 8.69589
50.3993 8.65434
50.4487 8.61853
50.498 8.54616
50.5474 8.52782
50.5966 8.51554
50.6461 8.47445
50.6955 8.44943
50.7448 8.41352
50.7943 8.38665
50.8436 8.37423
50.8931 8.33215
50.9424 8.33164
50.9919 8.27728
51.0413 8.2153
51.0908 8.19573
51.1402 8.16701
51.1897 8.15036
51.2391 8.09537
51.2887 8.06515
51.3381 8.0161
51.3877 8.04225
51.4371 7.96178
51.4867 7.94592
51.5362 7.90872
51.5858 7.86904
51.6353 7.84538
51.6849 7.78211
51.7344 7.7388
51.7841 7.76349
51.8336 7.73567
51.8833 7.67366
51.9328 7.64401
51.9826 7.56114
52.0323 7.57727
52.0818 7.51532
52.1316 7.50787
52.1812 7.48982
52.231 7.43188
52.2806 7.40458
52.3304 7.39456
52.38 7.36414
52.4298 7.3388
52.4794 7.31285
52.5293 7.23317
52.5789 7.23538
52.6288 7.23248
52.6785 7.17218
52.7284 7.09604
52.7781 7.09909
52.828 7.07252
52.8777 7.02824
52.9276 7.01057
52.9774 6.96966
53.0273 6.97805
53.0771 6.91415
53.1271 6.91278
53.1769 6.87809
53.2269 6.86163
53.2767 6.86
53.3267 6.81288
53.3765 6.79987
53.4266 6.73506
53.4766 6.68399
53.5265 6.69183
53.5765 6.64574
53.6264 6.66241
53.6765 6.59871
53.7264 6.55665
53.7765 6.52132
53.8265 6.51634
53.8766 6.45491
53.9266 6.46984
53.9767 6.427
54.0267 6.40221
54.0769 6.37156
54.1269 6.29874
54.1771 6.2447
54.2271 6.26799
54.2773 6.22541
54.3274 6.15687
54.3776 6.17828
54.4277 6.12597
54.478 6.10644
54.528 6.02899
54.5783 6.00548
54.6285 5.93294
54.6788 5.93248
54.7289 5.86983
54.7792 5.83511
54.8296 5.80625
54.8798 5.70979
54.9301 5.72945
54.9803 5.6514
55.0307 5.64211
55.0809 5.54926
55.1314 5.55622
55.1816 5.4394
55.232 5.40222
55.2823 5.39337
55.3328 5.3407
55.383 5.22226
55.4335 5.24312
55.4838 5.16672
55.5344 5.13222
55.5847 5.11375
55.6352 5.03686
55.6856 5.0489
55.7361 4.99223