File: XRD/Ni3Fe_FD0428.xy
TT I
1.27165 7.25507
1.31627 6.81297
1.36089 6.64262
1.40551 6.42346
1.45013 5.92311
1.49476 6.10862
1.53938 6.09697
1.584 5.47708
1.62863 5.60937
1.67325 5.26398
1.71787 5.16936
1.7625 5.15448
1.80712 4.91348
1.85174 4.39318
1.89636 4.82014
1.94099 5.13609
1.98562 4.83976
2.03025 4.61695
2.07487 4.75353
2.11949 4.81963
2.16411 4.88336
2.20874 16.381
2.25338 27.1983
2.298 6.26932
2.34263 4.9998
2.38725 5.94216
2.43188 5.65238
2.4765 6.01478
2.52115 6.4592
2.56577 7.03131
2.6104 7.24269
2.65503 7.5206
2.69965 6.99338
2.7443 7.70528
2.78893 8.27937
2.83356 7.43735
2.87818 8.83768
2.92281 9.25926
2.96744 10.1226
3.01209 10.3798
3.05672 10.8003
3.10135 12.5086
3.14599 12.8471
3.19062 14.1865
3.23527 14.9428
3.2799 16.3351
3.32454 16.6193
3.36917 17.8836
3.4138 19.1484
3.45844 19.8342
3.50309 21.208
3.54773 22.1324
3.59237 24.8408
3.637 108.747
3.68164 67.3519
3.7263 27.276
3.77094 26.7127
3.81558 27.2167
3.86022 27.9461
3.90486 29.0739
3.9495 30.5463
3.99416 31.5573
4.0388 32.8011
4.08344 34.2058
4.12809 35.3374
4.17273 37.6542
4.21738 44.0477
4.26204 293.018
4.30669 256.872
4.35133 50.8792
4.39598 45.1276
4.44063 56.5215
4.4853 69.9835
4.52995 52.0374
4.5746 52.0207
4.61925 54.0059
4.6639 56.6017
4.70855 59.2762
4.75322 61.4557
4.79788 64.4974
4.84253 67.9753
4.88719 71.9173
4.93184 76.2837
4.97652 81.8716
5.02118 88.4348
5.06583 96.9494
5.11049 110.268
5.15515 194.191
5.19981 415.37
5.24449 2949.98
5.28916 11579.3
5.33382 3272.63
5.37848 209.042
5.42315 134.601
5.46783 116.761
5.5125 108.457
5.55716 104.106
5.60183 100.547
5.6465 98.6355
5.69117 95.5957
5.73586 93.5731
5.78053 93.7082
5.8252 93.3507
5.86988 93.8857
5.91455 97.1105
5.95924 106.574
6.00392 228.139
6.0486 1018.13
6.09328 4041.5
6.13795 3500.74
6.18263 283.925
6.22733 98.0581
6.27201 85.4809
6.3167 109.948
6.36138 83.9886
6.40606 70.6674
6.45075 68.3926
6.49545 66.9246
6.54014 65.2846
6.58483 64.1171
6.62952 64.1214
6.67421 101.357
6.71892 164.678
6.76361 71.8759
6.8083 59.9424
6.853 58.6763
6.89769 58.1534
6.94239 57.7376
6.98711 56.953
7.03181 56.8796
7.07651 56.3814
7.12121 56.7368
7.16591 56.8744
7.21063 56.8903
7.25533 74.1503
7.30004 209.503
7.34475 101.571
7.38945 58.0861
7.43416 55.6996
7.47889 55.4786
7.5236 56.022
7.56831 56.6862
7.61303 58.6513
7.65774 59.1795
7.70247 57.2754
7.74719 57.0026
7.79191 57.4493
7.83663 57.7198
7.88135 58.798
7.92607 59.7599
7.97081 61.1573
8.01553 62.0069
8.06026 63.0678
8.10498 65.0028
8.14971 76.6667
8.19446 74.8445
8.23919 70.4676
8.28392 73.0426
8.32865 75.3874
8.37339 79.9587
8.41812 87.2956
8.46288 122.385
8.50761 174.722
8.55235 405.689
8.59709 1127.49
8.64183 2159.53
8.68658 1058.44
8.73134 177.94
8.77609 102.707
8.82083 94.6562
8.86558 91.6744
8.91033 91.7167
8.9551 94.1283
8.99985 86.9249
9.04461 84.6524
9.08936 84.1618
9.13412 82.7677
9.17888 83.4301
9.22365 84.2136
9.26841 83.1843
9.31318 83.872
9.35794 84.0617
9.4027 84.3317
9.44749 85.135
9.49226 85.7772
9.53703 86.8051
9.5818 88.3312
9.62657 94.1316
9.67134 102.079
9.71614 95.4658
9.76091 95.6446
9.80569 97.602
9.85047 101.824
9.89525 130.647
9.94005 145.421
9.98484 183.915
10.0296 355.276
10.0744 776.848
10.1192 1674.46
10.164 1707.3
10.2088 442.89
10.2536 134.124
10.2984 116.806
10.3432 119.327
10.388 107.178
10.4328 121.253
10.4776 163.54
10.5224 270.593
10.5672 499.101
10.612 512.17
10.6568 219.616
10.7017 99.4305
10.7465 88.3528
10.7913 84.9339
10.8361 82.3456
10.8809 80.1039
10.9257 80.1397
10.9706 80.9896
11.0154 76.426
11.0602 73.9237
11.105 73.1291
11.1499 78.7235
11.1947 88.0271
11.2395 77.0744
11.2844 72.4328
11.3292 68.6268
11.374 67.3336
11.4189 67.0911
11.4637 66.1231
11.5086 66.8668
11.5534 70.6555
11.5983 66.8918
11.6431 64.6704
11.688 64.0987
11.7328 64.0066
11.7777 64.1875
11.8225 63.6446
11.8674 63.5446
11.9122 64.1491
11.9571 64.1189
12.002 64.7663
12.0468 69.175
12.0917 81.0064
12.1366 103.336
12.1814 149.232
12.2263 207.623
12.2712 177.212
12.3161 103.343
12.3609 73.1428
12.4058 66.309
12.4507 65.4371
12.4956 65.7838
12.5405 65.7434
12.5853 66.7309
12.6302 76.376
12.6751 83.0957
12.72 72.1988
12.7649 69.0548
12.8098 69.5304
12.8547 70.8148
12.8996 71.9753
12.9445 73.4767
12.9894 75.2809
13.0343 77.0332
13.0792 80.2457
13.1242 90.0102
13.1691 115.309
13.214 150.234
13.2589 229.279
13.3038 354.333
13.3487 432.629
13.3937 282.932
13.4386 131.404
13.4835 108.5
13.5285 123.416
13.5734 157.85
13.6183 236.344
13.6633 340.719
13.7082 359.034
13.7531 204.087
13.7981 101.065
13.843 83.5337
13.888 81.1555
13.9329 78.6225
13.9779 77.2194
14.0228 75.5102
14.0678 74.2956
14.1127 73.7495
14.1577 74.0939
14.2027 72.977
14.2476 71.6085
14.2926 72.1211
14.3376 73.4989
14.3825 71.7695
14.4275 70.0281
14.4725 69.5993
14.5175 69.8253
14.5624 70.0136
14.6074 72.8004
14.6524 73.6372
14.6974 71.5693
14.7424 73.3236
14.7874 80.2758
14.8324 90.8241
14.8774 110.444
14.9224 148.665
14.9674 202.767
15.0124 226.23
15.0574 159.608
15.1024 96.3521
15.1474 74.032
15.1924 71.9995
15.2374 72.9796
15.2824 72.25
15.3274 69.626
15.3725 68.0644
15.4175 67.749
15.4625 67.0831
15.5076 67.7117
15.5526 67.6948
15.5976 67.1729
15.6426 68.0947
15.6877 73.7956
15.7327 81.5618
15.7778 95.6726
15.8228 122.9
15.8679 164.594
15.9129 196.388
15.958 163.546
16.003 100.91
16.0481 69.8393
16.0931 66.526
16.1382 64.4501
16.1833 61.8701
16.2283 60.1864
16.2734 59.8103
16.3185 59.9746
16.3636 60.9392
16.4086 59.1945
16.4537 57.3597
16.4988 56.5105
16.5439 56.502
16.589 56.3327
16.6341 55.9907
16.6792 55.6639
16.7243 55.9163
16.7694 56.2321
16.8145 55.9882
16.8596 56.4799
16.9047 58.3183
16.9498 58.4325
16.9949 56.8348
17.04 56.8867
17.0851 57.9902
17.1302 59.9935
17.1754 62.5521
17.2205 67.1399
17.2656 74.0353
17.3108 82.1277
17.3559 83.8586
17.401 72.9493
17.4462 63.0965
17.4913 60.2358
17.5365 60.1454
17.5815 60.4224
17.6268 60.6009
17.6718 61.7124
17.7171 62.289
17.7622 62.5201
17.8074 62.9444
17.8525 65.3462
17.8977 69.7885
17.9428 75.1117
17.9881 83.0681
18.0331 97.8953
18.0784 118.998
18.1237 141.342
18.1688 136.146
18.214 107.817
18.2591 87.7141
18.3044 90.1597
18.3495 99.9231
18.3948 108.364
18.4399 99.8168
18.4852 80.1624
18.5303 67.4963
18.5756 63.408
18.6207 62.3145
18.666 61.7451
18.7112 60.6981
18.7565 60.0331
18.8016 59.7637
18.8469 59.2396
18.892 58.77
18.9374 58.2778
18.9825 58.3537
19.0278 58.0533
19.073 58.0445
19.1183 58.7853
19.1635 59.4874
19.2088 60.856
19.254 62.6971
19.2993 66.9582
19.3447 73.1102
19.3898 78.1056
19.4352 75.0196
19.4804 65.2547
19.5257 57.9753
19.5709 55.3395
19.6163 54.7351
19.6615 54.6485
19.7068 54.3333
19.752 54.2912
19.7974 54.288
19.8426 55.4674
19.888 56.2622
19.9332 57.3004
19.9786 59.3769
20.0238 62.4199
20.0692 67.5092
20.1144 71.2108
20.1598 70.2176
20.205 64.7492
20.2504 62.6175
20.2957 64.1253
20.3411 66.8773
20.3863 65.635
20.4318 60.174
20.477 54.9916
20.5224 52.823
20.5677 52.2524
20.6131 51.1834
20.6586 50.6196
20.7038 50.4488
20.7493 50.0994
20.7945 50.0957
20.84 49.7105
20.8853 49.5175
20.9307 49.4936
20.976 49.664
21.0215 49.449
21.0668 49.9478
21.1122 50.4277
21.1575 50.7831
21.203 51.7055
21.2483 52.2952
21.2938 52.5054
21.3391 51.155
21.3846 49.9703
21.4299 49.3553
21.4754 49.3513
21.5207 49.4381
21.5662 49.8064
21.6116 50.1363
21.6571 50.7758
21.7024 51.8843
21.7479 53.4665
21.7933 55.8527
21.8388 59.3602
21.8843 63.2162
21.9297 65.9411
21.9752 65.0491
22.0206 61.0006
22.0661 57.4061
22.1115 56.8165
22.157 57.3093
22.2024 55.6866
22.248 52.7517
22.2933 51.0325
22.3389 50.0318
22.3843 50.082
22.4299 49.8759
22.4753 49.9141
22.5208 49.5882
22.5662 49.4338
22.6118 49.5992
22.6572 49.7755
22.7028 50.1661
22.7483 50.699
22.7939 51.3057
22.8393 52.7483
22.8849 54.5113
22.9303 56.7009
22.9759 58.7602
23.0214 58.8706
23.067 56.0875
23.1126 52.4285
23.1581 50.3049
23.2037 49.7386
23.2492 49.8645
23.2948 49.6778
23.3403 50.1558
23.3859 50.6991
23.4314 51.4752
23.477 53.2213
23.5225 55.2786
23.5682 57.5906
23.6137 59.2559
23.6593 57.3802
23.7048 53.2859
23.7505 49.425
23.796 47.5934
23.8417 46.934
23.8872 46.5499
23.9329 46.1122
23.9784 45.7458
24.0241 45.5061
24.0697 45.4411
24.1154 44.9976
24.1609 44.8976
24.2066 44.7271
24.2522 44.5983
24.2979 44.3864
24.3434 44.1858
24.3892 43.8738
24.4349 43.9487
24.4805 43.7139
24.5262 43.7653
24.5718 43.8781
24.6175 43.7022
24.6631 43.6992
24.7089 43.4689
24.7545 43.1945
24.8002 43.0374
24.8458 43.0573
24.8916 42.8994
24.9372 42.9958
24.983 43.2954
25.0286 43.7188
25.0744 43.9519
25.12 44.5853
25.1658 45.1617
25.2114 45.4998
25.2572 45.4783
25.3029 45.7423
25.3487 45.7857
25.3943 45.6734
25.4402 44.5541
25.4858 43.4359
25.5316 42.3513
25.5773 41.7847
25.6231 41.7933
25.669 41.2271
25.7147 41.2817
25.7605 41.2979
25.8062 41.3386
25.8521 41.4638
25.8977 41.2488
25.9436 41.6404
25.9893 41.6038
26.0352 42.1004
26.0809 42.382
26.1268 42.6568
26.1725 42.2985
26.2184 41.768
26.2641 41.1654
26.31 40.8123
26.3557 41.0103
26.4017 40.9251
26.4474 41.1886
26.4933 41.464
26.5391 41.8523
26.585 42.3761
26.6308 42.7798
26.6767 42.9993
26.7225 42.9249
26.7684 42.311
26.8142 41.5567
26.8601 41.1082
26.9059 40.919
26.9519 40.2932
26.9979 39.9766
27.0437 39.5872
27.0896 39.4749
27.1354 39.5295
27.1814 39.3033
27.2272 39.2926
27.2732 39.3078
27.3191 39.0476
27.3651 39.2543
27.4109 39.0132
27.4569 39.3028
27.5027 39.2313
27.5488 39.3119
27.5946 39.1023
27.6407 38.8544
27.6865 38.8108
27.7326 38.5516
27.7784 38.554
27.8245 38.6245
27.8703 38.6952
27.9164 38.9016
27.9623 39.1589
28.0084 39.3617
28.0543 39.745
28.1003 39.8131
28.1462 39.5863
28.1923 39.2016
28.2384 38.7085
28.2843 38.4645
28.3304 37.9564
28.3764 37.3994
28.4225 37.2077
28.4684 37.092
28.5145 36.6461
28.5605 36.5137
28.6066 36.4055
28.6526 36.2972
28.6987 36.2666
28.7447 36.2145
28.7908 36.1933
28.8368 36.0725
28.8829 36.1447
28.9289 36.0132
28.9751 35.8669
29.0211 35.5691
29.0673 35.3271
29.1133 35.3631
29.1595 35.1012
29.2055 35.0284
29.2517 34.9203
29.2977 34.9475
29.3439 34.9424
29.3899 34.8871
29.4361 34.8954
29.4824 34.6102
29.5284 34.4206
29.5746 34.1077
29.6207 33.8545
29.6669 33.6676
29.713 33.6618
29.7593 33.5396
29.8053 33.6037
29.8516 33.4185
29.8977 33.3899
29.9439 33.291
29.99 33.2309
30.0363 33.0469
30.0824 33.1668
30.1287 33.0991
30.1748 33.0762
30.2211 33.0882
30.2673 32.9753
30.3136 32.962
30.3597 32.862
30.406 32.8827
30.4522 32.6903
30.4985 32.674
30.5447 32.6769
30.591 32.6878
30.6372 32.7185
30.6835 32.8806
30.7297 32.8388
30.7761 32.793
30.8224 32.6564
30.8686 32.4808
30.915 32.2002
30.9612 32.1248
31.0076 31.9126
31.0538 31.7457
31.1002 31.6447
31.1464 31.5939
31.1928 31.5416
31.2391 31.5702
31.2855 31.4961
31.3317 31.3862
31.3781 31.5411
31.4244 31.5175
31.4708 31.3527
31.5171 31.2681
31.5636 31.3619
31.6098 31.1251
31.6563 30.8598
31.7026 30.9261
31.7491 30.6774
31.7953 30.7062
31.8418 30.6618
31.8881 30.7827
31.9346 30.5979
31.9809 30.5884
32.0275 30.5582
32.074 30.4224
32.1203 30.2108
32.1668 30.0618
32.2132 29.9001
32.2597 29.8032
32.306 29.8061
32.3526 29.5761
32.399 29.4408
32.4455 29.3335
32.4919 29.3073
32.5385 29.1986
32.5848 29.043
32.6314 29.0323
32.6778 28.9747
32.7244 28.7786
32.7708 28.6689
32.8174 28.7255
32.8638 28.5847
32.9104 28.6227
32.9569 28.5034
33.0035 28.3156
33.0499 28.3525
33.0966 28.3119
33.143 28.3211
33.1897 28.2732
33.2361 28.1364
33.2828 28.1859
33.3293 27.9562
33.3759 27.9491
33.4226 27.7225
33.4691 27.6576
33.5158 27.5888
33.5623 27.4654
33.609 27.2916
33.6555 27.1672
33.7022 27.1112
33.7487 27.0826
33.7954 26.9764
33.842 26.8972
33.8887 26.809
33.9353 26.7251
33.982 26.6924
34.0286 26.5594
34.0753 26.4504
34.1219 26.3781
34.1687 26.3791
34.2152 26.2892
34.262 26.1232
34.3086 26.065
34.3554 25.9999
34.402 25.9458
34.4488 25.7749
34.4954 25.7672
34.5422 25.6836
34.5889 25.5503
34.6357 25.4494
34.6825 25.4757
34.7292 25.3554
34.776 25.2573
34.8227 25.2448
34.8695 25.1484
34.9162 25.0844
34.9631 24.8849
35.0098 24.9913
35.0566 24.853
35.1033 24.8528
35.1502 24.8112
35.1969 24.7279
35.2438 24.6624
35.2906 24.5824
35.3375 24.4634
35.3842 24.385
35.4311 24.4074
35.4779 24.4194
35.5248 24.3288
35.5716 24.2478
35.6185 24.1363
35.6653 24.1369
35.7123 23.9964
35.759 23.967
35.806 23.8281
35.8528 23.7406
35.8998 23.648
35.9468 23.5322
35.9936 23.5319
36.0406 23.4144
36.0874 23.5129
36.1345 23.2905
36.1813 23.2763
36.2283 23.1769
36.2752 23.0617
36.3222 23.0384
36.3691 22.9972
36.4161 22.862
36.463 22.8726
36.5101 22.8558
36.557 22.8197
36.6041 22.6277
36.651 22.6085
36.6981 22.531
36.745 22.5597
36.7921 22.4386
36.839 22.2755
36.8861 22.2234
36.9331 22.1268
36.9802 22.0315
37.0272 21.9855
37.0743 21.8387
37.1213 21.9043
37.1684 21.8322
37.2154 21.7941
37.2626 21.6638
37.3098 21.6175
37.3568 21.5559
37.404 21.4979
37.451 21.353
37.4982 21.306
37.5452 21.2581
37.5924 21.1812
37.6395 21.22
37.6867 21.1518
37.7337 20.9941
37.781 20.9551
37.8281 20.9287
37.8753 20.8401
37.9224 20.6708
37.9697 20.644
38.0168 20.6248
38.064 20.5642
38.1111 20.4706
38.1584 20.4239
38.2056 20.4179
38.2529 20.2963
38.3 20.2698
38.3473 20.24
38.3945 20.0889
38.4418 20.0623
38.489 20.0347
38.5363 19.9431
38.5837 19.806
38.6309 19.7107
38.6782 19.7332
38.7254 19.6695
38.7728 19.5767
38.82 19.4426
38.8674 19.4215
38.9146 19.431
38.9621 19.3141
39.0093 19.275
39.0567 19.2237
39.104 19.1701
39.1514 19.0583
39.1987 18.9998
39.2461 19.0291
39.2934 18.9859
39.3409 18.8096
39.3882 18.7997
39.4356 18.7232
39.483 18.6624
39.5304 18.6155
39.5778 18.6532
39.6253 18.5374
39.6726 18.422
39.7201 18.4429
39.7675 18.3662
39.815 18.279
39.8624 18.1534
39.9099 18.2079
39.9575 18.0995
40.0049 18.0489
40.0525 17.9906
40.0999 17.9176
40.1474 17.8747
40.1949 17.8307
40.2425 17.7656
40.2899 17.7182
40.3375 17.6147
40.385 17.6123
40.4326 17.5099
40.48 17.4574
40.5277 17.4304
40.5752 17.4073
40.6228 17.2529
40.6703 17.2768
40.718 17.1951
40.7655 17.1443
40.8132 17.0677
40.8607 17.056
40.9084 17.0442
40.9559 16.9281
41.0036 16.941
41.0512 16.8685
41.0989 16.772
41.1465 16.7341
41.1942 16.695
41.242 16.6154
41.2896 16.4855
41.3373 16.5144
41.3849 16.4368
41.4327 16.3969
41.4803 16.2688
41.5281 16.2546
41.5758 16.2121
41.6236 16.1968
41.6712 16.0652
41.7191 16.0535
41.7667 16.0261
41.8146 16.0137
41.8622 15.8497
41.9101 15.8349
41.9578 15.7748
42.0057 15.8098
42.0534 15.7121
42.1013 15.5597
42.149 15.5078
42.1969 15.4823
42.2446 15.488
42.2925 15.3768
42.3403 15.3212
42.3882 15.3808
42.436 15.2815
42.4839 15.2085
42.5319 15.1592
42.5797 15.1408
42.6277 15.0971
42.6755 15.0038
42.7235 14.9101
42.7713 14.967
42.8193 14.8394
42.8671 14.7946
42.9152 14.7984
42.963 14.7374
43.0111 14.6187
43.0589 14.5765
43.107 14.5335
43.1549 14.5327
43.2029 14.4417
43.2508 14.3807
43.2989 14.342
43.3468 14.2995
43.3949 14.2747
43.4429 14.214
43.491 14.1236
43.5389 14.0835
43.5871 14.0785
43.635 13.9469
43.6832 13.97
43.7312 13.9062
43.7793 13.8507
43.8273 13.7943
43.8755 13.7502
43.9237 13.776
43.9717 13.6794
44.0199 13.5805
44.068 13.5645
44.1162 13.5253
44.1642 13.4869
44.2125 13.4128
44.2606 13.411
44.3088 13.3247
44.3569 13.2955
44.4052 13.3125
44.4533 13.1804
44.5016 13.1233
44.5497 13.1323
44.598 13.0222
44.6461 13.0141
44.6945 12.9162
44.7426 12.955
44.791 12.8555
44.8391 12.8731
44.8875 12.7539
44.9357 12.756
44.984 12.7028
45.0322 12.6681
45.0806 12.573
45.1288 12.5709
45.1773 12.5036
45.2257 12.4902
45.2739 12.4447
45.3224 12.3273
45.3706 12.3469
45.4191 12.3638
45.4673 12.2341
45.5158 12.2371
45.5641 12.162
45.6126 12.0909
45.6609 12.0656
45.7094 12.0329
45.7577 12.0169
45.8063 11.956
45.8546 11.895
45.9031 11.8836
45.9515 11.8346
46.0001 11.7808
46.0484 11.7431
46.097 11.7255
46.1454 11.6682
46.194 11.6473
46.2424 11.5634
46.291 11.517
46.3395 11.5088
46.3881 11.4546
46.4365 11.4262
46.4852 11.3663
46.5337 11.3188
46.5823 11.3287
46.631 11.2422
46.6795 11.1406
46.7282 11.1781
46.7767 11.1541
46.8254 11.0595
46.8739 11.0433
46.9226 11.0194
46.9712 10.9415
47.0199 10.9297
47.0685 10.8513
47.1173 10.8267
47.1658 10.7782
47.2146 10.7533
47.2632 10.7003
47.312 10.6991
47.3606 10.6164
47.4095 10.6119
47.4581 10.5628
47.5069 10.4986
47.5556 10.493
47.6044 10.4008
47.6531 10.4223
47.702 10.356
47.7507 10.2949
47.7996 10.308
47.8483 10.2948
47.8972 10.2119
47.9461 10.1702
47.9948 10.14
48.0438 10.0894
48.0925 10.0692
48.1415 10.0276
48.1902 9.98536
48.2392 9.9759
48.288 9.94629
48.337 9.87639
48.3858 9.86102
48.4348 9.83786
48.4837 9.80818
48.5327 9.76582
48.5815 9.70545
48.6306 9.69955
48.6795 9.66662
48.7285 9.59303
48.7774 9.53982
48.8265 9.54143
48.8754 9.511
48.9245 9.4708
48.9734 9.42583
49.0226 9.38917
49.0715 9.36044
49.1206 9.33383
49.1696 9.28156
49.2188 9.27624
49.2679 9.22089
49.3169 9.17652
49.3661 9.13219
49.4151 9.11652
49.4643 9.08929
49.5134 9.03093
49.5626 8.97983
49.6117 8.97843
49.6609 8.94558
49.71 8.87597
49.7592 8.84962
49.8083 8.8038
49.8576 8.82221
49.9067 8.75541
49.956 8.74244
50.0052 8.70856
50.0545 8.67945
50.1036 8.61222
50.153 8.60676
50.2022 8.57688
50.2515 8.5716
50.3007 8.48437
50.3501 8.47531
50.3993 8.4113
50.4487 8.40766
50.498 8.35751
50.5474 8.34717
50.5966 8.30787
50.6461 8.29376
50.6955 8.27915
50.7448 8.21725
50.7943 8.15016
50.8436 8.12263
50.8931 8.14271
50.9424 8.0649
50.9919 8.05323
51.0413 8.03083
51.0908 8.01119
51.1402 7.95998
51.1897 7.92533
51.2391 7.88986
51.2887 7.87609
51.3381 7.81069
51.3877 7.81599
51.4371 7.75946
51.4867 7.74623
51.5362 7.70002
51.5858 7.64031
51.6353 7.61645
51.6849 7.63419
51.7344 7.53482
51.7841 7.54061
51.8336 7.4758
51.8833 7.48734
51.9328 7.43773
51.9826 7.39752
52.0323 7.40296
52.0818 7.35704
52.1316 7.3356
52.1812 7.29588
52.231 7.27072
52.2806 7.23811
52.3304 7.21171
52.38 7.18305
52.4298 7.17156
52.4794 7.10705
52.5293 7.04144
52.5789 7.08992
52.6288 7.05699
52.6785 6.96775
52.7284 6.98111
52.7781 6.92573
52.828 6.91286
52.8777 6.86231
52.9276 6.85895
52.9774 6.85057
53.0273 6.79928
53.0771 6.78471
53.1271 6.77477
53.1769 6.66994
53.2269 6.66342
53.2767 6.64571
53.3267 6.63374
53.3765 6.61378
53.4266 6.56242
53.4766 6.52379
53.5265 6.50517
53.5765 6.48612
53.6264 6.464
53.6765 6.39552
53.7264 6.41379
53.7765 6.36671
53.8265 6.34683
53.8766 6.35103
53.9266 6.29728
53.9767 6.24208
54.0267 6.22172
54.0769 6.18699
54.1269 6.15373
54.1771 6.12715
54.2271 6.11515
54.2773 6.08072
54.3274 6.0781
54.3776 6.05601
54.4277 6.00186
54.478 5.97675
54.528 5.89172
54.5783 5.89015
54.6285 5.83862
54.6788 5.83393
54.7289 5.74317
54.7792 5.71346
54.8296 5.64686
54.8798 5.64718
54.9301 5.57604
54.9803 5.59912
55.0307 5.59231
55.0809 5.4669
55.1314 5.43391
55.1816 5.41715
55.232 5.37831
55.2823 5.34942
55.3328 5.27602
55.383 5.22446
55.4335 5.17489
55.4838 5.16603
55.5344 5.07328
55.5847 5.04782
55.6352 5.00708
55.6856 4.96286
55.7361 4.92785