File: XRD/Ni3Fe_FD1009.xy
TT I
1.27165 6.4566
1.31627 5.99323
1.36089 6.15949
1.40551 6.40574
1.45013 6.45689
1.49476 6.02915
1.53938 5.52092
1.584 5.33933
1.62863 4.64823
1.67325 4.59278
1.71787 4.94839
1.7625 4.56452
1.80712 4.43083
1.85174 4.3037
1.89636 4.20097
1.94099 5.18344
1.98562 4.55515
2.03025 3.77461
2.07487 3.91264
2.11949 4.86014
2.16411 4.76865
2.20874 13.6892
2.25338 26.2158
2.298 6.63681
2.34263 6.34819
2.38725 6.49558
2.43188 6.3796
2.4765 7.12224
2.52115 7.59449
2.56577 8.38674
2.6104 8.54705
2.65503 8.76541
2.69965 8.48406
2.7443 8.82008
2.78893 8.37278
2.83356 8.90219
2.87818 8.80034
2.92281 9.43342
2.96744 10.2932
3.01209 10.5477
3.05672 11.5748
3.10135 12.8114
3.14599 13.5055
3.19062 14.8362
3.23527 14.9958
3.2799 15.4068
3.32454 16.8944
3.36917 17.5679
3.4138 18.4954
3.45844 19.6816
3.50309 20.6851
3.54773 21.9072
3.59237 23.741
3.637 96.3085
3.68164 70.3079
3.7263 25.6285
3.77094 25.1854
3.81558 25.5402
3.86022 26.6155
3.90486 27.9699
3.9495 28.9535
3.99416 30.182
4.0388 30.9673
4.08344 32.5332
4.12809 33.4145
4.17273 35.3201
4.21738 40.5749
4.26204 252.925
4.30669 275.1
4.35133 49.472
4.39598 42.3031
4.44063 51.5923
4.4853 67.6777
4.52995 48.1313
4.5746 48.606
4.61925 49.953
4.6639 52.0751
4.70855 54.4111
4.75322 57.0933
4.79788 59.3904
4.84253 62.7016
4.88719 66.6225
4.93184 69.8587
4.97652 74.7803
5.02118 80.282
5.06583 86.0536
5.11049 94.5112
5.15515 156.732
5.19981 242.295
5.24449 1874.11
5.28916 13048.5
5.33382 3136.04
5.37848 176.365
5.42315 119.326
5.46783 105.5
5.5125 98.6022
5.55716 94.6459
5.60183 91.7736
5.6465 90.3007
5.69117 86.923
5.73586 85.8846
5.78053 84.6327
5.8252 84.1539
5.86988 84.6803
5.91455 86.0859
5.95924 91.0325
6.00392 144.122
6.0486 665.296
6.09328 4283.1
6.13795 3588.99
6.18263 273.856
6.22733 88.169
6.27201 77.4376
6.3167 99.7582
6.36138 80.9369
6.40606 65.1763
6.45075 63.2308
6.49545 61.5658
6.54014 60.2189
6.58483 59.3457
6.62952 59.3107
6.67421 86.4078
6.71892 160.938
6.76361 72.5249
6.8083 55.8738
6.853 54.6483
6.89769 54.4683
6.94239 53.8517
6.98711 53.0211
7.03181 52.8462
7.07651 52.5859
7.12121 52.2974
7.16591 52.514
7.21063 53.0739
7.25533 63.8053
7.30004 192.516
7.34475 110.228
7.38945 54.8609
7.43416 51.866
7.47889 51.714
7.5236 51.9421
7.56831 52.361
7.61303 53.6563
7.65774 55.5279
7.70247 53.6813
7.74719 53.229
7.79191 53.5901
7.83663 53.7719
7.88135 54.4888
7.92607 55.2697
7.97081 56.5502
8.01553 57.3174
8.06026 58.7702
8.10498 59.9204
8.14971 69.3629
8.19446 71.1119
8.23919 65.6026
8.28392 67.1322
8.32865 69.3595
8.37339 72.4095
8.41812 77.9724
8.46288 107.333
8.50761 128.855
8.55235 283.444
8.59709 975.068
8.64183 2297.48
8.68658 1109.84
8.73134 178.871
8.77609 93.9668
8.82083 87.4176
8.86558 84.3368
8.91033 84.3842
8.9551 88.2618
8.99985 81.3646
9.04461 78.558
9.08936 77.844
9.13412 77.3863
9.17888 77.3211
9.22365 78.152
9.26841 77.0091
9.31318 77.3725
9.35794 77.4484
9.4027 78.1665
9.44749 78.8909
9.49226 79.4284
9.53703 80.152
9.5818 81.6076
9.62657 85.207
9.67134 94.4442
9.71614 89.3168
9.76091 87.9805
9.80569 89.7625
9.85047 92.799
9.89525 114.585
9.94005 134.364
9.98484 140.023
10.0296 256.899
10.0744 626.761
10.1192 1660.5
10.164 1744.99
10.2088 451.42
10.2536 127.148
10.2984 106.773
10.3432 110.509
10.388 99.3337
10.4328 102.944
10.4776 133.506
10.5224 233.141
10.5672 503.657
10.612 554.619
10.6568 225.974
10.7017 96.0899
10.7465 81.784
10.7913 78.5662
10.8361 76.9458
10.8809 74.5474
10.9257 73.8632
10.9706 75.7371
11.0154 71.5193
11.0602 69.0343
11.105 67.9772
11.1499 71.2625
11.1947 81.9716
11.2395 73.5889
11.2844 67.9037
11.3292 64.1605
11.374 62.7023
11.4189 62.1945
11.4637 61.4839
11.5086 61.4866
11.5534 65.4025
11.5983 63.5242
11.6431 60.5727
11.688 59.4846
11.7328 59.5206
11.7777 59.2943
11.8225 59.2077
11.8674 58.9102
11.9122 59.3695
11.9571 59.6008
12.002 59.807
12.0468 61.7812
12.0917 70.6254
12.1366 90.4372
12.1814 138.968
12.2263 204.334
12.2712 180.199
12.3161 101.52
12.3609 70.6549
12.4058 62.1053
12.4507 60.9159
12.4956 60.8467
12.5405 60.7902
12.5853 62.1327
12.6302 69.1308
12.6751 78.4211
12.72 69.2956
12.7649 64.5581
12.8098 64.8161
12.8547 65.7767
12.8996 66.7386
12.9445 68.1349
12.9894 69.8096
13.0343 70.8522
13.0792 73.7113
13.1242 78.3458
13.1691 97.3836
13.214 126.407
13.2589 204.305
13.3038 353.849
13.3487 455.174
13.3937 294.638
13.4386 132.663
13.4835 96.6322
13.5285 106.333
13.5734 136.272
13.6183 219.237
13.6633 345.828
13.7082 369.31
13.7531 210.772
13.7981 100.218
13.843 78.3054
13.888 75.9771
13.9329 73.3288
13.9779 72.0105
14.0228 70.5093
14.0678 69.36
14.1127 68.7756
14.1577 69.0043
14.2027 68.0996
14.2476 66.7454
14.2926 66.7533
14.3376 68.3699
14.3825 67.3612
14.4275 65.4686
14.4725 65.1136
14.5175 65.4438
14.5624 65.2168
14.6074 67.232
14.6524 68.6548
14.6974 66.9518
14.7424 67.104
14.7874 71.1162
14.8324 79.5272
14.8774 97.2126
14.9224 137.336
14.9674 203.52
15.0124 230.984
15.0574 165.986
15.1024 96.4622
15.1474 70.5986
15.1924 66.9288
15.2374 67.9595
15.2824 68.0459
15.3274 65.371
15.3725 63.7918
15.4175 63.2049
15.4625 62.7135
15.5076 62.9234
15.5526 63.1157
15.5976 62.6053
15.6426 62.5579
15.6877 65.7784
15.7327 72.2691
15.7778 84.2129
15.8228 112.05
15.8679 161.905
15.9129 201.888
15.958 172.885
16.003 105.229
16.0481 68.1674
16.0931 62.3293
16.1382 61.0227
16.1833 58.5364
16.2283 56.4629
16.2734 55.6695
16.3185 55.8142
16.3636 57.1786
16.4086 56.1318
16.4537 53.9569
16.4988 52.9497
16.5439 53.1965
16.589 52.6959
16.6341 52.2086
16.6792 52.0625
16.7243 52.5135
16.7694 52.5068
16.8145 52.4096
16.8596 52.6257
16.9047 54.0951
16.9498 55.069
16.9949 53.6747
17.04 53.0744
17.0851 53.6699
17.1302 55.2987
17.1754 58.0283
17.2205 62.1609
17.2656 70.1371
17.3108 80.5784
17.3559 82.2339
17.401 71.0539
17.4462 60.4337
17.4913 56.3854
17.5365 56.1895
17.5815 56.371
17.6268 56.8329
17.6718 57.4916
17.7171 58.4305
17.7622 58.5986
17.8074 58.6894
17.8525 59.9676
17.8977 63.3863
17.9428 68.1999
17.9881 75.5085
18.0331 91.4012
18.0784 116.829
18.1237 140.723
18.1688 137.632
18.214 107.963
18.2591 85.3264
18.3044 85.8035
18.3495 97.7092
18.3948 108.049
18.4399 100.435
18.4852 79.6023
18.5303 65.3476
18.5756 60.1031
18.6207 58.8104
18.666 58.1587
18.7112 57.3245
18.7565 56.6251
18.8016 56.1449
18.8469 55.7666
18.892 55.4369
18.9374 54.8552
18.9825 54.4331
19.0278 54.4939
19.073 54.5896
19.1183 54.4578
19.1635 55.3899
19.2088 56.6256
19.254 58.7366
19.2993 63.0286
19.3447 69.7752
19.3898 75.7795
19.4352 73.4522
19.4804 63.6233
19.5257 55.7962
19.5709 52.2659
19.6163 51.7051
19.6615 51.5522
19.7068 51.017
19.752 51.0102
19.7974 51.2137
19.8426 51.8545
19.888 52.5227
19.9332 53.3896
19.9786 55.6751
20.0238 59.3019
20.0692 64.9754
20.1144 69.3726
20.1598 68.3982
20.205 62.6175
20.2504 60.2435
20.2957 62.2902
20.3411 64.9674
20.3863 64.1794
20.4318 58.4965
20.477 52.7158
20.5224 50.1038
20.5677 49.3596
20.6131 48.717
20.6586 47.8365
20.7038 47.517
20.7493 47.3394
20.7945 47.0502
20.84 46.9432
20.8853 46.7955
20.9307 46.4739
20.976 46.7859
21.0215 46.5597
21.0668 46.8223
21.1122 47.4707
21.1575 47.9094
21.203 48.8351
21.2483 49.7249
21.2938 49.8853
21.3391 48.6894
21.3846 47.173
21.4299 46.6187
21.4754 46.4834
21.5207 46.5263
21.5662 46.8015
21.6116 46.9287
21.6571 47.4498
21.7024 48.4692
21.7479 49.9191
21.7933 52.585
21.8388 56.3115
21.8843 61.5506
21.9297 64.5613
21.9752 63.6845
22.0206 59.5261
22.0661 55.7823
22.1115 55.3488
22.157 55.5529
22.2024 53.7871
22.248 50.5551
22.2933 48.68
22.3389 47.5612
22.3843 47.3835
22.4299 47.3526
22.4753 47.457
22.5208 46.9284
22.5662 46.7678
22.6118 46.9844
22.6572 47.0203
22.7028 47.2709
22.7483 47.6076
22.7939 48.3343
22.8393 49.6556
22.8849 51.9964
22.9303 54.5568
22.9759 56.9585
23.0214 57.1982
23.067 54.7324
23.1126 50.5993
23.1581 48.059
23.2037 47.2548
23.2492 47.1998
23.2948 46.8577
23.3403 47.2934
23.3859 47.8603
23.4314 48.6659
23.477 50.589
23.5225 53.2407
23.5682 56.2258
23.6137 58.2247
23.6593 56.4075
23.7048 51.9547
23.7505 47.7638
23.796 45.5229
23.8417 44.666
23.8872 44.081
23.9329 43.6063
23.9784 43.2906
24.0241 43.0578
24.0697 43.0402
24.1154 42.6059
24.1609 42.4241
24.2066 42.3563
24.2522 42.2101
24.2979 41.8918
24.3434 41.8312
24.3892 41.7001
24.4349 41.6464
24.4805 41.4981
24.5262 41.5788
24.5718 41.4815
24.6175 41.6247
24.6631 41.3277
24.7089 41.1449
24.7545 40.9174
24.8002 40.7601
24.8458 40.6997
24.8916 40.4811
24.9372 40.6721
24.983 40.9062
25.0286 41.2514
25.0744 41.7568
25.12 42.2995
25.1658 43.151
25.2114 43.6078
25.2572 43.6576
25.3029 43.9131
25.3487 44.328
25.3943 44.0053
25.4402 42.8953
25.4858 41.6824
25.5316 40.4051
25.5773 39.6697
25.6231 39.545
25.669 39.2609
25.7147 39.1664
25.7605 39.1178
25.8062 39.1644
25.8521 39.261
25.8977 39.2509
25.9436 39.3213
25.9893 39.7932
26.0352 40.2997
26.0809 40.5673
26.1268 40.7718
26.1725 40.4937
26.2184 39.8838
26.2641 39.2373
26.31 38.9446
26.3557 38.7975
26.4017 38.9106
26.4474 39.1674
26.4933 39.2895
26.5391 40.0415
26.585 40.5814
26.6308 41.109
26.6767 41.461
26.7225 41.1852
26.7684 40.8055
26.8142 39.9918
26.8601 39.62
26.9059 39.0966
26.9519 38.5559
26.9979 38.1294
27.0437 37.8579
27.0896 37.5887
27.1354 37.5456
27.1814 37.3431
27.2272 37.3005
27.2732 37.4032
27.3191 37.1734
27.3651 37.2406
27.4109 37.2459
27.4569 37.3899
27.5027 37.4197
27.5488 37.6201
27.5946 37.2229
27.6407 37.2465
27.6865 36.9913
27.7326 36.8991
27.7784 36.8251
27.8245 36.6325
27.8703 36.8375
27.9164 37.2408
27.9623 37.3658
28.0084 37.7262
28.0543 38.2949
28.1003 38.2497
28.1462 38.1818
28.1923 37.8673
28.2384 37.355
28.2843 36.9018
28.3304 36.3682
28.3764 35.9028
28.4225 35.4209
28.4684 35.2989
28.5145 35.0101
28.5605 34.806
28.6066 34.6571
28.6526 34.7082
28.6987 34.5532
28.7447 34.5461
28.7908 34.3523
28.8368 34.5827
28.8829 34.3601
28.9289 34.4778
28.9751 34.2467
29.0211 33.9406
29.0673 33.5838
29.1133 33.5929
29.1595 33.3984
29.2055 33.3136
29.2517 33.2913
29.2977 33.3821
29.3439 33.2953
29.3899 33.3562
29.4361 33.3415
29.4824 33.1303
29.5284 32.8843
29.5746 32.498
29.6207 32.2817
29.6669 32.1329
29.713 32.0557
29.7593 31.9369
29.8053 31.9597
29.8516 31.8492
29.8977 31.8655
29.9439 31.5832
29.99 31.596
30.0363 31.4421
30.0824 31.613
30.1287 31.3731
30.1748 31.5098
30.2211 31.5293
30.2673 31.3765
30.3136 31.4884
30.3597 31.464
30.406 31.2519
30.4522 31.2181
30.4985 31.062
30.5447 31.2312
30.591 31.179
30.6372 31.279
30.6835 31.347
30.7297 31.4937
30.7761 31.414
30.8224 31.2445
30.8686 31.1392
30.915 30.8424
30.9612 30.6541
31.0076 30.4765
31.0538 30.3758
31.1002 30.2688
31.1464 30.183
31.1928 30.1418
31.2391 30.0246
31.2855 30.0436
31.3317 29.9856
31.3781 30.1032
31.4244 30.0455
31.4708 30.0206
31.5171 30.0377
31.5636 29.9981
31.6098 29.777
31.6563 29.6751
31.7026 29.4444
31.7491 29.3595
31.7953 29.3039
31.8418 29.3538
31.8881 29.2547
31.9346 29.3436
31.9809 29.2119
32.0275 29.1722
32.074 29.1484
32.1203 28.9405
32.1668 28.835
32.2132 28.6397
32.2597 28.4087
32.306 28.3105
32.3526 28.2346
32.399 28.1115
32.4455 27.9711
32.4919 27.8798
32.5385 27.9377
32.5848 27.6243
32.6314 27.7237
32.6778 27.5914
32.7244 27.5252
32.7708 27.3039
32.8174 27.4132
32.8638 27.1905
32.9104 27.3084
32.9569 27.1557
33.0035 27.0074
33.0499 27.1126
33.0966 27.0661
33.143 27.0434
33.1897 26.9853
33.2361 26.891
33.2828 26.8462
33.3293 26.7923
33.3759 26.6855
33.4226 26.6344
33.4691 26.3691
33.5158 26.3867
33.5623 26.2126
33.609 26.0104
33.6555 25.9384
33.7022 25.7725
33.7487 25.7892
33.7954 25.8333
33.842 25.6942
33.8887 25.5789
33.9353 25.5599
33.982 25.5194
34.0286 25.421
34.0753 25.3271
34.1219 25.1485
34.1687 25.1341
34.2152 25.0598
34.262 24.9752
34.3086 24.8531
34.3554 24.8805
34.402 24.7263
34.4488 24.5771
34.4954 24.5699
34.5422 24.5307
34.5889 24.353
34.6357 24.2592
34.6825 24.2986
34.7292 24.2002
34.776 24.13
34.8227 24.0279
34.8695 23.9275
34.9162 23.9889
34.9631 23.8052
35.0098 23.7794
35.0566 23.6547
35.1033 23.6231
35.1502 23.6684
35.1969 23.4542
35.2438 23.4861
35.2906 23.5035
35.3375 23.4246
35.3842 23.4855
35.4311 23.4327
35.4779 23.4437
35.5248 23.3404
35.5716 23.2224
35.6185 23.1352
35.6653 23.0126
35.7123 22.9545
35.759 22.9671
35.806 22.7384
35.8528 22.6035
35.8998 22.5931
35.9468 22.5158
35.9936 22.5328
36.0406 22.4058
36.0874 22.3542
36.1345 22.3531
36.1813 22.2496
36.2283 22.144
36.2752 22.1501
36.3222 22.1413
36.3691 21.9652
36.4161 21.8784
36.463 21.8963
36.5101 21.7907
36.557 21.7457
36.6041 21.6157
36.651 21.5986
36.6981 21.6188
36.745 21.4557
36.7921 21.3275
36.839 21.2957
36.8861 21.2715
36.9331 21.2412
36.9802 21.1136
37.0272 21.0536
37.0743 20.8858
37.1213 20.9107
37.1684 20.8358
37.2154 20.763
37.2626 20.7155
37.3098 20.6959
37.3568 20.5728
37.404 20.4872
37.451 20.4668
37.4982 20.4242
37.5452 20.2559
37.5924 20.2686
37.6395 20.2599
37.6867 20.2243
37.7337 20.0448
37.781 20.0359
37.8281 19.9379
37.8753 19.8407
37.9224 19.7798
37.9697 19.7354
38.0168 19.6547
38.064 19.5804
38.1111 19.6125
38.1584 19.4687
38.2056 19.4342
38.2529 19.3512
38.3 19.243
38.3473 19.3296
38.3945 19.1213
38.4418 19.1132
38.489 19.0829
38.5363 19.0155
38.5837 18.9822
38.6309 18.8974
38.6782 18.8379
38.7254 18.7756
38.7728 18.6797
38.82 18.6255
38.8674 18.5251
38.9146 18.5219
38.9621 18.4795
39.0093 18.4321
39.0567 18.3568
39.104 18.3207
39.1514 18.2265
39.1987 18.2067
39.2461 18.1551
39.2934 18.0567
39.3409 18.003
39.3882 17.9197
39.4356 17.9007
39.483 17.8245
39.5304 17.7636
39.5778 17.7552
39.6253 17.7037
39.6726 17.6049
39.7201 17.5685
39.7675 17.4495
39.815 17.4735
39.8624 17.3858
39.9099 17.3991
39.9575 17.2707
40.0049 17.2404
40.0525 17.1844
40.0999 17.1554
40.1474 17.0299
40.1949 17.0079
40.2425 16.9817
40.2899 16.9263
40.3375 16.866
40.385 16.8161
40.4326 16.7369
40.48 16.6474
40.5277 16.6979
40.5752 16.6099
40.6228 16.4729
40.6703 16.48
40.718 16.444
40.7655 16.3957
40.8132 16.3599
40.8607 16.3253
40.9084 16.2143
40.9559 16.1516
41.0036 16.1372
41.0512 16.091
41.0989 16.0595
41.1465 15.9757
41.1942 15.9786
41.242 15.8517
41.2896 15.7942
41.3373 15.7529
41.3849 15.7081
41.4327 15.6802
41.4803 15.575
41.5281 15.562
41.5758 15.5072
41.6236 15.4004
41.6712 15.3843
41.7191 15.3191
41.7667 15.227
41.8146 15.2528
41.8622 15.1597
41.9101 15.1369
41.9578 15.0968
42.0057 15.022
42.0534 15.0048
42.1013 14.9255
42.149 14.8984
42.1969 14.8178
42.2446 14.7569
42.2925 14.7296
42.3403 14.6987
42.3882 14.6549
42.436 14.5684
42.4839 14.5393
42.5319 14.4923
42.5797 14.4469
42.6277 14.3837
42.6755 14.3514
42.7235 14.256
42.7713 14.2563
42.8193 14.1536
42.8671 14.1783
42.9152 14.1267
42.963 14.0266
43.0111 13.9542
43.0589 13.9353
43.107 13.8674
43.1549 13.8788
43.2029 13.8096
43.2508 13.7401
43.2989 13.7814
43.3468 13.6839
43.3949 13.6249
43.4429 13.5619
43.491 13.5644
43.5389 13.473
43.5871 13.4894
43.635 13.3328
43.6832 13.3309
43.7312 13.2351
43.7793 13.2119
43.8273 13.2337
43.8755 13.1585
43.9237 13.1119
43.9717 13.0629
44.0199 13.0277
44.068 12.9964
44.1162 12.9155
44.1642 12.9406
44.2125 12.8217
44.2606 12.8358
44.3088 12.7472
44.3569 12.7481
44.4052 12.6738
44.4533 12.6451
44.5016 12.5336
44.5497 12.5316
44.598 12.5173
44.6461 12.4819
44.6945 12.4061
44.7426 12.3916
44.791 12.3244
44.8391 12.2978
44.8875 12.2324
44.9357 12.2189
44.984 12.1474
45.0322 12.1313
45.0806 12.0422
45.1288 12.0338
45.1773 11.9544
45.2257 11.9329
45.2739 11.8722
45.3224 11.8587
45.3706 11.8388
45.4191 11.7472
45.4673 11.7177
45.5158 11.6863
45.5641 11.6394
45.6126 11.5919
45.6609 11.5168
45.7094 11.5432
45.7577 11.5114
45.8063 11.4213
45.8546 11.4243
45.9031 11.3484
45.9515 11.302
46.0001 11.2798
46.0484 11.2325
46.097 11.2218
46.1454 11.1585
46.194 11.1469
46.2424 11.087
46.291 11.0471
46.3395 11.0069
46.3881 10.9278
46.4365 10.9453
46.4852 10.891
46.5337 10.7919
46.5823 10.8461
46.631 10.7797
46.6795 10.7498
46.7282 10.7097
46.7767 10.6591
46.8254 10.557
46.8739 10.5688
46.9226 10.5385
46.9712 10.4754
47.0199 10.4649
47.0685 10.4442
47.1173 10.3547
47.1658 10.3328
47.2146 10.3147
47.2632 10.2508
47.312 10.2503
47.3606 10.1489
47.4095 10.1312
47.4581 10.1219
47.5069 10.078
47.5556 10.0201
47.6044 9.98937
47.6531 9.95309
47.702 9.90375
47.7507 9.90359
47.7996 9.85047
47.8483 9.81034
47.8972 9.78247
47.9461 9.74915
47.9948 9.7089
48.0438 9.6418
48.0925 9.64702
48.1415 9.60235
48.1902 9.59192
48.2392 9.54619
48.288 9.53708
48.337 9.47931
48.3858 9.39578
48.4348 9.41448
48.4837 9.40339
48.5327 9.3444
48.5815 9.29087
48.6306 9.25322
48.6795 9.25229
48.7285 9.1641
48.7774 9.19191
48.8265 9.1489
48.8754 9.09068
48.9245 9.05972
48.9734 9.00032
49.0226 9.00062
49.0715 8.99164
49.1206 8.89184
49.1696 8.86082
49.2188 8.85127
49.2679 8.84738
49.3169 8.7789
49.3661 8.74357
49.4151 8.72529
49.4643 8.7002
49.5134 8.65564
49.5626 8.57622
49.6117 8.58213
49.6609 8.53891
49.71 8.48644
49.7592 8.51286
49.8083 8.47245
49.8576 8.44472
49.9067 8.37788
49.956 8.36753
50.0052 8.32595
50.0545 8.2934
50.1036 8.25078
50.153 8.20003
50.2022 8.2187
50.2515 8.12228
50.3007 8.11607
50.3501 8.05831
50.3993 8.08676
50.4487 8.05464
50.498 7.98771
50.5474 7.96639
50.5966 7.94525
50.6461 7.91534
50.6955 7.91365
50.7448 7.89026
50.7943 7.84632
50.8436 7.80123
50.8931 7.77233
50.9424 7.75589
50.9919 7.72054
51.0413 7.66932
51.0908 7.64216
51.1402 7.62383
51.1897 7.57843
51.2391 7.55746
51.2887 7.51975
51.3381 7.48882
51.3877 7.47064
51.4371 7.43239
51.4867 7.39592
51.5362 7.33131
51.5858 7.37077
51.6353 7.29582
51.6849 7.28817
51.7344 7.24973
51.7841 7.25728
51.8336 7.20317
51.8833 7.12097
51.9328 7.15183
51.9826 7.09813
52.0323 7.0709
52.0818 7.04591
52.1316 7.01176
52.1812 6.99904
52.231 6.97179
52.2806 6.95546
52.3304 6.93827
52.38 6.8605
52.4298 6.82098
52.4794 6.8518
52.5293 6.76868
52.5789 6.75078
52.6288 6.73956
52.6785 6.66945
52.7284 6.67627
52.7781 6.66005
52.828 6.61969
52.8777 6.61502
52.9276 6.56394
52.9774 6.55906
53.0273 6.47202
53.0771 6.4792
53.1271 6.44496
53.1769 6.39228
53.2269 6.46123
53.2767 6.38023
53.3267 6.34324
53.3765 6.30217
53.4266 6.33383
53.4766 6.27739
53.5265 6.2361
53.5765 6.19355
53.6264 6.15712
53.6765 6.15618
53.7264 6.16268
53.7765 6.12289
53.8265 6.0752
53.8766 6.05531
53.9266 6.01265
53.9767 5.97014
54.0267 5.95471
54.0769 5.97045
54.1269 5.93203
54.1771 5.91348
54.2271 5.86295
54.2773 5.85011
54.3274 5.82224
54.3776 5.80792
54.4277 5.73059
54.478 5.72094
54.528 5.66764
54.5783 5.59705
54.6285 5.57712
54.6788 5.57999
54.7289 5.47948
54.7792 5.48731
54.8296 5.3837
54.8798 5.38907
54.9301 5.38539
54.9803 5.32211
55.0307 5.31586
55.0809 5.21832
55.1314 5.27241
55.1816 5.17288
55.232 5.09148
55.2823 5.10282
55.3328 5.05638
55.383 4.97122
55.4335 4.91803
55.4838 4.9025
55.5344 4.82604
55.5847 4.80327
55.6352 4.79492
55.6856 4.79063
55.7361 4.73023