File: XRD/Ni3Fe_FD1007.xy
TT I
1.27165 6.62432
1.31627 6.71468
1.36089 6.19355
1.40551 6.10878
1.45013 5.98885
1.49476 5.51395
1.53938 5.50113
1.584 5.38816
1.62863 4.98282
1.67325 4.55832
1.71787 4.45055
1.7625 4.68275
1.80712 4.98214
1.85174 4.08857
1.89636 4.66335
1.94099 4.65541
1.98562 4.84927
2.03025 3.99905
2.07487 4.47568
2.11949 4.81101
2.16411 4.8673
2.20874 14.2396
2.25338 28.1964
2.298 6.7961
2.34263 5.40987
2.38725 6.40496
2.43188 6.36503
2.4765 7.76301
2.52115 7.73354
2.56577 8.44462
2.6104 8.81295
2.65503 8.68082
2.69965 9.06226
2.7443 8.4652
2.78893 8.08527
2.83356 8.20055
2.87818 8.7751
2.92281 9.32217
2.96744 9.78948
3.01209 10.2819
3.05672 11.2724
3.10135 12.8664
3.14599 12.8368
3.19062 14.4565
3.23527 15.1982
3.2799 15.4274
3.32454 16.7571
3.36917 17.6502
3.4138 18.7437
3.45844 19.3758
3.50309 20.2007
3.54773 21.412
3.59237 23.4245
3.637 101.022
3.68164 73.7603
3.7263 25.7451
3.77094 25.3803
3.81558 26.1703
3.86022 26.6985
3.90486 28.0973
3.9495 29.0295
3.99416 29.738
4.0388 31.0827
4.08344 32.3079
4.12809 33.6367
4.17273 35.8799
4.21738 41.703
4.26204 268.863
4.30669 292.215
4.35133 50.3713
4.39598 42.8633
4.44063 51.8066
4.4853 70.2077
4.52995 48.4523
4.5746 48.1666
4.61925 50.376
4.6639 52.1393
4.70855 54.8442
4.75322 57.2522
4.79788 59.804
4.84253 63.5169
4.88719 67.379
4.93184 69.9016
4.97652 74.8814
5.02118 80.5882
5.06583 86.6469
5.11049 95.6481
5.15515 160.188
5.19981 247.575
5.24449 1875.84
5.28916 13132.8
5.33382 3169.37
5.37848 176.692
5.42315 120.36
5.46783 106.208
5.5125 99.1788
5.55716 95.9615
5.60183 92.2137
5.6465 91.2679
5.69117 88.6579
5.73586 86.2659
5.78053 85.4327
5.8252 84.6703
5.86988 85.1671
5.91455 86.1908
5.95924 90.607
6.00392 145.021
6.0486 663.441
6.09328 4305.62
6.13795 3633.53
6.18263 261.466
6.22733 88.4553
6.27201 77.8748
6.3167 102.58
6.36138 82.4386
6.40606 65.9022
6.45075 64.1932
6.49545 62.2653
6.54014 60.8287
6.58483 60.3947
6.62952 60.0487
6.67421 88.8313
6.71892 169.41
6.76361 74.0112
6.8083 56.6724
6.853 55.3093
6.89769 54.4274
6.94239 54.3923
6.98711 53.2887
7.03181 53.1524
7.07651 53.0104
7.12121 52.6478
7.16591 52.817
7.21063 53.49
7.25533 64.8034
7.30004 203.401
7.34475 113.86
7.38945 55.8263
7.43416 52.4953
7.47889 52.3336
7.5236 52.5377
7.56831 52.8466
7.61303 54.3024
7.65774 55.4211
7.70247 53.92
7.74719 53.5523
7.79191 54.0443
7.83663 54.1976
7.88135 55.4502
7.92607 56.0447
7.97081 56.9646
8.01553 57.8815
8.06026 59.0263
8.10498 60.4589
8.14971 70.4268
8.19446 71.6227
8.23919 66.351
8.28392 67.9803
8.32865 69.8184
8.37339 73.1494
8.41812 78.7598
8.46288 109.532
8.50761 130.428
8.55235 281.358
8.59709 971.521
8.64183 2299.03
8.68658 1092.6
8.73134 177.114
8.77609 94.5064
8.82083 87.6674
8.86558 84.6614
8.91033 85.2642
8.9551 88.9754
8.99985 81.7796
9.04461 79.1211
9.08936 78.2095
9.13412 77.5556
9.17888 77.9302
9.22365 78.9232
9.26841 77.7782
9.31318 77.846
9.35794 77.898
9.4027 78.5049
9.44749 79.1576
9.49226 79.9341
9.53703 80.4965
9.5818 82.6808
9.62657 86.28
9.67134 96.0517
9.71614 89.9018
9.76091 88.4575
9.80569 90.7745
9.85047 93.0074
9.89525 116.93
9.94005 137.757
9.98484 140.75
10.0296 255.592
10.0744 631.417
10.1192 1661.1
10.164 1730.19
10.2088 443.339
10.2536 126.62
10.2984 107.53
10.3432 112.622
10.388 100.027
10.4328 103.23
10.4776 134.149
10.5224 235.16
10.5672 503.919
10.612 547.092
10.6568 221.469
10.7017 95.1614
10.7465 82.4896
10.7913 79.1042
10.8361 76.9314
10.8809 74.9938
10.9257 74.5909
10.9706 76.1356
11.0154 72.0006
11.0602 69.2609
11.105 68.0869
11.1499 71.8587
11.1947 84.1726
11.2395 74.7032
11.2844 68.5634
11.3292 64.397
11.374 63.2683
11.4189 62.5423
11.4637 62.0014
11.5086 61.9745
11.5534 66.061
11.5983 63.935
11.6431 61.1127
11.688 59.6557
11.7328 59.9188
11.7777 59.8955
11.8225 59.4971
11.8674 59.4218
11.9122 59.6798
11.9571 59.92
12.002 60.0618
12.0468 62.0876
12.0917 71.2343
12.1366 90.1735
12.1814 140.158
12.2263 203.23
12.2712 177.537
12.3161 101.054
12.3609 71.2669
12.4058 62.4958
12.4507 61.247
12.4956 61.4762
12.5405 61.3981
12.5853 62.2768
12.6302 69.8925
12.6751 80.1147
12.72 69.9373
12.7649 64.7727
12.8098 64.9933
12.8547 66.1404
12.8996 67.3569
12.9445 68.1836
12.9894 69.9768
13.0343 71.438
13.0792 74.1838
13.1242 78.6707
13.1691 97.5428
13.214 126.456
13.2589 204.507
13.3038 352.277
13.3487 449.56
13.3937 290.414
13.4386 130.886
13.4835 96.8208
13.5285 106.651
13.5734 136.691
13.6183 219.452
13.6633 349.621
13.7082 368.697
13.7531 207.136
13.7981 99.356
13.843 78.8632
13.888 76.1349
13.9329 73.6897
13.9779 72.4751
14.0228 71.3003
14.0678 69.4585
14.1127 68.9953
14.1577 69.362
14.2027 68.4594
14.2476 67.1982
14.2926 67.1483
14.3376 69.0372
14.3825 67.8755
14.4275 65.6149
14.4725 65.2551
14.5175 65.6545
14.5624 65.5652
14.6074 67.881
14.6524 69.1439
14.6974 67.4398
14.7424 67.3219
14.7874 71.4681
14.8324 79.7038
14.8774 97.1737
14.9224 137.366
14.9674 201.95
15.0124 228.483
15.0574 166.322
15.1024 94.9799
15.1474 70.9177
15.1924 67.3635
15.2374 68.4353
15.2824 68.3762
15.3274 65.7751
15.3725 64.1774
15.4175 63.3249
15.4625 63.1067
15.5076 63.582
15.5526 63.7461
15.5976 62.7222
15.6426 62.8805
15.6877 66.1997
15.7327 72.2031
15.7778 84.381
15.8228 112.326
15.8679 162.399
15.9129 201.98
15.958 172.971
16.003 104.107
16.0481 68.0469
16.0931 62.6175
16.1382 61.4585
16.1833 58.6781
16.2283 56.7812
16.2734 56.1554
16.3185 56.1747
16.3636 57.3896
16.4086 56.6516
16.4537 54.3625
16.4988 53.4817
16.5439 53.2891
16.589 52.8768
16.6341 52.3816
16.6792 52.2474
16.7243 52.608
16.7694 52.7722
16.8145 52.7586
16.8596 52.8666
16.9047 54.5637
16.9498 55.5089
16.9949 53.7896
17.04 53.4359
17.0851 54.0432
17.1302 55.5077
17.1754 58.1308
17.2205 62.5178
17.2656 70.3623
17.3108 80.7534
17.3559 82.1621
17.401 70.8788
17.4462 60.4525
17.4913 56.8281
17.5365 56.467
17.5815 56.7234
17.6268 56.9398
17.6718 57.5704
17.7171 58.4091
17.7622 58.7736
17.8074 59.06
17.8525 60.2849
17.8977 63.5678
17.9428 68.0958
17.9881 75.5446
18.0331 91.6543
18.0784 116.257
18.1237 139.865
18.1688 136.584
18.214 106.836
18.2591 85.0676
18.3044 85.9106
18.3495 97.8977
18.3948 107.67
18.4399 100.089
18.4852 79.4061
18.5303 65.2436
18.5756 60.3321
18.6207 58.8863
18.666 58.3088
18.7112 57.635
18.7565 56.8759
18.8016 56.4448
18.8469 55.729
18.892 55.4454
18.9374 55.0361
18.9825 54.8788
19.0278 54.8531
19.073 54.6856
19.1183 54.6858
19.1635 55.6876
19.2088 56.8496
19.254 58.7625
19.2993 63.1364
19.3447 70.0855
19.3898 76.0511
19.4352 73.3544
19.4804 63.2825
19.5257 55.6808
19.5709 52.4206
19.6163 51.9309
19.6615 51.7664
19.7068 51.3422
19.752 51.2063
19.7974 51.1618
19.8426 52.0852
19.888 52.6777
19.9332 53.6161
19.9786 55.9066
20.0238 59.1982
20.0692 64.8401
20.1144 69.1835
20.1598 68.1389
20.205 62.503
20.2504 60.131
20.2957 62.2561
20.3411 64.8758
20.3863 64.2193
20.4318 58.4863
20.477 53.0399
20.5224 50.1641
20.5677 49.5266
20.6131 48.9043
20.6586 48.0227
20.7038 47.7865
20.7493 47.4306
20.7945 47.2467
20.84 47.1136
20.8853 46.8779
20.9307 46.7042
20.976 46.7442
21.0215 46.7134
21.0668 47.0904
21.1122 47.5498
21.1575 48.0198
21.203 49.0553
21.2483 50.0137
21.2938 49.9352
21.3391 48.7666
21.3846 47.5007
21.4299 46.8593
21.4754 46.4194
21.5207 46.8491
21.5662 46.8094
21.6116 47.0461
21.6571 47.5925
21.7024 48.5218
21.7479 50.1193
21.7933 52.5948
21.8388 56.6409
21.8843 61.4405
21.9297 64.4707
21.9752 63.4407
22.0206 59.1837
22.0661 55.7836
22.1115 55.1911
22.157 55.4382
22.2024 53.7413
22.248 50.5289
22.2933 48.6273
22.3389 47.7029
22.3843 47.4044
22.4299 47.3958
22.4753 47.446
22.5208 47.1542
22.5662 46.9435
22.6118 46.9635
22.6572 47.0074
22.7028 47.6317
22.7483 47.6336
22.7939 48.371
22.8393 49.8237
22.8849 51.8222
22.9303 54.6472
22.9759 57.107
23.0214 57.2359
23.067 54.5566
23.1126 50.3935
23.1581 48.1136
23.2037 47.3225
23.2492 47.2994
23.2948 47.207
23.3403 47.3415
23.3859 47.7665
23.4314 48.7468
23.477 50.5218
23.5225 53.2629
23.5682 56.1242
23.6137 58.0038
23.6593 56.3211
23.7048 51.859
23.7505 47.8173
23.796 45.5171
23.8417 44.6198
23.8872 44.208
23.9329 43.7784
23.9784 43.5151
24.0241 43.0628
24.0697 43.0967
24.1154 42.745
24.1609 42.6382
24.2066 42.3706
24.2522 42.261
24.2979 42.1077
24.3434 42.0817
24.3892 41.7941
24.4349 41.7899
24.4805 41.6209
24.5262 41.7403
24.5718 41.7461
24.6175 41.5367
24.6631 41.6174
24.7089 41.2642
24.7545 41.2345
24.8002 40.9913
24.8458 40.9132
24.8916 40.6344
24.9372 40.8225
24.983 40.9424
25.0286 41.2385
25.0744 41.8803
25.12 42.3876
25.1658 43.0646
25.2114 43.4749
25.2572 43.7065
25.3029 44.0465
25.3487 44.3153
25.3943 44.019
25.4402 42.8079
25.4858 41.6659
25.5316 40.5792
25.5773 39.8058
25.6231 39.8026
25.669 39.2787
25.7147 39.2835
25.7605 39.1899
25.8062 39.2352
25.8521 39.5516
25.8977 39.475
25.9436 39.5264
25.9893 39.7101
26.0352 40.3511
26.0809 40.6364
26.1268 40.9458
26.1725 40.5363
26.2184 39.8875
26.2641 39.2746
26.31 38.9832
26.3557 38.9227
26.4017 38.843
26.4474 39.0682
26.4933 39.4683
26.5391 40.0238
26.585 40.6662
26.6308 41.2423
26.6767 41.3882
26.7225 41.3435
26.7684 40.6094
26.8142 39.9712
26.8601 39.5232
26.9059 39.2045
26.9519 38.6714
26.9979 38.2073
27.0437 37.8903
27.0896 37.6932
27.1354 37.5889
27.1814 37.4734
27.2272 37.5037
27.2732 37.3786
27.3191 37.1645
27.3651 37.3239
27.4109 37.3888
27.4569 37.4927
27.5027 37.6305
27.5488 37.5722
27.5946 37.4891
27.6407 37.0718
27.6865 36.9915
27.7326 36.7846
27.7784 36.7724
27.8245 36.8022
27.8703 36.8754
27.9164 37.2402
27.9623 37.3262
28.0084 37.8003
28.0543 38.3457
28.1003 38.3826
28.1462 38.1906
28.1923 37.8961
28.2384 37.315
28.2843 36.9093
28.3304 36.3894
28.3764 35.9977
28.4225 35.5297
28.4684 35.3406
28.5145 34.9315
28.5605 34.8853
28.6066 34.7245
28.6526 34.657
28.6987 34.672
28.7447 34.474
28.7908 34.4777
28.8368 34.479
28.8829 34.5696
28.9289 34.4214
28.9751 34.3211
29.0211 34.0548
29.0673 33.6796
29.1133 33.5841
29.1595 33.5176
29.2055 33.2364
29.2517 33.2616
29.2977 33.4715
29.3439 33.3993
29.3899 33.4357
29.4361 33.4332
29.4824 33.2806
29.5284 32.9489
29.5746 32.652
29.6207 32.2443
29.6669 32.1885
29.713 32.0352
29.7593 32.0157
29.8053 31.9365
29.8516 31.9582
29.8977 31.8386
29.9439 31.8185
29.99 31.6536
30.0363 31.6365
30.0824 31.6401
30.1287 31.4641
30.1748 31.6722
30.2211 31.644
30.2673 31.3798
30.3136 31.5203
30.3597 31.3954
30.406 31.3303
30.4522 31.2601
30.4985 31.1849
30.5447 31.3059
30.591 31.2291
30.6372 31.3424
30.6835 31.3851
30.7297 31.4228
30.7761 31.4464
30.8224 31.3668
30.8686 31.0214
30.915 30.8373
30.9612 30.737
31.0076 30.5765
31.0538 30.3401
31.1002 30.2511
31.1464 30.1118
31.1928 30.1436
31.2391 30.1353
31.2855 30.1062
31.3317 29.9054
31.3781 30.0709
31.4244 30.0833
31.4708 30.0745
31.5171 30.106
31.5636 30.0054
31.6098 29.7289
31.6563 29.5756
31.7026 29.4002
31.7491 29.3891
31.7953 29.3719
31.8418 29.3957
31.8881 29.4129
31.9346 29.3841
31.9809 29.2842
32.0275 29.319
32.074 29.0601
32.1203 28.9541
32.1668 28.8101
32.2132 28.7244
32.2597 28.5566
32.306 28.3589
32.3526 28.2509
32.399 28.17
32.4455 28.0098
32.4919 27.9165
32.5385 27.9256
32.5848 27.7743
32.6314 27.8136
32.6778 27.7119
32.7244 27.5162
32.7708 27.3755
32.8174 27.367
32.8638 27.3021
32.9104 27.3101
32.9569 27.3324
33.0035 27.0482
33.0499 27.1316
33.0966 27.0649
33.143 27.0947
33.1897 26.9971
33.2361 26.9482
33.2828 26.974
33.3293 26.7029
33.3759 26.7296
33.4226 26.5597
33.4691 26.4554
33.5158 26.3379
33.5623 26.2098
33.609 26.0429
33.6555 26.0369
33.7022 25.9082
33.7487 25.8943
33.7954 25.7428
33.842 25.7644
33.8887 25.6484
33.9353 25.6311
33.982 25.4811
34.0286 25.4067
34.0753 25.3901
34.1219 25.237
34.1687 25.1826
34.2152 25.0944
34.262 25.027
34.3086 24.9009
34.3554 24.8781
34.402 24.7856
34.4488 24.6358
34.4954 24.585
34.5422 24.5382
34.5889 24.3824
34.6357 24.3666
34.6825 24.2596
34.7292 24.2535
34.776 24.1462
34.8227 24.1722
34.8695 23.9494
34.9162 23.9721
34.9631 23.8484
35.0098 23.8549
35.0566 23.7304
35.1033 23.7488
35.1502 23.6169
35.1969 23.5259
35.2438 23.5255
35.2906 23.5621
35.3375 23.4799
35.3842 23.4094
35.4311 23.4142
35.4779 23.3671
35.5248 23.3302
35.5716 23.2825
35.6185 23.131
35.6653 23.082
35.7123 22.9927
35.759 22.9045
35.806 22.729
35.8528 22.6484
35.8998 22.6691
35.9468 22.5102
35.9936 22.5403
36.0406 22.3985
36.0874 22.4896
36.1345 22.3074
36.1813 22.2229
36.2283 22.1199
36.2752 22.0433
36.3222 22.0552
36.3691 22.0639
36.4161 21.9091
36.463 21.9508
36.5101 21.8798
36.557 21.8289
36.6041 21.64
36.651 21.6913
36.6981 21.6659
36.745 21.4994
36.7921 21.4527
36.839 21.3615
36.8861 21.306
36.9331 21.1901
36.9802 21.1148
37.0272 21.0234
37.0743 20.9697
37.1213 20.9006
37.1684 20.9136
37.2154 20.8193
37.2626 20.7517
37.3098 20.6918
37.3568 20.6072
37.404 20.6204
37.451 20.4307
37.4982 20.4713
37.5452 20.2712
37.5924 20.2689
37.6395 20.3554
37.6867 20.1857
37.7337 20.1514
37.781 20.0182
37.8281 20.028
37.8753 19.8621
37.9224 19.8221
37.9697 19.7646
38.0168 19.6605
38.064 19.622
38.1111 19.6104
38.1584 19.5261
38.2056 19.4724
38.2529 19.3823
38.3 19.3337
38.3473 19.3498
38.3945 19.063
38.4418 19.1724
38.489 19.1168
38.5363 19.0612
38.5837 18.9647
38.6309 18.9195
38.6782 18.8819
38.7254 18.8324
38.7728 18.7314
38.82 18.697
38.8674 18.6503
38.9146 18.5533
38.9621 18.445
39.0093 18.4661
39.0567 18.4164
39.104 18.3466
39.1514 18.2258
39.1987 18.2319
39.2461 18.1777
39.2934 18.1417
39.3409 18.0093
39.3882 18.0002
39.4356 17.9322
39.483 17.8534
39.5304 17.8244
39.5778 17.7204
39.6253 17.6911
39.6726 17.6524
39.7201 17.6292
39.7675 17.6313
39.815 17.4947
39.8624 17.3532
39.9099 17.4812
39.9575 17.2754
40.0049 17.2657
40.0525 17.184
40.0999 17.1678
40.1474 17.12
40.1949 17.0291
40.2425 17.0129
40.2899 16.8865
40.3375 16.9048
40.385 16.8031
40.4326 16.7451
40.48 16.7115
40.5277 16.6792
40.5752 16.638
40.6228 16.5904
40.6703 16.5234
40.718 16.4277
40.7655 16.4461
40.8132 16.392
40.8607 16.3459
40.9084 16.3111
40.9559 16.239
41.0036 16.1284
41.0512 16.0873
41.0989 16.0767
41.1465 15.9875
41.1942 15.9646
41.242 15.8707
41.2896 15.8271
41.3373 15.7975
41.3849 15.7174
41.4327 15.7017
41.4803 15.6335
41.5281 15.5989
41.5758 15.5086
41.6236 15.4477
41.6712 15.3733
41.7191 15.3655
41.7667 15.2947
41.8146 15.26
41.8622 15.2287
41.9101 15.1853
41.9578 15.048
42.0057 15.0654
42.0534 14.9997
42.1013 14.9998
42.149 14.8468
42.1969 14.841
42.2446 14.8097
42.2925 14.7552
42.3403 14.7034
42.3882 14.7059
42.436 14.6332
42.4839 14.6039
42.5319 14.5474
42.5797 14.5023
42.6277 14.4017
42.6755 14.4021
42.7235 14.2973
42.7713 14.2672
42.8193 14.2299
42.8671 14.1994
42.9152 14.1282
42.963 14.0889
43.0111 14.0552
43.0589 13.9882
43.107 13.9187
43.1549 13.8667
43.2029 13.8048
43.2508 13.8438
43.2989 13.7123
43.3468 13.7103
43.3949 13.6535
43.4429 13.6377
43.491 13.557
43.5389 13.4773
43.5871 13.4389
43.635 13.3727
43.6832 13.3813
43.7312 13.3491
43.7793 13.2965
43.8273 13.2242
43.8755 13.2022
43.9237 13.1503
43.9717 13.0754
44.0199 13.0446
44.068 13.057
44.1162 12.9225
44.1642 12.9511
44.2125 12.9034
44.2606 12.8178
44.3088 12.7605
44.3569 12.6909
44.4052 12.7475
44.4533 12.6595
44.5016 12.5604
44.5497 12.5507
44.598 12.5156
44.6461 12.5164
44.6945 12.4399
44.7426 12.446
44.791 12.3021
44.8391 12.3503
44.8875 12.2697
44.9357 12.2158
44.984 12.1846
45.0322 12.1414
45.0806 12.0543
45.1288 12.037
45.1773 11.9922
45.2257 11.9654
45.2739 11.9123
45.3224 11.9004
45.3706 11.831
45.4191 11.772
45.4673 11.7357
45.5158 11.6815
45.5641 11.6277
45.6126 11.6165
45.6609 11.5853
45.7094 11.5123
45.7577 11.4477
45.8063 11.4834
45.8546 11.4671
45.9031 11.3962
45.9515 11.3478
46.0001 11.3083
46.0484 11.2788
46.097 11.2463
46.1454 11.2382
46.194 11.1506
46.2424 11.1313
46.291 11.0891
46.3395 11.0494
46.3881 10.9813
46.4365 10.9748
46.4852 10.9117
46.5337 10.9216
46.5823 10.8121
46.631 10.7726
46.6795 10.7431
46.7282 10.6789
46.7767 10.6336
46.8254 10.6522
46.8739 10.5618
46.9226 10.5701
46.9712 10.5313
47.0199 10.5085
47.0685 10.4564
47.1173 10.3847
47.1658 10.3727
47.2146 10.3372
47.2632 10.2424
47.312 10.2665
47.3606 10.1808
47.4095 10.1835
47.4581 10.108
47.5069 10.0798
47.5556 10.0635
47.6044 9.99516
47.6531 9.94628
47.702 9.93711
47.7507 9.88827
47.7996 9.82974
47.8483 9.86077
47.8972 9.83588
47.9461 9.77855
47.9948 9.71805
48.0438 9.67913
48.0925 9.65291
48.1415 9.63214
48.1902 9.61798
48.2392 9.58494
48.288 9.52106
48.337 9.49161
48.3858 9.44356
48.4348 9.43679
48.4837 9.39785
48.5327 9.37279
48.5815 9.31165
48.6306 9.2858
48.6795 9.27925
48.7285 9.14639
48.7774 9.16806
48.8265 9.12987
48.8754 9.10706
48.9245 9.06757
48.9734 9.0566
49.0226 9.00308
49.0715 8.97541
49.1206 8.89649
49.1696 8.88557
49.2188 8.91816
49.2679 8.83147
49.3169 8.78147
49.3661 8.74851
49.4151 8.73059
49.4643 8.67498
49.5134 8.66855
49.5626 8.6286
49.6117 8.59459
49.6609 8.55501
49.71 8.5334
49.7592 8.48918
49.8083 8.48633
49.8576 8.44023
49.9067 8.4197
49.956 8.38633
50.0052 8.34078
50.0545 8.27942
50.1036 8.26472
50.153 8.24608
50.2022 8.22196
50.2515 8.15972
50.3007 8.11764
50.3501 8.12608
50.3993 8.06163
50.4487 8.04182
50.498 8.03194
50.5474 7.98988
50.5966 7.96385
50.6461 7.96359
50.6955 7.92217
50.7448 7.9024
50.7943 7.85549
50.8436 7.79563
50.8931 7.76711
50.9424 7.74054
50.9919 7.71617
51.0413 7.71611
51.0908 7.67834
51.1402 7.64419
51.1897 7.64829
51.2391 7.56218
51.2887 7.55768
51.3381 7.50999
51.3877 7.45291
51.4371 7.44098
51.4867 7.39035
51.5362 7.36322
51.5858 7.3618
51.6353 7.30654
51.6849 7.28733
51.7344 7.29659
51.7841 7.2747
51.8336 7.17641
51.8833 7.18618
51.9328 7.13207
51.9826 7.0964
52.0323 7.11289
52.0818 7.06773
52.1316 7.01768
52.1812 7.00785
52.231 6.96752
52.2806 6.96086
52.3304 6.93038
52.38 6.86529
52.4298 6.8874
52.4794 6.82702
52.5293 6.83803
52.5789 6.75699
52.6288 6.7475
52.6785 6.70546
52.7284 6.67628
52.7781 6.67624
52.828 6.62968
52.8777 6.61688
52.9276 6.59465
52.9774 6.54519
53.0273 6.53222
53.0771 6.53163
53.1271 6.50635
53.1769 6.42892
53.2269 6.44617
53.2767 6.40345
53.3267 6.35991
53.3765 6.34532
53.4266 6.36257
53.4766 6.28485
53.5265 6.25335
53.5765 6.22431
53.6264 6.2051
53.6765 6.18419
53.7264 6.12728
53.7765 6.13023
53.8265 6.07974
53.8766 6.11164
53.9266 6.02705
53.9767 5.98815
54.0267 5.98511
54.0769 5.93455
54.1269 5.95524
54.1771 5.89356
54.2271 5.9284
54.2773 5.83193
54.3274 5.83624
54.3776 5.76069
54.4277 5.7758
54.478 5.75989
54.528 5.64134
54.5783 5.61581
54.6285 5.61987
54.6788 5.53451
54.7289 5.52925
54.7792 5.53287
54.8296 5.40092
54.8798 5.4092
54.9301 5.36447
54.9803 5.29086
55.0307 5.3492
55.0809 5.26102
55.1314 5.25497
55.1816 5.16907
55.232 5.12114
55.2823 5.09921
55.3328 5.01668
55.383 5.00503
55.4335 4.9526
55.4838 4.88999
55.5344 4.85149
55.5847 4.75591
55.6352 4.83592
55.6856 4.74805
55.7361 4.68991