File: XRD/Ni3Fe_FD0931.xy
TT I
1.27165 7.34155
1.31627 6.9774
1.36089 6.55333
1.40551 5.73849
1.45013 6.21429
1.49476 5.89859
1.53938 5.82795
1.584 5.24253
1.62863 5.53946
1.67325 4.88384
1.71787 4.97327
1.7625 4.70411
1.80712 4.39414
1.85174 4.65619
1.89636 4.56124
1.94099 4.45684
1.98562 4.53862
2.03025 4.6114
2.07487 4.56787
2.11949 4.65645
2.16411 4.82576
2.20874 7.82945
2.25338 11.0332
2.298 5.97927
2.34263 5.04822
2.38725 6.48717
2.43188 6.44451
2.4765 6.92703
2.52115 6.94184
2.56577 7.91614
2.6104 8.87736
2.65503 8.13955
2.69965 8.69561
2.7443 8.43845
2.78893 8.81058
2.83356 8.76153
2.87818 9.23656
2.92281 9.30696
2.96744 9.71524
3.01209 10.05
3.05672 11.242
3.10135 12.0975
3.14599 12.9102
3.19062 14.682
3.23527 15.0734
3.2799 15.637
3.32454 17.042
3.36917 17.3142
3.4138 18.3075
3.45844 19.2082
3.50309 20.2372
3.54773 21.1218
3.59237 23.1976
3.637 45.6522
3.68164 34.7249
3.7263 25.2179
3.77094 25.5639
3.81558 26.188
3.86022 27.0499
3.90486 28.7303
3.9495 29.3837
3.99416 30.1374
4.0388 31.6117
4.08344 32.7498
4.12809 33.5179
4.17273 35.38
4.21738 38.1119
4.26204 108.572
4.30669 94.9286
4.35133 43.4907
4.39598 43.0238
4.44063 47.8353
4.4853 52.8143
4.52995 58.2169
4.5746 58.5524
4.61925 53.1573
4.6639 54.4895
4.70855 57.5809
4.75322 60.9814
4.79788 68.5641
4.84253 67.7318
4.88719 75.3799
4.93184 75.8074
4.97652 80.1695
5.02118 86.3105
5.06583 93.0309
5.11049 105.03
5.15515 153.399
5.19981 370.935
5.24449 2778.32
5.28916 13524.0
5.33382 2680.49
5.37848 194.38
5.42315 129.5
5.46783 119.847
5.5125 113.002
5.55716 101.476
5.60183 96.5022
5.6465 95.1301
5.69117 92.9225
5.73586 91.8005
5.78053 98.7562
5.8252 98.1413
5.86988 101.96
5.91455 93.5552
5.95924 102.264
6.00392 227.201
6.0486 910.265
6.09328 4662.26
6.13795 2979.78
6.18263 192.909
6.22733 87.6993
6.27201 78.875
6.3167 81.9179
6.36138 72.6682
6.40606 69.5245
6.45075 69.6965
6.49545 64.676
6.54014 62.5522
6.58483 61.9921
6.62952 62.5474
6.67421 70.7428
6.71892 84.4157
6.76361 61.1858
6.8083 59.1865
6.853 60.1809
6.89769 56.0441
6.94239 55.5999
6.98711 54.6652
7.03181 55.4588
7.07651 54.1164
7.12121 53.6181
7.16591 55.8012
7.21063 54.6987
7.25533 59.1588
7.30004 92.6172
7.34475 65.1993
7.38945 53.9325
7.43416 52.9411
7.47889 52.9599
7.5236 53.6057
7.56831 54.1674
7.61303 54.5483
7.65774 55.4676
7.70247 56.5984
7.74719 55.9317
7.79191 55.3397
7.83663 55.7421
7.88135 56.6568
7.92607 57.584
7.97081 58.8909
8.01553 60.1483
8.06026 61.8613
8.10498 63.491
8.14971 70.3832
8.19446 70.0229
8.23919 68.5628
8.28392 70.7645
8.32865 73.0346
8.37339 77.0779
8.41812 82.3531
8.46288 99.8864
8.50761 170.235
8.55235 364.179
8.59709 1207.52
8.64183 2216.79
8.68658 836.657
8.73134 139.448
8.77609 95.9865
8.82083 91.3326
8.86558 92.1384
8.91033 92.0248
8.9551 88.7574
8.99985 84.2949
9.04461 82.9382
9.08936 83.3463
9.13412 81.9111
9.17888 81.1177
9.22365 80.9933
9.26841 81.1263
9.31318 84.1927
9.35794 86.8047
9.4027 85.9869
9.44749 84.4369
9.49226 83.7915
9.53703 85.317
9.5818 88.6928
9.62657 94.3419
9.67134 94.5767
9.71614 91.9294
9.76091 93.649
9.80569 98.8037
9.85047 101.063
9.89525 109.856
9.94005 124.555
9.98484 183.347
10.0296 328.801
10.0744 825.279
10.1192 1853.05
10.164 1460.08
10.2088 324.637
10.2536 118.216
10.2984 107.19
10.3432 106.09
10.388 103.354
10.4328 119.084
10.4776 157.601
10.5224 288.442
10.5672 542.3
10.612 482.725
10.6568 177.151
10.7017 91.8711
10.7465 84.6598
10.7913 81.5504
10.8361 79.729
10.8809 77.7884
10.9257 77.1835
10.9706 77.3202
11.0154 74.4135
11.0602 71.7978
11.105 70.2835
11.1499 70.4449
11.1947 72.2287
11.2395 68.7164
11.2844 67.2143
11.3292 65.7996
11.374 64.7919
11.4189 64.3727
11.4637 63.6665
11.5086 63.6189
11.5534 64.2432
11.5983 63.3221
11.6431 62.277
11.688 61.7475
11.7328 61.5992
11.7777 61.5669
11.8225 61.7391
11.8674 61.8028
11.9122 61.6266
11.9571 62.1791
12.002 63.4755
12.0468 67.4385
12.0917 76.9542
12.1366 101.44
12.1814 159.596
12.2263 210.197
12.2712 153.393
12.3161 85.6136
12.3609 65.2964
12.4058 62.6961
12.4507 63.1068
12.4956 63.7849
12.5405 64.0042
12.5853 63.9566
12.6302 66.6356
12.6751 68.8403
12.72 66.6534
12.7649 66.3292
12.8098 67.3401
12.8547 69.0808
12.8996 70.6281
12.9445 72.1844
12.9894 73.7214
13.0343 74.8739
13.0792 79.1216
13.1242 91.1287
13.1691 108.73
13.214 145.271
13.2589 246.501
13.3038 392.41
13.3487 419.198
13.3937 228.262
13.4386 113.994
13.4835 104.14
13.5285 117.742
13.5734 157.608
13.6183 258.873
13.6633 369.891
13.7082 323.447
13.7531 165.538
13.7981 91.5737
13.843 80.2766
13.888 78.6298
13.9329 76.0532
13.9779 74.4791
14.0228 73.1142
14.0678 71.9054
14.1127 71.2212
14.1577 70.7669
14.2027 69.9875
14.2476 69.1627
14.2926 68.8045
14.3376 69.2191
14.3825 68.3786
14.4275 67.8429
14.4725 67.7702
14.5175 67.801
14.5624 68.0172
14.6074 68.5799
14.6524 69.0586
14.6974 69.5567
14.7424 72.5101
14.7874 78.2365
14.8324 87.1247
14.8774 110.601
14.9224 158.958
14.9674 219.833
15.0124 213.575
15.0574 136.731
15.1024 83.8535
15.1474 70.5029
15.1924 68.9985
15.2374 68.3206
15.2824 67.3571
15.3274 66.1267
15.3725 65.992
15.4175 65.2455
15.4625 64.5248
15.5076 64.6795
15.5526 64.8728
15.5976 64.5282
15.6426 66.9115
15.6877 71.6185
15.7327 78.5205
15.7778 93.9996
15.8228 128.179
15.8679 177.897
15.9129 195.766
15.958 145.344
16.003 86.9181
16.0481 64.6907
16.0931 61.7637
16.1382 60.3842
16.1833 59.0428
16.2283 57.5463
16.2734 57.0614
16.3185 56.8661
16.3636 56.6441
16.4086 55.7949
16.4537 55.0152
16.4988 54.4468
16.5439 54.4144
16.589 54.0161
16.6341 53.8167
16.6792 53.5448
16.7243 53.6829
16.7694 53.6309
16.8145 53.6859
16.8596 53.832
16.9047 54.4962
16.9498 54.6925
16.9949 54.4731
17.04 54.9423
17.0851 56.1612
17.1302 57.4319
17.1754 60.5045
17.2205 66.1507
17.2656 74.8879
17.3108 82.9694
17.3559 80.2754
17.401 67.6127
17.4462 60.2413
17.4913 58.1028
17.5365 58.0387
17.5815 58.1194
17.6268 58.569
17.6718 59.1595
17.7171 59.8032
17.7622 60.355
17.8074 61.5051
17.8525 64.1848
17.8977 67.1403
17.9428 72.4146
17.9881 81.68
18.0331 101.236
18.0784 126.24
18.1237 140.637
18.1688 125.761
18.214 96.6037
18.2591 83.7629
18.3044 90.6843
18.3495 101.79
18.3948 105.145
18.4399 90.6024
18.4852 72.6594
18.5303 63.7929
18.5756 60.9298
18.6207 60.1231
18.666 59.0974
18.7112 58.4867
18.7565 57.8974
18.8016 57.5766
18.8469 57.1153
18.892 56.7159
18.9374 56.1259
18.9825 55.9399
19.0278 55.7929
19.073 55.9313
19.1183 56.198
19.1635 56.7697
19.2088 58.0926
19.254 61.442
19.2993 66.156
19.3447 72.1029
19.3898 75.116
19.4352 68.9148
19.4804 60.2692
19.5257 55.1012
19.5709 52.9299
19.6163 52.835
19.6615 52.6938
19.7068 52.3662
19.752 52.2547
19.7974 52.793
19.8426 53.1529
19.888 53.9433
19.9332 55.1123
19.9786 57.968
20.0238 62.4228
20.0692 67.7535
20.1144 69.4644
20.1598 66.2675
20.205 61.6771
20.2504 61.5137
20.2957 64.0087
20.3411 65.2657
20.3863 62.2308
20.4318 56.2262
20.477 51.7532
20.5224 50.2213
20.5677 49.642
20.6131 49.1956
20.6586 48.7784
20.7038 48.519
20.7493 48.2004
20.7945 48.1064
20.84 48.061
20.8853 48.0858
20.9307 47.771
20.976 47.8742
21.0215 47.6135
21.0668 48.0685
21.1122 48.7344
21.1575 49.2383
21.203 50.034
21.2483 50.6252
21.2938 50.4975
21.3391 49.1452
21.3846 47.9083
21.4299 47.44
21.4754 47.6789
21.5207 47.7964
21.5662 48.1743
21.6116 48.4481
21.6571 48.8919
21.7024 50.0158
21.7479 51.7008
21.7933 54.9878
21.8388 58.8786
21.8843 63.1597
21.9297 64.1029
21.9752 61.1865
22.0206 57.4261
22.0661 55.4805
22.1115 55.4861
22.157 54.934
22.2024 52.7449
22.248 49.9913
22.2933 48.7845
22.3389 48.1364
22.3843 48.0312
22.4299 47.8249
22.4753 47.8717
22.5208 47.8617
22.5662 47.6403
22.6118 47.8303
22.6572 48.2161
22.7028 48.3919
22.7483 48.9662
22.7939 49.6745
22.8393 51.3306
22.8849 53.6621
22.9303 55.9835
22.9759 57.3294
23.0214 56.0716
23.067 52.5632
23.1126 49.4193
23.1581 48.015
23.2037 47.7753
23.2492 48.0383
23.2948 48.0131
23.3403 48.2547
23.3859 48.9804
23.4314 50.1473
23.477 52.2284
23.5225 54.6137
23.5682 56.9758
23.6137 57.1069
23.6593 53.7979
23.7048 49.8272
23.7505 46.8754
23.796 45.6491
23.8417 45.1305
23.8872 44.624
23.9329 44.4045
23.9784 43.9664
24.0241 43.8562
24.0697 43.6614
24.1154 43.3794
24.1609 43.1351
24.2066 42.9362
24.2522 42.9898
24.2979 42.7902
24.3434 42.5816
24.3892 42.3063
24.4349 42.3528
24.4805 42.2178
24.5262 42.4283
24.5718 42.3299
24.6175 42.2062
24.6631 42.0086
24.7089 41.6657
24.7545 41.5334
24.8002 41.5622
24.8458 41.4838
24.8916 41.3279
24.9372 41.5993
24.983 41.9184
25.0286 42.2331
25.0744 42.5428
25.12 43.1849
25.1658 43.7793
25.2114 44.063
25.2572 44.0817
25.3029 44.3418
25.3487 44.3688
25.3943 43.8427
25.4402 42.4686
25.4858 41.4805
25.5316 40.5765
25.5773 40.0504
25.6231 40.2088
25.669 39.8799
25.7147 39.7533
25.7605 39.654
25.8062 39.6757
25.8521 39.9226
25.8977 39.7811
25.9436 40.2112
25.9893 40.3982
26.0352 40.946
26.0809 40.9929
26.1268 41.1316
26.1725 40.5448
26.2184 39.902
26.2641 39.5058
26.31 39.4925
26.3557 39.4067
26.4017 39.404
26.4474 39.7762
26.4933 40.0764
26.5391 40.6681
26.585 41.1201
26.6308 41.559
26.6767 41.6209
26.7225 41.1752
26.7684 40.5558
26.8142 40.0946
26.8601 39.7317
26.9059 39.2304
26.9519 38.7462
26.9979 38.6312
27.0437 38.2586
27.0896 38.0414
27.1354 38.1465
27.1814 37.8983
27.2272 37.8174
27.2732 37.9208
27.3191 37.7271
27.3651 37.8531
27.4109 37.8351
27.4569 37.8966
27.5027 38.0146
27.5488 37.9872
27.5946 37.6514
27.6407 37.4335
27.6865 37.4071
27.7326 37.2141
27.7784 37.2216
27.8245 37.2665
27.8703 37.3229
27.9164 37.6892
27.9623 37.8329
28.0084 38.2481
28.0543 38.6577
28.1003 38.3417
28.1462 38.1761
28.1923 37.7401
28.2384 37.2246
28.2843 36.8364
28.3304 36.4282
28.3764 36.0038
28.4225 35.7563
28.4684 35.5647
28.5145 35.2557
28.5605 35.3416
28.6066 34.9813
28.6526 34.9748
28.6987 34.879
28.7447 34.8101
28.7908 34.7902
28.8368 34.8931
28.8829 34.8008
28.9289 34.7386
28.9751 34.5501
29.0211 34.1684
29.0673 34.0748
29.1133 33.9029
29.1595 33.8072
29.2055 33.727
29.2517 33.8307
29.2977 33.6026
29.3439 33.7466
29.3899 33.5805
29.4361 33.4878
29.4824 33.3299
29.5284 33.006
29.5746 32.8169
29.6207 32.5052
29.6669 32.4912
29.713 32.477
29.7593 32.2511
29.8053 32.3643
29.8516 32.1885
29.8977 32.2142
29.9439 32.0448
29.99 32.059
30.0363 31.9135
30.0824 31.8908
30.1287 31.8613
30.1748 31.8656
30.2211 31.8207
30.2673 31.6895
30.3136 31.7182
30.3597 31.6995
30.406 31.5972
30.4522 31.5623
30.4985 31.4302
30.5447 31.6194
30.591 31.5379
30.6372 31.724
30.6835 31.6979
30.7297 31.6237
30.7761 31.5696
30.8224 31.3592
30.8686 31.2894
30.915 31.1634
30.9612 30.9459
31.0076 30.8321
31.0538 30.6082
31.1002 30.5569
31.1464 30.3802
31.1928 30.3336
31.2391 30.3996
31.2855 30.2251
31.3317 30.3579
31.3781 30.4367
31.4244 30.365
31.4708 30.4219
31.5171 30.2916
31.5636 30.2477
31.6098 29.9037
31.6563 29.7518
31.7026 29.7039
31.7491 29.6533
31.7953 29.6853
31.8418 29.6614
31.8881 29.692
31.9346 29.6017
31.9809 29.544
32.0275 29.3861
32.074 29.2708
32.1203 29.0958
32.1668 29.0182
32.2132 28.8582
32.2597 28.6073
32.306 28.6947
32.3526 28.5667
32.399 28.3951
32.4455 28.309
32.4919 28.2211
32.5385 28.1634
32.5848 28.0219
32.6314 28.0036
32.6778 28.0062
32.7244 27.7551
32.7708 27.6472
32.8174 27.6046
32.8638 27.583
32.9104 27.6158
32.9569 27.4936
33.0035 27.3266
33.0499 27.365
33.0966 27.4152
33.143 27.3887
33.1897 27.2446
33.2361 27.1228
33.2828 27.1438
33.3293 26.9172
33.3759 26.8907
33.4226 26.8273
33.4691 26.5906
33.5158 26.5259
33.5623 26.4425
33.609 26.3155
33.6555 26.1902
33.7022 26.1045
33.7487 26.1016
33.7954 26.108
33.842 25.8354
33.8887 25.9193
33.9353 25.8458
33.982 25.6302
34.0286 25.6101
34.0753 25.5387
34.1219 25.4213
34.1687 25.4173
34.2152 25.3127
34.262 25.1836
34.3086 25.1234
34.3554 25.0482
34.402 24.9447
34.4488 24.8272
34.4954 24.7683
34.5422 24.6072
34.5889 24.6038
34.6357 24.5753
34.6825 24.562
34.7292 24.4213
34.776 24.3199
34.8227 24.2009
34.8695 24.2509
34.9162 24.175
34.9631 24.0716
35.0098 24.0866
35.0566 24.0126
35.1033 23.9184
35.1502 23.8233
35.1969 23.7555
35.2438 23.7036
35.2906 23.7372
35.3375 23.5788
35.3842 23.577
35.4311 23.5518
35.4779 23.511
35.5248 23.4896
35.5716 23.4078
35.6185 23.2531
35.6653 23.147
35.7123 23.1733
35.759 23.0636
35.806 22.9425
35.8528 22.7552
35.8998 22.7785
35.9468 22.7773
35.9936 22.6552
36.0406 22.5731
36.0874 22.5937
36.1345 22.5003
36.1813 22.4472
36.2283 22.3431
36.2752 22.2455
36.3222 22.2251
36.3691 22.1525
36.4161 22.0761
36.463 22.0681
36.5101 22.0802
36.557 21.9926
36.6041 21.7653
36.651 21.7835
36.6981 21.6944
36.745 21.6821
36.7921 21.6158
36.839 21.4955
36.8861 21.3735
36.9331 21.3282
36.9802 21.2854
37.0272 21.2597
37.0743 21.0821
37.1213 21.1516
37.1684 20.9837
37.2154 20.9989
37.2626 20.9037
37.3098 20.8283
37.3568 20.6789
37.404 20.7739
37.451 20.6532
37.4982 20.5348
37.5452 20.5024
37.5924 20.4826
37.6395 20.4315
37.6867 20.2926
37.7337 20.2468
37.781 20.1435
37.8281 20.1585
37.8753 20.0388
37.9224 19.916
37.9697 19.9282
38.0168 19.8882
38.064 19.7751
38.1111 19.7224
38.1584 19.6647
38.2056 19.6132
38.2529 19.6121
38.3 19.4696
38.3473 19.4307
38.3945 19.3271
38.4418 19.3164
38.489 19.2198
38.5363 19.1716
38.5837 19.1605
38.6309 19.0633
38.6782 19.0217
38.7254 18.914
38.7728 18.8952
38.82 18.8188
38.8674 18.7455
38.9146 18.7551
38.9621 18.6107
39.0093 18.5546
39.0567 18.5218
39.104 18.4642
39.1514 18.401
39.1987 18.3757
39.2461 18.327
39.2934 18.2341
39.3409 18.1463
39.3882 18.0544
39.4356 18.0367
39.483 17.9619
39.5304 17.9144
39.5778 17.9003
39.6253 17.7709
39.6726 17.7437
39.7201 17.7675
39.7675 17.5998
39.815 17.645
39.8624 17.5193
39.9099 17.4939
39.9575 17.4863
40.0049 17.3616
40.0525 17.3397
40.0999 17.3125
40.1474 17.2336
40.1949 17.1334
40.2425 17.0791
40.2899 17.085
40.3375 16.9852
40.385 16.943
40.4326 16.9075
40.48 16.7931
40.5277 16.8296
40.5752 16.7541
40.6228 16.6103
40.6703 16.65
40.718 16.5715
40.7655 16.4875
40.8132 16.4168
40.8607 16.4835
40.9084 16.3966
40.9559 16.2964
41.0036 16.2962
41.0512 16.203
41.0989 16.1655
41.1465 16.0948
41.1942 16.0339
41.242 15.9814
41.2896 15.9453
41.3373 15.8713
41.3849 15.8352
41.4327 15.7637
41.4803 15.6933
41.5281 15.6786
41.5758 15.6076
41.6236 15.5642
41.6712 15.4934
41.7191 15.446
41.7667 15.4344
41.8146 15.369
41.8622 15.3596
41.9101 15.2182
41.9578 15.1884
42.0057 15.1322
42.0534 15.1331
42.1013 15.0317
42.149 15.0424
42.1969 14.9852
42.2446 14.9007
42.2925 14.8733
42.3403 14.7516
42.3882 14.8012
42.436 14.7528
42.4839 14.6274
42.5319 14.5905
42.5797 14.5045
42.6277 14.5258
42.6755 14.4225
42.7235 14.3547
42.7713 14.4275
42.8193 14.2759
42.8671 14.2685
42.9152 14.2435
42.963 14.1646
43.0111 14.1016
43.0589 14.0712
43.107 13.9838
43.1549 14.0158
43.2029 13.9063
43.2508 13.8658
43.2989 13.8611
43.3468 13.7522
43.3949 13.6952
43.4429 13.7187
43.491 13.6265
43.5389 13.5871
43.5871 13.5259
43.635 13.4908
43.6832 13.4549
43.7312 13.374
43.7793 13.3629
43.8273 13.3554
43.8755 13.2246
43.9237 13.1963
43.9717 13.1997
44.0199 13.121
44.068 13.1137
44.1162 13.002
44.1642 12.9648
44.2125 12.9922
44.2606 12.888
44.3088 12.845
44.3569 12.794
44.4052 12.8
44.4533 12.7297
44.5016 12.637
44.5497 12.6252
44.598 12.5973
44.6461 12.5484
44.6945 12.5169
44.7426 12.4878
44.791 12.4056
44.8391 12.4155
44.8875 12.3078
44.9357 12.3035
44.984 12.2146
45.0322 12.2289
45.0806 12.1551
45.1288 12.1048
45.1773 12.0581
45.2257 12.0241
45.2739 11.9672
45.3224 11.9108
45.3706 11.8973
45.4191 11.8056
45.4673 11.8288
45.5158 11.7798
45.5641 11.7043
45.6126 11.6927
45.6609 11.6324
45.7094 11.59
45.7577 11.5348
45.8063 11.4836
45.8546 11.4945
45.9031 11.428
45.9515 11.4347
46.0001 11.312
46.0484 11.2692
46.097 11.3117
46.1454 11.2567
46.194 11.2114
46.2424 11.1518
46.291 11.0953
46.3395 11.0622
46.3881 11.0341
46.4365 10.9801
46.4852 10.9676
46.5337 10.9175
46.5823 10.9025
46.631 10.7858
46.6795 10.7804
46.7282 10.7758
46.7767 10.7072
46.8254 10.636
46.8739 10.6305
46.9226 10.5729
46.9712 10.566
47.0199 10.5463
47.0685 10.4845
47.1173 10.4117
47.1658 10.3962
47.2146 10.3807
47.2632 10.3296
47.312 10.2873
47.3606 10.2507
47.4095 10.1891
47.4581 10.1588
47.5069 10.1281
47.5556 10.1094
47.6044 10.0481
47.6531 9.98744
47.702 9.96203
47.7507 9.96397
47.7996 9.91128
47.8483 9.90423
47.8972 9.87093
47.9461 9.77081
47.9948 9.76907
48.0438 9.72666
48.0925 9.70437
48.1415 9.67331
48.1902 9.60888
48.2392 9.58866
48.288 9.56405
48.337 9.53836
48.3858 9.50103
48.4348 9.47348
48.4837 9.43934
48.5327 9.43142
48.5815 9.35614
48.6306 9.3267
48.6795 9.29242
48.7285 9.21044
48.7774 9.23073
48.8265 9.16864
48.8754 9.14467
48.9245 9.10087
48.9734 9.13071
49.0226 9.0629
49.0715 9.00603
49.1206 8.98889
49.1696 8.93332
49.2188 8.93111
49.2679 8.87061
49.3169 8.82864
49.3661 8.79943
49.4151 8.7608
49.4643 8.76614
49.5134 8.70303
49.5626 8.6284
49.6117 8.63653
49.6609 8.59849
49.71 8.54635
49.7592 8.55668
49.8083 8.52296
49.8576 8.49438
49.9067 8.44508
49.956 8.4325
50.0052 8.39149
50.0545 8.34049
50.1036 8.31981
50.153 8.28846
50.2022 8.29083
50.2515 8.21241
50.3007 8.14937
50.3501 8.13693
50.3993 8.10656
50.4487 8.09947
50.498 8.08404
50.5474 8.02363
50.5966 7.9798
50.6461 7.94962
50.6955 7.95473
50.7448 7.90293
50.7943 7.88664
50.8436 7.82391
50.8931 7.81827
50.9424 7.8017
50.9919 7.69939
51.0413 7.71533
51.0908 7.68992
51.1402 7.64585
51.1897 7.64195
51.2391 7.60186
51.2887 7.57014
51.3381 7.51181
51.3877 7.51406
51.4371 7.48115
51.4867 7.43899
51.5362 7.40581
51.5858 7.4307
51.6353 7.34494
51.6849 7.31847
51.7344 7.3015
51.7841 7.30141
51.8336 7.25735
51.8833 7.18807
51.9328 7.16524
51.9826 7.13667
52.0323 7.08029
52.0818 7.08312
52.1316 7.03178
52.1812 7.03765
52.231 6.95722
52.2806 6.97453
52.3304 6.94905
52.38 6.88946
52.4298 6.91485
52.4794 6.84312
52.5293 6.81213
52.5789 6.78944
52.6288 6.77851
52.6785 6.74528
52.7284 6.72037
52.7781 6.6661
52.828 6.66158
52.8777 6.64662
52.9276 6.61623
52.9774 6.58608
53.0273 6.51894
53.0771 6.50025
53.1271 6.52101
53.1769 6.43958
53.2269 6.42063
53.2767 6.43383
53.3267 6.39177
53.3765 6.37098
53.4266 6.33834
53.4766 6.30366
53.5265 6.27777
53.5765 6.23635
53.6264 6.25402
53.6765 6.22942
53.7264 6.16689
53.7765 6.12197
53.8265 6.12379
53.8766 6.11149
53.9266 6.06036
53.9767 6.03427
54.0267 5.97565
54.0769 5.9942
54.1269 5.93407
54.1771 5.91603
54.2271 5.89133
54.2773 5.88022
54.3274 5.85479
54.3776 5.78299
54.4277 5.76023
54.478 5.76165
54.528 5.70384
54.5783 5.64406
54.6285 5.65146
54.6788 5.61885
54.7289 5.56691
54.7792 5.49988
54.8296 5.45962
54.8798 5.39919
54.9301 5.33889
54.9803 5.36898
55.0307 5.35621
55.0809 5.24507
55.1314 5.31957
55.1816 5.18263
55.232 5.14529
55.2823 5.11281
55.3328 5.04596
55.383 5.02686
55.4335 4.94067
55.4838 4.93607
55.5344 4.87128
55.5847 4.83342
55.6352 4.8053
55.6856 4.76345
55.7361 4.75226