File: XRD/Ni3Fe_FD0437.xy
TT I
1.27165 7.18748
1.31627 7.2801
1.36089 6.8003
1.40551 6.45179
1.45013 5.61087
1.49476 5.77206
1.53938 6.06053
1.584 5.9002
1.62863 4.67161
1.67325 5.33488
1.71787 4.93502
1.7625 4.98666
1.80712 5.08323
1.85174 4.4158
1.89636 5.00066
1.94099 5.09214
1.98562 5.00875
2.03025 4.29855
2.07487 4.91427
2.11949 4.68196
2.16411 4.95964
2.20874 12.7321
2.25338 20.0674
2.298 5.23398
2.34263 4.58821
2.38725 5.76325
2.43188 5.59605
2.4765 5.9889
2.52115 6.44328
2.56577 6.84101
2.6104 8.04581
2.65503 6.99023
2.69965 7.79641
2.7443 7.71479
2.78893 8.13694
2.83356 8.07502
2.87818 8.49475
2.92281 8.64862
2.96744 9.41448
3.01209 10.8485
3.05672 11.3217
3.10135 11.8815
3.14599 12.7583
3.19062 14.6217
3.23527 14.6922
3.2799 15.946
3.32454 16.9501
3.36917 18.0401
3.4138 18.9809
3.45844 19.8534
3.50309 21.0735
3.54773 21.9368
3.59237 24.3721
3.637 81.9715
3.68164 52.724
3.7263 26.0846
3.77094 26.1385
3.81558 27.4776
3.86022 27.6189
3.90486 28.9849
3.9495 30.2496
3.99416 31.2775
4.0388 32.2669
4.08344 34.1999
4.12809 35.0044
4.17273 37.1251
4.21738 42.4305
4.26204 216.508
4.30669 183.967
4.35133 47.992
4.39598 44.6139
4.44063 53.507
4.4853 63.011
4.52995 51.3911
4.5746 52.0682
4.61925 54.4277
4.6639 55.8721
4.70855 58.9142
4.75322 62.2606
4.79788 64.9425
4.84253 68.3128
4.88719 73.2975
4.93184 77.3328
4.97652 82.7022
5.02118 89.4154
5.06583 98.6477
5.11049 110.971
5.15515 178.54
5.19981 454.237
5.24449 3283.12
5.28916 11721.2
5.33382 3127.61
5.37848 206.577
5.42315 134.455
5.46783 116.754
5.5125 108.839
5.55716 104.377
5.60183 100.551
5.6465 98.4566
5.69117 96.1621
5.73586 94.4654
5.78053 94.1724
5.8252 93.6531
5.86988 94.8048
5.91455 98.2963
5.95924 109.04
6.00392 253.882
6.0486 1127.73
6.09328 4246.99
6.13795 3417.79
6.18263 276.686
6.22733 97.3776
6.27201 84.7953
6.3167 99.5935
6.36138 79.9297
6.40606 70.1804
6.45075 67.8614
6.49545 66.4444
6.54014 64.9296
6.58483 63.7336
6.62952 63.7626
6.67421 89.1225
6.71892 130.588
6.76361 67.982
6.8083 59.2422
6.853 58.2814
6.89769 57.6137
6.94239 57.3443
6.98711 56.4189
7.03181 56.2386
7.07651 56.3489
7.12121 55.7476
7.16591 56.1587
7.21063 56.1166
7.25533 69.1606
7.30004 157.733
7.34475 85.6731
7.38945 57.148
7.43416 55.6334
7.47889 54.8838
7.5236 55.2114
7.56831 56.3466
7.61303 57.3808
7.65774 58.0203
7.70247 56.8677
7.74719 57.0229
7.79191 57.8816
7.83663 57.7995
7.88135 58.7231
7.92607 59.9891
7.97081 60.8888
8.01553 61.546
8.06026 63.1158
8.10498 64.9903
8.14971 73.3611
8.19446 72.2873
8.23919 70.9355
8.28392 73.0245
8.32865 75.5369
8.37339 80.3508
8.41812 87.3827
8.46288 114.844
8.50761 188.761
8.55235 444.294
8.59709 1224.07
8.64183 2142.13
8.68658 1028.49
8.73134 175.067
8.77609 101.711
8.82083 94.3087
8.86558 91.1529
8.91033 90.517
8.9551 91.9675
8.99985 86.7528
9.04461 85.158
9.08936 84.3225
9.13412 83.1414
9.17888 83.5403
9.22365 83.6501
9.26841 83.3825
9.31318 84.1353
9.35794 84.2372
9.4027 84.6008
9.44749 85.1276
9.49226 85.8369
9.53703 86.8857
9.5818 89.2028
9.62657 92.7691
9.67134 98.9189
9.71614 94.7559
9.76091 95.6956
9.80569 98.4797
9.85047 101.72
9.89525 123.866
9.94005 137.622
9.98484 200.068
10.0296 389.229
10.0744 848.704
10.1192 1711.01
10.164 1637.24
10.2088 430.774
10.2536 132.4
10.2984 115.09
10.3432 115.588
10.388 106.951
10.4328 125.672
10.4776 173.878
10.5224 290.037
10.5672 507.869
10.612 501.79
10.6568 207.935
10.7017 98.2325
10.7465 88.2154
10.7913 84.5218
10.8361 82.3113
10.8809 79.8347
10.9257 79.4511
10.9706 79.7019
11.0154 76.0683
11.0602 73.7996
11.105 72.9617
11.1499 76.3247
11.1947 82.5502
11.2395 74.4967
11.2844 71.017
11.3292 68.3846
11.374 67.1378
11.4189 66.4964
11.4637 65.9172
11.5086 66.2235
11.5534 68.2656
11.5983 66.5864
11.6431 64.561
11.688 64.0364
11.7328 63.9107
11.7777 63.7148
11.8225 63.4014
11.8674 63.378
11.9122 63.8189
11.9571 63.9645
12.002 64.7596
12.0468 70.4532
12.0917 83.0451
12.1366 107.441
12.1814 153.233
12.2263 204.075
12.2712 170.16
12.3161 96.7985
12.3609 70.7249
12.4058 65.5227
12.4507 65.2389
12.4956 65.2012
12.5405 65.2715
12.5853 66.561
12.6302 73.0441
12.6751 77.8825
12.72 70.5848
12.7649 68.902
12.8098 69.6848
12.8547 71.111
12.8996 72.2691
12.9445 73.303
12.9894 75.4495
13.0343 77.285
13.0792 80.8384
13.1242 92.7278
13.1691 119.324
13.214 158.974
13.2589 243.389
13.3038 361.333
13.3487 423.354
13.3937 269.627
13.4386 127.644
13.4835 110.996
13.5285 128.321
13.5734 166.606
13.6183 248.615
13.6633 340.924
13.7082 346.197
13.7531 194.129
13.7981 98.5659
13.843 82.9388
13.888 81.0043
13.9329 78.3258
13.9779 76.9539
14.0228 75.7064
14.0678 74.1723
14.1127 73.6127
14.1577 73.5247
14.2027 72.5241
14.2476 71.4107
14.2926 71.7313
14.3376 72.3954
14.3825 71.2362
14.4275 69.7853
14.4725 69.8808
14.5175 70.0326
14.5624 70.0844
14.6074 72.1665
14.6524 72.667
14.6974 71.6956
14.7424 73.9789
14.7874 82.4343
14.8324 93.7737
14.8774 115.349
14.9224 154.721
14.9674 202.463
15.0124 218.561
15.0574 152.998
15.1024 92.1453
15.1474 73.3626
15.1924 71.7083
15.2374 71.9065
15.2824 71.1305
15.3274 69.1336
15.3725 67.8583
15.4175 67.6231
15.4625 67.1352
15.5076 67.3211
15.5526 67.3843
15.5976 66.9059
15.6426 68.6305
15.6877 75.4106
15.7327 83.633
15.7778 99.3926
15.8228 128.181
15.8679 166.982
15.9129 192.519
15.958 159.01
16.003 97.2946
16.0481 68.9921
16.0931 65.1031
16.1382 63.3063
16.1833 61.6445
16.2283 59.9435
16.2734 59.2782
16.3185 59.1546
16.3636 59.8594
16.4086 58.3733
16.4537 57.1505
16.4988 56.5999
16.5439 56.2143
16.589 55.9848
16.6341 55.9255
16.6792 55.403
16.7243 55.8444
16.7694 55.8057
16.8145 55.5724
16.8596 56.0063
16.9047 57.4826
16.9498 57.7233
16.9949 56.6944
17.04 56.919
17.0851 58.3505
17.1302 60.0684
17.1754 63.3608
17.2205 67.939
17.2656 74.8978
17.3108 82.3981
17.3559 83.0068
17.401 72.3886
17.4462 63.1639
17.4913 60.1145
17.5365 60.2324
17.5815 60.2313
17.6268 60.5285
17.6718 61.3247
17.7171 61.7094
17.7622 62.5408
17.8074 63.2099
17.8525 66.1646
17.8977 70.6838
17.9428 76.4045
17.9881 85.4768
18.0331 101.472
18.0784 120.639
18.1237 139.326
18.1688 133.009
18.214 106.655
18.2591 88.5315
18.3044 91.4759
18.3495 100.282
18.3948 106.948
18.4399 97.826
18.4852 78.6138
18.5303 66.8667
18.5756 63.4315
18.6207 62.4058
18.666 61.407
18.7112 60.7418
18.7565 60.0582
18.8016 59.6975
18.8469 58.9758
18.892 58.7439
18.9374 58.1993
18.9825 58.0445
19.0278 57.901
19.073 57.9347
19.1183 58.6689
19.1635 59.4219
19.2088 60.7949
19.254 63.6272
19.2993 67.5831
19.3447 72.9385
19.3898 77.1425
19.4352 73.6614
19.4804 64.3686
19.5257 57.4082
19.5709 55.1997
19.6163 54.7919
19.6615 54.753
19.7068 54.2205
19.752 54.2566
19.7974 54.6605
19.8426 55.6853
19.888 56.2083
19.9332 57.4454
19.9786 59.9753
20.0238 63.3314
20.0692 67.918
20.1144 70.8413
20.1598 69.518
20.205 64.6412
20.2504 63.0031
20.2957 64.5381
20.3411 66.2774
20.3863 65.1114
20.4318 59.6337
20.477 54.5188
20.5224 52.3605
20.5677 51.8363
20.6131 51.3089
20.6586 50.549
20.7038 50.3682
20.7493 50.0957
20.7945 49.8929
20.84 49.6256
20.8853 49.3457
20.9307 49.3814
20.976 49.5017
21.0215 49.4667
21.0668 50.0115
21.1122 50.3307
21.1575 50.9602
21.203 51.6711
21.2483 52.1901
21.2938 52.2641
21.3391 50.8911
21.3846 49.8484
21.4299 49.41
21.4754 49.329
21.5207 49.4216
21.5662 49.8127
21.6116 50.264
21.6571 51.0519
21.7024 51.9947
21.7479 53.8646
21.7933 56.5486
21.8388 59.8677
21.8843 63.384
21.9297 65.5895
21.9752 64.4252
22.0206 60.5604
22.0661 57.4252
22.1115 56.649
22.157 56.9389
22.2024 55.3446
22.248 52.5078
22.2933 50.8263
22.3389 49.881
22.3843 49.8286
22.4299 49.6927
22.4753 49.7779
22.5208 49.4589
22.5662 49.5316
22.6118 49.7263
22.6572 49.764
22.7028 50.3433
22.7483 50.8198
22.7939 51.4922
22.8393 52.9304
22.8849 55.0593
22.9303 56.7966
22.9759 58.6235
23.0214 58.3663
23.067 55.4896
23.1126 52.0135
23.1581 50.1413
23.2037 49.7144
23.2492 49.8883
23.2948 49.8223
23.3403 50.0989
23.3859 50.8523
23.4314 52.0034
23.477 53.4769
23.5225 55.5272
23.5682 57.4321
23.6137 58.7809
23.6593 56.8595
23.7048 52.8087
23.7505 49.305
23.796 47.3748
23.8417 46.5883
23.8872 46.3565
23.9329 45.9131
23.9784 45.7741
24.0241 45.4196
24.0697 45.2115
24.1154 44.9693
24.1609 44.7667
24.2066 44.7613
24.2522 44.6425
24.2979 44.0979
24.3434 44.1051
24.3892 44.0024
24.4349 43.8147
24.4805 43.7081
24.5262 43.8441
24.5718 43.6301
24.6175 43.6316
24.6631 43.5333
24.7089 43.1962
24.7545 43.1354
24.8002 43.0187
24.8458 42.9835
24.8916 42.8791
24.9372 43.0539
24.983 43.3834
25.0286 43.73
25.0744 44.0475
25.12 44.4656
25.1658 45.189
25.2114 45.4085
25.2572 45.4791
25.3029 45.3344
25.3487 45.4509
25.3943 45.4548
25.4402 44.2791
25.4858 43.3038
25.5316 42.2296
25.5773 41.706
25.6231 41.6417
25.669 41.2659
25.7147 41.1783
25.7605 41.1945
25.8062 41.31
25.8521 41.4464
25.8977 41.2606
25.9436 41.678
25.9893 41.6615
26.0352 42.0945
26.0809 42.1543
26.1268 42.5593
26.1725 42.1056
26.2184 41.5574
26.2641 41.2501
26.31 40.9183
26.3557 40.8866
26.4017 40.8147
26.4474 41.1873
26.4933 41.5524
26.5391 41.9777
26.585 42.2402
26.6308 42.7354
26.6767 42.8562
26.7225 42.6948
26.7684 42.2572
26.8142 41.5721
26.8601 41.1072
26.9059 40.725
26.9519 40.2314
26.9979 39.8064
27.0437 39.6029
27.0896 39.5512
27.1354 39.4704
27.1814 39.3546
27.2272 39.2875
27.2732 39.2545
27.3191 39.0716
27.3651 39.1087
27.4109 39.0992
27.4569 39.1557
27.5027 39.1275
27.5488 39.3496
27.5946 39.0542
27.6407 38.8056
27.6865 38.7822
27.7326 38.5219
27.7784 38.7086
27.8245 38.3823
27.8703 38.7561
27.9164 38.9703
27.9623 39.0562
28.0084 39.4436
28.0543 39.6563
28.1003 39.6096
28.1462 39.4551
28.1923 39.0819
28.2384 38.568
28.2843 38.2817
28.3304 37.8356
28.3764 37.3564
28.4225 36.9675
28.4684 36.9245
28.5145 36.6017
28.5605 36.5431
28.6066 36.2548
28.6526 36.3802
28.6987 36.3682
28.7447 36.1139
28.7908 35.9357
28.8368 36.0955
28.8829 36.0317
28.9289 35.9538
28.9751 35.8037
29.0211 35.5478
29.0673 35.2996
29.1133 35.1495
29.1595 34.9921
29.2055 34.9001
29.2517 34.9233
29.2977 34.9436
29.3439 34.8682
29.3899 34.7631
29.4361 34.6744
29.4824 34.4055
29.5284 34.3503
29.5746 34.0015
29.6207 33.7693
29.6669 33.7057
29.713 33.5275
29.7593 33.4496
29.8053 33.5132
29.8516 33.3425
29.8977 33.3543
29.9439 33.1332
29.99 33.1652
30.0363 33.1061
30.0824 33.1784
30.1287 32.9457
30.1748 32.912
30.2211 32.9818
30.2673 32.7725
30.3136 32.8607
30.3597 32.7966
30.406 32.8236
30.4522 32.5755
30.4985 32.6014
30.5447 32.6706
30.591 32.7337
30.6372 32.8499
30.6835 32.7571
30.7297 32.7763
30.7761 32.6998
30.8224 32.4954
30.8686 32.4954
30.915 32.1703
30.9612 32.066
31.0076 31.7231
31.0538 31.7164
31.1002 31.5881
31.1464 31.428
31.1928 31.5995
31.2391 31.4785
31.2855 31.4547
31.3317 31.38
31.3781 31.4787
31.4244 31.4393
31.4708 31.2585
31.5171 31.3971
31.5636 31.269
31.6098 31.0392
31.6563 30.8958
31.7026 30.8476
31.7491 30.7001
31.7953 30.6765
31.8418 30.6857
31.8881 30.7033
31.9346 30.6599
31.9809 30.5733
32.0275 30.4601
32.074 30.3155
32.1203 30.0326
32.1668 30.031
32.2132 29.8983
32.2597 29.8123
32.306 29.7263
32.3526 29.5374
32.399 29.4465
32.4455 29.2087
32.4919 29.239
32.5385 29.2431
32.5848 28.9838
32.6314 29.1024
32.6778 28.9323
32.7244 28.7324
32.7708 28.6182
32.8174 28.6181
32.8638 28.4793
32.9104 28.6212
32.9569 28.4971
33.0035 28.3778
33.0499 28.3085
33.0966 28.3566
33.143 28.2788
33.1897 28.1493
33.2361 28.1151
33.2828 27.9861
33.3293 27.8508
33.3759 27.8661
33.4226 27.6449
33.4691 27.5712
33.5158 27.5278
33.5623 27.3688
33.609 27.2566
33.6555 27.0976
33.7022 27.0306
33.7487 26.9218
33.7954 26.8776
33.842 26.8283
33.8887 26.7725
33.9353 26.7826
33.982 26.6411
34.0286 26.4782
34.0753 26.4639
34.1219 26.3563
34.1687 26.2433
34.2152 26.2143
34.262 26.0753
34.3086 26.0601
34.3554 25.9188
34.402 25.8475
34.4488 25.7496
34.4954 25.6785
34.5422 25.6259
34.5889 25.5464
34.6357 25.3837
34.6825 25.346
34.7292 25.3339
34.776 25.1837
34.8227 25.1312
34.8695 25.05
34.9162 25.0615
34.9631 24.9775
35.0098 24.9404
35.0566 24.7841
35.1033 24.7184
35.1502 24.7353
35.1969 24.6712
35.2438 24.5497
35.2906 24.4969
35.3375 24.4409
35.3842 24.4756
35.4311 24.2435
35.4779 24.3739
35.5248 24.273
35.5716 24.1471
35.6185 24.1075
35.6653 24.0483
35.7123 23.9784
35.759 23.8853
35.806 23.7486
35.8528 23.6965
35.8998 23.5879
35.9468 23.4605
35.9936 23.4526
36.0406 23.4044
36.0874 23.4407
36.1345 23.2395
36.1813 23.25
36.2283 23.1315
36.2752 23.0018
36.3222 23.0602
36.3691 23.0165
36.4161 22.8069
36.463 22.8721
36.5101 22.8014
36.557 22.7582
36.6041 22.5039
36.651 22.5205
36.6981 22.5433
36.745 22.482
36.7921 22.3025
36.839 22.226
36.8861 22.2022
36.9331 22.1707
36.9802 22.0353
37.0272 21.9594
37.0743 21.9044
37.1213 21.8753
37.1684 21.7781
37.2154 21.6744
37.2626 21.5996
37.3098 21.5664
37.3568 21.5766
37.404 21.446
37.451 21.3178
37.4982 21.3117
37.5452 21.1782
37.5924 21.1555
37.6395 21.1755
37.6867 21.0722
37.7337 20.9569
37.781 20.868
37.8281 20.8604
37.8753 20.7697
37.9224 20.6656
37.9697 20.5874
38.0168 20.5763
38.064 20.4606
38.1111 20.4621
38.1584 20.4084
38.2056 20.2708
38.2529 20.3029
38.3 20.1785
38.3473 20.1316
38.3945 20.0256
38.4418 19.9319
38.489 19.9358
38.5363 19.8596
38.5837 19.7312
38.6309 19.7783
38.6782 19.7246
38.7254 19.6112
38.7728 19.5881
38.82 19.4315
38.8674 19.4241
38.9146 19.4401
38.9621 19.3313
39.0093 19.2478
39.0567 19.1906
39.104 19.071
39.1514 19.0107
39.1987 19.0325
39.2461 18.9012
39.2934 18.9319
39.3409 18.7527
39.3882 18.6679
39.4356 18.6422
39.483 18.6233
39.5304 18.5486
39.5778 18.5547
39.6253 18.4578
39.6726 18.4575
39.7201 18.4144
39.7675 18.3068
39.815 18.2342
39.8624 18.1187
39.9099 18.1691
39.9575 18.024
40.0049 18.0033
40.0525 17.9646
40.0999 17.8545
40.1474 17.8291
40.1949 17.7837
40.2425 17.6423
40.2899 17.6232
40.3375 17.6381
40.385 17.5605
40.4326 17.4551
40.48 17.3887
40.5277 17.364
40.5752 17.2741
40.6228 17.2405
40.6703 17.212
40.718 17.1425
40.7655 17.0489
40.8132 17.0202
40.8607 17.0394
40.9084 16.9481
40.9559 16.9092
41.0036 16.87
41.0512 16.7788
41.0989 16.7769
41.1465 16.657
41.1942 16.6303
41.242 16.5424
41.2896 16.4625
41.3373 16.3961
41.3849 16.3987
41.4327 16.4049
41.4803 16.2167
41.5281 16.1863
41.5758 16.1308
41.6236 16.0914
41.6712 16.0293
41.7191 15.9616
41.7667 15.9384
41.8146 15.8843
41.8622 15.8493
41.9101 15.79
41.9578 15.713
42.0057 15.6714
42.0534 15.6218
42.1013 15.5936
42.149 15.5139
42.1969 15.4317
42.2446 15.4083
42.2925 15.3616
42.3403 15.3076
42.3882 15.3131
42.436 15.2964
42.4839 15.198
42.5319 15.1359
42.5797 15.0931
42.6277 15.0094
42.6755 14.9251
42.7235 14.8926
42.7713 14.8671
42.8193 14.8882
42.8671 14.7633
42.9152 14.7157
42.963 14.654
43.0111 14.5939
43.0589 14.5536
43.107 14.5154
43.1549 14.4963
43.2029 14.371
43.2508 14.3707
43.2989 14.3412
43.3468 14.2489
43.3949 14.292
43.4429 14.138
43.491 14.1029
43.5389 14.0729
43.5871 13.9978
43.635 13.9822
43.6832 13.9167
43.7312 13.8762
43.7793 13.8043
43.8273 13.7814
43.8755 13.7571
43.9237 13.711
43.9717 13.6197
44.0199 13.5925
44.068 13.4858
44.1162 13.4856
44.1642 13.5071
44.2125 13.4359
44.2606 13.3576
44.3088 13.2928
44.3569 13.2879
44.4052 13.2253
44.4533 13.2212
44.5016 13.125
44.5497 13.1138
44.598 13.0299
44.6461 12.9577
44.6945 12.898
44.7426 12.8833
44.791 12.8218
44.8391 12.828
44.8875 12.7882
44.9357 12.7053
44.984 12.6588
45.0322 12.5732
45.0806 12.5901
45.1288 12.4966
45.1773 12.4856
45.2257 12.4873
45.2739 12.3988
45.3224 12.3476
45.3706 12.3054
45.4191 12.1748
45.4673 12.2291
45.5158 12.2421
45.5641 12.1204
45.6126 12.1018
45.6609 12.0544
45.7094 12.0317
45.7577 11.9727
45.8063 11.8901
45.8546 11.8881
45.9031 11.8445
45.9515 11.767
46.0001 11.7796
46.0484 11.7452
46.097 11.6201
46.1454 11.6642
46.194 11.6214
46.2424 11.5334
46.291 11.5038
46.3395 11.4572
46.3881 11.3871
46.4365 11.4183
46.4852 11.3472
46.5337 11.3047
46.5823 11.4401
46.631 11.1974
46.6795 11.1842
46.7282 11.1422
46.7767 11.0846
46.8254 11.0332
46.8739 10.9818
46.9226 10.9832
46.9712 10.9193
47.0199 10.8752
47.0685 10.8998
47.1173 10.8067
47.1658 10.7522
47.2146 10.7704
47.2632 10.6975
47.312 10.6427
47.3606 10.6153
47.4095 10.5415
47.4581 10.525
47.5069 10.5018
47.5556 10.4683
47.6044 10.4075
47.6531 10.363
47.702 10.3093
47.7507 10.2996
47.7996 10.2637
47.8483 10.2207
47.8972 10.2193
47.9461 10.1811
47.9948 10.1196
48.0438 10.0737
48.0925 10.053
48.1415 10.016
48.1902 9.9821
48.2392 9.94304
48.288 9.91996
48.337 9.87538
48.3858 9.83437
48.4348 9.79844
48.4837 9.78855
48.5327 9.75739
48.5815 9.70076
48.6306 9.68438
48.6795 9.66202
48.7285 9.57564
48.7774 9.55575
48.8265 9.53089
48.8754 9.46293
48.9245 9.43906
48.9734 9.40159
49.0226 9.37928
49.0715 9.29013
49.1206 9.26684
49.1696 9.2728
49.2188 9.21407
49.2679 9.17688
49.3169 9.10492
49.3661 9.10469
49.4151 9.10766
49.4643 9.07447
49.5134 9.01323
49.5626 8.93847
49.6117 8.9549
49.6609 8.91162
49.71 8.87026
49.7592 8.87807
49.8083 8.79256
49.8576 8.76319
49.9067 8.75264
49.956 8.69526
50.0052 8.64898
50.0545 8.64833
50.1036 8.58953
50.153 8.53634
50.2022 8.52241
50.2515 8.50554
50.3007 8.45716
50.3501 8.4289
50.3993 8.40428
50.4487 8.3787
50.498 8.35497
50.5474 8.3294
50.5966 8.27133
50.6461 8.30051
50.6955 8.20651
50.7448 8.18267
50.7943 8.18333
50.8436 8.12151
50.8931 8.09122
50.9424 8.06582
50.9919 8.02774
51.0413 7.99277
51.0908 7.97981
51.1402 7.91025
51.1897 7.90332
51.2391 7.89565
51.2887 7.81704
51.3381 7.7945
51.3877 7.78691
51.4371 7.74411
51.4867 7.6971
51.5362 7.68143
51.5858 7.66117
51.6353 7.594
51.6849 7.5967
51.7344 7.52197
51.7841 7.54306
51.8336 7.52647
51.8833 7.46055
51.9328 7.43842
51.9826 7.39835
52.0323 7.37582
52.0818 7.32541
52.1316 7.24444
52.1812 7.29271
52.231 7.25561
52.2806 7.20625
52.3304 7.20184
52.38 7.13489
52.4298 7.09121
52.4794 7.12135
52.5293 7.04155
52.5789 7.01193
52.6288 7.0214
52.6785 7.00218
52.7284 6.93093
52.7781 6.96217
52.828 6.89815
52.8777 6.86975
52.9276 6.83921
52.9774 6.77359
53.0273 6.79306
53.0771 6.74972
53.1271 6.729
53.1769 6.69982
53.2269 6.67993
53.2767 6.65254
53.3267 6.58631
53.3765 6.5743
53.4266 6.51476
53.4766 6.51725
53.5265 6.46096
53.5765 6.49828
53.6264 6.42346
53.6765 6.38984
53.7264 6.38517
53.7765 6.38563
53.8265 6.32604
53.8766 6.28776
53.9266 6.25775
53.9767 6.19968
54.0267 6.2321
54.0769 6.222
54.1269 6.1737
54.1771 6.0958
54.2271 6.09855
54.2773 6.06474
54.3274 6.05073
54.3776 6.01897
54.4277 6.00366
54.478 5.94726
54.528 5.87309
54.5783 5.84615
54.6285 5.84515
54.6788 5.8003
54.7289 5.74757
54.7792 5.69602
54.8296 5.59535
54.8798 5.59328
54.9301 5.57678
54.9803 5.57214
55.0307 5.53629
55.0809 5.48623
55.1314 5.42559
55.1816 5.37445
55.232 5.3701
55.2823 5.30866
55.3328 5.16584
55.383 5.19452
55.4335 5.14525
55.4838 5.09898
55.5344 5.05442
55.5847 5.00407
55.6352 4.9626
55.6856 4.97866
55.7361 4.96655