File: XRD/Ni3Fe_FD0072.xy
TT I
1.27165 22.0504
1.31627 20.3236
1.36089 19.7454
1.40551 17.9387
1.45013 17.3078
1.49476 16.3663
1.53938 15.8709
1.584 15.2447
1.62863 14.7227
1.67325 13.7551
1.71787 14.23
1.7625 13.4751
1.80712 12.5937
1.85174 12.7507
1.89636 12.1595
1.94099 13.2191
1.98562 12.2434
2.03025 12.7049
2.07487 12.1889
2.11949 12.5233
2.16411 12.1729
2.20874 12.491
2.25338 12.1387
2.298 11.9014
2.34263 12.2897
2.38725 12.197
2.43188 12.2068
2.4765 12.5677
2.52115 12.1537
2.56577 12.4873
2.6104 13.2591
2.65503 13.3984
2.69965 14.232
2.7443 14.5225
2.78893 16.3591
2.83356 17.9355
2.87818 19.1823
2.92281 22.6582
2.96744 25.2354
3.01209 28.944
3.05672 33.0513
3.10135 36.2071
3.14599 37.0201
3.19062 35.2304
3.23527 32.2544
3.2799 28.577
3.32454 25.8486
3.36917 23.7256
3.4138 22.3224
3.45844 22.1362
3.50309 21.3728
3.54773 21.0333
3.59237 20.7097
3.637 21.3199
3.68164 21.5783
3.7263 22.0793
3.77094 21.8972
3.81558 22.8503
3.86022 23.0896
3.90486 24.0343
3.9495 24.5629
3.99416 25.4798
4.0388 26.3547
4.08344 27.5143
4.12809 28.1898
4.17273 29.0597
4.21738 30.9517
4.26204 32.212
4.30669 34.3419
4.35133 36.7077
4.39598 37.0681
4.44063 36.9614
4.4853 38.4688
4.52995 40.1633
4.5746 41.48
4.61925 43.3885
4.6639 45.6013
4.70855 48.3877
4.75322 51.4949
4.79788 54.7204
4.84253 58.9156
4.88719 64.9491
4.93184 72.0229
4.97652 84.2019
5.02118 101.603
5.06583 119.73
5.11049 146.262
5.15515 208.371
5.19981 498.037
5.24449 1444.37
5.28916 2537.55
5.33382 5368.61
5.37848 2107.74
5.42315 462.142
5.46783 224.25
5.5125 161.693
5.55716 134.298
5.60183 117.293
5.6465 109.322
5.69117 104.567
5.73586 100.807
5.78053 100.957
5.8252 102.61
5.86988 110.01
5.91455 124.981
5.95924 158.2
6.00392 279.514
6.0486 593.253
6.09328 821.723
6.13795 1633.34
6.18263 1095.93
6.22733 333.684
6.27201 156.388
6.3167 103.346
6.36138 80.3444
6.40606 68.0611
6.45075 61.9812
6.49545 56.7882
6.54014 53.5493
6.58483 51.2644
6.62952 49.2374
6.67421 47.2591
6.71892 45.9525
6.76361 45.4148
6.8083 44.0183
6.853 43.6647
6.89769 43.1059
6.94239 43.2002
6.98711 42.5002
7.03181 43.3156
7.07651 43.5432
7.12121 43.1806
7.16591 42.4253
7.21063 41.4433
7.25533 40.9639
7.30004 40.6581
7.34475 40.9928
7.38945 41.5194
7.43416 42.0014
7.47889 45.3296
7.5236 71.8908
7.56831 180.523
7.61303 104.777
7.65774 50.4816
7.70247 43.5773
7.74719 42.5558
7.79191 42.441
7.83663 41.6931
7.88135 42.5996
7.92607 43.1772
7.97081 43.6886
8.01553 44.2416
8.06026 45.3669
8.10498 46.3652
8.14971 47.6044
8.19446 49.4302
8.23919 51.8554
8.28392 54.6302
8.32865 57.5508
8.37339 61.9024
8.41812 68.1276
8.46288 82.1161
8.50761 128.582
8.55235 261.595
8.59709 272.784
8.64183 399.382
8.68658 920.316
8.73134 688.644
8.77609 219.141
8.82083 117.838
8.86558 89.9745
8.91033 79.0072
8.9551 73.5685
8.99985 70.7604
9.04461 68.9375
9.08936 68.139
9.13412 68.5428
9.17888 73.3134
9.22365 113.737
9.26841 291.461
9.31318 198.121
9.35794 83.1408
9.4027 68.3492
9.44749 65.3668
9.49226 64.5514
9.53703 64.0372
9.5818 64.3395
9.62657 64.8275
9.67134 65.6554
9.71614 67.3395
9.76091 68.8088
9.80569 71.468
9.85047 74.5057
9.89525 80.4705
9.94005 92.0186
9.98484 132.183
10.0296 243.93
10.0744 247.764
10.1192 267.828
10.164 581.928
10.2088 902.441
10.2536 430.557
10.2984 164.011
10.3432 110.375
10.388 92.0565
10.4328 94.245
10.4776 121.517
10.5224 117.102
10.5672 115.119
10.612 189.135
10.6568 309.973
10.7017 231.869
10.7465 128.45
10.7913 75.8622
10.8361 63.5261
10.8809 59.0003
10.9257 56.1873
10.9706 54.8512
11.0154 52.887
11.0602 51.5964
11.105 50.6611
11.1499 49.5135
11.1947 49.0633
11.2395 47.9388
11.2844 47.5097
11.3292 46.8175
11.374 46.1818
11.4189 45.9398
11.4637 45.414
11.5086 44.808
11.5534 44.5258
11.5983 44.6958
11.6431 44.4297
11.688 44.2901
11.7328 44.3676
11.7777 44.6765
11.8225 44.955
11.8674 46.1592
11.9122 52.7364
11.9571 84.1933
12.002 99.2062
12.0468 65.6655
12.0917 58.6827
12.1366 59.3203
12.1814 57.218
12.2263 63.5738
12.2712 86.8203
12.3161 106.803
12.3609 77.9072
12.4058 56.3398
12.4507 49.3303
12.4956 46.8298
12.5405 45.7465
12.5853 45.4125
12.6302 44.9054
12.6751 45.068
12.72 45.4243
12.7649 46.0451
12.8098 46.495
12.8547 47.0244
12.8996 48.1078
12.9445 49.0275
12.9894 50.7321
13.0343 52.0226
13.0792 58.2527
13.1242 70.9288
13.1691 83.165
13.214 93.1454
13.2589 84.8027
13.3038 86.0426
13.3487 117.073
13.3937 197.739
13.4386 217.749
13.4835 133.924
13.5285 104.887
13.5734 97.5226
13.6183 84.5009
13.6633 88.0113
13.7082 125.617
13.7531 198.014
13.7981 178.815
13.843 95.8317
13.888 68.1393
13.9329 59.6023
13.9779 56.4822
14.0228 54.7982
14.0678 54.1225
14.1127 57.8977
14.1577 79.8274
14.2027 92.715
14.2476 66.4048
14.2926 52.5767
14.3376 49.8475
14.3825 48.931
14.4275 48.0939
14.4725 47.7806
14.5175 47.7296
14.5624 47.5009
14.6074 47.5914
14.6524 47.5898
14.6974 48.1993
14.7424 49.2661
14.7874 53.3165
14.8324 61.4667
14.8774 62.891
14.9224 59.348
14.9674 61.342
15.0124 74.6296
15.0574 108.575
15.1024 124.403
15.1474 87.3246
15.1924 63.2202
15.2374 53.3827
15.2824 49.3829
15.3274 47.5387
15.3725 46.4973
15.4175 46.072
15.4625 45.7518
15.5076 45.5627
15.5526 45.505
15.5976 45.7238
15.6426 46.6032
15.6877 49.3784
15.7327 55.8633
15.7778 57.6839
15.8228 54.288
15.8679 54.8899
15.9129 61.9146
15.958 85.1148
16.003 112.193
16.0481 98.9566
16.0931 74.9138
16.1382 58.6578
16.1833 48.1702
16.2283 43.8547
16.2734 42.0678
16.3185 41.0691
16.3636 40.2555
16.4086 39.3569
16.4537 39.0032
16.4988 38.6516
16.5439 38.4996
16.589 38.1378
16.6341 37.8993
16.6792 37.6906
16.7243 37.6576
16.7694 37.6936
16.8145 37.6108
16.8596 37.9189
16.9047 39.1128
16.9498 42.6253
16.9949 43.3699
17.04 40.4335
17.0851 39.3341
17.1302 40.2878
17.1754 41.0407
17.2205 40.3832
17.2656 40.1264
17.3108 41.3484
17.3559 43.6581
17.401 49.6224
17.4462 53.3012
17.4913 47.8892
17.5365 42.6057
17.5815 40.8883
17.6268 40.598
17.6718 40.8512
17.7171 41.4869
17.7622 43.8035
17.8074 46.9054
17.8525 46.2202
17.8977 46.5502
17.9428 50.0595
17.9881 49.7171
18.0331 48.3019
18.0784 48.6854
18.1237 52.7178
18.1688 63.6154
18.214 83.5843
18.2591 87.4585
18.3044 67.5626
18.3495 54.447
18.3948 52.1817
18.4399 56.8581
18.4852 65.8484
18.5303 64.7995
18.5756 54.7803
18.6207 48.9642
18.666 44.8933
18.7112 42.5068
18.7565 41.4096
18.8016 41.0271
18.8469 40.4368
18.892 40.1217
18.9374 39.5769
18.9825 39.4171
19.0278 39.1416
19.073 39.3186
19.1183 39.3469
19.1635 40.0034
19.2088 40.5774
19.254 40.6384
19.2993 41.5234
19.3447 45.2494
19.3898 47.3841
19.4352 46.0771
19.4804 47.4634
19.5257 47.9988
19.5709 43.6069
19.6163 39.761
19.6615 38.2258
19.7068 37.3103
19.752 36.9932
19.7974 36.8194
19.8426 37.0289
19.888 37.6531
19.9332 37.9062
19.9786 37.5837
20.0238 37.0048
20.0692 37.5521
20.1144 38.8276
20.1598 41.3174
20.205 44.0845
20.2504 45.4355
20.2957 42.0115
20.3411 39.2587
20.3863 39.2214
20.4318 41.5981
20.477 43.1629
20.5224 40.5166
20.5677 37.2394
20.6131 35.6508
20.6586 34.8657
20.7038 34.6407
20.7493 34.869
20.7945 35.8769
20.84 36.3238
20.8853 35.0562
20.9307 34.006
20.976 33.6527
21.0215 33.4694
21.0668 33.4967
21.1122 33.4101
21.1575 33.2417
21.203 33.3002
21.2483 33.051
21.2938 33.6998
21.3391 33.9259
21.3846 34.7623
21.4299 34.5974
21.4754 34.0953
21.5207 33.8035
21.5662 33.6669
21.6116 33.5814
21.6571 33.8594
21.7024 34.5413
21.7479 34.5304
21.7933 34.2759
21.8388 34.59
21.8843 35.1129
21.9297 35.8319
21.9752 37.5042
22.0206 40.5516
22.0661 42.3097
22.1115 40.5538
22.157 38.5418
22.2024 38.2045
22.248 38.2325
22.2933 37.7209
22.3389 36.0427
22.3843 34.7483
22.4299 33.7881
22.4753 33.6222
22.5208 33.2484
22.5662 33.2453
22.6118 33.2887
22.6572 33.1585
22.7028 33.6616
22.7483 34.2132
22.7939 34.4107
22.8393 34.4297
22.8849 34.1093
22.9303 33.8316
22.9759 34.1158
23.0214 34.6941
23.067 36.6313
23.1126 38.567
23.1581 38.2939
23.2037 36.0731
23.2492 34.5934
23.2948 33.9809
23.3403 34.126
23.3859 34.5452
23.4314 34.7853
23.477 34.555
23.5225 34.1627
23.5682 33.8959
23.6137 34.121
23.6593 35.0419
23.7048 37.0912
23.7505 38.3949
23.796 37.0371
23.8417 34.3684
23.8872 32.6005
23.9329 31.9855
23.9784 31.4851
24.0241 31.4613
24.0697 31.2456
24.1154 30.9787
24.1609 30.7543
24.2066 30.4583
24.2522 30.2999
24.2979 30.0873
24.3434 29.8925
24.3892 29.7302
24.4349 29.7817
24.4805 29.4772
24.5262 29.5544
24.5718 29.413
24.6175 29.4699
24.6631 29.9905
24.7089 29.9688
24.7545 29.8334
24.8002 29.3842
24.8458 29.3009
24.8916 29.185
24.9372 28.9966
24.983 29.1917
25.0286 28.9806
25.0744 29.1036
25.12 29.1032
25.1658 29.1614
25.2114 29.1426
25.2572 29.4446
25.3029 29.831
25.3487 29.9932
25.3943 29.6703
25.4402 29.7789
25.4858 30.2572
25.5316 30.346
25.5773 29.5481
25.6231 28.9324
25.669 28.2861
25.7147 28.0783
25.7605 28.0682
25.8062 28.1618
25.8521 28.4248
25.8977 28.1705
25.9436 27.8576
25.9893 27.577
26.0352 27.7178
26.0809 27.5902
26.1268 27.747
26.1725 27.8688
26.2184 28.213
26.2641 28.3996
26.31 28.4091
26.3557 28.0809
26.4017 27.7623
26.4474 27.6498
26.4933 27.5413
26.5391 27.4835
26.585 27.498
26.6308 27.501
26.6767 27.5798
26.7225 27.8159
26.7684 28.2914
26.8142 28.6221
26.8601 28.6202
26.9059 28.143
26.9519 28.0846
26.9979 28.0895
27.0437 27.682
27.0896 27.2788
27.1354 27.0913
27.1814 26.8265
27.2272 26.6241
27.2732 26.6593
27.3191 26.4266
27.3651 26.4396
27.4109 26.3301
27.4569 26.3856
27.5027 26.3249
27.5488 26.3265
27.5946 26.2449
27.6407 26.3383
27.6865 26.4375
27.7326 26.4671
27.7784 26.3299
27.8245 26.1333
27.8703 25.9397
27.9164 25.9817
27.9623 25.8858
28.0084 26.0753
28.0543 26.1928
28.1003 26.1544
28.1462 26.1118
28.1923 26.3292
28.2384 26.5269
28.2843 26.3824
28.3304 26.134
28.3764 25.8941
28.4225 25.7575
28.4684 25.7017
28.5145 25.1095
28.5605 25.041
28.6066 24.9883
28.6526 24.6759
28.6987 24.6033
28.7447 24.4917
28.7908 24.3637
28.8368 24.3927
28.8829 24.1459
28.9289 24.1919
28.9751 24.1272
29.0211 24.1725
29.0673 24.1818
29.1133 24.1056
29.1595 23.9695
29.2055 23.7059
29.2517 23.7192
29.2977 23.5689
29.3439 23.4542
29.3899 23.4054
29.4361 23.2747
29.4824 23.3087
29.5284 23.3909
29.5746 23.3121
29.6207 23.2288
29.6669 23.0952
29.713 22.948
29.7593 22.8769
29.8053 22.7149
29.8516 22.6063
29.8977 22.7277
29.9439 22.5038
29.99 22.4805
30.0363 22.4646
30.0824 22.5529
30.1287 22.4159
30.1748 22.3961
30.2211 22.3526
30.2673 22.1556
30.3136 22.2252
30.3597 22.2056
30.406 22.3089
30.4522 22.1406
30.4985 22.0828
30.5447 22.0481
30.591 21.9707
30.6372 21.8852
30.6835 21.9078
30.7297 21.8834
30.7761 21.9084
30.8224 21.9088
30.8686 22.0403
30.915 21.9366
30.9612 22.1003
31.0076 21.8161
31.0538 21.6797
31.1002 21.7147
31.1464 21.5085
31.1928 21.5725
31.2391 21.4695
31.2855 21.3023
31.3317 21.2826
31.3781 21.3102
31.4244 21.1529
31.4708 21.2173
31.5171 21.1461
31.5636 21.1015
31.6098 21.2411
31.6563 21.1553
31.7026 21.1123
31.7491 20.9516
31.7953 20.9136
31.8418 20.805
31.8881 20.7431
31.9346 20.692
31.9809 20.7005
32.0275 20.6644
32.074 20.6036
32.1203 20.6752
32.1668 20.6059
32.2132 20.511
32.2597 20.459
32.306 20.4688
32.3526 20.2495
32.399 20.1304
32.4455 20.0678
32.4919 19.986
32.5385 19.9544
32.5848 19.8807
32.6314 19.8852
32.6778 19.7465
32.7244 19.7201
32.7708 19.6437
32.8174 19.5572
32.8638 19.5093
32.9104 19.5545
32.9569 19.4464
33.0035 19.4095
33.0499 19.3431
33.0966 19.2564
33.143 19.266
33.1897 19.1966
33.2361 19.0145
33.2828 19.0329
33.3293 19.0362
33.3759 19.0655
33.4226 18.9839
33.4691 18.9773
33.5158 18.8997
33.5623 18.8792
33.609 18.7054
33.6555 18.6457
33.7022 18.5722
33.7487 18.5098
33.7954 18.4478
33.842 18.3646
33.8887 18.2748
33.9353 18.307
33.982 18.2371
34.0286 18.2111
34.0753 18.1463
34.1219 18.0804
34.1687 17.9949
34.2152 18.0125
34.262 17.9243
34.3086 17.7571
34.3554 17.7582
34.402 17.7208
34.4488 17.6412
34.4954 17.5762
34.5422 17.5798
34.5889 17.537
34.6357 17.4463
34.6825 17.4147
34.7292 17.3298
34.776 17.2991
34.8227 17.2358
34.8695 17.2215
34.9162 17.1202
34.9631 17.0184
35.0098 17.0429
35.0566 16.9538
35.1033 16.985
35.1502 16.9312
35.1969 16.9346
35.2438 16.7697
35.2906 16.7997
35.3375 16.7125
35.3842 16.6596
35.4311 16.645
35.4779 16.5788
35.5248 16.6361
35.5716 16.5479
35.6185 16.4869
35.6653 16.5554
35.7123 16.4085
35.759 16.3834
35.806 16.2964
35.8528 16.2608
35.8998 16.2386
35.9468 16.2177
35.9936 16.1134
36.0406 16.0434
36.0874 16.089
36.1345 15.9897
36.1813 15.9299
36.2283 15.8433
36.2752 15.7434
36.3222 15.8803
36.3691 15.7667
36.4161 15.6447
36.463 15.7205
36.5101 15.6729
36.557 15.5609
36.6041 15.5011
36.651 15.4766
36.6981 15.4184
36.745 15.3864
36.7921 15.3544
36.839 15.2366
36.8861 15.2173
36.9331 15.1502
36.9802 15.1564
37.0272 15.0911
37.0743 15.0292
37.1213 15.0189
37.1684 14.9405
37.2154 14.9078
37.2626 14.8998
37.3098 14.8518
37.3568 14.7789
37.404 14.7442
37.451 14.6117
37.4982 14.6247
37.5452 14.5267
37.5924 14.5448
37.6395 14.5986
37.6867 14.4334
37.7337 14.412
37.781 14.3925
37.8281 14.3365
37.8753 14.2696
37.9224 14.2423
37.9697 14.2248
38.0168 14.1484
38.064 14.0918
38.1111 14.0755
38.1584 14.0453
38.2056 14.0169
38.2529 13.9634
38.3 13.7632
38.3473 13.8464
38.3945 13.7349
38.4418 13.7509
38.489 13.6673
38.5363 13.6158
38.5837 13.6568
38.6309 13.5506
38.6782 13.5302
38.7254 13.4602
38.7728 13.4267
38.82 13.3622
38.8674 13.3037
38.9146 13.3379
38.9621 13.2513
39.0093 13.2469
39.0567 13.1917
39.104 13.1395
39.1514 13.0342
39.1987 13.0979
39.2461 12.9989
39.2934 13.0207
39.3409 12.8945
39.3882 12.8474
39.4356 12.8474
39.483 12.7941
39.5304 12.7298
39.5778 12.6825
39.6253 12.7145
39.6726 12.7011
39.7201 12.6711
39.7675 12.614
39.815 12.5182
39.8624 12.5099
39.9099 12.4867
39.9575 12.4258
40.0049 12.3433
40.0525 12.3133
40.0999 12.3292
40.1474 12.3003
40.1949 12.2559
40.2425 12.1657
40.2899 12.1415
40.3375 12.1289
40.385 12.1312
40.4326 12.0453
40.48 12.0125
40.5277 12.0041
40.5752 11.9569
40.6228 11.8541
40.6703 11.847
40.718 11.8069
40.7655 11.8036
40.8132 11.6841
40.8607 11.7531
40.9084 11.6825
40.9559 11.6567
41.0036 11.6128
41.0512 11.5926
41.0989 11.5611
41.1465 11.518
41.1942 11.4563
41.242 11.3689
41.2896 11.3874
41.3373 11.3465
41.3849 11.3108
41.4327 11.2848
41.4803 11.1921
41.5281 11.1883
41.5758 11.1101
41.6236 11.0702
41.6712 11.0658
41.7191 11.0342
41.7667 10.9998
41.8146 10.9858
41.8622 10.9071
41.9101 10.9121
41.9578 10.856
42.0057 10.7962
42.0534 10.799
42.1013 10.7783
42.149 10.6754
42.1969 10.6529
42.2446 10.6222
42.2925 10.6042
42.3403 10.5972
42.3882 10.559
42.436 10.5355
42.4839 10.4472
42.5319 10.4285
42.5797 10.3873
42.6277 10.3519
42.6755 10.318
42.7235 10.235
42.7713 10.2706
42.8193 10.251
42.8671 10.1985
42.9152 10.1486
42.963 10.1414
43.0111 10.0695
43.0589 10.0175
43.107 10.038
43.1549 10.0009
43.2029 9.95397
43.2508 9.95379
43.2989 9.86862
43.3468 9.79835
43.3949 9.8292
43.4429 9.75945
43.491 9.74382
43.5389 9.73133
43.5871 9.66399
43.635 9.65493
43.6832 9.61585
43.7312 9.58247
43.7793 9.55785
43.8273 9.46915
43.8755 9.48474
43.9237 9.425
43.9717 9.41486
44.0199 9.42604
44.068 9.36559
44.1162 9.27468
44.1642 9.38005
44.2125 9.24946
44.2606 9.27412
44.3088 9.16658
44.3569 9.17383
44.4052 9.19114
44.4533 9.10084
44.5016 9.0718
44.5497 9.04419
44.598 8.99726
44.6461 8.9669
44.6945 8.93854
44.7426 8.92483
44.791 8.88016
44.8391 8.87272
44.8875 8.83141
44.9357 8.77562
44.984 8.78437
45.0322 8.73816
45.0806 8.7265
45.1288 8.67584
45.1773 8.61844
45.2257 8.62963
45.2739 8.60226
45.3224 8.56862
45.3706 8.5253
45.4191 8.5022
45.4673 8.44678
45.5158 8.45012
45.5641 8.39941
45.6126 8.42154
45.6609 8.33467
45.7094 8.34203
45.7577 8.29219
45.8063 8.2359
45.8546 8.23481
45.9031 8.21511
45.9515 8.19588
46.0001 8.1677
46.0484 8.16529
46.097 8.07609
46.1454 8.06032
46.194 8.03398
46.2424 7.97649
46.291 8.00909
46.3395 7.92256
46.3881 7.91797
46.4365 7.89391
46.4852 7.88964
46.5337 7.81312
46.5823 7.80736
46.631 7.78024
46.6795 7.80262
46.7282 7.72469
46.7767 7.6827
46.8254 7.66142
46.8739 7.617
46.9226 7.62441
46.9712 7.57517
47.0199 7.56105
47.0685 7.47592
47.1173 7.47924
47.1658 7.46118
47.2146 7.49056
47.2632 7.43933
47.312 7.38624
47.3606 7.30554
47.4095 7.3263
47.4581 7.27933
47.5069 7.27692
47.5556 7.24579
47.6044 7.20213
47.6531 7.22303
47.702 7.16168
47.7507 7.14425
47.7996 7.10297
47.8483 7.09536
47.8972 7.06252
47.9461 7.03676
47.9948 7.01689
48.0438 6.95466
48.0925 6.98356
48.1415 6.91308
48.1902 6.92067
48.2392 6.90169
48.288 6.91833
48.337 6.84579
48.3858 6.82238
48.4348 6.7913
48.4837 6.79021
48.5327 6.76602
48.5815 6.74438
48.6306 6.75215
48.6795 6.69879
48.7285 6.627
48.7774 6.64948
48.8265 6.62594
48.8754 6.55979
48.9245 6.56411
48.9734 6.53659
49.0226 6.54819
49.0715 6.51599
49.1206 6.43215
49.1696 6.46524
49.2188 6.43288
49.2679 6.38237
49.3169 6.36294
49.3661 6.34117
49.4151 6.31867
49.4643 6.29506
49.5134 6.26424
49.5626 6.21591
49.6117 6.2404
49.6609 6.22063
49.71 6.16467
49.7592 6.16119
49.8083 6.13408
49.8576 6.10514
49.9067 6.06553
49.956 6.09338
50.0052 6.05404
50.0545 6.01672
50.1036 6.01827
50.153 5.99693
50.2022 5.96158
50.2515 5.9251
50.3007 5.89912
50.3501 5.88657
50.3993 5.85249
50.4487 5.82599
50.498 5.81511
50.5474 5.83396
50.5966 5.76676
50.6461 5.79597
50.6955 5.73241
50.7448 5.72965
50.7943 5.68425
50.8436 5.6724
50.8931 5.64286
50.9424 5.63408
50.9919 5.58669
51.0413 5.56794
51.0908 5.58844
51.1402 5.54755
51.1897 5.54787
51.2391 5.49227
51.2887 5.4688
51.3381 5.42927
51.3877 5.43036
51.4371 5.38954
51.4867 5.38981
51.5362 5.36581
51.5858 5.36052
51.6353 5.29451
51.6849 5.30157
51.7344 5.24441
51.7841 5.30108
51.8336 5.23686
51.8833 5.23245
51.9328 5.21002
51.9826 5.16581
52.0323 5.13111
52.0818 5.13343
52.1316 5.11227
52.1812 5.09167
52.231 5.07753
52.2806 5.05632
52.3304 5.02647
52.38 4.98652
52.4298 4.9887
52.4794 4.99179
52.5293 4.93256
52.5789 4.92068
52.6288 4.93484
52.6785 4.89349
52.7284 4.90477
52.7781 4.82711
52.828 4.83454
52.8777 4.82303
52.9276 4.79513
52.9774 4.8099
53.0273 4.75565
53.0771 4.73412
53.1271 4.72547
53.1769 4.70756
53.2269 4.67127
53.2767 4.62123
53.3267 4.65881
53.3765 4.65979
53.4266 4.59782
53.4766 4.56546
53.5265 4.55955
53.5765 4.57592
53.6264 4.49651
53.6765 4.52425
53.7264 4.45722
53.7765 4.43411
53.8265 4.42221
53.8766 4.39599
53.9266 4.44538
53.9767 4.38528
54.0267 4.32717
54.0769 4.34356
54.1269 4.28221
54.1771 4.27147
54.2271 4.24856
54.2773 4.23218
54.3274 4.21174
54.3776 4.153
54.4277 4.12085
54.478 4.09188
54.528 4.02627
54.5783 4.03317
54.6285 3.99048
54.6788 3.95501
54.7289 3.89202
54.7792 3.84519
54.8296 3.85717
54.8798 3.77486
54.9301 3.80222
54.9803 3.76036
55.0307 3.77338
55.0809 3.68525
55.1314 3.67473
55.1816 3.58723
55.232 3.55117
55.2823 3.56968
55.3328 3.4896
55.383 3.41955
55.4335 3.39789
55.4838 3.37303
55.5344 3.36661
55.5847 3.31395
55.6352 3.32022
55.6856 3.22924
55.7361 3.27015