File: XRD/Ni3Fe_FD1075.xy
TT I
1.27165 7.09565
1.31627 6.8519
1.36089 6.22813
1.40551 6.32209
1.45013 6.27434
1.49476 5.67225
1.53938 5.18949
1.584 5.00256
1.62863 4.89665
1.67325 4.4373
1.71787 4.89368
1.7625 3.67192
1.80712 4.49561
1.85174 4.48012
1.89636 3.86516
1.94099 4.54058
1.98562 4.16706
2.03025 4.13695
2.07487 4.18168
2.11949 4.54944
2.16411 3.93519
2.20874 5.53757
2.25338 6.51024
2.298 5.76009
2.34263 5.17047
2.38725 5.60778
2.43188 6.09643
2.4765 6.74652
2.52115 7.78999
2.56577 7.76159
2.6104 8.28967
2.65503 8.39758
2.69965 8.23877
2.7443 8.21203
2.78893 8.22618
2.83356 9.24126
2.87818 8.54227
2.92281 8.73959
2.96744 9.36181
3.01209 10.2034
3.05672 10.653
3.10135 12.0395
3.14599 12.6041
3.19062 13.8919
3.23527 15.0743
3.2799 14.6786
3.32454 16.1023
3.36917 16.7645
3.4138 18.1202
3.45844 19.033
3.50309 19.6894
3.54773 20.2276
3.59237 21.2558
3.637 27.4694
3.68164 26.4783
3.7263 23.8626
3.77094 24.7204
3.81558 25.1444
3.86022 25.9807
3.90486 27.2964
3.9495 27.956
3.99416 29.2899
4.0388 30.212
4.08344 31.596
4.12809 32.1059
4.17273 33.7664
4.21738 35.3135
4.26204 52.031
4.30669 56.2643
4.35133 40.4795
4.39598 40.699
4.44063 42.85
4.4853 46.5196
4.52995 46.5564
4.5746 48.2523
4.61925 50.7071
4.6639 52.6695
4.70855 55.5725
4.75322 58.1518
4.79788 60.7696
4.84253 64.4795
4.88719 67.8673
4.93184 70.932
4.97652 77.1266
5.02118 82.6892
5.06583 89.5226
5.11049 98.0525
5.15515 118.327
5.19981 230.725
5.24449 2521.34
5.28916 13668.8
5.33382 3318.9
5.37848 204.909
5.42315 123.55
5.46783 108.222
5.5125 100.66
5.55716 97.7265
5.60183 93.1509
5.6465 91.4026
5.69117 89.715
5.73586 87.9331
5.78053 87.4212
5.8252 86.4531
5.86988 87.0144
5.91455 88.7386
5.95924 94.9423
6.00392 164.522
6.0486 891.637
6.09328 4487.43
6.13795 3677.65
6.18263 239.655
6.22733 87.2664
6.27201 76.1969
6.3167 73.1127
6.36138 69.0251
6.40606 65.2797
6.45075 63.5016
6.49545 61.823
6.54014 60.5102
6.58483 59.0578
6.62952 58.0424
6.67421 58.6299
6.71892 64.2171
6.76361 56.7077
6.8083 54.4706
6.853 53.8925
6.89769 53.7308
6.94239 53.6061
6.98711 52.3505
7.03181 52.3616
7.07651 52.1609
7.12121 51.7892
7.16591 51.5989
7.21063 51.5612
7.25533 51.555
7.30004 62.0685
7.34475 55.987
7.38945 51.7159
7.43416 51.543
7.47889 51.4167
7.5236 58.0898
7.56831 71.0455
7.61303 56.1536
7.65774 52.6712
7.70247 53.1844
7.74719 53.2071
7.79191 53.9331
7.83663 53.7759
7.88135 54.9584
7.92607 55.7326
7.97081 56.7904
8.01553 58.0763
8.06026 59.3835
8.10498 60.0493
8.14971 62.4386
8.19446 63.9685
8.23919 65.9055
8.28392 68.1146
8.32865 70.7476
8.37339 73.959
8.41812 77.9647
8.46288 86.3716
8.50761 129.36
8.55235 380.704
8.59709 1115.02
8.64183 2276.4
8.68658 1095.96
8.73134 172.015
8.77609 95.2255
8.82083 88.4328
8.86558 85.9598
8.91033 83.4562
8.9551 82.5672
8.99985 81.2575
9.04461 80.0471
9.08936 79.6654
9.13412 79.1801
9.17888 79.1916
9.22365 90.0343
9.26841 110.851
9.31318 88.0705
9.35794 80.1915
9.4027 79.9019
9.44749 80.7115
9.49226 81.0532
9.53703 81.8705
9.5818 83.1786
9.62657 84.5994
9.67134 86.9125
9.71614 87.4907
9.76091 89.7415
9.80569 91.8503
9.85047 94.4247
9.89525 99.3338
9.94005 106.582
9.98484 147.788
10.0296 352.149
10.0744 780.396
10.1192 1773.12
10.164 1706.27
10.2088 444.458
10.2536 125.008
10.2984 103.04
10.3432 100.983
10.388 97.9971
10.4328 108.063
10.4776 162.814
10.5224 274.229
10.5672 513.611
10.612 571.017
10.6568 229.152
10.7017 103.12
10.7465 86.1921
10.7913 80.348
10.8361 77.7628
10.8809 75.372
10.9257 73.5289
10.9706 72.7946
11.0154 70.8959
11.0602 69.3899
11.105 68.228
11.1499 67.3305
11.1947 67.1822
11.2395 65.7672
11.2844 65.0814
11.3292 63.9843
11.374 63.2129
11.4189 62.7034
11.4637 62.1662
11.5086 61.4678
11.5534 61.1879
11.5983 60.8131
11.6431 60.9281
11.688 60.1406
11.7328 59.8671
11.7777 60.1095
11.8225 59.7406
11.8674 59.8978
11.9122 61.8875
11.9571 67.5034
12.002 65.9292
12.0468 64.3186
12.0917 77.2591
12.1366 99.6336
12.1814 147.104
12.2263 203.769
12.2712 175.411
12.3161 96.9783
12.3609 64.5143
12.4058 61.4388
12.4507 61.1093
12.4956 61.1767
12.5405 61.5877
12.5853 62.0748
12.6302 62.699
12.6751 64.1836
12.72 63.8642
12.7649 64.4194
12.8098 65.4058
12.8547 66.5264
12.8996 68.0593
12.9445 69.1455
12.9894 71.3688
13.0343 72.7481
13.0792 76.5609
13.1242 82.3332
13.1691 108.537
13.214 149.72
13.2589 230.932
13.3038 370.121
13.3487 451.479
13.3937 277.61
13.4386 126.118
13.4835 99.0615
13.5285 120.702
13.5734 157.685
13.6183 237.54
13.6633 356.635
13.7082 360.811
13.7531 204.248
13.7981 99.9823
13.843 79.4736
13.888 77.0854
13.9329 74.6517
13.9779 73.7315
14.0228 72.0286
14.0678 70.9342
14.1127 71.9286
14.1577 75.1736
14.2027 72.9362
14.2476 68.9335
14.2926 67.7185
14.3376 67.3758
14.3825 66.9221
14.4275 66.3506
14.4725 66.2907
14.5175 66.1822
14.5624 66.3698
14.6074 66.8813
14.6524 67.3311
14.6974 67.5622
14.7424 68.8554
14.7874 74.5256
14.8324 89.4437
14.8774 110.85
14.9224 149.57
14.9674 209.19
15.0124 227.357
15.0574 158.662
15.1024 93.6235
15.1474 70.983
15.1924 67.8897
15.2374 66.787
15.2824 65.8681
15.3274 65.1943
15.3725 64.5012
15.4175 64.2406
15.4625 63.6073
15.5076 63.6971
15.5526 63.6
15.5976 63.4473
15.6426 63.8613
15.6877 68.8798
15.7327 80.1294
15.7778 95.4483
15.8228 123.308
15.8679 169.626
15.9129 202.664
15.958 169.113
16.003 104.432
16.0481 69.4537
16.0931 62.8003
16.1382 59.8751
16.1833 58.1902
16.2283 57.2993
16.2734 56.2731
16.3185 55.7859
16.3636 55.3605
16.4086 54.5155
16.4537 54.2978
16.4988 53.6373
16.5439 53.5868
16.589 53.1281
16.6341 52.968
16.6792 52.7135
16.7243 53.04
16.7694 52.6877
16.8145 52.986
16.8596 53.122
16.9047 53.8017
16.9498 54.3247
16.9949 54.0619
17.04 53.8251
17.0851 54.8491
17.1302 57.2382
17.1754 60.4888
17.2205 64.9934
17.2656 72.6188
17.3108 82.1725
17.3559 82.7253
17.401 72.2071
17.4462 61.4693
17.4913 57.529
17.5365 57.4384
17.5815 57.1711
17.6268 57.709
17.6718 58.3095
17.7171 58.8843
17.7622 60.2009
17.8074 60.9894
17.8525 61.9631
17.8977 66.627
17.9428 73.7467
17.9881 82.4197
18.0331 98.2387
18.0784 121.097
18.1237 142.483
18.1688 138.025
18.214 109.097
18.2591 88.3814
18.3044 89.0936
18.3495 99.4513
18.3948 107.47
18.4399 98.7224
18.4852 78.7649
18.5303 65.7258
18.5756 61.491
18.6207 60.2517
18.666 59.0763
18.7112 58.3445
18.7565 57.4593
18.8016 57.0944
18.8469 56.5358
18.892 56.0713
18.9374 55.7242
18.9825 55.5678
19.0278 55.1545
19.073 55.1381
19.1183 55.2993
19.1635 56.4843
19.2088 58.3304
19.254 60.6397
19.2993 65.6891
19.3447 72.3868
19.3898 75.9941
19.4352 72.122
19.4804 63.3747
19.5257 56.3232
19.5709 52.9473
19.6163 52.6241
19.6615 52.2157
19.7068 51.9067
19.752 51.9697
19.7974 52.1806
19.8426 52.7058
19.888 53.7349
19.9332 55.2433
19.9786 57.6815
20.0238 61.1711
20.0692 66.5583
20.1144 70.5539
20.1598 69.0891
20.205 64.2797
20.2504 61.8766
20.2957 63.4964
20.3411 65.8279
20.3863 63.9564
20.4318 58.3049
20.477 52.8304
20.5224 50.1605
20.5677 49.2078
20.6131 49.0122
20.6586 48.2928
20.7038 48.3149
20.7493 48.1227
20.7945 48.1275
20.84 47.8718
20.8853 47.6643
20.9307 47.3286
20.976 47.3374
21.0215 47.502
21.0668 47.742
21.1122 48.34
21.1575 48.9514
21.203 49.7506
21.2483 50.4137
21.2938 50.6383
21.3391 49.2352
21.3846 48.101
21.4299 47.4217
21.4754 47.4957
21.5207 47.4213
21.5662 47.6661
21.6116 47.9378
21.6571 49.0861
21.7024 50.3082
21.7479 51.8527
21.7933 54.2579
21.8388 58.1606
21.8843 62.866
21.9297 65.2093
21.9752 63.9447
22.0206 59.9834
22.0661 56.3805
22.1115 55.916
22.157 55.9868
22.2024 54.4199
22.248 51.2621
22.2933 49.1065
22.3389 48.1344
22.3843 47.885
22.4299 47.5366
22.4753 47.5262
22.5208 47.6321
22.5662 47.6004
22.6118 47.6247
22.6572 47.962
22.7028 48.5109
22.7483 49.2234
22.7939 49.8769
22.8393 51.2935
22.8849 53.3012
22.9303 55.909
22.9759 57.8372
23.0214 57.5035
23.067 54.7707
23.1126 51.1742
23.1581 48.679
23.2037 47.9425
23.2492 47.8081
23.2948 47.9872
23.3403 48.6188
23.3859 49.4783
23.4314 50.5224
23.477 52.2572
23.5225 54.654
23.5682 57.2706
23.6137 58.4553
23.6593 56.4747
23.7048 52.133
23.7505 48.2705
23.796 45.9545
23.8417 45.2309
23.8872 44.7606
23.9329 44.3814
23.9784 44.0861
24.0241 43.8492
24.0697 43.6409
24.1154 43.182
24.1609 42.9495
24.2066 42.89
24.2522 42.7544
24.2979 42.5869
24.3434 42.333
24.3892 42.1738
24.4349 42.1279
24.4805 42.1076
24.5262 42.2862
24.5718 42.1247
24.6175 42.2663
24.6631 41.8514
24.7089 41.6873
24.7545 41.4441
24.8002 41.2825
24.8458 41.3644
24.8916 41.3378
24.9372 41.4374
24.983 41.6033
25.0286 42.1036
25.0744 42.5904
25.12 43.3629
25.1658 43.9791
25.2114 44.3029
25.2572 44.4406
25.3029 44.6151
25.3487 44.6626
25.3943 44.3204
25.4402 43.3429
25.4858 42.0368
25.5316 40.9791
25.5773 40.2563
25.6231 40.1597
25.669 39.8012
25.7147 39.75
25.7605 39.5977
25.8062 39.6691
25.8521 39.8333
25.8977 39.8962
25.9436 40.1388
25.9893 40.2114
26.0352 41.0032
26.0809 40.9955
26.1268 41.2729
26.1725 41.0398
26.2184 40.3618
26.2641 39.6844
26.31 39.4158
26.3557 39.557
26.4017 39.7317
26.4474 39.8092
26.4933 40.1365
26.5391 40.6264
26.585 41.2981
26.6308 41.8642
26.6767 42.0149
26.7225 41.8364
26.7684 41.3229
26.8142 40.5742
26.8601 40.0881
26.9059 39.7399
26.9519 39.2071
26.9979 38.7367
27.0437 38.2959
27.0896 38.1151
27.1354 38.1537
27.1814 38.0063
27.2272 37.9446
27.2732 37.9533
27.3191 37.7335
27.3651 37.8742
27.4109 37.8315
27.4569 38.0687
27.5027 38.0754
27.5488 38.0239
27.5946 38.0033
27.6407 37.624
27.6865 37.6027
27.7326 37.5013
27.7784 37.3849
27.8245 37.3223
27.8703 37.306
27.9164 37.8465
27.9623 38.0533
28.0084 38.4781
28.0543 39.0407
28.1003 38.9401
28.1462 38.6868
28.1923 38.3539
28.2384 37.7977
28.2843 37.3502
28.3304 36.93
28.3764 36.3352
28.4225 35.9612
28.4684 35.7514
28.5145 35.4298
28.5605 35.3985
28.6066 35.0946
28.6526 35.1603
28.6987 35.0955
28.7447 34.9551
28.7908 34.8496
28.8368 34.9417
28.8829 34.8952
28.9289 34.839
28.9751 34.7099
29.0211 34.4814
29.0673 34.248
29.1133 34.0475
29.1595 33.9094
29.2055 33.746
29.2517 33.6674
29.2977 33.7446
29.3439 33.7649
29.3899 33.674
29.4361 33.5577
29.4824 33.4991
29.5284 33.2199
29.5746 32.8968
29.6207 32.6233
29.6669 32.5584
29.713 32.5183
29.7593 32.361
29.8053 32.3455
29.8516 32.2522
29.8977 32.2157
29.9439 32.0496
29.99 32.0516
30.0363 32.0282
30.0824 31.9781
30.1287 32.0033
30.1748 31.9396
30.2211 31.8984
30.2673 31.808
30.3136 31.9029
30.3597 31.7066
30.406 31.8119
30.4522 31.5949
30.4985 31.593
30.5447 31.6172
30.591 31.7459
30.6372 31.7774
30.6835 31.8369
30.7297 31.9841
30.7761 31.8089
30.8224 31.7233
30.8686 31.442
30.915 31.2382
30.9612 31.1014
31.0076 31.0131
31.0538 30.7515
31.1002 30.7483
31.1464 30.5441
31.1928 30.5403
31.2391 30.654
31.2855 30.4151
31.3317 30.489
31.3781 30.5708
31.4244 30.5175
31.4708 30.5789
31.5171 30.507
31.5636 30.4863
31.6098 30.2301
31.6563 29.9892
31.7026 29.9605
31.7491 29.6611
31.7953 29.8024
31.8418 29.7168
31.8881 29.7851
31.9346 29.7568
31.9809 29.736
32.0275 29.6566
32.074 29.4482
32.1203 29.4322
32.1668 29.2805
32.2132 29.0478
32.2597 28.8863
32.306 28.8085
32.3526 28.6204
32.399 28.4995
32.4455 28.3462
32.4919 28.2768
32.5385 28.2216
32.5848 28.0722
32.6314 28.0795
32.6778 28.0592
32.7244 27.9521
32.7708 27.8415
32.8174 27.7538
32.8638 27.6009
32.9104 27.6641
32.9569 27.6453
33.0035 27.5322
33.0499 27.5675
33.0966 27.4669
33.143 27.3809
33.1897 27.3846
33.2361 27.2701
33.2828 27.2971
33.3293 27.0926
33.3759 27.05
33.4226 26.8754
33.4691 26.814
33.5158 26.7327
33.5623 26.4816
33.609 26.4101
33.6555 26.2965
33.7022 26.209
33.7487 26.1215
33.7954 26.1375
33.842 25.9949
33.8887 25.9869
33.9353 25.9359
33.982 25.7048
34.0286 25.7245
34.0753 25.5614
34.1219 25.4655
34.1687 25.4978
34.2152 25.3744
34.262 25.2228
34.3086 25.2803
34.3554 25.2461
34.402 25.0801
34.4488 24.969
34.4954 24.9774
34.5422 24.7956
34.5889 24.7194
34.6357 24.6194
34.6825 24.5391
34.7292 24.467
34.776 24.4644
34.8227 24.2946
34.8695 24.2632
34.9162 24.168
34.9631 24.1763
35.0098 24.1292
35.0566 24.0662
35.1033 23.9828
35.1502 23.9721
35.1969 23.9068
35.2438 23.8443
35.2906 23.7292
35.3375 23.766
35.3842 23.6542
35.4311 23.7263
35.4779 23.6489
35.5248 23.6692
35.5716 23.5546
35.6185 23.4363
35.6653 23.2407
35.7123 23.3152
35.759 23.1637
35.806 23.0872
35.8528 22.9507
35.8998 22.951
35.9468 22.8114
35.9936 22.8351
36.0406 22.6833
36.0874 22.762
36.1345 22.5798
36.1813 22.5759
36.2283 22.3994
36.2752 22.3294
36.3222 22.4037
36.3691 22.2591
36.4161 22.1837
36.463 22.1559
36.5101 22.1629
36.557 22.0841
36.6041 21.9212
36.651 21.9083
36.6981 21.8987
36.745 21.7881
36.7921 21.7283
36.839 21.5657
36.8861 21.5689
36.9331 21.4353
36.9802 21.3352
37.0272 21.261
37.0743 21.2085
37.1213 21.2384
37.1684 21.1175
37.2154 21.0099
37.2626 20.9481
37.3098 20.9484
37.3568 20.8178
37.404 20.7518
37.451 20.7149
37.4982 20.7434
37.5452 20.5831
37.5924 20.5481
37.6395 20.5691
37.6867 20.4844
37.7337 20.3416
37.781 20.2216
37.8281 20.2025
37.8753 20.0867
37.9224 20.0688
37.9697 20.0164
38.0168 19.9869
38.064 19.8613
38.1111 19.8312
38.1584 19.7126
38.2056 19.6985
38.2529 19.7236
38.3 19.6318
38.3473 19.5713
38.3945 19.3939
38.4418 19.4187
38.489 19.3179
38.5363 19.3252
38.5837 19.2271
38.6309 19.1433
38.6782 19.0915
38.7254 19.0131
38.7728 18.9373
38.82 18.8484
38.8674 18.8321
38.9146 18.7641
38.9621 18.6778
39.0093 18.6322
39.0567 18.5918
39.104 18.4983
39.1514 18.4745
39.1987 18.4352
39.2461 18.3861
39.2934 18.3312
39.3409 18.2607
39.3882 18.1595
39.4356 18.0572
39.483 18.1064
39.5304 17.9928
39.5778 17.9618
39.6253 17.8844
39.6726 17.8435
39.7201 17.8337
39.7675 17.7579
39.815 17.6629
39.8624 17.5502
39.9099 17.6238
39.9575 17.516
40.0049 17.49
40.0525 17.4576
40.0999 17.36
40.1474 17.321
40.1949 17.2368
40.2425 17.1637
40.2899 17.1098
40.3375 17.1031
40.385 17.0174
40.4326 16.9403
40.48 16.9386
40.5277 16.8523
40.5752 16.8042
40.6228 16.7521
40.6703 16.6876
40.718 16.6654
40.7655 16.5965
40.8132 16.5217
40.8607 16.5311
40.9084 16.4631
40.9559 16.3792
41.0036 16.3937
41.0512 16.2523
41.0989 16.2383
41.1465 16.1518
41.1942 16.152
41.242 16.0537
41.2896 16.0258
41.3373 15.9327
41.3849 15.8999
41.4327 15.8605
41.4803 15.7436
41.5281 15.77
41.5758 15.6642
41.6236 15.5988
41.6712 15.5661
41.7191 15.5582
41.7667 15.4776
41.8146 15.4328
41.8622 15.3505
41.9101 15.353
41.9578 15.1736
42.0057 15.2082
42.0534 15.195
42.1013 15.1709
42.149 15.0692
42.1969 14.9838
42.2446 14.9723
42.2925 14.931
42.3403 14.8446
42.3882 14.8319
42.436 14.75
42.4839 14.7242
42.5319 14.6609
42.5797 14.6208
42.6277 14.5681
42.6755 14.5063
42.7235 14.4812
42.7713 14.4328
42.8193 14.3608
42.8671 14.2783
42.9152 14.2974
42.963 14.2493
43.0111 14.198
43.0589 14.0995
43.107 14.0919
43.1549 14.0666
43.2029 13.9262
43.2508 13.9734
43.2989 13.8965
43.3468 13.8693
43.3949 13.8293
43.4429 13.7442
43.491 13.709
43.5389 13.6493
43.5871 13.6174
43.635 13.5671
43.6832 13.5581
43.7312 13.452
43.7793 13.4412
43.8273 13.3855
43.8755 13.3229
43.9237 13.3033
43.9717 13.2323
44.0199 13.2194
44.068 13.1339
44.1162 13.1191
44.1642 13.1028
44.2125 13.0148
44.2606 12.9502
44.3088 12.8963
44.3569 12.8858
44.4052 12.8527
44.4533 12.7519
44.5016 12.7239
44.5497 12.7013
44.598 12.6246
44.6461 12.5491
44.6945 12.5564
44.7426 12.5269
44.791 12.4621
44.8391 12.4024
44.8875 12.3872
44.9357 12.3737
44.984 12.2579
45.0322 12.3035
45.0806 12.2006
45.1288 12.2084
45.1773 12.1005
45.2257 12.0554
45.2739 12.0544
45.3224 12.0143
45.3706 11.9344
45.4191 11.8799
45.4673 11.8644
45.5158 11.8461
45.5641 11.7659
45.6126 11.7518
45.6609 11.6909
45.7094 11.6366
45.7577 11.5841
45.8063 11.555
45.8546 11.5774
45.9031 11.4874
45.9515 11.442
46.0001 11.4311
46.0484 11.3842
46.097 11.3376
46.1454 11.3284
46.194 11.2444
46.2424 11.2202
46.291 11.1612
46.3395 11.1045
46.3881 11.0733
46.4365 11.0096
46.4852 11.0027
46.5337 10.952
46.5823 10.9189
46.631 10.9149
46.6795 10.8419
46.7282 10.8336
46.7767 10.7522
46.8254 10.7024
46.8739 10.6717
46.9226 10.6769
46.9712 10.5845
47.0199 10.5244
47.0685 10.5104
47.1173 10.4439
47.1658 10.4496
47.2146 10.3687
47.2632 10.3603
47.312 10.3521
47.3606 10.2713
47.4095 10.2304
47.4581 10.2137
47.5069 10.1858
47.5556 10.1747
47.6044 10.0992
47.6531 10.0582
47.702 9.99288
47.7507 9.97948
47.7996 9.93833
47.8483 9.89956
47.8972 9.91269
47.9461 9.84402
47.9948 9.79084
48.0438 9.77519
48.0925 9.7657
48.1415 9.73291
48.1902 9.65646
48.2392 9.6516
48.288 9.5969
48.337 9.58607
48.3858 9.51893
48.4348 9.51385
48.4837 9.51773
48.5327 9.47471
48.5815 9.385
48.6306 9.37017
48.6795 9.3435
48.7285 9.30743
48.7774 9.26007
48.8265 9.23873
48.8754 9.17489
48.9245 9.16722
48.9734 9.10649
49.0226 9.08158
49.0715 9.03195
49.1206 9.01118
49.1696 8.95576
49.2188 8.92406
49.2679 8.91623
49.3169 8.89467
49.3661 8.85787
49.4151 8.79801
49.4643 8.7794
49.5134 8.73253
49.5626 8.67197
49.6117 8.63177
49.6609 8.66138
49.71 8.60467
49.7592 8.57936
49.8083 8.54989
49.8576 8.48731
49.9067 8.47413
49.956 8.43453
50.0052 8.41095
50.0545 8.38898
50.1036 8.33848
50.153 8.30985
50.2022 8.29488
50.2515 8.24788
50.3007 8.20911
50.3501 8.2018
50.3993 8.15698
50.4487 8.13004
50.498 8.11514
50.5474 8.05045
50.5966 7.98704
50.6461 8.00063
50.6955 7.98559
50.7448 7.94597
50.7943 7.91012
50.8436 7.86507
50.8931 7.82423
50.9424 7.83512
50.9919 7.79728
51.0413 7.73214
51.0908 7.7142
51.1402 7.71124
51.1897 7.66612
51.2391 7.65126
51.2887 7.62357
51.3381 7.53882
51.3877 7.56637
51.4371 7.48597
51.4867 7.45179
51.5362 7.43114
51.5858 7.44042
51.6353 7.36132
51.6849 7.34769
51.7344 7.31432
51.7841 7.31692
51.8336 7.2437
51.8833 7.25905
51.9328 7.194
51.9826 7.15674
52.0323 7.14186
52.0818 7.09224
52.1316 7.10091
52.1812 7.09442
52.231 6.98763
52.2806 6.99851
52.3304 6.94763
52.38 6.95485
52.4298 6.92946
52.4794 6.90022
52.5293 6.88122
52.5789 6.80619
52.6288 6.82406
52.6785 6.75798
52.7284 6.72699
52.7781 6.6988
52.828 6.72468
52.8777 6.64155
52.9276 6.63508
52.9774 6.59282
53.0273 6.56141
53.0771 6.5339
53.1271 6.51554
53.1769 6.44804
53.2269 6.45531
53.2767 6.4344
53.3267 6.38154
53.3765 6.40018
53.4266 6.35192
53.4766 6.32712
53.5265 6.25597
53.5765 6.24959
53.6264 6.25462
53.6765 6.17281
53.7264 6.18547
53.7765 6.17398
53.8265 6.16207
53.8766 6.11391
53.9266 6.0822
53.9767 6.0889
54.0267 5.97613
54.0769 5.9765
54.1269 5.98447
54.1771 5.93825
54.2271 5.92141
54.2773 5.84389
54.3274 5.88789
54.3776 5.80485
54.4277 5.78007
54.478 5.78917
54.528 5.69195
54.5783 5.69794
54.6285 5.67089
54.6788 5.62858
54.7289 5.54942
54.7792 5.5876
54.8296 5.50351
54.8798 5.44978
54.9301 5.4431
54.9803 5.41445
55.0307 5.31824
55.0809 5.25566
55.1314 5.27715
55.1816 5.19218
55.232 5.1783
55.2823 5.18374
55.3328 5.10281
55.383 5.06935
55.4335 4.98052
55.4838 4.94196
55.5344 4.91868
55.5847 4.85702
55.6352 4.81407
55.6856 4.78048
55.7361 4.74632