File: XRD/Ni3Fe_FD0044.xy
TT I
1.27165 32.5167
1.31627 31.3528
1.36089 29.9777
1.40551 27.994
1.45013 27.6369
1.49476 26.7342
1.53938 25.5717
1.584 23.954
1.62863 23.6618
1.67325 23.0123
1.71787 22.8695
1.7625 21.9273
1.80712 21.6844
1.85174 21.7547
1.89636 21.2411
1.94099 21.9386
1.98562 21.0583
2.03025 21.0537
2.07487 20.4763
2.11949 21.2044
2.16411 20.9588
2.20874 21.6087
2.25338 21.2267
2.298 21.9708
2.34263 21.586
2.38725 21.7583
2.43188 22.0327
2.4765 23.3755
2.52115 22.3226
2.56577 23.5314
2.6104 24.1
2.65503 24.6115
2.69965 26.8756
2.7443 27.4728
2.78893 30.3368
2.83356 32.91
2.87818 36.6413
2.92281 41.7495
2.96744 46.9986
3.01209 55.8804
3.05672 64.0347
3.10135 72.5432
3.14599 78.6579
3.19062 76.0826
3.23527 69.2612
3.2799 58.0285
3.32454 48.3301
3.36917 40.4261
3.4138 36.0373
3.45844 32.167
3.50309 29.9192
3.54773 29.0505
3.59237 28.0102
3.637 28.3683
3.68164 27.8696
3.7263 27.3657
3.77094 26.612
3.81558 26.1291
3.86022 26.313
3.90486 26.8288
3.9495 27.1668
3.99416 27.1993
4.0388 28.1522
4.08344 29.1545
4.12809 30.0555
4.17273 31.4894
4.21738 34.426
4.26204 37.9794
4.30669 41.6518
4.35133 41.5852
4.39598 39.4838
4.44063 38.4702
4.4853 37.9108
4.52995 38.4532
4.5746 39.4798
4.61925 40.2529
4.6639 41.916
4.70855 43.3753
4.75322 45.9547
4.79788 49.3672
4.84253 52.8444
4.88719 58.9312
4.93184 65.864
4.97652 76.7343
5.02118 94.645
5.06583 116.59
5.11049 139.649
5.15515 184.357
5.19981 298.63
5.24449 675.161
5.28916 1490.44
5.33382 3897.27
5.37848 3416.4
5.42315 917.087
5.46783 325.33
5.5125 202.279
5.55716 153.414
5.60183 126.219
5.6465 113.92
5.69117 108.907
5.73586 102.1
5.78053 99.4106
5.8252 99.9181
5.86988 105.639
5.91455 116.666
5.95924 138.18
6.00392 190.44
6.0486 315.359
6.09328 538.458
6.13795 984.973
6.18263 1198.56
6.22733 566.038
6.27201 241.717
6.3167 138.847
6.36138 95.3284
6.40606 75.456
6.45075 64.475
6.49545 57.4936
6.54014 52.4633
6.58483 48.9964
6.62952 47.126
6.67421 45.4468
6.71892 45.0072
6.76361 43.5602
6.8083 42.1102
6.853 40.8519
6.89769 40.4486
6.94239 39.9821
6.98711 40.0968
7.03181 40.7211
7.07651 40.9413
7.12121 42.0861
7.16591 41.9212
7.21063 41.1778
7.25533 41.1315
7.30004 42.0403
7.34475 42.3904
7.38945 40.5022
7.43416 39.4202
7.47889 41.2825
7.5236 54.9429
7.56831 147.079
7.61303 178.694
7.65774 67.4633
7.70247 43.4792
7.74719 39.4402
7.79191 38.4906
7.83663 37.4017
7.88135 37.4223
7.92607 38.1749
7.97081 38.7014
8.01553 38.6545
8.06026 39.2118
8.10498 40.3653
8.14971 41.5063
8.19446 42.905
8.23919 44.7201
8.28392 47.0218
8.32865 49.1904
8.37339 53.0107
8.41812 57.4765
8.46288 65.4367
8.50761 79.9998
8.55235 116.245
8.59709 179.764
8.64183 254.429
8.68658 517.806
8.73134 780.981
8.77609 444.675
8.82083 191.354
8.86558 111.658
8.91033 86.5644
8.9551 74.9282
8.99985 69.1704
9.04461 65.5545
9.08936 63.4903
9.13412 63.1659
9.17888 66.2558
9.22365 83.4839
9.26841 216.765
9.31318 334.996
9.35794 137.274
9.4027 71.9001
9.44749 60.648
9.49226 57.0584
9.53703 55.6914
9.5818 55.4497
9.62657 55.2745
9.67134 55.8164
9.71614 56.4916
9.76091 57.4984
9.80569 59.1168
9.85047 61.2183
9.89525 65.4804
9.94005 71.7469
9.98484 82.7025
10.0296 111.956
10.0744 159.891
10.1192 202.574
10.164 316.134
10.2088 647.73
10.2536 716.864
10.2984 343.635
10.3432 166.111
10.388 105.931
10.4328 86.4213
10.4776 83.2496
10.5224 90.4413
10.5672 96.6422
10.612 119.298
10.6568 205.06
10.7017 282.967
10.7465 221.866
10.7913 112.776
10.8361 66.118
10.8809 54.9211
10.9257 50.3792
10.9706 47.8713
11.0154 46.1993
11.0602 44.7543
11.105 43.6321
11.1499 42.699
11.1947 42.0554
11.2395 41.7708
11.2844 41.4583
11.3292 40.4635
11.374 39.591
11.4189 39.5347
11.4637 38.6089
11.5086 38.5242
11.5534 38.0142
11.5983 38.3131
11.6431 38.044
11.688 37.7592
11.7328 37.7985
11.7777 38.0831
11.8225 38.4341
11.8674 39.5723
11.9122 42.2457
11.9571 58.6886
12.002 108.462
12.0468 100.178
12.0917 56.3041
12.1366 48.19
12.1814 49.3069
12.2263 52.3076
12.2712 61.9986
12.3161 81.4512
12.3609 90.5005
12.4058 71.1879
12.4507 53.376
12.4956 45.8114
12.5405 42.132
12.5853 40.7069
12.6302 39.616
12.6751 39.2706
12.72 39.1685
12.7649 39.2929
12.8098 39.3388
12.8547 39.6185
12.8996 40.5243
12.9445 40.9474
12.9894 41.9557
13.0343 43.0074
13.0792 45.6598
13.1242 53.8944
13.1691 66.4483
13.214 65.8702
13.2589 67.988
13.3038 71.5424
13.3487 83.0756
13.3937 117.673
13.4386 183.565
13.4835 197.539
13.5285 133.217
13.5734 94.8717
13.6183 83.3221
13.6633 79.5319
13.7082 89.2513
13.7531 125.893
13.7981 185.954
13.843 169.494
13.888 101.508
13.9329 67.4906
13.9779 55.731
14.0228 50.5277
14.0678 48.2919
14.1127 48.6257
14.1577 58.1969
14.2027 94.4505
14.2476 101.238
14.2926 62.3434
14.3376 46.4759
14.3825 43.0976
14.4275 41.5212
14.4725 41.0326
14.5175 40.5732
14.5624 40.0255
14.6074 39.9384
14.6524 40.2707
14.6974 40.3388
14.7424 40.7623
14.7874 41.5562
14.8324 43.5109
14.8774 47.1558
14.9224 50.4375
14.9674 52.1361
15.0124 57.0936
15.0574 71.6696
15.1024 100.199
15.1474 116.136
15.1924 94.4537
15.2374 66.7138
15.2824 51.8277
15.3274 45.2599
15.3725 42.7323
15.4175 41.4076
15.4625 40.7175
15.5076 39.9874
15.5526 39.9061
15.5976 39.7752
15.6426 39.908
15.6877 40.1738
15.7327 41.5806
15.7778 44.4659
15.8228 47.5474
15.8679 49.1497
15.9129 51.5684
15.958 60.9428
16.003 80.7283
16.0481 107.707
16.0931 109.07
16.1382 89.7785
16.1833 66.2219
16.2283 47.6446
16.2734 40.9533
16.3185 38.3192
16.3636 36.8116
16.4086 35.6712
16.4537 34.9248
16.4988 34.2628
16.5439 34.1197
16.589 33.6774
16.6341 33.4395
16.6792 33.189
16.7243 33.0847
16.7694 33.0924
16.8145 33.0064
16.8596 33.2001
16.9047 33.6498
16.9498 35.8181
16.9949 41.3785
17.04 42.9894
17.0851 37.5176
17.1302 34.6862
17.1754 34.358
17.2205 35.2074
17.2656 35.5276
17.3108 35.9343
17.3559 36.7407
17.401 39.4998
17.4462 44.5883
17.4913 49.0925
17.5365 46.6294
17.5815 40.9445
17.6268 37.7862
17.6718 36.5157
17.7171 36.2948
17.7622 37.0898
17.8074 40.7576
17.8525 44.7434
17.8977 43.2482
17.9428 40.766
17.9881 41.156
18.0331 42.9594
18.0784 43.4338
18.1237 44.9168
18.1688 48.9257
18.214 58.7522
18.2591 76.6001
18.3044 89.1532
18.3495 77.9391
18.3948 60.3278
18.4399 53.3204
18.4852 55.1837
18.5303 63.5361
18.5756 66.8694
18.6207 60.9684
18.666 52.2713
18.7112 44.5503
18.7565 39.6641
18.8016 37.7761
18.8469 36.7237
18.892 36.293
18.9374 35.7547
18.9825 35.3208
19.0278 35.0801
19.073 34.7988
19.1183 34.623
19.1635 34.6755
19.2088 34.9214
19.254 35.8105
19.2993 36.5414
19.3447 39.0245
19.3898 45.9591
19.4352 50.5455
19.4804 46.939
19.5257 45.1307
19.5709 45.9368
19.6163 43.6168
19.6615 39.0745
19.7068 35.7295
19.752 34.2456
19.7974 33.578
19.8426 33.0762
19.888 32.624
19.9332 32.7595
19.9786 33.1633
20.0238 33.1827
20.0692 33.3617
20.1144 33.7908
20.1598 34.9138
20.205 36.9468
20.2504 40.6195
20.2957 43.7044
20.3411 42.8226
20.3863 39.1399
20.4318 37.8737
20.477 38.8849
20.5224 41.278
20.5677 40.8666
20.6131 36.955
20.6586 33.9583
20.7038 32.6406
20.7493 31.7306
20.7945 32.1144
20.84 34.4736
20.8853 35.6736
20.9307 33.676
20.976 31.2303
21.0215 30.1954
21.0668 30.011
21.1122 29.8961
21.1575 29.8152
21.203 29.722
21.2483 29.7231
21.2938 30.024
21.3391 29.9896
21.3846 30.6214
21.4299 31.6146
21.4754 32.3191
21.5207 32.2441
21.5662 31.7278
21.6116 31.0192
21.6571 30.3191
21.7024 30.3805
21.7479 30.7491
21.7933 30.9491
21.8388 31.3486
21.8843 31.5634
21.9297 32.0277
21.9752 33.1332
22.0206 35.2426
22.0661 38.2518
22.1115 41.8658
22.157 42.8228
22.2024 41.627
22.248 39.9396
22.2933 38.6584
22.3389 37.5567
22.3843 35.9151
22.4299 33.8303
22.4753 32.2479
22.5208 31.3725
22.5662 30.8561
22.6118 30.6881
22.6572 30.5081
22.7028 30.362
22.7483 30.4964
22.7939 30.7754
22.8393 31.7257
22.8849 32.6477
22.9303 32.5643
22.9759 31.7921
23.0214 31.7721
23.067 32.4634
23.1126 33.8391
23.1581 36.7273
23.2037 38.8267
23.2492 37.5829
23.2948 34.5352
23.3403 32.5506
23.3859 31.8543
23.4314 32.1388
23.477 33.4782
23.5225 34.5523
23.5682 34.1064
23.6137 32.942
23.6593 32.3788
23.7048 33.4792
23.7505 35.5708
23.796 38.3089
23.8417 39.0856
23.8872 36.5965
23.9329 33.1271
23.9784 31.1338
24.0241 30.0914
24.0697 29.5889
24.1154 29.4526
24.1609 29.3168
24.2066 28.8415
24.2522 28.4148
24.2979 27.9168
24.3434 27.6645
24.3892 27.4271
24.4349 27.3837
24.4805 27.2536
24.5262 27.1138
24.5718 26.9912
24.6175 27.0829
24.6631 27.3469
24.7089 28.124
24.7545 28.5811
24.8002 28.4545
24.8458 27.6508
24.8916 26.9707
24.9372 26.8289
24.983 26.8415
25.0286 26.584
25.0744 26.664
25.12 26.6317
25.1658 26.8575
25.2114 26.9396
25.2572 27.1392
25.3029 27.745
25.3487 28.5038
25.3943 28.8634
25.4402 28.8982
25.4858 28.8313
25.5316 29.0204
25.5773 29.6904
25.6231 29.8098
25.669 28.7085
25.7147 27.5383
25.7605 26.8032
25.8062 26.4686
25.8521 26.6426
25.8977 26.8629
25.9436 26.9869
25.9893 26.4258
26.0352 26.0715
26.0809 25.7301
26.1268 25.7922
26.1725 26.0119
26.2184 26.1912
26.2641 26.4117
26.31 26.9416
26.3557 27.4883
26.4017 27.083
26.4474 26.8502
26.4933 26.2986
26.5391 26.1122
26.585 25.8755
26.6308 25.8837
26.6767 25.8417
26.7225 26.0765
26.7684 26.2928
26.8142 26.9001
26.8601 27.5633
26.9059 28.3711
26.9519 28.2951
26.9979 28.4517
27.0437 28.2388
27.0896 27.8985
27.1354 27.0488
27.1814 26.2088
27.2272 25.6541
27.2732 25.4316
27.3191 25.0344
27.3651 25.0112
27.4109 24.8526
27.4569 24.8478
27.5027 24.8423
27.5488 24.9903
27.5946 24.9814
27.6407 24.921
27.6865 25.0319
27.7326 24.933
27.7784 25.183
27.8245 25.2023
27.8703 25.0895
27.9164 24.8619
27.9623 24.6619
28.0084 24.6196
28.0543 25.0269
28.1003 25.3696
28.1462 25.6628
28.1923 25.547
28.2384 25.5165
28.2843 26.014
28.3304 26.3366
28.3764 26.1862
28.4225 25.8409
28.4684 25.6482
28.5145 25.2699
28.5605 24.8045
28.6066 24.5307
28.6526 24.2537
28.6987 23.9875
28.7447 23.532
28.7908 23.2917
28.8368 23.1529
28.8829 23.0391
28.9289 22.8911
28.9751 22.7867
29.0211 22.799
29.0673 22.7727
29.1133 22.9438
29.1595 23.0189
29.2055 23.1167
29.2517 22.7889
29.2977 22.6294
29.3439 22.3663
29.3899 22.2222
29.4361 22.1366
29.4824 22.0696
29.5284 22.1089
29.5746 22.041
29.6207 22.0661
29.6669 22.2494
29.713 22.1458
29.7593 22.0268
29.8053 21.8288
29.8516 21.5901
29.8977 21.5544
29.9439 21.3649
29.99 21.4045
30.0363 21.2382
30.0824 21.3997
30.1287 21.4563
30.1748 21.5358
30.2211 21.3957
30.2673 21.1358
30.3136 21.1626
30.3597 21.0723
30.406 21.1346
30.4522 21.159
30.4985 21.0976
30.5447 21.2455
30.591 21.0735
30.6372 21.0283
30.6835 20.8779
30.7297 20.8908
30.7761 20.9928
30.8224 20.9628
30.8686 21.0732
30.915 21.1349
30.9612 21.478
31.0076 21.5944
31.0538 21.5347
31.1002 21.4875
31.1464 21.3787
31.1928 21.2273
31.2391 21.017
31.2855 20.7467
31.3317 20.5425
31.3781 20.6071
31.4244 20.397
31.4708 20.3638
31.5171 20.3397
31.5636 20.376
31.6098 20.4035
31.6563 20.5358
31.7026 20.4001
31.7491 20.5571
31.7953 20.688
31.8418 20.5158
31.8881 20.3669
31.9346 20.2244
31.9809 20.0312
32.0275 20.0001
32.074 19.9701
32.1203 19.9847
32.1668 20.0843
32.2132 20.106
32.2597 20.1071
32.306 20.0954
32.3526 19.8956
32.399 19.8091
32.4455 19.6263
32.4919 19.3994
32.5385 19.4002
32.5848 19.2107
32.6314 19.1594
32.6778 19.146
32.7244 18.935
32.7708 18.8804
32.8174 18.79
32.8638 18.7224
32.9104 18.7805
32.9569 18.7566
33.0035 18.6927
33.0499 18.7768
33.0966 18.7149
33.143 18.569
33.1897 18.4854
33.2361 18.4693
33.2828 18.4642
33.3293 18.2695
33.3759 18.4316
33.4226 18.417
33.4691 18.4538
33.5158 18.4634
33.5623 18.4048
33.609 18.2989
33.6555 18.343
33.7022 18.1468
33.7487 18.0104
33.7954 17.8311
33.842 17.7421
33.8887 17.5914
33.9353 17.6877
33.982 17.5979
34.0286 17.5404
34.0753 17.454
34.1219 17.4399
34.1687 17.4201
34.2152 17.3839
34.262 17.3469
34.3086 17.1659
34.3554 17.2556
34.402 17.0582
34.4488 16.9985
34.4954 16.9886
34.5422 16.9883
34.5889 16.9504
34.6357 16.9138
34.6825 16.8333
34.7292 16.8019
34.776 16.6688
34.8227 16.6478
34.8695 16.5023
34.9162 16.5058
34.9631 16.3866
35.0098 16.4148
35.0566 16.374
35.1033 16.3227
35.1502 16.2603
35.1969 16.2146
35.2438 16.2073
35.2906 16.2084
35.3375 16.2223
35.3842 16.165
35.4311 16.1247
35.4779 16.1213
35.5248 16.0923
35.5716 16.0225
35.6185 15.9525
35.6653 16.0763
35.7123 16.0651
35.759 16.1883
35.806 16.1161
35.8528 15.9583
35.8998 15.948
35.9468 15.8771
35.9936 15.8378
36.0406 15.6376
36.0874 15.6346
36.1345 15.5802
36.1813 15.5537
36.2283 15.4425
36.2752 15.357
36.3222 15.4423
36.3691 15.3547
36.4161 15.2617
36.463 15.3494
36.5101 15.3642
36.557 15.2998
36.6041 15.1889
36.651 15.1195
36.6981 15.1181
36.745 15.0339
36.7921 14.9992
36.839 14.961
36.8861 14.9524
36.9331 14.8936
36.9802 14.8361
37.0272 14.7772
37.0743 14.7579
37.1213 14.7085
37.1684 14.5614
37.2154 14.5048
37.2626 14.5128
37.3098 14.4912
37.3568 14.4342
37.404 14.4112
37.451 14.3432
37.4982 14.2976
37.5452 14.2175
37.5924 14.1693
37.6395 14.2205
37.6867 14.128
37.7337 14.1256
37.781 14.0218
37.8281 14.0245
37.8753 13.9154
37.9224 13.8401
37.9697 13.8518
38.0168 13.8186
38.064 13.7816
38.1111 13.7093
38.1584 13.683
38.2056 13.6636
38.2529 13.5733
38.3 13.5279
38.3473 13.4965
38.3945 13.4523
38.4418 13.4514
38.489 13.4049
38.5363 13.3369
38.5837 13.2806
38.6309 13.2775
38.6782 13.2389
38.7254 13.1314
38.7728 13.1625
38.82 13.1185
38.8674 13.0669
38.9146 12.986
38.9621 13.0128
39.0093 12.9439
39.0567 12.935
39.104 12.9275
39.1514 12.8435
39.1987 12.8322
39.2461 12.7376
39.2934 12.7564
39.3409 12.7239
39.3882 12.6022
39.4356 12.5795
39.483 12.5801
39.5304 12.4865
39.5778 12.4851
39.6253 12.4875
39.6726 12.4304
39.7201 12.3563
39.7675 12.3329
39.815 12.3254
39.8624 12.278
39.9099 12.2754
39.9575 12.1957
40.0049 12.1915
40.0525 12.1333
40.0999 12.1149
40.1474 12.063
40.1949 12.0892
40.2425 11.9722
40.2899 11.9791
40.3375 11.8938
40.385 11.8613
40.4326 11.8433
40.48 11.7826
40.5277 11.8035
40.5752 11.7418
40.6228 11.694
40.6703 11.6905
40.718 11.6501
40.7655 11.6264
40.8132 11.4969
40.8607 11.5645
40.9084 11.514
40.9559 11.4754
41.0036 11.4576
41.0512 11.4891
41.0989 11.3998
41.1465 11.3912
41.1942 11.3458
41.242 11.2987
41.2896 11.2233
41.3373 11.1946
41.3849 11.1648
41.4327 11.1019
41.4803 11.0651
41.5281 11.089
41.5758 10.9672
41.6236 10.9357
41.6712 10.9262
41.7191 10.9443
41.7667 10.8583
41.8146 10.8798
41.8622 10.8294
41.9101 10.8023
41.9578 10.722
42.0057 10.707
42.0534 10.6496
42.1013 10.6275
42.149 10.668
42.1969 10.5393
42.2446 10.5766
42.2925 10.5092
42.3403 10.469
42.3882 10.4344
42.436 10.4323
42.4839 10.3455
42.5319 10.3338
42.5797 10.3159
42.6277 10.2324
42.6755 10.2606
42.7235 10.1537
42.7713 10.1543
42.8193 10.0842
42.8671 10.0849
42.9152 10.0583
42.963 9.96853
43.0111 9.98073
43.0589 9.94655
43.107 9.88689
43.1549 9.89425
43.2029 9.84754
43.2508 9.78912
43.2989 9.75308
43.3468 9.74869
43.3949 9.69681
43.4429 9.68451
43.491 9.65808
43.5389 9.58966
43.5871 9.58136
43.635 9.527
43.6832 9.50389
43.7312 9.48926
43.7793 9.46946
43.8273 9.4152
43.8755 9.38726
43.9237 9.41252
43.9717 9.34426
44.0199 9.34716
44.068 9.34638
44.1162 9.29339
44.1642 9.22687
44.2125 9.25324
44.2606 9.20961
44.3088 9.13184
44.3569 9.10113
44.4052 9.10498
44.4533 9.04371
44.5016 9.03242
44.5497 8.986
44.598 8.96929
44.6461 8.92896
44.6945 8.90794
44.7426 8.86196
44.791 8.82164
44.8391 8.77352
44.8875 8.74625
44.9357 8.72014
44.984 8.72114
45.0322 8.70856
45.0806 8.6752
45.1288 8.64601
45.1773 8.58636
45.2257 8.55979
45.2739 8.54972
45.3224 8.49757
45.3706 8.4876
45.4191 8.43606
45.4673 8.47269
45.5158 8.38724
45.5641 8.39565
45.6126 8.30825
45.6609 8.33273
45.7094 8.2975
45.7577 8.28487
45.8063 8.21911
45.8546 8.20055
45.9031 8.17309
45.9515 8.17911
46.0001 8.10879
46.0484 8.12558
46.097 8.07198
46.1454 8.02274
46.194 7.99001
46.2424 7.99959
46.291 7.94501
46.3395 7.94903
46.3881 7.84594
46.4365 7.90958
46.4852 7.8704
46.5337 7.81575
46.5823 7.81195
46.631 7.74933
46.6795 7.75333
46.7282 7.69303
46.7767 7.67464
46.8254 7.63083
46.8739 7.61038
46.9226 7.59013
46.9712 7.57662
47.0199 7.54223
47.0685 7.5197
47.1173 7.46696
47.1658 7.45957
47.2146 7.41307
47.2632 7.37984
47.312 7.38569
47.3606 7.3124
47.4095 7.32517
47.4581 7.32397
47.5069 7.27215
47.5556 7.22493
47.6044 7.22302
47.6531 7.20325
47.702 7.19515
47.7507 7.14709
47.7996 7.13439
47.8483 7.08764
47.8972 7.10349
47.9461 7.0418
47.9948 6.98013
48.0438 6.99352
48.0925 6.98483
48.1415 6.96308
48.1902 6.92874
48.2392 6.90388
48.288 6.8791
48.337 6.84587
48.3858 6.82551
48.4348 6.79455
48.4837 6.80225
48.5327 6.76016
48.5815 6.73469
48.6306 6.72276
48.6795 6.71616
48.7285 6.667
48.7774 6.64679
48.8265 6.64285
48.8754 6.58924
48.9245 6.57767
48.9734 6.53731
49.0226 6.53017
49.0715 6.50532
49.1206 6.45113
49.1696 6.47108
49.2188 6.43212
49.2679 6.4203
49.3169 6.3773
49.3661 6.35051
49.4151 6.34103
49.4643 6.3211
49.5134 6.30143
49.5626 6.24782
49.6117 6.24487
49.6609 6.21538
49.71 6.168
49.7592 6.17347
49.8083 6.15196
49.8576 6.15993
49.9067 6.11424
49.956 6.12333
50.0052 6.05994
50.0545 6.03261
50.1036 6.00749
50.153 6.01752
50.2022 5.96704
50.2515 5.94607
50.3007 5.95302
50.3501 5.91832
50.3993 5.90057
50.4487 5.89992
50.498 5.86519
50.5474 5.83933
50.5966 5.81242
50.6461 5.79882
50.6955 5.75049
50.7448 5.76844
50.7943 5.71305
50.8436 5.69443
50.8931 5.65388
50.9424 5.66862
50.9919 5.62077
51.0413 5.63716
51.0908 5.61726
51.1402 5.55042
51.1897 5.53202
51.2391 5.50859
51.2887 5.48559
51.3381 5.51024
51.3877 5.48616
51.4371 5.44208
51.4867 5.4267
51.5362 5.42729
51.5858 5.36744
51.6353 5.32889
51.6849 5.32875
51.7344 5.32811
51.7841 5.32349
51.8336 5.25838
51.8833 5.243
51.9328 5.24295
51.9826 5.1946
52.0323 5.19657
52.0818 5.19334
52.1316 5.1429
52.1812 5.15631
52.231 5.09211
52.2806 5.07634
52.3304 5.05794
52.38 5.03318
52.4298 5.04771
52.4794 4.99383
52.5293 5.03308
52.5789 5.00227
52.6288 4.98
52.6785 4.93237
52.7284 4.94393
52.7781 4.8923
52.828 4.8723
52.8777 4.87002
52.9276 4.84287
52.9774 4.81444
53.0273 4.80863
53.0771 4.76087
53.1271 4.78725
53.1769 4.73475
53.2269 4.70936
53.2767 4.70621
53.3267 4.6789
53.3765 4.65743
53.4266 4.65187
53.4766 4.62465
53.5265 4.61654
53.5765 4.58947
53.6264 4.57812
53.6765 4.53788
53.7264 4.53548
53.7765 4.49649
53.8265 4.46942
53.8766 4.44743
53.9266 4.45913
53.9767 4.42923
54.0267 4.41599
54.0769 4.36547
54.1269 4.29844
54.1771 4.3075
54.2271 4.28389
54.2773 4.28479
54.3274 4.24124
54.3776 4.22504
54.4277 4.22218
54.478 4.1928
54.528 4.14837
54.5783 4.07671
54.6285 4.04084
54.6788 4.02294
54.7289 4.01928
54.7792 3.96755
54.8296 3.9453
54.8798 3.90447
54.9301 3.92315
54.9803 3.87192
55.0307 3.82901
55.0809 3.82157
55.1314 3.78223
55.1816 3.73005
55.232 3.68931
55.2823 3.67415
55.3328 3.59215
55.383 3.57942
55.4335 3.53559
55.4838 3.50735
55.5344 3.45538
55.5847 3.48757
55.6352 3.43573
55.6856 3.43279
55.7361 3.45453