File: XRD/Ni3Fe_FD1039.xy
TT I
1.27165 7.04169
1.31627 6.06078
1.36089 6.08105
1.40551 5.4467
1.45013 5.61821
1.49476 5.55186
1.53938 5.54893
1.584 5.18354
1.62863 4.29273
1.67325 4.90603
1.71787 4.9479
1.7625 4.55669
1.80712 4.55864
1.85174 4.34336
1.89636 4.46181
1.94099 4.38862
1.98562 4.51676
2.03025 4.42113
2.07487 3.83686
2.11949 4.05202
2.16411 3.91682
2.20874 5.40745
2.25338 6.83521
2.298 4.9699
2.34263 5.70922
2.38725 6.81659
2.43188 5.84982
2.4765 6.89282
2.52115 7.52242
2.56577 8.58691
2.6104 8.71446
2.65503 8.39438
2.69965 8.78246
2.7443 8.57683
2.78893 8.54696
2.83356 8.87194
2.87818 9.19932
2.92281 8.50541
2.96744 9.25303
3.01209 10.2804
3.05672 10.9461
3.10135 12.2889
3.14599 13.4179
3.19062 13.8621
3.23527 14.7241
3.2799 15.2068
3.32454 16.115
3.36917 16.8372
3.4138 18.4173
3.45844 19.0943
3.50309 19.9121
3.54773 20.4795
3.59237 21.4053
3.637 28.1326
3.68164 26.7715
3.7263 23.5331
3.77094 24.2706
3.81558 25.3993
3.86022 26.4741
3.90486 27.3204
3.9495 28.2444
3.99416 29.5591
4.0388 30.5431
4.08344 31.8311
4.12809 31.9711
4.17273 33.539
4.21738 35.0966
4.26204 52.6155
4.30669 56.5305
4.35133 40.3785
4.39598 41.3854
4.44063 43.2535
4.4853 45.9944
4.52995 46.5858
4.5746 48.3321
4.61925 51.0989
4.6639 52.8212
4.70855 55.2477
4.75322 57.8628
4.79788 61.0191
4.84253 64.0097
4.88719 67.8907
4.93184 71.663
4.97652 76.9312
5.02118 83.172
5.06583 89.5758
5.11049 97.4849
5.15515 117.585
5.19981 232.604
5.24449 2479.26
5.28916 13499.6
5.33382 3254.55
5.37848 215.277
5.42315 124.049
5.46783 108.125
5.5125 101.423
5.55716 97.7813
5.60183 93.5023
5.6465 91.5859
5.69117 89.8291
5.73586 88.1201
5.78053 86.7499
5.8252 86.1776
5.86988 87.0027
5.91455 88.7339
5.95924 94.7758
6.00392 163.039
6.0486 885.713
6.09328 4551.12
6.13795 3561.52
6.18263 239.231
6.22733 87.5646
6.27201 76.1396
6.3167 72.8329
6.36138 68.3274
6.40606 64.5912
6.45075 63.1198
6.49545 61.8821
6.54014 60.3268
6.58483 58.7852
6.62952 57.9054
6.67421 58.6939
6.71892 64.2659
6.76361 56.6648
6.8083 54.5968
6.853 53.8954
6.89769 53.1525
6.94239 53.5712
6.98711 52.5474
7.03181 51.9791
7.07651 52.0867
7.12121 51.8903
7.16591 51.2926
7.21063 51.2655
7.25533 51.8213
7.30004 62.0844
7.34475 56.0185
7.38945 51.7195
7.43416 50.8381
7.47889 51.7089
7.5236 59.5778
7.56831 75.699
7.61303 57.3449
7.65774 52.8116
7.70247 53.0228
7.74719 53.2819
7.79191 53.6646
7.83663 53.9188
7.88135 54.9389
7.92607 55.7218
7.97081 56.9314
8.01553 57.7683
8.06026 58.778
8.10498 59.965
8.14971 62.3108
8.19446 64.0374
8.23919 65.2689
8.28392 68.1739
8.32865 70.3935
8.37339 73.7548
8.41812 77.4015
8.46288 86.0456
8.50761 128.724
8.55235 366.528
8.59709 1076.81
8.64183 2263.72
8.68658 1089.55
8.73134 176.286
8.77609 94.677
8.82083 88.2401
8.86558 85.6057
8.91033 83.8155
8.9551 82.2658
8.99985 80.9918
9.04461 80.1439
9.08936 79.5931
9.13412 79.1792
9.17888 79.3799
9.22365 93.5934
9.26841 117.637
9.31318 90.206
9.35794 80.0412
9.4027 79.8653
9.44749 80.6338
9.49226 81.0577
9.53703 81.9258
9.5818 83.1822
9.62657 83.8734
9.67134 86.1928
9.71614 87.6567
9.76091 89.409
9.80569 91.4115
9.85047 94.2241
9.89525 98.6639
9.94005 106.168
9.98484 147.482
10.0296 345.046
10.0744 769.709
10.1192 1748.94
10.164 1666.04
10.2088 434.641
10.2536 124.649
10.2984 102.844
10.3432 100.993
10.388 97.5383
10.4328 107.554
10.4776 159.565
10.5224 268.461
10.5672 505.974
10.612 555.389
10.6568 225.552
10.7017 105.212
10.7465 86.66
10.7913 79.9317
10.8361 77.7034
10.8809 75.4388
10.9257 73.6217
10.9706 72.4948
11.0154 70.7334
11.0602 69.2023
11.105 67.892
11.1499 67.104
11.1947 67.2607
11.2395 65.5252
11.2844 64.6868
11.3292 63.6905
11.374 62.8438
11.4189 62.4006
11.4637 61.8657
11.5086 61.1651
11.5534 60.9716
11.5983 61.0523
11.6431 60.3917
11.688 59.9474
11.7328 59.6478
11.7777 59.7055
11.8225 59.9427
11.8674 59.9258
11.9122 62.0596
11.9571 69.018
12.002 67.4682
12.0468 64.3435
12.0917 76.601
12.1366 98.4222
12.1814 146.951
12.2263 206.004
12.2712 178.107
12.3161 98.5065
12.3609 64.2146
12.4058 61.3625
12.4507 60.7225
12.4956 61.3468
12.5405 61.563
12.5853 61.7072
12.6302 62.6517
12.6751 64.0022
12.72 63.6701
12.7649 64.3678
12.8098 64.8225
12.8547 66.366
12.8996 67.763
12.9445 69.1496
12.9894 70.9335
13.0343 72.577
13.0792 76.4907
13.1242 82.5332
13.1691 107.296
13.214 146.335
13.2589 226.88
13.3038 363.753
13.3487 440.952
13.3937 278.346
13.4386 126.654
13.4835 98.8247
13.5285 119.146
13.5734 155.254
13.6183 235.991
13.6633 354.365
13.7082 360.498
13.7531 204.272
13.7981 100.155
13.843 79.2036
13.888 76.706
13.9329 74.4981
13.9779 73.3256
14.0228 71.9793
14.0678 70.6661
14.1127 72.0485
14.1577 76.1747
14.2027 74.037
14.2476 69.1769
14.2926 67.4867
14.3376 67.3844
14.3825 66.8291
14.4275 66.331
14.4725 66.0273
14.5175 66.2947
14.5624 66.224
14.6074 66.6169
14.6524 67.037
14.6974 67.2008
14.7424 68.4876
14.7874 74.4121
14.8324 88.3778
14.8774 109.015
14.9224 147.302
14.9674 207.9
15.0124 227.387
15.0574 160.074
15.1024 93.1499
15.1474 70.9816
15.1924 67.7419
15.2374 66.4719
15.2824 65.7514
15.3274 64.6452
15.3725 64.3642
15.4175 63.9729
15.4625 63.4265
15.5076 63.1955
15.5526 63.2266
15.5976 63.2589
15.6426 63.5893
15.6877 68.4799
15.7327 78.963
15.7778 93.47
15.8228 121.878
15.8679 168.228
15.9129 200.699
15.958 166.655
16.003 102.054
16.0481 69.3381
16.0931 62.9831
16.1382 59.8593
16.1833 58.3031
16.2283 56.6149
16.2734 56.0827
16.3185 55.6581
16.3636 55.0991
16.4086 54.3422
16.4537 53.8557
16.4988 53.3439
16.5439 53.4378
16.589 53.0653
16.6341 52.7763
16.6792 52.5462
16.7243 52.651
16.7694 52.6502
16.8145 52.5194
16.8596 52.8839
16.9047 53.5776
16.9498 54.2235
16.9949 53.9818
17.04 53.7612
17.0851 54.6221
17.1302 56.9008
17.1754 59.8991
17.2205 64.8309
17.2656 72.1584
17.3108 81.461
17.3559 82.3599
17.401 71.4657
17.4462 61.235
17.4913 57.4475
17.5365 56.8471
17.5815 57.2598
17.6268 57.6849
17.6718 57.9477
17.7171 58.7087
17.7622 60.0237
17.8074 60.7058
17.8525 61.7449
17.8977 66.4651
17.9428 72.7271
17.9881 81.4985
18.0331 97.4906
18.0784 120.849
18.1237 141.579
18.1688 136.615
18.214 108.317
18.2591 87.8599
18.3044 88.5998
18.3495 99.2469
18.3948 106.956
18.4399 97.7482
18.4852 79.035
18.5303 65.8015
18.5756 61.2942
18.6207 59.9923
18.666 58.9525
18.7112 58.0146
18.7565 57.1209
18.8016 56.9285
18.8469 56.2091
18.892 55.9683
18.9374 55.5125
18.9825 55.0654
19.0278 54.7183
19.073 54.9867
19.1183 55.0258
19.1635 56.191
19.2088 58.0298
19.254 60.483
19.2993 65.5175
19.3447 71.9819
19.3898 75.9818
19.4352 72.2024
19.4804 63.193
19.5257 56.1323
19.5709 52.9144
19.6163 52.3849
19.6615 52.2742
19.7068 51.7986
19.752 51.4378
19.7974 51.7351
19.8426 52.6157
19.888 53.486
19.9332 54.749
19.9786 57.2689
20.0238 60.6448
20.0692 66.4676
20.1144 70.2008
20.1598 68.9016
20.205 63.8343
20.2504 61.8022
20.2957 63.3737
20.3411 65.3461
20.3863 63.8663
20.4318 57.9833
20.477 52.749
20.5224 50.0759
20.5677 49.06
20.6131 48.7625
20.6586 48.1869
20.7038 48.1844
20.7493 48.0803
20.7945 48.1965
20.84 47.8375
20.8853 47.4245
20.9307 47.1052
20.976 47.3914
21.0215 47.3617
21.0668 47.5561
21.1122 47.8911
21.1575 48.6115
21.203 49.5225
21.2483 50.2349
21.2938 50.6335
21.3391 49.142
21.3846 47.8331
21.4299 47.0921
21.4754 47.2489
21.5207 47.2623
21.5662 47.2954
21.6116 47.8082
21.6571 48.7809
21.7024 49.8452
21.7479 51.5968
21.7933 53.9362
21.8388 57.8845
21.8843 62.2209
21.9297 65.201
21.9752 63.7957
22.0206 59.6602
22.0661 56.0871
22.1115 55.7984
22.157 55.9005
22.2024 54.1887
22.248 51.0222
22.2933 48.9091
22.3389 47.9757
22.3843 47.5445
22.4299 47.4294
22.4753 47.4179
22.5208 47.402
22.5662 47.3726
22.6118 47.4058
22.6572 47.5021
22.7028 48.3081
22.7483 48.9289
22.7939 49.5687
22.8393 50.9554
22.8849 53.2307
22.9303 55.5869
22.9759 57.7311
23.0214 57.3674
23.067 54.6096
23.1126 50.8424
23.1581 48.5449
23.2037 47.5909
23.2492 47.5662
23.2948 47.8171
23.3403 48.4123
23.3859 49.1301
23.4314 50.143
23.477 51.8375
23.5225 54.3433
23.5682 57.3031
23.6137 58.3275
23.6593 55.9241
23.7048 51.8638
23.7505 48.1304
23.796 45.9487
23.8417 45.0596
23.8872 44.5104
23.9329 44.1578
23.9784 43.7642
24.0241 43.6128
24.0697 43.4405
24.1154 43.14
24.1609 42.7545
24.2066 42.6945
24.2522 42.6208
24.2979 42.3452
24.3434 42.216
24.3892 42.255
24.4349 42.1393
24.4805 41.9571
24.5262 42.0921
24.5718 42.0514
24.6175 42.027
24.6631 41.7935
24.7089 41.4475
24.7545 41.3438
24.8002 41.1694
24.8458 41.1399
24.8916 40.993
24.9372 41.2214
24.983 41.4633
25.0286 41.8407
25.0744 42.6214
25.12 43.1449
25.1658 43.7976
25.2114 44.1193
25.2572 44.3222
25.3029 44.3788
25.3487 44.5284
25.3943 44.282
25.4402 42.9608
25.4858 41.9191
25.5316 40.81
25.5773 39.9533
25.6231 40.0151
25.669 39.5276
25.7147 39.6187
25.7605 39.5133
25.8062 39.6629
25.8521 39.8863
25.8977 39.7453
25.9436 40.0598
25.9893 40.0496
26.0352 40.8032
26.0809 40.8676
26.1268 41.2496
26.1725 40.8359
26.2184 40.1258
26.2641 39.635
26.31 39.4768
26.3557 39.3181
26.4017 39.2737
26.4474 39.6835
26.4933 40.0457
26.5391 40.4016
26.585 41.1131
26.6308 41.5703
26.6767 41.8738
26.7225 41.743
26.7684 40.9726
26.8142 40.4411
26.8601 39.9925
26.9059 39.5834
26.9519 38.9817
26.9979 38.6865
27.0437 38.2802
27.0896 37.927
27.1354 38.1192
27.1814 37.9465
27.2272 37.8168
27.2732 37.8242
27.3191 37.6739
27.3651 37.7319
27.4109 37.7133
27.4569 37.8378
27.5027 37.8797
27.5488 38.0054
27.5946 37.7084
27.6407 37.5925
27.6865 37.4425
27.7326 37.2227
27.7784 37.1935
27.8245 37.0379
27.8703 37.3968
27.9164 37.6521
27.9623 37.8894
28.0084 38.2
28.0543 38.8338
28.1003 38.7202
28.1462 38.5996
28.1923 38.3242
28.2384 37.6287
28.2843 37.1554
28.3304 36.7495
28.3764 36.2514
28.4225 35.7425
28.4684 35.5941
28.5145 35.241
28.5605 35.2429
28.6066 34.9649
28.6526 35.051
28.6987 34.9164
28.7447 34.6795
28.7908 34.7185
28.8368 34.6954
28.8829 34.7248
28.9289 34.6291
28.9751 34.4934
29.0211 34.2584
29.0673 34.0587
29.1133 33.9178
29.1595 33.7963
29.2055 33.7043
29.2517 33.624
29.2977 33.5582
29.3439 33.5819
29.3899 33.6369
29.4361 33.5451
29.4824 33.4323
29.5284 33.0959
29.5746 32.7878
29.6207 32.5174
29.6669 32.3928
29.713 32.3191
29.7593 32.1751
29.8053 32.1287
29.8516 32.1107
29.8977 32.1286
29.9439 32.0002
29.99 31.9011
30.0363 31.8362
30.0824 31.8864
30.1287 31.7263
30.1748 31.8775
30.2211 31.7784
30.2673 31.7264
30.3136 31.7269
30.3597 31.6188
30.406 31.6227
30.4522 31.5034
30.4985 31.3513
30.5447 31.6375
30.591 31.602
30.6372 31.617
30.6835 31.6984
30.7297 31.718
30.7761 31.6927
30.8224 31.5736
30.8686 31.3634
30.915 31.0872
30.9612 30.9982
31.0076 30.7896
31.0538 30.7039
31.1002 30.6061
31.1464 30.4152
31.1928 30.4146
31.2391 30.4438
31.2855 30.3509
31.3317 30.2951
31.3781 30.4191
31.4244 30.3581
31.4708 30.2743
31.5171 30.4015
31.5636 30.2586
31.6098 30.0817
31.6563 29.894
31.7026 29.6516
31.7491 29.636
31.7953 29.733
31.8418 29.626
31.8881 29.6328
31.9346 29.6147
31.9809 29.6616
32.0275 29.5445
32.074 29.361
32.1203 29.1595
32.1668 29.0609
32.2132 28.8886
32.2597 28.7992
32.306 28.7347
32.3526 28.5399
32.399 28.4613
32.4455 28.1985
32.4919 28.1982
32.5385 28.0979
32.5848 28.0376
32.6314 28.0395
32.6778 27.9065
32.7244 27.7814
32.7708 27.6267
32.8174 27.7044
32.8638 27.5167
32.9104 27.6357
32.9569 27.5151
33.0035 27.3858
33.0499 27.3985
33.0966 27.2824
33.143 27.3257
33.1897 27.3021
33.2361 27.1816
33.2828 27.2291
33.3293 26.9585
33.3759 26.9918
33.4226 26.7884
33.4691 26.677
33.5158 26.576
33.5623 26.367
33.609 26.2832
33.6555 26.2311
33.7022 26.0764
33.7487 25.9895
33.7954 25.9467
33.842 25.9038
33.8887 25.9036
33.9353 25.7718
33.982 25.7234
34.0286 25.5356
34.0753 25.5424
34.1219 25.3689
34.1687 25.2816
34.2152 25.2822
34.262 25.113
34.3086 25.0636
34.3554 25.0493
34.402 24.9193
34.4488 24.8306
34.4954 24.7753
34.5422 24.6583
34.5889 24.5775
34.6357 24.5121
34.6825 24.4533
34.7292 24.3651
34.776 24.2668
34.8227 24.2429
34.8695 24.1891
34.9162 24.083
34.9631 24.0256
35.0098 24.0971
35.0566 23.9227
35.1033 23.8878
35.1502 23.8509
35.1969 23.7132
35.2438 23.7284
35.2906 23.6785
35.3375 23.6425
35.3842 23.6297
35.4311 23.5875
35.4779 23.5873
35.5248 23.4974
35.5716 23.449
35.6185 23.2679
35.6653 23.2769
35.7123 23.1227
35.759 23.0609
35.806 22.9265
35.8528 22.7087
35.8998 22.8183
35.9468 22.7437
35.9936 22.7267
36.0406 22.6236
36.0874 22.5836
36.1345 22.5176
36.1813 22.4493
36.2283 22.3379
36.2752 22.2474
36.3222 22.2693
36.3691 22.1693
36.4161 22.0155
36.463 22.0275
36.5101 22.0511
36.557 21.965
36.6041 21.8392
36.651 21.8327
36.6981 21.7155
36.745 21.687
36.7921 21.5328
36.839 21.5727
36.8861 21.4534
36.9331 21.3338
36.9802 21.284
37.0272 21.2297
37.0743 21.119
37.1213 21.1095
37.1684 21.0098
37.2154 20.961
37.2626 20.8798
37.3098 20.8537
37.3568 20.7549
37.404 20.7076
37.451 20.654
37.4982 20.5621
37.5452 20.464
37.5924 20.4666
37.6395 20.5464
37.6867 20.3373
37.7337 20.2356
37.781 20.1669
37.8281 20.1252
37.8753 20.0361
37.9224 19.9614
37.9697 19.9339
38.0168 19.84
38.064 19.8012
38.1111 19.8163
38.1584 19.6561
38.2056 19.6244
38.2529 19.5711
38.3 19.5299
38.3473 19.4702
38.3945 19.3987
38.4418 19.3476
38.489 19.282
38.5363 19.1709
38.5837 19.1392
38.6309 19.0783
38.6782 18.987
38.7254 18.8656
38.7728 18.867
38.82 18.8013
38.8674 18.7778
38.9146 18.7334
38.9621 18.6442
39.0093 18.5901
39.0567 18.5823
39.104 18.454
39.1514 18.3825
39.1987 18.3059
39.2461 18.3032
39.2934 18.2053
39.3409 18.1472
39.3882 18.1084
39.4356 18.0518
39.483 17.993
39.5304 17.9289
39.5778 17.8575
39.6253 17.8486
39.6726 17.7833
39.7201 17.7209
39.7675 17.6894
39.815 17.6079
39.8624 17.5738
39.9099 17.5156
39.9575 17.4356
40.0049 17.3865
40.0525 17.3109
40.0999 17.2888
40.1474 17.2283
40.1949 17.1235
40.2425 17.1122
40.2899 17.0455
40.3375 17.0421
40.385 16.9055
40.4326 16.9233
40.48 16.8259
40.5277 16.8445
40.5752 16.7547
40.6228 16.6679
40.6703 16.6071
40.718 16.569
40.7655 16.4411
40.8132 16.4857
40.8607 16.4379
40.9084 16.4156
40.9559 16.3233
41.0036 16.2816
41.0512 16.189
41.0989 16.1755
41.1465 16.1418
41.1942 16.0602
41.242 15.9761
41.2896 15.9653
41.3373 15.8562
41.3849 15.8704
41.4327 15.7793
41.4803 15.6942
41.5281 15.634
41.5758 15.5938
41.6236 15.553
41.6712 15.5177
41.7191 15.4222
41.7667 15.4141
41.8146 15.3267
41.8622 15.3483
41.9101 15.2936
41.9578 15.1721
42.0057 15.1406
42.0534 15.1521
42.1013 15.0863
42.149 14.9425
42.1969 14.9407
42.2446 14.9165
42.2925 14.8269
42.3403 14.769
42.3882 14.7897
42.436 14.7561
42.4839 14.6749
42.5319 14.6183
42.5797 14.5935
42.6277 14.4802
42.6755 14.43
42.7235 14.4111
42.7713 14.3436
42.8193 14.3079
42.8671 14.2535
42.9152 14.2704
42.963 14.1627
43.0111 14.1395
43.0589 14.0916
43.107 13.9683
43.1549 14.0061
43.2029 13.9176
43.2508 13.8946
43.2989 13.8432
43.3468 13.7476
43.3949 13.7223
43.4429 13.6579
43.491 13.5808
43.5389 13.5531
43.5871 13.5647
43.635 13.4837
43.6832 13.4882
43.7312 13.442
43.7793 13.3052
43.8273 13.3127
43.8755 13.2407
43.9237 13.2437
43.9717 13.1689
44.0199 13.0943
44.068 13.1057
44.1162 13.071
44.1642 13.0047
44.2125 12.9055
44.2606 12.9251
44.3088 12.8291
44.3569 12.8179
44.4052 12.7763
44.4533 12.6946
44.5016 12.6435
44.5497 12.6174
44.598 12.603
44.6461 12.5217
44.6945 12.4698
44.7426 12.4527
44.791 12.4243
44.8391 12.4122
44.8875 12.3164
44.9357 12.2931
44.984 12.1998
45.0322 12.1958
45.0806 12.1459
45.1288 12.162
45.1773 12.0563
45.2257 12.0006
45.2739 11.9673
45.3224 11.968
45.3706 11.9363
45.4191 11.8264
45.4673 11.7976
45.5158 11.7403
45.5641 11.69
45.6126 11.702
45.6609 11.6473
45.7094 11.569
45.7577 11.5701
45.8063 11.4813
45.8546 11.4829
45.9031 11.449
45.9515 11.3712
46.0001 11.3728
46.0484 11.3274
46.097 11.2923
46.1454 11.2517
46.194 11.2282
46.2424 11.1681
46.291 11.1222
46.3395 11.071
46.3881 11.0241
46.4365 11.0135
46.4852 10.9482
46.5337 10.8919
46.5823 10.9114
46.631 10.7965
46.6795 10.799
46.7282 10.8065
46.7767 10.7156
46.8254 10.66
46.8739 10.6232
46.9226 10.5978
46.9712 10.5489
47.0199 10.4629
47.0685 10.4881
47.1173 10.454
47.1658 10.4025
47.2146 10.3786
47.2632 10.2757
47.312 10.315
47.3606 10.2366
47.4095 10.2161
47.4581 10.1958
47.5069 10.1315
47.5556 10.0807
47.6044 10.0518
47.6531 10.0091
47.702 9.96279
47.7507 9.9552
47.7996 9.91529
47.8483 9.85459
47.8972 9.84047
47.9461 9.79897
47.9948 9.7741
48.0438 9.71195
48.0925 9.69975
48.1415 9.67141
48.1902 9.59454
48.2392 9.64096
48.288 9.59401
48.337 9.53297
48.3858 9.48902
48.4348 9.45891
48.4837 9.46433
48.5327 9.40145
48.5815 9.35138
48.6306 9.33734
48.6795 9.32307
48.7285 9.22587
48.7774 9.20779
48.8265 9.19671
48.8754 9.11797
48.9245 9.08888
48.9734 9.06642
49.0226 9.0793
49.0715 9.02719
49.1206 8.97965
49.1696 8.95707
49.2188 8.92658
49.2679 8.88427
49.3169 8.85677
49.3661 8.79062
49.4151 8.75803
49.4643 8.73223
49.5134 8.71082
49.5626 8.65779
49.6117 8.6297
49.6609 8.61236
49.71 8.56044
49.7592 8.53658
49.8083 8.47388
49.8576 8.51174
49.9067 8.41896
49.956 8.38635
50.0052 8.37788
50.0545 8.34355
50.1036 8.299
50.153 8.27631
50.2022 8.29214
50.2515 8.18805
50.3007 8.1757
50.3501 8.14257
50.3993 8.14
50.4487 8.07793
50.498 8.03828
50.5474 7.99705
50.5966 8.01374
50.6461 7.96269
50.6955 7.92917
50.7448 7.90079
50.7943 7.86182
50.8436 7.83686
50.8931 7.81108
50.9424 7.81147
50.9919 7.72445
51.0413 7.73103
51.0908 7.70255
51.1402 7.68704
51.1897 7.60464
51.2391 7.58416
51.2887 7.5752
51.3381 7.52922
51.3877 7.5283
51.4371 7.46353
51.4867 7.41853
51.5362 7.41552
51.5858 7.40458
51.6353 7.31403
51.6849 7.31262
51.7344 7.28433
51.7841 7.27706
51.8336 7.24795
51.8833 7.22731
51.9328 7.19141
51.9826 7.13862
52.0323 7.11324
52.0818 7.11043
52.1316 7.05873
52.1812 7.04817
52.231 7.0073
52.2806 6.93892
52.3304 6.94272
52.38 6.93234
52.4298 6.88823
52.4794 6.864
52.5293 6.81768
52.5789 6.84948
52.6288 6.78104
52.6785 6.74545
52.7284 6.73443
52.7781 6.68973
52.828 6.673
52.8777 6.63925
52.9276 6.6097
52.9774 6.59402
53.0273 6.56927
53.0771 6.55873
53.1271 6.54696
53.1769 6.45763
53.2269 6.44712
53.2767 6.4003
53.3267 6.39374
53.3765 6.32802
53.4266 6.33647
53.4766 6.27914
53.5265 6.27649
53.5765 6.24615
53.6264 6.25374
53.6765 6.23281
53.7264 6.1567
53.7765 6.15448
53.8265 6.11388
53.8766 6.08237
53.9266 6.08382
53.9767 6.05301
54.0267 5.9745
54.0769 5.99638
54.1269 5.9451
54.1771 5.93253
54.2271 5.90491
54.2773 5.86271
54.3274 5.86982
54.3776 5.80711
54.4277 5.78839
54.478 5.72541
54.528 5.71109
54.5783 5.6831
54.6285 5.64254
54.6788 5.57407
54.7289 5.5715
54.7792 5.47001
54.8296 5.44851
54.8798 5.46552
54.9301 5.39907
54.9803 5.37369
55.0307 5.35875
55.0809 5.3513
55.1314 5.28801
55.1816 5.19826
55.232 5.16512
55.2823 5.09896
55.3328 5.0682
55.383 5.05079
55.4335 4.98658
55.4838 4.93467
55.5344 4.9069
55.5847 4.84578
55.6352 4.81587
55.6856 4.83571
55.7361 4.74516