File: XRD/Ni3Fe_FD0128.xy
TT I
1.27165 7.95949
1.31627 7.13895
1.36089 7.15349
1.40551 6.3984
1.45013 6.52343
1.49476 6.65353
1.53938 6.13377
1.584 5.7823
1.62863 5.81517
1.67325 5.62059
1.71787 5.26252
1.7625 5.18224
1.80712 5.57906
1.85174 5.51096
1.89636 5.25135
1.94099 5.25224
1.98562 4.95981
2.03025 5.1394
2.07487 4.87797
2.11949 5.09006
2.16411 4.44998
2.20874 4.63614
2.25338 4.2093
2.298 4.29226
2.34263 4.52639
2.38725 4.56773
2.43188 4.22805
2.4765 4.30738
2.52115 4.50873
2.56577 4.69722
2.6104 4.86324
2.65503 4.99294
2.69965 5.12364
2.7443 5.9414
2.78893 5.95237
2.83356 6.88475
2.87818 7.79491
2.92281 8.217
2.96744 9.67482
3.01209 10.3004
3.05672 11.6013
3.10135 12.2957
3.14599 13.0447
3.19062 13.7034
3.23527 14.9424
3.2799 15.7214
3.32454 16.1191
3.36917 17.6889
3.4138 19.0988
3.45844 19.2569
3.50309 20.0661
3.54773 21.0601
3.59237 22.2333
3.637 22.4181
3.68164 22.8049
3.7263 24.1126
3.77094 24.5725
3.81558 25.5807
3.86022 26.1155
3.90486 27.4058
3.9495 28.7784
3.99416 29.4687
4.0388 30.1603
4.08344 31.8556
4.12809 32.4537
4.17273 33.9368
4.21738 35.4955
4.26204 36.2316
4.30669 37.0643
4.35133 39.8105
4.39598 41.0117
4.44063 42.9175
4.4853 44.4419
4.52995 47.127
4.5746 48.759
4.61925 51.4371
4.6639 53.6321
4.70855 56.4467
4.75322 59.3478
4.79788 62.0633
4.84253 65.8858
4.88719 70.1833
4.93184 75.1426
4.97652 82.8359
5.02118 90.9421
5.06583 102.162
5.11049 119.113
5.15515 158.714
5.19981 582.896
5.24449 3767.09
5.28916 7795.35
5.33382 6464.01
5.37848 505.952
5.42315 169.126
5.46783 129.852
5.5125 115.045
5.55716 108.141
5.60183 102.19
5.6465 99.1536
5.69117 97.2809
5.73586 95.7661
5.78053 95.6023
5.8252 95.7198
5.86988 99.1125
5.91455 106.421
5.95924 126.403
6.00392 300.534
6.0486 1401.74
6.09328 2553.1
6.13795 3938.77
6.18263 727.531
6.22733 127.1
6.27201 90.5593
6.3167 78.6087
6.36138 72.2602
6.40606 68.5278
6.45075 66.5209
6.49545 64.2812
6.54014 62.0056
6.58483 60.5068
6.62952 59.2896
6.67421 57.998
6.71892 56.8758
6.76361 56.5733
6.8083 55.3752
6.853 54.3484
6.89769 54.1445
6.94239 53.5715
6.98711 53.2197
7.03181 52.5396
7.07651 52.5586
7.12121 52.279
7.16591 52.062
7.21063 51.6556
7.25533 51.3043
7.30004 51.7691
7.34475 51.8173
7.38945 51.923
7.43416 51.5592
7.47889 51.7987
7.5236 56.3943
7.56831 65.8021
7.61303 55.7834
7.65774 53.2132
7.70247 53.5649
7.74719 53.8531
7.79191 54.5991
7.83663 54.6005
7.88135 55.4983
7.92607 56.526
7.97081 57.4815
8.01553 58.7675
8.06026 60.2569
8.10498 61.5095
8.14971 63.0634
8.19446 64.8256
8.23919 67.6042
8.28392 70.3615
8.32865 73.1523
8.37339 77.7801
8.41812 83.5648
8.46288 95.8071
8.50761 176.321
8.55235 614.598
8.59709 846.579
8.64183 1401.4
8.68658 1690.65
8.73134 433.009
8.77609 118.447
8.82083 97.5724
8.86558 91.2497
8.91033 87.3023
8.9551 85.3095
8.99985 83.6065
9.04461 82.8003
9.08936 81.7777
9.13412 80.8815
9.17888 81.2473
9.22365 88.0237
9.26841 101.193
9.31318 87.945
9.35794 81.6787
9.4027 81.7306
9.44749 82.5919
9.49226 83.1602
9.53703 83.8819
9.5818 85.793
9.62657 86.1416
9.67134 87.8297
9.71614 90.2993
9.76091 92.5866
9.80569 94.9303
9.85047 98.2397
9.89525 103.352
9.94005 114.486
9.98484 188.974
10.0296 556.256
10.0744 716.123
10.1192 956.778
10.164 1606.64
10.2088 1030.54
10.2536 229.682
10.2984 117.202
10.3432 108.324
10.388 104.22
10.4328 121.979
10.4776 217.618
10.5224 256.093
10.5672 311.71
10.612 477.737
10.6568 385.09
10.7017 140.321
10.7465 91.3984
10.7913 83.3208
10.8361 79.9779
10.8809 77.4922
10.9257 75.3354
10.9706 74.0713
11.0154 71.9745
11.0602 71.1108
11.105 69.7922
11.1499 68.2741
11.1947 67.3615
11.2395 66.1171
11.2844 65.6869
11.3292 65.0088
11.374 64.2311
11.4189 63.7562
11.4637 63.1515
11.5086 62.5448
11.5534 61.9353
11.5983 61.6272
11.6431 61.5053
11.688 61.0897
11.7328 60.8954
11.7777 60.6729
11.8225 60.6703
11.8674 60.7882
11.9122 62.22
11.9571 66.4262
12.002 65.8174
12.0468 67.8182
12.0917 90.8596
12.1366 107.316
12.1814 113.722
12.2263 143.259
12.2712 188.484
12.3161 143.514
12.3609 76.0565
12.4058 63.7254
12.4507 62.9292
12.4956 62.3725
12.5405 62.779
12.5853 63.2673
12.6302 63.1311
12.6751 63.933
12.72 64.6627
12.7649 65.8612
12.8098 66.5346
12.8547 67.6587
12.8996 69.1013
12.9445 70.5764
12.9894 72.7061
13.0343 74.7381
13.0792 79.439
13.1242 86.7996
13.1691 133.717
13.214 187.82
13.2589 198.274
13.3038 230.683
13.3487 334.749
13.3937 387.575
13.4386 223.053
13.4835 122.079
13.5285 155.838
13.5734 182.296
13.6183 184.892
13.6633 223.892
13.7082 318.212
13.7531 309.732
13.7981 161.506
13.843 89.1621
13.888 80.3349
13.9329 76.9799
13.9779 75.5726
14.0228 73.8526
14.0678 72.5593
14.1127 72.5559
14.1577 74.3928
14.2027 72.6332
14.2476 69.9925
14.2926 69.2257
14.3376 68.4013
14.3825 68.0427
14.4275 67.6474
14.4725 67.5774
14.5175 67.9211
14.5624 67.703
14.6074 68.1432
14.6524 68.536
14.6974 69.0623
14.7424 71.1077
14.7874 80.5252
14.8324 107.372
14.8774 120.471
14.9224 122.952
14.9674 140.731
15.0124 183.942
15.0574 205.489
15.1024 142.788
15.1474 83.0301
15.1924 70.9205
15.2374 68.679
15.2824 67.2808
15.3274 66.4609
15.3725 65.8511
15.4175 65.5831
15.4625 65.0705
15.5076 64.8579
15.5526 64.9418
15.5976 65.3241
15.6426 66.082
15.6877 73.5481
15.7327 95.3257
15.7778 107.357
15.8228 107.594
15.8679 119.11
15.9129 147.334
15.958 183.25
16.003 156.069
16.0481 91.6582
16.0931 66.8417
16.1382 61.679
16.1833 59.9638
16.2283 58.3004
16.2734 57.7444
16.3185 56.7885
16.3636 56.3605
16.4086 55.6124
16.4537 55.2028
16.4988 54.4688
16.5439 54.6263
16.589 54.4463
16.6341 54.1281
16.6792 53.5869
16.7243 53.9207
16.7694 53.61
16.8145 53.6379
16.8596 53.7134
16.9047 54.3144
16.9498 54.6151
16.9949 54.7559
17.04 55.0845
17.0851 56.3903
17.1302 60.6371
17.1754 64.0134
17.2205 64.5994
17.2656 65.6575
17.3108 70.4742
17.3559 77.5734
17.401 80.8382
17.4462 71.7265
17.4913 61.4597
17.5365 58.6362
17.5815 58.5457
17.6268 58.888
17.6718 59.2863
17.7171 59.812
17.7622 60.8797
17.8074 61.5995
17.8525 63.3014
17.8977 71.6972
17.9428 83.7358
17.9881 88.0852
18.0331 88.7711
18.0784 94.7281
18.1237 110.584
18.1688 137.917
18.214 143.607
18.2591 113.275
18.3044 87.6354
18.3495 84.6425
18.3948 92.3564
18.4399 101.803
18.4852 96.0951
18.5303 77.4375
18.5756 64.9495
18.6207 61.8993
18.666 60.4019
18.7112 59.4428
18.7565 59.0485
18.8016 58.3934
18.8469 57.8025
18.892 57.2747
18.9374 56.8713
18.9825 56.4505
19.0278 56.2163
19.073 56.3883
19.1183 57.023
19.1635 59.3227
19.2088 61.6067
19.254 62.0378
19.2993 62.3216
19.3447 63.7079
19.3898 67.5951
19.4352 72.8348
19.4804 72.5905
19.5257 64.13
19.5709 56.3856
19.6163 53.887
19.6615 53.5733
19.7068 53.0903
19.752 52.9813
19.7974 53.0524
19.8426 54.5512
19.888 56.5132
19.9332 57.8975
19.9786 58.2194
20.0238 58.541
20.0692 60.8046
20.1144 65.9106
20.1598 71.7394
20.205 70.833
20.2504 65.4516
20.2957 60.3081
20.3411 60.5918
20.3863 63.8899
20.4318 64.4484
20.477 59.5142
20.5224 53.4611
20.5677 50.6588
20.6131 50.0409
20.6586 49.5477
20.7038 49.3746
20.7493 48.9386
20.7945 48.8519
20.84 48.5902
20.8853 48.5304
20.9307 48.2479
20.976 48.6101
21.0215 48.6298
21.0668 49.1454
21.1122 48.9893
21.1575 49.1008
21.203 49.1471
21.2483 49.7144
21.2938 50.7186
21.3391 50.9366
21.3846 50.2433
21.4299 49.0515
21.4754 48.2663
21.5207 48.5131
21.5662 48.6024
21.6116 49.1755
21.6571 51.0371
21.7024 52.8682
21.7479 53.6477
21.7933 53.8494
21.8388 54.8874
21.8843 57.5443
21.9297 61.0094
21.9752 64.7916
22.0206 65.4653
22.0661 60.8081
22.1115 56.0374
22.157 54.9991
22.2024 55.9876
22.248 55.0234
22.2933 52.4565
22.3389 49.9945
22.3843 48.8728
22.4299 48.5409
22.4753 48.651
22.5208 48.4794
22.5662 48.3361
22.6118 48.557
22.6572 48.6513
22.7028 49.9842
22.7483 51.1683
22.7939 51.5194
22.8393 51.6144
22.8849 51.8602
22.9303 52.7167
22.9759 54.1429
23.0214 56.2964
23.067 57.9449
23.1126 56.1205
23.1581 52.491
23.2037 49.6671
23.2492 48.9501
23.2948 49.4527
23.3403 50.5355
23.3859 51.5509
23.4314 51.4217
23.477 51.2389
23.5225 51.6819
23.5682 52.7094
23.6137 54.9005
23.6593 57.1631
23.7048 56.9875
23.7505 53.4432
23.796 49.1522
23.8417 46.6743
23.8872 45.7445
23.9329 45.4032
23.9784 44.9787
24.0241 44.6366
24.0697 44.3761
24.1154 44.0028
24.1609 43.9714
24.2066 43.8998
24.2522 43.5508
24.2979 43.3711
24.3434 43.2507
24.3892 43.078
24.4349 43.0814
24.4805 42.7826
24.5262 42.8373
24.5718 42.6722
24.6175 42.7454
24.6631 42.8674
24.7089 42.6485
24.7545 42.5695
24.8002 42.2185
24.8458 42.1993
24.8916 42.2098
24.9372 42.4682
24.983 42.5598
25.0286 42.65
25.0744 43.1633
25.12 43.6577
25.1658 44.0193
25.2114 44.1787
25.2572 44.534
25.3029 44.5314
25.3487 44.4858
25.3943 44.4098
25.4402 44.621
25.4858 44.3803
25.5316 43.041
25.5773 41.6278
25.6231 41.1734
25.669 40.5219
25.7147 40.6286
25.7605 40.6437
25.8062 40.7825
25.8521 40.9525
25.8977 40.6681
25.9436 40.7052
25.9893 40.6255
26.0352 40.9369
26.0809 40.8988
26.1268 41.2202
26.1725 41.5982
26.2184 41.6428
26.2641 41.359
26.31 40.8404
26.3557 40.7062
26.4017 40.6091
26.4474 40.7772
26.4933 40.6074
26.5391 40.873
26.585 41.1292
26.6308 41.3121
26.6767 41.6913
26.7225 42.3596
26.7684 42.3702
26.8142 41.8291
26.8601 41.2078
26.9059 40.5677
26.9519 40.243
26.9979 39.7575
27.0437 39.3475
27.0896 39.0825
27.1354 38.9104
27.1814 38.7802
27.2272 38.7922
27.2732 38.7498
27.3191 38.5712
27.3651 38.6125
27.4109 38.3843
27.4569 38.2323
27.5027 38.4882
27.5488 38.4769
27.5946 38.3866
27.6407 38.535
27.6865 38.4979
27.7326 38.3895
27.7784 38.3331
27.8245 38.029
27.8703 38.0516
27.9164 38.2001
27.9623 38.2173
28.0084 38.4329
28.0543 38.6753
28.1003 38.7849
28.1462 39.0282
28.1923 39.0358
28.2384 38.6397
28.2843 38.1438
28.3304 37.7148
28.3764 37.4393
28.4225 36.7941
28.4684 36.6624
28.5145 36.105
28.5605 35.8747
28.6066 35.8233
28.6526 35.7062
28.6987 35.6562
28.7447 35.4648
28.7908 35.3874
28.8368 35.3827
28.8829 35.2869
28.9289 35.2474
28.9751 35.211
29.0211 35.1825
29.0673 34.9739
29.1133 34.8816
29.1595 34.4728
29.2055 34.4384
29.2517 34.2539
29.2977 34.2013
29.3439 34.0227
29.3899 34.0278
29.4361 34.0249
29.4824 34.0707
29.5284 34.0408
29.5746 33.6462
29.6207 33.3672
29.6669 33.1361
29.713 32.9891
29.7593 32.7928
29.8053 32.7723
29.8516 32.7556
29.8977 32.6578
29.9439 32.6084
29.99 32.6299
30.0363 32.3676
30.0824 32.392
30.1287 32.448
30.1748 32.4086
30.2211 32.3737
30.2673 32.2407
30.3136 32.3623
30.3597 32.4584
30.406 32.3945
30.4522 32.1666
30.4985 32.0409
30.5447 32.1257
30.591 32.0146
30.6372 32.0618
30.6835 31.9616
30.7297 32.0722
30.7761 32.1358
30.8224 32.2472
30.8686 32.112
30.915 31.9451
30.9612 31.8523
31.0076 31.5212
31.0538 31.3861
31.1002 31.3217
31.1464 31.1584
31.1928 31.098
31.2391 31.1417
31.2855 30.8715
31.3317 30.8127
31.3781 30.9908
31.4244 30.8933
31.4708 30.7608
31.5171 30.8156
31.5636 30.883
31.6098 30.7398
31.6563 30.7718
31.7026 30.4846
31.7491 30.3576
31.7953 30.2924
31.8418 30.1044
31.8881 30.1269
31.9346 30.0839
31.9809 29.9837
32.0275 29.9874
32.074 30.0266
32.1203 29.7303
32.1668 29.718
32.2132 29.5643
32.2597 29.4761
32.306 29.423
32.3526 29.1012
32.399 28.9768
32.4455 28.8055
32.4919 28.7527
32.5385 28.7723
32.5848 28.5074
32.6314 28.4884
32.6778 28.5252
32.7244 28.3503
32.7708 28.2171
32.8174 28.2361
32.8638 28.1652
32.9104 28.0968
32.9569 28.0313
33.0035 27.8614
33.0499 27.9348
33.0966 27.828
33.143 27.7591
33.1897 27.6623
33.2361 27.5886
33.2828 27.6472
33.3293 27.3627
33.3759 27.5039
33.4226 27.4187
33.4691 27.2577
33.5158 27.1003
33.5623 27.0356
33.609 26.8383
33.6555 26.686
33.7022 26.6274
33.7487 26.536
33.7954 26.5059
33.842 26.3708
33.8887 26.3569
33.9353 26.329
33.982 26.1671
34.0286 26.1676
34.0753 26.0457
34.1219 25.9321
34.1687 25.8872
34.2152 25.7344
34.262 25.5961
34.3086 25.5851
34.3554 25.5522
34.402 25.3932
34.4488 25.2396
34.4954 25.3121
34.5422 25.1412
34.5889 25.092
34.6357 24.9738
34.6825 24.9162
34.7292 24.9192
34.776 24.7481
34.8227 24.7067
34.8695 24.665
34.9162 24.5516
34.9631 24.4861
35.0098 24.4253
35.0566 24.3204
35.1033 24.3522
35.1502 24.2641
35.1969 24.1993
35.2438 24.1283
35.2906 24.0223
35.3375 23.9846
35.3842 23.932
35.4311 23.9601
35.4779 23.878
35.5248 23.9073
35.5716 23.8505
35.6185 23.781
35.6653 23.7208
35.7123 23.6021
35.759 23.5011
35.806 23.4142
35.8528 23.2299
35.8998 23.201
35.9468 23.1498
35.9936 23.1469
36.0406 22.9634
36.0874 22.9181
36.1345 22.8765
36.1813 22.8191
36.2283 22.7129
36.2752 22.6934
36.3222 22.6296
36.3691 22.6391
36.4161 22.4945
36.463 22.441
36.5101 22.4226
36.557 22.3823
36.6041 22.2099
36.651 22.2178
36.6981 22.2329
36.745 22.0634
36.7921 22.0022
36.839 21.9335
36.8861 21.8126
36.9331 21.7981
36.9802 21.7227
37.0272 21.5712
37.0743 21.5305
37.1213 21.534
37.1684 21.4244
37.2154 21.3673
37.2626 21.267
37.3098 21.2085
37.3568 21.1403
37.404 21.0767
37.451 20.9874
37.4982 20.9601
37.5452 20.8971
37.5924 20.7618
37.6395 20.8625
37.6867 20.6394
37.7337 20.6713
37.781 20.5336
37.8281 20.5492
37.8753 20.4027
37.9224 20.3886
37.9697 20.2144
38.0168 20.1758
38.064 20.1175
38.1111 20.1657
38.1584 20.0337
38.2056 19.9385
38.2529 19.8428
38.3 19.8395
38.3473 19.7696
38.3945 19.6673
38.4418 19.6256
38.489 19.676
38.5363 19.5208
38.5837 19.469
38.6309 19.4109
38.6782 19.3134
38.7254 19.2693
38.7728 19.2416
38.82 19.107
38.8674 19.1051
38.9146 19.0143
38.9621 19.0001
39.0093 18.9591
39.0567 18.8679
39.104 18.7898
39.1514 18.6608
39.1987 18.7358
39.2461 18.7124
39.2934 18.5847
39.3409 18.4709
39.3882 18.4022
39.4356 18.3687
39.483 18.3149
39.5304 18.2017
39.5778 18.1909
39.6253 18.1717
39.6726 18.0563
39.7201 18.0513
39.7675 17.9972
39.815 17.9623
39.8624 17.8231
39.9099 17.8966
39.9575 17.7519
40.0049 17.6697
40.0525 17.5725
40.0999 17.5923
40.1474 17.5326
40.1949 17.4904
40.2425 17.3953
40.2899 17.3599
40.3375 17.3101
40.385 17.2812
40.4326 17.1907
40.48 17.109
40.5277 17.1364
40.5752 17.1002
40.6228 16.9462
40.6703 16.8781
40.718 16.8695
40.7655 16.8566
40.8132 16.7562
40.8607 16.7594
40.9084 16.7424
40.9559 16.6986
41.0036 16.6025
41.0512 16.5438
41.0989 16.4824
41.1465 16.4083
41.1942 16.3886
41.242 16.2363
41.2896 16.1947
41.3373 16.1385
41.3849 16.1453
41.4327 16.0232
41.4803 15.9949
41.5281 15.9865
41.5758 15.9112
41.6236 15.8247
41.6712 15.8246
41.7191 15.7294
41.7667 15.6911
41.8146 15.6743
41.8622 15.5772
41.9101 15.5462
41.9578 15.453
42.0057 15.441
42.0534 15.3624
42.1013 15.342
42.149 15.2815
42.1969 15.2645
42.2446 15.1515
42.2925 15.126
42.3403 15.1052
42.3882 15.0637
42.436 14.9951
42.4839 14.8876
42.5319 14.8906
42.5797 14.8015
42.6277 14.846
42.6755 14.7498
42.7235 14.683
42.7713 14.6213
42.8193 14.5155
42.8671 14.528
42.9152 14.4941
42.963 14.4182
43.0111 14.3104
43.0589 14.2883
43.107 14.2364
43.1549 14.2277
43.2029 14.1614
43.2508 14.145
43.2989 14.0308
43.3468 13.992
43.3949 13.9863
43.4429 13.9393
43.491 13.8941
43.5389 13.8421
43.5871 13.7392
43.635 13.7312
43.6832 13.7233
43.7312 13.6155
43.7793 13.5926
43.8273 13.5478
43.8755 13.5397
43.9237 13.4887
43.9717 13.4125
44.0199 13.3428
44.068 13.3237
44.1162 13.2816
44.1642 13.2714
44.2125 13.1764
44.2606 13.1576
44.3088 13.1097
44.3569 13.0749
44.4052 13.0166
44.4533 12.9264
44.5016 12.8384
44.5497 12.9073
44.598 12.8452
44.6461 12.7981
44.6945 12.7412
44.7426 12.6557
44.791 12.5933
44.8391 12.6082
44.8875 12.5722
44.9357 12.5036
44.984 12.4884
45.0322 12.3846
45.0806 12.3608
45.1288 12.3172
45.1773 12.2879
45.2257 12.2359
45.2739 12.2185
45.3224 12.1936
45.3706 12.0851
45.4191 12.065
45.4673 12.0338
45.5158 12.005
45.5641 11.9426
45.6126 11.938
45.6609 11.8581
45.7094 11.82
45.7577 11.74
45.8063 11.739
45.8546 11.6678
45.9031 11.6143
45.9515 11.6241
46.0001 11.5161
46.0484 11.4979
46.097 11.4972
46.1454 11.4312
46.194 11.4234
46.2424 11.3378
46.291 11.324
46.3395 11.2518
46.3881 11.2154
46.4365 11.1981
46.4852 11.1514
46.5337 11.1557
46.5823 11.0784
46.631 11.0246
46.6795 10.969
46.7282 10.9611
46.7767 10.8893
46.8254 10.8749
46.8739 10.8026
46.9226 10.7831
46.9712 10.7759
47.0199 10.7035
47.0685 10.6497
47.1173 10.6182
47.1658 10.6034
47.2146 10.5474
47.2632 10.502
47.312 10.4416
47.3606 10.4501
47.4095 10.3859
47.4581 10.3737
47.5069 10.2936
47.5556 10.2475
47.6044 10.2291
47.6531 10.2133
47.702 10.1472
47.7507 10.1279
47.7996 10.1121
47.8483 10.0603
47.8972 10.0193
47.9461 9.99929
47.9948 9.95229
48.0438 9.90241
48.0925 9.85541
48.1415 9.84923
48.1902 9.82665
48.2392 9.80638
48.288 9.75329
48.337 9.72571
48.3858 9.63648
48.4348 9.65368
48.4837 9.62663
48.5327 9.56665
48.5815 9.54861
48.6306 9.54503
48.6795 9.47134
48.7285 9.42442
48.7774 9.37457
48.8265 9.3986
48.8754 9.33749
48.9245 9.28017
48.9734 9.26642
49.0226 9.24106
49.0715 9.19958
49.1206 9.14205
49.1696 9.12395
49.2188 9.07737
49.2679 9.0163
49.3169 9.01121
49.3661 8.93681
49.4151 8.94337
49.4643 8.89357
49.5134 8.87541
49.5626 8.83066
49.6117 8.81551
49.6609 8.7775
49.71 8.72259
49.7592 8.71135
49.8083 8.68533
49.8576 8.65265
49.9067 8.59363
49.956 8.60688
50.0052 8.56899
50.0545 8.51785
50.1036 8.47358
50.153 8.46282
50.2022 8.39209
50.2515 8.37909
50.3007 8.34497
50.3501 8.29827
50.3993 8.31721
50.4487 8.26437
50.498 8.22632
50.5474 8.2124
50.5966 8.15414
50.6461 8.15204
50.6955 8.11063
50.7448 8.06946
50.7943 8.05437
50.8436 8.02648
50.8931 7.97448
50.9424 7.92943
50.9919 7.91054
51.0413 7.89301
51.0908 7.829
51.1402 7.83848
51.1897 7.78171
51.2391 7.76179
51.2887 7.71379
51.3381 7.70096
51.3877 7.67486
51.4371 7.63545
51.4867 7.57891
51.5362 7.55715
51.5858 7.52181
51.6353 7.47722
51.6849 7.44064
51.7344 7.42263
51.7841 7.43634
51.8336 7.38292
51.8833 7.31877
51.9328 7.32729
51.9826 7.26007
52.0323 7.26937
52.0818 7.22986
52.1316 7.17605
52.1812 7.16257
52.231 7.13421
52.2806 7.0703
52.3304 7.10759
52.38 7.04056
52.4298 7.00226
52.4794 6.98505
52.5293 6.97094
52.5789 6.95122
52.6288 6.90898
52.6785 6.86755
52.7284 6.844
52.7781 6.82359
52.828 6.80705
52.8777 6.75482
52.9276 6.75059
52.9774 6.69638
53.0273 6.68281
53.0771 6.62918
53.1271 6.64961
53.1769 6.57991
53.2269 6.5543
53.2767 6.53148
53.3267 6.52952
53.3765 6.45593
53.4266 6.47158
53.4766 6.37564
53.5265 6.3343
53.5765 6.34197
53.6264 6.36891
53.6765 6.30385
53.7264 6.27777
53.7765 6.26911
53.8265 6.23588
53.8766 6.21394
53.9266 6.18142
53.9767 6.10932
54.0267 6.13724
54.0769 6.06632
54.1269 6.04247
54.1771 6.00267
54.2271 6.01434
54.2773 5.92835
54.3274 5.89376
54.3776 5.83927
54.4277 5.85655
54.478 5.81694
54.528 5.74335
54.5783 5.7222
54.6285 5.66925
54.6788 5.61375
54.7289 5.5725
54.7792 5.58451
54.8296 5.50654
54.8798 5.45512
54.9301 5.40456
54.9803 5.36954
55.0307 5.35873
55.0809 5.2893
55.1314 5.2421
55.1816 5.15694
55.232 5.11441
55.2823 5.10028
55.3328 4.99181
55.383 4.96769
55.4335 4.98886
55.4838 4.89311
55.5344 4.82077
55.5847 4.81429
55.6352 4.78368
55.6856 4.83448
55.7361 4.71915