File: XRD/Ni3Fe_FD0087.xy
TT I
1.27165 9.11465
1.31627 9.06995
1.36089 8.50072
1.40551 7.17519
1.45013 7.30239
1.49476 7.77323
1.53938 7.56809
1.584 6.8643
1.62863 6.78446
1.67325 6.47418
1.71787 6.42703
1.7625 6.04227
1.80712 5.71865
1.85174 5.61633
1.89636 5.4521
1.94099 6.1454
1.98562 5.37581
2.03025 5.79426
2.07487 5.37296
2.11949 5.19241
2.16411 5.16563
2.20874 5.29745
2.25338 5.90632
2.298 4.7355
2.34263 4.69367
2.38725 3.90037
2.43188 4.51569
2.4765 4.09785
2.52115 4.23518
2.56577 4.04094
2.6104 4.92458
2.65503 4.23126
2.69965 4.84345
2.7443 5.24058
2.78893 5.82103
2.83356 6.78617
2.87818 7.20834
2.92281 7.81782
2.96744 9.31843
3.01209 9.61898
3.05672 11.0096
3.10135 12.2054
3.14599 12.5595
3.19062 14.2929
3.23527 14.5031
3.2799 15.421
3.32454 16.6482
3.36917 17.4249
3.4138 18.2937
3.45844 19.2233
3.50309 20.0699
3.54773 20.9543
3.59237 21.3917
3.637 22.1617
3.68164 23.1263
3.7263 23.9715
3.77094 24.4115
3.81558 25.4428
3.86022 25.616
3.90486 27.37
3.9495 27.8431
3.99416 29.049
4.0388 30.1412
4.08344 31.2997
4.12809 32.3378
4.17273 33.3125
4.21738 34.9161
4.26204 36.4416
4.30669 37.1367
4.35133 39.3466
4.39598 40.819
4.44063 42.2926
4.4853 44.8877
4.52995 46.7298
4.5746 48.7952
4.61925 50.9909
4.6639 53.3812
4.70855 56.2389
4.75322 59.0538
4.79788 62.2077
4.84253 66.0956
4.88719 71.0865
4.93184 77.4165
4.97652 85.6293
5.02118 97.015
5.06583 110.49
5.11049 132.603
5.15515 188.818
5.19981 745.041
5.24449 3671.57
5.28916 5436.62
5.33382 7780.57
5.37848 978.039
5.42315 224.693
5.46783 151.342
5.5125 127.593
5.55716 116.966
5.60183 109.207
5.6465 105.332
5.69117 103.002
5.73586 101.157
5.78053 100.687
5.8252 102.161
5.86988 107.544
5.91455 118.426
5.95924 148.848
6.00392 373.835
6.0486 1420.53
6.09328 1745.4
6.13795 3605.04
6.18263 1164.21
6.22733 176.243
6.27201 104.54
6.3167 85.0211
6.36138 75.872
6.40606 70.0413
6.45075 67.3241
6.49545 64.5099
6.54014 62.2643
6.58483 60.6142
6.62952 59.0133
6.67421 57.5133
6.71892 56.7625
6.76361 55.5567
6.8083 54.7498
6.853 53.7506
6.89769 53.2049
6.94239 53.22
6.98711 52.5067
7.03181 52.1262
7.07651 51.6835
7.12121 51.3787
7.16591 51.4346
7.21063 50.9745
7.25533 50.7581
7.30004 51.0203
7.34475 51.1719
7.38945 51.3183
7.43416 51.1513
7.47889 52.0667
7.5236 64.6792
7.56831 99.2936
7.61303 66.903
7.65774 53.9269
7.70247 53.2074
7.74719 53.127
7.79191 53.8593
7.83663 54.0934
7.88135 55.0901
7.92607 55.7894
7.97081 57.0989
8.01553 58.138
8.06026 59.2936
8.10498 60.4497
8.14971 62.6806
8.19446 64.1299
8.23919 66.4403
8.28392 70.1199
8.32865 72.9357
8.37339 78.2342
8.41812 85.1923
8.46288 101.172
8.50761 201.244
8.55235 663.415
8.59709 659.175
8.64183 900.674
8.68658 1792.84
8.73134 712.65
8.77609 146.246
8.82083 104.603
8.86558 94.0758
8.91033 88.8427
8.9551 85.7129
8.99985 83.755
9.04461 81.9656
9.08936 81.6708
9.13412 81.2438
9.17888 82.7073
9.22365 102.588
9.26841 157.454
9.31318 112.566
9.35794 84.1078
9.4027 81.9083
9.44749 82.0561
9.49226 82.1328
9.53703 83.0885
9.5818 84.4764
9.62657 85.5661
9.67134 87.2693
9.71614 89.5101
9.76091 91.5581
9.80569 94.4743
9.85047 98.5109
9.89525 104.9
9.94005 119.021
9.98484 210.419
10.0296 605.297
10.0744 614.707
10.1192 587.205
10.164 1301.07
10.2088 1382.56
10.2536 348.789
10.2984 129.362
10.3432 112.043
10.388 106.752
10.4328 127.259
10.4776 232.65
10.5224 229.987
10.5672 212.692
10.612 377.212
10.6568 474.994
10.7017 196.329
10.7465 103.019
10.7913 85.0466
10.8361 80.0027
10.8809 76.9813
10.9257 74.397
10.9706 73.3051
11.0154 71.6975
11.0602 70.0324
11.105 68.4735
11.1499 67.1453
11.1947 66.3237
11.2395 65.2029
11.2844 64.7708
11.3292 63.946
11.374 63.1632
11.4189 62.3162
11.4637 61.9877
11.5086 61.2859
11.5534 60.9358
11.5983 60.6803
11.6431 60.461
11.688 60.1055
11.7328 60.3167
11.7777 59.9765
11.8225 59.9323
11.8674 60.4329
11.9122 63.5725
11.9571 77.0107
12.002 77.4413
12.0468 71.6075
12.0917 94.3877
12.1366 104.745
12.1814 94.5537
12.2263 107.497
12.2712 167.685
12.3161 169.6
12.3609 88.94
12.4058 64.943
12.4507 62.7852
12.4956 61.9774
12.5405 61.5786
12.5853 62.3058
12.6302 62.3267
12.6751 62.6249
12.72 63.518
12.7649 64.3703
12.8098 65.143
12.8547 66.4302
12.8996 67.8873
12.9445 68.9694
12.9894 71.4114
13.0343 73.5468
13.0792 79.2356
13.1242 90.2775
13.1691 142.628
13.214 194.958
13.2589 169.675
13.3038 164.202
13.3487 240.185
13.3937 390.481
13.4386 293.15
13.4835 144.108
13.5285 167.063
13.5734 182.402
13.6183 150.94
13.6633 158.262
13.7082 248.674
13.7531 349.266
13.7981 216.411
13.843 98.146
13.888 80.8055
13.9329 76.9543
13.9779 75.2133
14.0228 73.3782
14.0678 71.9842
14.1127 73.4805
14.1577 82.2447
14.2027 81.177
14.2476 72.4429
14.2926 68.8018
14.3376 67.713
14.3825 67.0068
14.4275 66.7694
14.4725 66.6405
14.5175 66.7379
14.5624 66.6534
14.6074 67.0842
14.6524 67.397
14.6974 68.5465
14.7424 70.4197
14.7874 81.4501
14.8324 111.472
14.8774 118.16
14.9224 104.501
14.9674 107.07
15.0124 140.521
15.0574 206.531
15.1024 179.083
15.1474 96.6059
15.1924 73.118
15.2374 68.5678
15.2824 66.6825
15.3274 65.5493
15.3725 64.9337
15.4175 64.7358
15.4625 64.0195
15.5076 63.8175
15.5526 64.035
15.5976 64.3493
15.6426 65.5527
15.6877 74.3724
15.7327 98.5718
15.7778 107.137
15.8228 94.6063
15.8679 92.9463
15.9129 109.684
15.958 164.347
16.003 182.682
16.0481 115.064
16.0931 73.9648
16.1382 63.8636
16.1833 60.158
16.2283 57.9063
16.2734 57.1056
16.3185 56.2813
16.3636 55.465
16.4086 54.7972
16.4537 54.1884
16.4988 53.9207
16.5439 53.6832
16.589 53.4169
16.6341 53.105
16.6792 52.669
16.7243 52.8429
16.7694 52.7587
16.8145 52.7813
16.8596 52.9526
16.9047 53.8691
16.9498 55.2748
16.9949 55.0476
17.04 54.4977
17.0851 55.7045
17.1302 60.3087
17.1754 63.422
17.2205 61.7924
17.2656 60.3935
17.3108 62.9206
17.3559 69.2998
17.401 80.4837
17.4462 77.3033
17.4913 63.5947
17.5365 58.1242
17.5815 57.4994
17.6268 57.8079
17.6718 58.1339
17.7171 58.8984
17.7622 60.6479
17.8074 61.6526
17.8525 63.2933
17.8977 72.0826
17.9428 85.3864
17.9881 86.3156
18.0331 80.1579
18.0784 79.6359
18.1237 89.1505
18.1688 119.106
18.214 151.848
18.2591 130.276
18.3044 88.9372
18.3495 76.0931
18.3948 79.4047
18.4399 93.8504
18.4852 102.766
18.5303 86.3702
18.5756 68.0872
18.6207 62.3309
18.666 60.0659
18.7112 58.883
18.7565 57.8804
18.8016 57.7169
18.8469 56.8363
18.892 56.4523
18.9374 55.8368
18.9825 55.7129
19.0278 55.4993
19.073 55.3348
19.1183 56.254
19.1635 58.9773
19.2088 61.1762
19.254 60.2772
19.2993 59.3918
19.3447 60.6102
19.3898 62.5808
19.4352 67.4951
19.4804 73.3333
19.5257 69.1664
19.5709 58.2335
19.6163 53.7322
19.6615 52.7428
19.7068 52.2853
19.752 51.8437
19.7974 52.268
19.8426 53.5469
19.888 55.7838
19.9332 57.2681
19.9786 56.2796
20.0238 55.1837
20.0692 56.6542
20.1144 60.828
20.1598 67.4268
20.205 71.0337
20.2504 66.9188
20.2957 58.9232
20.3411 56.298
20.3863 59.0612
20.4318 64.1919
20.477 62.3626
20.5224 55.2155
20.5677 50.4798
20.6131 49.3734
20.6586 48.8002
20.7038 48.5786
20.7493 48.4749
20.7945 48.4546
20.84 48.3421
20.8853 47.933
20.9307 47.5779
20.976 47.727
21.0215 47.8858
21.0668 48.4109
21.1122 48.0797
21.1575 47.6977
21.203 47.6589
21.2483 47.8271
21.2938 48.9837
21.3391 49.8413
21.3846 50.0418
21.4299 48.937
21.4754 47.8345
21.5207 47.6095
21.5662 47.6795
21.6116 48.3068
21.6571 50.3682
21.7024 52.3881
21.7479 52.6661
21.7933 51.556
21.8388 51.7652
21.8843 53.4577
21.9297 55.8087
21.9752 60.2806
22.0206 64.9246
22.0661 62.8174
22.1115 56.5917
22.157 53.2345
22.2024 54.18
22.248 55.1731
22.2933 53.6102
22.3389 50.0897
22.3843 48.3877
22.4299 47.8572
22.4753 47.7654
22.5208 47.4893
22.5662 47.5837
22.6118 47.7241
22.6572 47.9237
22.7028 49.2661
22.7483 50.6608
22.7939 51.0673
22.8393 50.2224
22.8849 49.9356
22.9303 49.8132
22.9759 50.5607
23.0214 52.5713
23.067 56.1507
23.1126 57.4475
23.1581 54.1349
23.2037 49.8476
23.2492 48.4522
23.2948 48.9839
23.3403 50.3135
23.3859 51.0762
23.4314 50.6221
23.477 49.5656
23.5225 49.1189
23.5682 49.3373
23.6137 50.7004
23.6593 53.6253
23.7048 57.0957
23.7505 56.0103
23.796 50.8142
23.8417 46.6954
23.8872 45.1938
23.9329 44.7331
23.9784 44.3432
24.0241 44.088
24.0697 43.778
24.1154 43.3959
24.1609 43.1613
24.2066 43.1112
24.2522 42.9182
24.2979 42.6647
24.3434 42.7041
24.3892 42.3678
24.4349 42.2351
24.4805 42.006
24.5262 42.027
24.5718 41.7547
24.6175 41.8687
24.6631 42.1512
24.7089 42.1596
24.7545 41.904
24.8002 41.5475
24.8458 41.6009
24.8916 41.5322
24.9372 41.7594
24.983 41.7778
25.0286 41.8135
25.0744 42.2215
25.12 42.6003
25.1658 42.6851
25.2114 42.5037
25.2572 43.1753
25.3029 43.4752
25.3487 43.3202
25.3943 42.8972
25.4402 43.4179
25.4858 44.3773
25.5316 43.3666
25.5773 41.6248
25.6231 40.6309
25.669 39.8696
25.7147 39.896
25.7605 39.8399
25.8062 40.1119
25.8521 40.2599
25.8977 40.1271
25.9436 39.8753
25.9893 39.5694
26.0352 39.7927
26.0809 39.6094
26.1268 39.8742
26.1725 40.5375
26.2184 41.1329
26.2641 41.2295
26.31 40.6481
26.3557 40.0976
26.4017 39.8548
26.4474 39.9754
26.4933 39.7467
26.5391 39.8128
26.585 39.8128
26.6308 39.9619
26.6767 40.0042
26.7225 40.761
26.7684 41.589
26.8142 41.538
26.8601 40.8152
26.9059 39.9618
26.9519 39.8647
26.9979 39.6629
27.0437 38.8855
27.0896 38.3171
27.1354 38.3052
27.1814 38.1091
27.2272 38.077
27.2732 38.1388
27.3191 37.7113
27.3651 37.8391
27.4109 37.6225
27.4569 37.5855
27.5027 37.4838
27.5488 37.5624
27.5946 37.6244
27.6407 37.6785
27.6865 38.0492
27.7326 37.9584
27.7784 37.7919
27.8245 37.4349
27.8703 37.348
27.9164 37.3417
27.9623 37.3992
28.0084 37.329
28.0543 37.4538
28.1003 37.4966
28.1462 37.8723
28.1923 38.3422
28.2384 38.1442
28.2843 37.6062
28.3304 37.1894
28.3764 37.0169
28.4225 36.6769
28.4684 36.1435
28.5145 35.5321
28.5605 35.5635
28.6066 35.1727
28.6526 35.0795
28.6987 35.045
28.7447 34.8294
28.7908 34.6556
28.8368 34.546
28.8829 34.4785
28.9289 34.6839
28.9751 34.4171
29.0211 34.5931
29.0673 34.5147
29.1133 34.364
29.1595 34.1113
29.2055 33.7637
29.2517 33.6732
29.2977 33.4561
29.3439 33.3107
29.3899 33.1633
29.4361 33.2015
29.4824 33.1709
29.5284 33.4602
29.5746 33.2812
29.6207 32.9904
29.6669 32.6169
29.713 32.3752
29.7593 32.276
29.8053 32.2665
29.8516 32.1406
29.8977 32.1738
29.9439 32.0179
29.99 31.9152
30.0363 31.8548
30.0824 31.8642
30.1287 31.7339
30.1748 31.7295
30.2211 31.6975
30.2673 31.5689
30.3136 31.6601
30.3597 31.7491
30.406 31.8035
30.4522 31.605
30.4985 31.4355
30.5447 31.3734
30.591 31.2684
30.6372 31.3156
30.6835 31.212
30.7297 31.1916
30.7761 31.394
30.8224 31.4712
30.8686 31.6057
30.915 31.4094
30.9612 31.1852
31.0076 30.9306
31.0538 30.7915
31.1002 30.7186
31.1464 30.4713
31.1928 30.4961
31.2391 30.4529
31.2855 30.2006
31.3317 30.1855
31.3781 30.1742
31.4244 30.1358
31.4708 30.0491
31.5171 30.1212
31.5636 30.1274
31.6098 30.1667
31.6563 30.0937
31.7026 30.0043
31.7491 29.7006
31.7953 29.736
31.8418 29.507
31.8881 29.3588
31.9346 29.3948
31.9809 29.2933
32.0275 29.158
32.074 29.3599
32.1203 29.1813
32.1668 29.0697
32.2132 29.0095
32.2597 28.8638
32.306 28.7963
32.3526 28.5666
32.399 28.4219
32.4455 28.2072
32.4919 28.1916
32.5385 28.1327
32.5848 27.944
32.6314 27.9164
32.6778 27.8392
32.7244 27.7612
32.7708 27.6437
32.8174 27.6714
32.8638 27.5413
32.9104 27.6174
32.9569 27.5564
33.0035 27.2831
33.0499 27.2454
33.0966 27.1847
33.143 27.1499
33.1897 27.0346
33.2361 26.9609
33.2828 27.0346
33.3293 26.8788
33.3759 26.9849
33.4226 26.7594
33.4691 26.8351
33.5158 26.6743
33.5623 26.4671
33.609 26.2668
33.6555 26.1481
33.7022 26.084
33.7487 26.0149
33.7954 25.9298
33.842 25.8218
33.8887 25.73
33.9353 25.7158
33.982 25.6247
34.0286 25.6196
34.0753 25.575
34.1219 25.4742
34.1687 25.3934
34.2152 25.2479
34.262 25.0751
34.3086 25.0604
34.3554 24.9055
34.402 24.8518
34.4488 24.8433
34.4954 24.8395
34.5422 24.751
34.5889 24.5328
34.6357 24.5054
34.6825 24.4108
34.7292 24.4099
34.776 24.1747
34.8227 24.2424
34.8695 24.1503
34.9162 24.0867
34.9631 23.9238
35.0098 24.0162
35.0566 23.8491
35.1033 23.8934
35.1502 23.7478
35.1969 23.698
35.2438 23.6256
35.2906 23.5789
35.3375 23.5539
35.3842 23.4671
35.4311 23.4462
35.4779 23.431
35.5248 23.3625
35.5716 23.2652
35.6185 23.2275
35.6653 23.2223
35.7123 23.1254
35.759 23.1081
35.806 22.9443
35.8528 22.7721
35.8998 22.7657
35.9468 22.6691
35.9936 22.575
36.0406 22.5422
36.0874 22.4615
36.1345 22.4238
36.1813 22.4083
36.2283 22.2901
36.2752 22.1459
36.3222 22.2056
36.3691 22.1957
36.4161 21.9496
36.463 21.9702
36.5101 21.9406
36.557 21.906
36.6041 21.6714
36.651 21.747
36.6981 21.6791
36.745 21.5747
36.7921 21.6294
36.839 21.4742
36.8861 21.3919
36.9331 21.3243
36.9802 21.1987
37.0272 21.2299
37.0743 21.0528
37.1213 20.9913
37.1684 20.9126
37.2154 20.8971
37.2626 20.9034
37.3098 20.8221
37.3568 20.7119
37.404 20.7347
37.451 20.5434
37.4982 20.5232
37.5452 20.4749
37.5924 20.3032
37.6395 20.3692
37.6867 20.3246
37.7337 20.2128
37.781 20.1491
37.8281 20.102
37.8753 19.9571
37.9224 19.9661
37.9697 19.8772
38.0168 19.8708
38.064 19.734
38.1111 19.6684
38.1584 19.5702
38.2056 19.5345
38.2529 19.481
38.3 19.4506
38.3473 19.4878
38.3945 19.2772
38.4418 19.2634
38.489 19.2504
38.5363 19.1242
38.5837 19.0739
38.6309 18.9871
38.6782 18.9014
38.7254 18.8734
38.7728 18.829
38.82 18.8044
38.8674 18.7279
38.9146 18.5885
38.9621 18.5846
39.0093 18.5148
39.0567 18.525
39.104 18.4566
39.1514 18.3112
39.1987 18.293
39.2461 18.2861
39.2934 18.2439
39.3409 18.0861
39.3882 18.0592
39.4356 17.9322
39.483 17.9484
39.5304 17.8736
39.5778 17.8583
39.6253 17.7713
39.6726 17.7094
39.7201 17.6685
39.7675 17.6033
39.815 17.603
39.8624 17.5045
39.9099 17.4638
39.9575 17.4268
40.0049 17.2932
40.0525 17.284
40.0999 17.2501
40.1474 17.2123
40.1949 17.1041
40.2425 17.1021
40.2899 17.0541
40.3375 16.9612
40.385 16.8822
40.4326 16.8687
40.48 16.8135
40.5277 16.8224
40.5752 16.7321
40.6228 16.6068
40.6703 16.5812
40.718 16.5628
40.7655 16.4972
40.8132 16.4131
40.8607 16.4351
40.9084 16.3417
40.9559 16.3093
41.0036 16.2995
41.0512 16.1694
41.0989 16.1721
41.1465 16.0743
41.1942 16.0608
41.242 15.9723
41.2896 15.9329
41.3373 15.8813
41.3849 15.8123
41.4327 15.7374
41.4803 15.653
41.5281 15.6613
41.5758 15.5449
41.6236 15.5567
41.6712 15.4598
41.7191 15.4444
41.7667 15.3956
41.8146 15.3683
41.8622 15.31
41.9101 15.2433
41.9578 15.165
42.0057 15.1849
42.0534 15.0977
42.1013 15.0658
42.149 14.9904
42.1969 14.9511
42.2446 14.9121
42.2925 14.8822
42.3403 14.8092
42.3882 14.7537
42.436 14.6641
42.4839 14.6697
42.5319 14.5743
42.5797 14.5802
42.6277 14.4811
42.6755 14.514
42.7235 14.3905
42.7713 14.3814
42.8193 14.3094
42.8671 14.2487
42.9152 14.2211
42.963 14.1731
43.0111 14.0825
43.0589 14.0303
43.107 13.9716
43.1549 13.9693
43.2029 13.9291
43.2508 13.9045
43.2989 13.8633
43.3468 13.7777
43.3949 13.6913
43.4429 13.7054
43.491 13.63
43.5389 13.5665
43.5871 13.5433
43.635 13.4226
43.6832 13.4493
43.7312 13.3427
43.7793 13.3413
43.8273 13.3117
43.8755 13.1905
43.9237 13.1792
43.9717 13.1601
44.0199 13.0698
44.068 13.0999
44.1162 12.9842
44.1642 13.0331
44.2125 12.982
44.2606 12.8707
44.3088 12.8058
44.3569 12.8156
44.4052 12.7669
44.4533 12.7108
44.5016 12.6554
44.5497 12.6218
44.598 12.5948
44.6461 12.5203
44.6945 12.5068
44.7426 12.4634
44.791 12.4254
44.8391 12.4199
44.8875 12.3335
44.9357 12.2936
44.984 12.2595
45.0322 12.1854
45.0806 12.0948
45.1288 12.1112
45.1773 12.0331
45.2257 12.0231
45.2739 11.9811
45.3224 11.8725
45.3706 11.8405
45.4191 11.7875
45.4673 11.8366
45.5158 11.777
45.5641 11.7263
45.6126 11.6684
45.6609 11.6278
45.7094 11.5953
45.7577 11.5462
45.8063 11.5065
45.8546 11.4671
45.9031 11.4175
45.9515 11.3844
46.0001 11.3523
46.0484 11.3206
46.097 11.2762
46.1454 11.2766
46.194 11.1812
46.2424 11.1543
46.291 11.1018
46.3395 11.0386
46.3881 11.029
46.4365 11.0388
46.4852 10.9585
46.5337 10.8954
46.5823 10.8655
46.631 10.8231
46.6795 10.7736
46.7282 10.7636
46.7767 10.7391
46.8254 10.615
46.8739 10.6269
46.9226 10.5844
46.9712 10.5101
47.0199 10.4676
47.0685 10.4901
47.1173 10.4332
47.1658 10.3715
47.2146 10.3406
47.2632 10.2978
47.312 10.3178
47.3606 10.2191
47.4095 10.2272
47.4581 10.1707
47.5069 10.1181
47.5556 10.088
47.6044 10.0423
47.6531 10.0452
47.702 9.9733
47.7507 9.92679
47.7996 9.92167
47.8483 9.90514
47.8972 9.81317
47.9461 9.79305
47.9948 9.77568
48.0438 9.72818
48.0925 9.72098
48.1415 9.65421
48.1902 9.6236
48.2392 9.60701
48.288 9.58758
48.337 9.5376
48.3858 9.50305
48.4348 9.44636
48.4837 9.42853
48.5327 9.4261
48.5815 9.3671
48.6306 9.34732
48.6795 9.29982
48.7285 9.23474
48.7774 9.20971
48.8265 9.21926
48.8754 9.18411
48.9245 9.12935
48.9734 9.12107
49.0226 9.07259
49.0715 9.01873
49.1206 8.9704
49.1696 8.9636
49.2188 8.91218
49.2679 8.90161
49.3169 8.86468
49.3661 8.80567
49.4151 8.77255
49.4643 8.76215
49.5134 8.7483
49.5626 8.6485
49.6117 8.64598
49.6609 8.60271
49.71 8.60135
49.7592 8.55312
49.8083 8.51689
49.8576 8.49269
49.9067 8.48512
49.956 8.43516
50.0052 8.38469
50.0545 8.34839
50.1036 8.31798
50.153 8.27903
50.2022 8.25046
50.2515 8.2235
50.3007 8.19184
50.3501 8.13507
50.3993 8.11856
50.4487 8.10731
50.498 8.07924
50.5474 8.05407
50.5966 8.02701
50.6461 7.9842
50.6955 7.96577
50.7448 7.9116
50.7943 7.90529
50.8436 7.88472
50.8931 7.81539
50.9424 7.79001
50.9919 7.77223
51.0413 7.74756
51.0908 7.71845
51.1402 7.67861
51.1897 7.67718
51.2391 7.64101
51.2887 7.59542
51.3381 7.58255
51.3877 7.55043
51.4371 7.48444
51.4867 7.46626
51.5362 7.4407
51.5858 7.41031
51.6353 7.32047
51.6849 7.32911
51.7344 7.30618
51.7841 7.31424
51.8336 7.27028
51.8833 7.2131
51.9328 7.19825
51.9826 7.16092
52.0323 7.13839
52.0818 7.12362
52.1316 7.05187
52.1812 7.03698
52.231 7.00389
52.2806 6.97448
52.3304 6.92316
52.38 6.90945
52.4298 6.88551
52.4794 6.8313
52.5293 6.85397
52.5789 6.78917
52.6288 6.75877
52.6785 6.72872
52.7284 6.74556
52.7781 6.68857
52.828 6.66124
52.8777 6.64239
52.9276 6.59113
52.9774 6.59373
53.0273 6.55607
53.0771 6.51318
53.1271 6.51706
53.1769 6.47923
53.2269 6.46263
53.2767 6.41588
53.3267 6.41097
53.3765 6.39915
53.4266 6.35096
53.4766 6.30945
53.5265 6.28922
53.5765 6.22738
53.6264 6.23992
53.6765 6.2071
53.7264 6.16856
53.7765 6.14316
53.8265 6.06708
53.8766 6.08641
53.9266 6.0568
53.9767 6.04849
54.0267 6.01928
54.0769 5.98708
54.1269 5.92412
54.1771 5.87807
54.2271 5.87896
54.2773 5.76484
54.3274 5.83669
54.3776 5.75313
54.4277 5.76262
54.478 5.69081
54.528 5.63426
54.5783 5.56006
54.6285 5.53515
54.6788 5.51956
54.7289 5.47228
54.7792 5.4039
54.8296 5.32264
54.8798 5.31374
54.9301 5.32028
54.9803 5.28171
55.0307 5.20149
55.0809 5.15447
55.1314 5.12419
55.1816 5.11883
55.232 5.03243
55.2823 5.01114
55.3328 4.91438
55.383 4.86568
55.4335 4.87622
55.4838 4.80463
55.5344 4.70809
55.5847 4.72525
55.6352 4.68252
55.6856 4.66784
55.7361 4.64502