File: XRD/Ni3Fe_FD1011.xy
TT I
1.27165 6.95256
1.31627 5.90331
1.36089 6.62066
1.40551 6.51513
1.45013 5.64505
1.49476 5.57477
1.53938 5.22237
1.584 4.82037
1.62863 5.13203
1.67325 4.5626
1.71787 4.36273
1.7625 4.42491
1.80712 4.37208
1.85174 4.50087
1.89636 4.32464
1.94099 4.30151
1.98562 4.58845
2.03025 4.24581
2.07487 4.64451
2.11949 4.87242
2.16411 4.48123
2.20874 6.28559
2.25338 9.17534
2.298 5.23839
2.34263 6.375
2.38725 5.56335
2.43188 6.30019
2.4765 6.7493
2.52115 6.8567
2.56577 7.50778
2.6104 8.69421
2.65503 8.99591
2.69965 9.15035
2.7443 8.8816
2.78893 8.20474
2.83356 8.7833
2.87818 9.32284
2.92281 8.91591
2.96744 9.99168
3.01209 10.404
3.05672 11.2708
3.10135 12.1671
3.14599 12.911
3.19062 14.6642
3.23527 15.063
3.2799 15.1563
3.32454 16.5546
3.36917 17.3463
3.4138 18.0687
3.45844 18.9006
3.50309 20.3549
3.54773 20.7759
3.59237 21.2838
3.637 37.2549
3.68164 31.7752
3.7263 24.3229
3.77094 24.4755
3.81558 25.5437
3.86022 26.0709
3.90486 27.498
3.9495 28.2451
3.99416 28.7396
4.0388 30.0162
4.08344 31.01
4.12809 32.3186
4.17273 33.6082
4.21738 35.9248
4.26204 80.7444
4.30669 80.51
4.35133 41.3568
4.39598 40.8118
4.44063 43.7589
4.4853 48.2261
4.52995 46.2463
4.5746 48.0582
4.61925 49.6669
4.6639 51.884
4.70855 54.4928
4.75322 56.8873
4.79788 59.839
4.84253 63.0356
4.88719 66.8814
4.93184 70.0349
4.97652 74.8968
5.02118 81.1647
5.06583 87.527
5.11049 95.5373
5.15515 120.644
5.19981 219.707
5.24449 2060.79
5.28916 13370.2
5.33382 3583.14
5.37848 258.127
5.42315 128.182
5.46783 107.862
5.5125 100.141
5.55716 95.9298
5.60183 91.8075
5.6465 89.7978
5.69117 87.7985
5.73586 85.6405
5.78053 84.9572
5.8252 84.8411
5.86988 84.9789
5.91455 86.0812
5.95924 91.5303
6.00392 150.548
6.0486 706.896
6.09328 4307.06
6.13795 3503.45
6.18263 248.186
6.22733 87.0334
6.27201 75.5218
6.3167 75.3128
6.36138 69.044
6.40606 64.2264
6.45075 62.4926
6.49545 60.8075
6.54014 59.3953
6.58483 58.0644
6.62952 57.1505
6.67421 62.0739
6.71892 75.0777
6.76361 58.0812
6.8083 54.1714
6.853 53.197
6.89769 52.8551
6.94239 52.6379
6.98711 52.1044
7.03181 51.4154
7.07651 51.5194
7.12121 51.3954
7.16591 51.3972
7.21063 50.8956
7.25533 53.5241
7.30004 77.6525
7.34475 61.692
7.38945 51.6927
7.43416 50.5922
7.47889 51.8948
7.5236 64.2186
7.56831 90.8267
7.61303 62.3043
7.65774 53.1586
7.70247 52.6276
7.74719 52.6326
7.79191 53.1239
7.83663 53.1675
7.88135 53.9036
7.92607 54.5894
7.97081 55.7193
8.01553 56.9557
8.06026 57.8927
8.10498 59.4106
8.14971 62.1404
8.19446 63.6021
8.23919 64.4592
8.28392 66.6519
8.32865 68.864
8.37339 72.4682
8.41812 76.2169
8.46288 86.8869
8.50761 121.303
8.55235 298.41
8.59709 1005.82
8.64183 2289.21
8.68658 1095.32
8.73134 179.7
8.77609 93.9312
8.82083 87.0826
8.86558 84.1788
8.91033 82.7738
8.9551 81.8357
8.99985 80.0412
9.04461 79.1098
9.08936 78.4814
9.13412 78.185
9.17888 79.7832
9.22365 100.448
9.26841 142.519
9.31318 99.8522
9.35794 79.8312
9.4027 78.8798
9.44749 79.1011
9.49226 79.7145
9.53703 80.2097
9.5818 81.5947
9.62657 83.1438
9.67134 85.9379
9.71614 86.6665
9.76091 87.6339
9.80569 89.8135
9.85047 91.4711
9.89525 98.9595
9.94005 106.787
9.98484 136.46
10.0296 276.961
10.0744 663.579
10.1192 1705.49
10.164 1732.3
10.2088 471.329
10.2536 126.88
10.2984 102.114
10.3432 100.469
10.388 95.9987
10.4328 103.692
10.4776 138.781
10.5224 240.486
10.5672 502.241
10.612 546.596
10.6568 229.616
10.7017 110.315
10.7465 88.5963
10.7913 79.3691
10.8361 76.7067
10.8809 74.1661
10.9257 72.3428
10.9706 71.8286
11.0154 69.8035
11.0602 68.1187
11.105 67.0745
11.1499 66.607
11.1947 67.9437
11.2395 65.3824
11.2844 63.9532
11.3292 62.6085
11.374 61.8945
11.4189 61.4297
11.4637 60.8184
11.5086 60.3491
11.5534 60.6574
11.5983 59.9682
11.6431 59.6295
11.688 59.2003
11.7328 58.931
11.7777 59.0599
11.8225 58.9469
11.8674 59.2483
11.9122 62.78
11.9571 73.9193
12.002 70.9668
12.0468 64.1718
12.0917 71.5906
12.1366 90.2511
12.1814 138.944
12.2263 201.784
12.2712 177.225
12.3161 96.649
12.3609 64.3408
12.4058 60.343
12.4507 60.3806
12.4956 60.2284
12.5405 60.3802
12.5853 60.6283
12.6302 62.0157
12.6751 64.6213
12.72 63.3938
12.7649 63.1676
12.8098 64.0169
12.8547 64.9926
12.8996 66.2129
12.9445 67.4645
12.9894 69.245
13.0343 70.9579
13.0792 75.3947
13.1242 81.667
13.1691 99.4394
13.214 129.478
13.2589 208.326
13.3038 356.43
13.3487 446.152
13.3937 285.561
13.4386 127.64
13.4835 95.8803
13.5285 108.921
13.5734 139.683
13.6183 222.038
13.6633 345.91
13.7082 363.339
13.7531 208.408
13.7981 100.268
13.843 78.3136
13.888 75.6327
13.9329 73.3707
13.9779 72.3035
14.0228 70.7587
14.0678 69.9174
14.1127 72.1247
14.1577 79.5444
14.2027 77.0716
14.2476 69.068
14.2926 66.6417
14.3376 66.5318
14.3825 65.7004
14.4275 64.9122
14.4725 64.7354
14.5175 64.9786
14.5624 64.7122
14.6074 65.6751
14.6524 66.1708
14.6974 66.177
14.7424 66.9791
14.7874 71.6768
14.8324 81.5218
14.8774 99.7821
14.9224 139.915
14.9674 202.449
15.0124 226.827
15.0574 161.985
15.1024 94.392
15.1474 70.4669
15.1924 66.8544
15.2374 65.7296
15.2824 64.8254
15.3274 63.7938
15.3725 63.1194
15.4175 62.8739
15.4625 62.4007
15.5076 62.1436
15.5526 62.2076
15.5976 61.9465
15.6426 62.2694
15.6877 65.9321
15.7327 73.3602
15.7778 85.9105
15.8228 114.444
15.8679 165.496
15.9129 204.21
15.958 172.392
16.003 105.584
16.0481 70.2716
16.0931 64.0022
16.1382 60.2764
16.1833 57.7699
16.2283 56.0762
16.2734 55.5019
16.3185 54.8469
16.3636 54.3669
16.4086 53.7856
16.4537 53.1501
16.4988 52.2151
16.5439 52.282
16.589 52.282
16.6341 51.9117
16.6792 51.3814
16.7243 51.8651
16.7694 51.7936
16.8145 51.6183
16.8596 52.0991
16.9047 53.111
16.9498 54.2685
16.9949 53.6347
17.04 52.9406
17.0851 53.5214
17.1302 55.0437
17.1754 57.5658
17.2205 62.3213
17.2656 70.3884
17.3108 81.1758
17.3559 81.4738
17.401 70.75
17.4462 60.3985
17.4913 56.4076
17.5365 56.1235
17.5815 56.2031
17.6268 56.6465
17.6718 56.8793
17.7171 57.5277
17.7622 59.2456
17.8074 60.0868
17.8525 60.662
17.8977 63.9927
17.9428 68.7882
17.9881 76.3252
18.0331 92.4723
18.0784 117.129
18.1237 140.619
18.1688 136.507
18.214 108.114
18.2591 85.9099
18.3044 86.1305
18.3495 97.5698
18.3948 107.092
18.4399 98.669
18.4852 78.3688
18.5303 65.0464
18.5756 60.7823
18.6207 59.519
18.666 58.1529
18.7112 57.0803
18.7565 56.3305
18.8016 55.9841
18.8469 55.3333
18.892 55.1
18.9374 54.7513
18.9825 54.2931
19.0278 54.0456
19.073 54.0326
19.1183 54.0883
19.1635 54.6936
19.2088 56.1045
19.254 58.7749
19.2993 64.1974
19.3447 71.6672
19.3898 76.0409
19.4352 72.3129
19.4804 63.0791
19.5257 55.6342
19.5709 52.1127
19.6163 51.3871
19.6615 51.2889
19.7068 50.9902
19.752 50.7097
19.7974 50.8678
19.8426 51.4633
19.888 52.0104
19.9332 53.1684
19.9786 55.6643
20.0238 59.2434
20.0692 64.8775
20.1144 68.9122
20.1598 68.0787
20.205 62.8199
20.2504 60.369
20.2957 62.0867
20.3411 64.9297
20.3863 63.6638
20.4318 57.4964
20.477 52.1451
20.5224 49.2319
20.5677 48.4102
20.6131 47.9111
20.6586 47.5341
20.7038 47.3885
20.7493 47.4252
20.7945 47.3481
20.84 47.3724
20.8853 46.9196
20.9307 46.525
20.976 46.6362
21.0215 46.4037
21.0668 46.7704
21.1122 47.1013
21.1575 47.7744
21.203 48.5659
21.2483 49.5381
21.2938 49.6078
21.3391 48.2328
21.3846 47.037
21.4299 46.4439
21.4754 46.4665
21.5207 46.4818
21.5662 46.5473
21.6116 46.7913
21.6571 47.6956
21.7024 48.54
21.7479 50.0324
21.7933 52.4687
21.8388 56.6689
21.8843 61.1343
21.9297 64.3219
21.9752 63.6102
22.0206 58.9948
22.0661 55.5989
22.1115 55.2403
22.157 55.3075
22.2024 53.8973
22.248 50.4175
22.2933 48.2197
22.3389 47.2117
22.3843 46.7838
22.4299 46.8785
22.4753 46.4947
22.5208 46.5323
22.5662 46.6291
22.6118 46.588
22.6572 46.6053
22.7028 47.2931
22.7483 47.825
22.7939 48.3515
22.8393 49.9126
22.8849 51.9686
22.9303 54.4752
22.9759 56.7026
23.0214 56.8034
23.067 53.9693
23.1126 50.2009
23.1581 47.68
23.2037 46.8558
23.2492 46.8715
23.2948 46.8831
23.3403 47.285
23.3859 48.0947
23.4314 49.0529
23.477 51.0483
23.5225 53.3065
23.5682 56.1926
23.6137 58.0343
23.6593 56.0124
23.7048 51.5868
23.7505 47.6074
23.796 45.1903
23.8417 44.3119
23.8872 43.8724
23.9329 43.547
23.9784 43.0488
24.0241 42.9087
24.0697 42.9347
24.1154 42.4961
24.1609 42.162
24.2066 42.0755
24.2522 41.8529
24.2979 41.7182
24.3434 41.5758
24.3892 41.4345
24.4349 41.4518
24.4805 41.1167
24.5262 41.4668
24.5718 41.2484
24.6175 41.5077
24.6631 41.4956
24.7089 41.1182
24.7545 40.7106
24.8002 40.5423
24.8458 40.5305
24.8916 40.41
24.9372 40.6201
24.983 40.786
25.0286 41.2463
25.0744 41.6606
25.12 42.2166
25.1658 42.9038
25.2114 43.3409
25.2572 43.7114
25.3029 43.8034
25.3487 44.0131
25.3943 43.6791
25.4402 42.6844
25.4858 41.3889
25.5316 40.2042
25.5773 39.4846
25.6231 39.4704
25.669 39.0477
25.7147 38.9421
25.7605 38.8825
25.8062 39.0695
25.8521 39.0638
25.8977 39.0604
25.9436 39.1626
25.9893 39.4107
26.0352 40.0252
26.0809 40.2303
26.1268 40.5094
26.1725 40.3322
26.2184 39.6354
26.2641 39.0439
26.31 38.4843
26.3557 38.6708
26.4017 38.664
26.4474 38.9674
26.4933 39.2099
26.5391 39.8858
26.585 40.3393
26.6308 41.1286
26.6767 41.3098
26.7225 41.151
26.7684 40.5447
26.8142 40.004
26.8601 39.4733
26.9059 39.1719
26.9519 38.5562
26.9979 38.0959
27.0437 37.6638
27.0896 37.4799
27.1354 37.3405
27.1814 37.2814
27.2272 37.2376
27.2732 37.1834
27.3191 36.9785
27.3651 37.1517
27.4109 37.1603
27.4569 37.2618
27.5027 37.3669
27.5488 37.377
27.5946 37.2407
27.6407 37.0641
27.6865 36.9521
27.7326 36.7265
27.7784 36.6362
27.8245 36.6144
27.8703 36.6257
27.9164 37.0941
27.9623 37.2732
28.0084 37.6566
28.0543 38.254
28.1003 38.2946
28.1462 38.1188
28.1923 37.7428
28.2384 37.2345
28.2843 36.818
28.3304 36.2705
28.3764 35.6543
28.4225 35.3589
28.4684 35.1464
28.5145 34.7724
28.5605 34.7061
28.6066 34.4749
28.6526 34.3801
28.6987 34.4958
28.7447 34.3401
28.7908 34.2949
28.8368 34.2481
28.8829 34.3104
28.9289 34.1011
28.9751 34.1016
29.0211 33.8238
29.0673 33.4335
29.1133 33.4926
29.1595 33.2131
29.2055 33.1218
29.2517 33.1891
29.2977 33.1058
29.3439 33.239
29.3899 33.2316
29.4361 33.0599
29.4824 32.92
29.5284 32.7158
29.5746 32.3338
29.6207 32.0627
29.6669 32.0195
29.713 31.8664
29.7593 31.7309
29.8053 31.673
29.8516 31.6785
29.8977 31.6343
29.9439 31.4812
29.99 31.3484
30.0363 31.2872
30.0824 31.454
30.1287 31.3904
30.1748 31.3163
30.2211 31.3573
30.2673 31.1545
30.3136 31.2644
30.3597 31.1511
30.406 31.1502
30.4522 31.0509
30.4985 30.9123
30.5447 31.0543
30.591 31.1037
30.6372 31.2149
30.6835 31.2599
30.7297 31.1489
30.7761 31.3086
30.8224 31.1665
30.8686 30.9103
30.915 30.6266
30.9612 30.659
31.0076 30.3891
31.0538 30.2573
31.1002 30.1793
31.1464 29.8841
31.1928 29.9222
31.2391 29.9235
31.2855 29.8617
31.3317 29.8284
31.3781 29.926
31.4244 29.9486
31.4708 29.9358
31.5171 29.874
31.5636 29.9191
31.6098 29.6757
31.6563 29.4473
31.7026 29.3593
31.7491 29.2743
31.7953 29.2377
31.8418 29.1592
31.8881 29.1942
31.9346 29.3061
31.9809 29.124
32.0275 29.0201
32.074 29.0737
32.1203 28.7346
32.1668 28.6532
32.2132 28.4612
32.2597 28.3457
32.306 28.2698
32.3526 28.03
32.399 27.9577
32.4455 27.9144
32.4919 27.7547
32.5385 27.7727
32.5848 27.5201
32.6314 27.6219
32.6778 27.5513
32.7244 27.4312
32.7708 27.2026
32.8174 27.251
32.8638 27.0966
32.9104 27.1495
32.9569 27.0969
33.0035 26.9482
33.0499 26.965
33.0966 26.8442
33.143 26.8657
33.1897 26.8753
33.2361 26.7307
33.2828 26.7345
33.3293 26.5904
33.3759 26.5178
33.4226 26.4359
33.4691 26.2831
33.5158 26.2236
33.5623 26.0348
33.609 25.8902
33.6555 25.8074
33.7022 25.7329
33.7487 25.6925
33.7954 25.5843
33.842 25.5984
33.8887 25.4292
33.9353 25.5316
33.982 25.3384
34.0286 25.195
34.0753 25.204
34.1219 25.031
34.1687 25.0222
34.2152 24.9083
34.262 24.8617
34.3086 24.6835
34.3554 24.6949
34.402 24.5423
34.4488 24.4646
34.4954 24.4539
34.5422 24.388
34.5889 24.258
34.6357 24.1363
34.6825 24.0748
34.7292 23.9752
34.776 23.9221
34.8227 23.8901
34.8695 23.8511
34.9162 23.756
34.9631 23.6375
35.0098 23.694
35.0566 23.5051
35.1033 23.5994
35.1502 23.4344
35.1969 23.4969
35.2438 23.3792
35.2906 23.2895
35.3375 23.2725
35.3842 23.2498
35.4311 23.2727
35.4779 23.2127
35.5248 23.1971
35.5716 23.108
35.6185 23.0071
35.6653 22.8959
35.7123 22.8022
35.759 22.7949
35.806 22.587
35.8528 22.5655
35.8998 22.478
35.9468 22.3519
35.9936 22.3503
36.0406 22.2336
36.0874 22.3053
36.1345 22.2729
36.1813 22.0676
36.2283 21.9517
36.2752 21.9112
36.3222 22.031
36.3691 21.8655
36.4161 21.7267
36.463 21.7334
36.5101 21.6826
36.557 21.6184
36.6041 21.4992
36.651 21.5293
36.6981 21.4753
36.745 21.3746
36.7921 21.2746
36.839 21.1768
36.8861 21.1764
36.9331 21.0325
36.9802 20.9769
37.0272 20.8551
37.0743 20.8005
37.1213 20.7865
37.1684 20.7479
37.2154 20.6493
37.2626 20.591
37.3098 20.5993
37.3568 20.5192
37.404 20.5071
37.451 20.3339
37.4982 20.2637
37.5452 20.1578
37.5924 20.1173
37.6395 20.1647
37.6867 20.0644
37.7337 19.9134
37.781 19.8731
37.8281 19.8434
37.8753 19.7518
37.9224 19.7072
37.9697 19.5929
38.0168 19.569
38.064 19.4868
38.1111 19.4356
38.1584 19.308
38.2056 19.3749
38.2529 19.2963
38.3 19.2256
38.3473 19.1813
38.3945 19.0815
38.4418 19.0536
38.489 18.963
38.5363 18.8386
38.5837 18.8623
38.6309 18.7887
38.6782 18.6964
38.7254 18.6761
38.7728 18.595
38.82 18.5354
38.8674 18.5037
38.9146 18.4596
38.9621 18.3438
39.0093 18.2916
39.0567 18.2926
39.104 18.163
39.1514 18.0956
39.1987 18.0925
39.2461 18.0303
39.2934 17.9798
39.3409 17.8828
39.3882 17.8448
39.4356 17.785
39.483 17.7999
39.5304 17.6899
39.5778 17.6599
39.6253 17.5599
39.6726 17.5275
39.7201 17.4203
39.7675 17.4841
39.815 17.3479
39.8624 17.2549
39.9099 17.2816
39.9575 17.1763
40.0049 17.1536
40.0525 17.0678
40.0999 17.0528
40.1474 17.0062
40.1949 16.8401
40.2425 16.8549
40.2899 16.7971
40.3375 16.7152
40.385 16.6413
40.4326 16.6159
40.48 16.5873
40.5277 16.5366
40.5752 16.478
40.6228 16.4029
40.6703 16.3425
40.718 16.3052
40.7655 16.3074
40.8132 16.2388
40.8607 16.1748
40.9084 16.1478
40.9559 16.077
41.0036 16.0683
41.0512 15.9517
41.0989 15.9651
41.1465 15.9016
41.1942 15.8062
41.242 15.6918
41.2896 15.686
41.3373 15.6208
41.3849 15.5976
41.4327 15.5557
41.4803 15.4809
41.5281 15.4446
41.5758 15.3793
41.6236 15.3721
41.6712 15.3148
41.7191 15.2521
41.7667 15.1935
41.8146 15.1642
41.8622 15.0835
41.9101 15.0992
41.9578 14.9566
42.0057 14.9313
42.0534 14.8804
42.1013 14.8738
42.149 14.7749
42.1969 14.7591
42.2446 14.6861
42.2925 14.637
42.3403 14.6181
42.3882 14.6128
42.436 14.5289
42.4839 14.4376
42.5319 14.4143
42.5797 14.3976
42.6277 14.3624
42.6755 14.2346
42.7235 14.209
42.7713 14.1587
42.8193 14.1037
42.8671 14.0218
42.9152 14.0655
42.963 13.9662
43.0111 13.8609
43.0589 13.8772
43.107 13.8319
43.1549 13.8046
43.2029 13.7267
43.2508 13.7126
43.2989 13.6729
43.3468 13.5581
43.3949 13.5286
43.4429 13.5161
43.491 13.4604
43.5389 13.3746
43.5871 13.3406
43.635 13.2649
43.6832 13.2699
43.7312 13.2019
43.7793 13.1876
43.8273 13.0723
43.8755 13.0347
43.9237 13.0499
43.9717 13.0171
44.0199 12.937
44.068 12.89
44.1162 12.8322
44.1642 12.8324
44.2125 12.7826
44.2606 12.7252
44.3088 12.6525
44.3569 12.6102
44.4052 12.5635
44.4533 12.5207
44.5016 12.4925
44.5497 12.4574
44.598 12.4329
44.6461 12.3759
44.6945 12.3499
44.7426 12.261
44.791 12.2707
44.8391 12.2493
44.8875 12.1738
44.9357 12.1367
44.984 12.147
45.0322 12.0042
45.0806 11.9768
45.1288 11.9211
45.1773 11.9743
45.2257 11.8532
45.2739 11.83
45.3224 11.7837
45.3706 11.7305
45.4191 11.6627
45.4673 11.6591
45.5158 11.6105
45.5641 11.5715
45.6126 11.5125
45.6609 11.4787
45.7094 11.4617
45.7577 11.4117
45.8063 11.3293
45.8546 11.4091
45.9031 11.2994
45.9515 11.2719
46.0001 11.2012
46.0484 11.1342
46.097 11.1526
46.1454 11.0888
46.194 11.0745
46.2424 11.004
46.291 10.9299
46.3395 10.9426
46.3881 10.8698
46.4365 10.8805
46.4852 10.8261
46.5337 10.7114
46.5823 10.7743
46.631 10.6801
46.6795 10.6382
46.7282 10.6167
46.7767 10.5915
46.8254 10.5388
46.8739 10.4639
46.9226 10.4971
46.9712 10.3835
47.0199 10.3609
47.0685 10.3756
47.1173 10.2777
47.1658 10.2227
47.2146 10.1903
47.2632 10.1564
47.312 10.1479
47.3606 10.1103
47.4095 10.0651
47.4581 10.0177
47.5069 9.96958
47.5556 9.93978
47.6044 9.89626
47.6531 9.86278
47.702 9.79304
47.7507 9.81722
47.7996 9.77261
47.8483 9.75864
47.8972 9.7134
47.9461 9.65313
47.9948 9.60079
48.0438 9.62337
48.0925 9.55482
48.1415 9.55628
48.1902 9.48152
48.2392 9.47163
48.288 9.49458
48.337 9.42002
48.3858 9.34449
48.4348 9.30313
48.4837 9.34687
48.5327 9.29973
48.5815 9.24315
48.6306 9.23248
48.6795 9.1378
48.7285 9.1137
48.7774 9.08776
48.8265 9.08997
48.8754 9.02447
48.9245 8.97073
48.9734 8.95016
49.0226 8.9615
49.0715 8.91083
49.1206 8.85639
49.1696 8.8151
49.2188 8.74966
49.2679 8.73041
49.3169 8.71535
49.3661 8.67361
49.4151 8.6914
49.4643 8.59933
49.5134 8.57497
49.5626 8.56125
49.6117 8.50537
49.6609 8.50191
49.71 8.44816
49.7592 8.40947
49.8083 8.33686
49.8576 8.3466
49.9067 8.33472
49.956 8.32448
50.0052 8.26229
50.0545 8.2233
50.1036 8.2171
50.153 8.17354
50.2022 8.1484
50.2515 8.11422
50.3007 8.04114
50.3501 8.05618
50.3993 8.04085
50.4487 8.01252
50.498 7.92814
50.5474 7.92627
50.5966 7.90296
50.6461 7.85107
50.6955 7.8352
50.7448 7.80067
50.7943 7.79776
50.8436 7.71955
50.8931 7.72346
50.9424 7.67449
50.9919 7.65913
51.0413 7.62585
51.0908 7.59844
51.1402 7.52665
51.1897 7.50755
51.2391 7.5161
51.2887 7.45861
51.3381 7.44376
51.3877 7.41364
51.4371 7.38091
51.4867 7.3513
51.5362 7.31036
51.5858 7.29546
51.6353 7.21853
51.6849 7.23329
51.7344 7.17651
51.7841 7.18042
51.8336 7.15841
51.8833 7.10134
51.9328 7.05861
51.9826 7.04664
52.0323 6.99952
52.0818 7.01257
52.1316 6.97048
52.1812 6.92499
52.231 6.86541
52.2806 6.86422
52.3304 6.84041
52.38 6.80087
52.4298 6.79226
52.4794 6.71684
52.5293 6.70769
52.5789 6.72276
52.6288 6.70146
52.6785 6.67592
52.7284 6.66342
52.7781 6.61467
52.828 6.56293
52.8777 6.52404
52.9276 6.51626
52.9774 6.49473
53.0273 6.48013
53.0771 6.42887
53.1271 6.41205
53.1769 6.37261
53.2269 6.34746
53.2767 6.37353
53.3267 6.30845
53.3765 6.28327
53.4266 6.26383
53.4766 6.18488
53.5265 6.14902
53.5765 6.16998
53.6264 6.13239
53.6765 6.12284
53.7264 6.11674
53.7765 6.05802
53.8265 6.071
53.8766 5.99813
53.9266 6.01331
53.9767 5.92995
54.0267 5.95078
54.0769 5.91978
54.1269 5.83385
54.1771 5.8126
54.2271 5.77484
54.2773 5.73867
54.3274 5.7641
54.3776 5.70212
54.4277 5.65358
54.478 5.65977
54.528 5.58811
54.5783 5.54259
54.6285 5.55547
54.6788 5.50932
54.7289 5.4431
54.7792 5.42367
54.8296 5.36282
54.8798 5.32247
54.9301 5.31729
54.9803 5.27384
55.0307 5.28304
55.0809 5.19905
55.1314 5.15956
55.1816 5.10436
55.232 5.0703
55.2823 5.06898
55.3328 4.97723
55.383 4.89789
55.4335 4.91898
55.4838 4.81988
55.5344 4.84248
55.5847 4.75722
55.6352 4.76019
55.6856 4.66197
55.7361 4.6589