File: XRD/Ni3Fe_FD0488.xy
TT I
1.27165 7.46357
1.31627 6.93044
1.36089 6.74126
1.40551 6.01508
1.45013 6.31231
1.49476 5.85122
1.53938 6.02809
1.584 5.50355
1.62863 5.27275
1.67325 5.32575
1.71787 5.48076
1.7625 4.79828
1.80712 4.90487
1.85174 4.5775
1.89636 4.63449
1.94099 4.63445
1.98562 4.42879
2.03025 4.83312
2.07487 4.80461
2.11949 4.66687
2.16411 4.6227
2.20874 11.0771
2.25338 16.1676
2.298 5.9916
2.34263 4.83834
2.38725 5.68481
2.43188 5.92157
2.4765 6.19574
2.52115 6.69743
2.56577 6.92194
2.6104 7.26283
2.65503 7.65667
2.69965 7.74409
2.7443 7.62937
2.78893 7.081
2.83356 7.73945
2.87818 8.18315
2.92281 8.84541
2.96744 9.50331
3.01209 10.4407
3.05672 11.0175
3.10135 12.1492
3.14599 12.7758
3.19062 14.0828
3.23527 14.7515
3.2799 15.7689
3.32454 16.739
3.36917 17.6693
3.4138 19.2106
3.45844 20.025
3.50309 21.2119
3.54773 22.134
3.59237 23.645
3.637 68.299
3.68164 46.2338
3.7263 26.0891
3.77094 26.6249
3.81558 26.5865
3.86022 27.6156
3.90486 28.8536
3.9495 30.2538
3.99416 31.0481
4.0388 32.3157
4.08344 33.7477
4.12809 34.9242
4.17273 36.955
4.21738 41.6274
4.26204 172.991
4.30669 150.544
4.35133 47.3531
4.39598 44.7188
4.44063 51.4972
4.4853 59.3465
4.52995 52.0266
4.5746 52.863
4.61925 54.214
4.6639 56.2785
4.70855 59.3284
4.75322 62.0286
4.79788 65.2416
4.84253 68.8149
4.88719 73.0641
4.93184 76.7622
4.97652 82.5919
5.02118 89.4788
5.06583 97.4779
5.11049 109.866
5.15515 167.438
5.19981 456.37
5.24449 3301.43
5.28916 11762.4
5.33382 3194.15
5.37848 207.635
5.42315 135.119
5.46783 118.205
5.5125 109.769
5.55716 104.777
5.60183 100.324
5.6465 99.0215
5.69117 96.4132
5.73586 94.6558
5.78053 94.7358
5.8252 94.6882
5.86988 96.0017
5.91455 98.0515
5.95924 108.869
6.00392 256.443
6.0486 1134.81
6.09328 4205.18
6.13795 3561.63
6.18263 302.979
6.22733 97.467
6.27201 84.5835
6.3167 94.0651
6.36138 78.7248
6.40606 70.1607
6.45075 68.6944
6.49545 66.2423
6.54014 64.8914
6.58483 63.8502
6.62952 63.5334
6.67421 83.6584
6.71892 113.237
6.76361 66.1716
6.8083 59.163
6.853 58.382
6.89769 57.3835
6.94239 56.9652
6.98711 56.0587
7.03181 56.1719
7.07651 55.9821
7.12121 55.4592
7.16591 55.9918
7.21063 56.0169
7.25533 66.3015
7.30004 132.825
7.34475 78.4403
7.38945 56.5697
7.43416 54.8263
7.47889 54.9628
7.5236 55.4208
7.56831 56.0127
7.61303 57.1234
7.65774 57.2552
7.70247 57.1121
7.74719 56.5476
7.79191 57.4265
7.83663 57.7824
7.88135 58.3545
7.92607 59.6757
7.97081 60.6924
8.01553 61.8546
8.06026 63.2558
8.10498 64.562
8.14971 71.9674
8.19446 71.8388
8.23919 70.3433
8.28392 73.11
8.32865 75.481
8.37339 79.9514
8.41812 86.4179
8.46288 110.257
8.50761 190.772
8.55235 443.656
8.59709 1217.22
8.64183 2091.2
8.68658 1070.28
8.73134 184.237
8.77609 102.427
8.82083 94.2471
8.86558 91.6868
8.91033 91.2005
8.9551 91.3652
8.99985 86.7477
9.04461 85.1363
9.08936 84.5522
9.13412 83.4295
9.17888 83.3374
9.22365 83.8753
9.26841 83.6421
9.31318 84.3494
9.35794 84.6346
9.4027 84.7931
9.44749 85.9208
9.49226 86.0557
9.53703 87.3434
9.5818 89.4425
9.62657 93.1597
9.67134 97.0768
9.71614 94.6689
9.76091 95.65
9.80569 98.5541
9.85047 102.071
9.89525 118.976
9.94005 133.195
9.98484 201.641
10.0296 391.247
10.0744 871.059
10.1192 1647.43
10.164 1634.55
10.2088 458.25
10.2536 135.575
10.2984 113.855
10.3432 113.11
10.388 107.005
10.4328 126.127
10.4776 173.776
10.5224 298.993
10.5672 490.23
10.612 494.161
10.6568 219.143
10.7017 100.137
10.7465 88.4066
10.7913 84.64
10.8361 82.4045
10.8809 80.5296
10.9257 79.0834
10.9706 79.019
11.0154 75.6916
11.0602 73.7396
11.105 73.2097
11.1499 75.0412
11.1947 79.1881
11.2395 73.0461
11.2844 70.3994
11.3292 68.067
11.374 66.9344
11.4189 66.4268
11.4637 65.7317
11.5086 66.0398
11.5534 67.5139
11.5983 65.531
11.6431 64.5218
11.688 64.0889
11.7328 63.6002
11.7777 63.7968
11.8225 63.3807
11.8674 63.4253
11.9122 63.6178
11.9571 63.9088
12.002 64.9423
12.0468 70.6845
12.0917 82.6875
12.1366 108.689
12.1814 154.295
12.2263 196.869
12.2712 171.997
12.3161 98.8153
12.3609 70.4204
12.4058 65.748
12.4507 65.1968
12.4956 65.7422
12.5405 65.5354
12.5853 66.2863
12.6302 71.5209
12.6751 74.9631
12.72 69.9138
12.7649 68.8041
12.8098 69.4556
12.8547 70.8762
12.8996 72.1631
12.9445 73.5926
12.9894 75.3407
13.0343 77.2693
13.0792 81.0219
13.1242 93.4389
13.1691 118.518
13.214 158.935
13.2589 248.085
13.3038 355.977
13.3487 414.945
13.3937 279.122
13.4386 132.415
13.4835 111.732
13.5285 127.622
13.5734 168.721
13.6183 250.725
13.6633 328.439
13.7082 340.16
13.7531 203.208
13.7981 103.164
13.843 83.42
13.888 80.8163
13.9329 78.3033
13.9779 76.8146
14.0228 75.3338
14.0678 74.2707
14.1127 73.7842
14.1577 73.2887
14.2027 72.2619
14.2476 71.3527
14.2926 71.5591
14.3376 71.9065
14.3825 71.048
14.4275 69.7399
14.4725 69.9333
14.5175 69.968
14.5624 70.3006
14.6074 71.6184
14.6524 72.2861
14.6974 71.6888
14.7424 74.1763
14.7874 81.728
14.8324 93.4435
14.8774 116.714
14.9224 156.902
14.9674 197.988
15.0124 211.66
15.0574 157.053
15.1024 96.7555
15.1474 73.8941
15.1924 71.3708
15.2374 71.2112
15.2824 70.5769
15.3274 68.6609
15.3725 67.7129
15.4175 67.5117
15.4625 67.1193
15.5076 67.1308
15.5526 67.2462
15.5976 66.8432
15.6426 68.92
15.6877 74.9294
15.7327 83.2872
15.7778 99.8644
15.8228 130.343
15.8679 166.216
15.9129 186.595
15.958 158.282
16.003 101.611
16.0481 69.9416
16.0931 64.9842
16.1382 62.9774
16.1833 61.4467
16.2283 59.5503
16.2734 59.0257
16.3185 59.0664
16.3636 59.5374
16.4086 58.1957
16.4537 56.9122
16.4988 56.2376
16.5439 56.3869
16.589 55.8477
16.6341 55.7339
16.6792 55.2488
16.7243 55.6467
16.7694 55.6042
16.8145 55.506
16.8596 55.9506
16.9047 56.9478
16.9498 57.0873
16.9949 56.4269
17.04 56.846
17.0851 58.1748
17.1302 59.92
17.1754 63.0468
17.2205 68.2194
17.2656 74.7907
17.3108 80.8549
17.3559 81.7573
17.401 72.7879
17.4462 63.5737
17.4913 60.3221
17.5365 60.1513
17.5815 60.0347
17.6268 60.476
17.6718 61.2213
17.7171 61.8135
17.7622 62.1715
17.8074 62.9414
17.8525 66.2119
17.8977 70.2381
17.9428 76.1334
17.9881 85.7872
18.0331 102.245
18.0784 120.203
18.1237 136.119
18.1688 133.803
18.214 109.099
18.2591 90.9486
18.3044 92.27
18.3495 99.2363
18.3948 105.066
18.4399 98.1091
18.4852 80.4804
18.5303 67.7249
18.5756 63.2687
18.6207 62.3633
18.666 61.3788
18.7112 60.6637
18.7565 59.8207
18.8016 59.515
18.8469 58.9269
18.892 58.7594
18.9374 57.9674
18.9825 57.872
19.0278 57.7745
19.073 57.8602
19.1183 58.5225
19.1635 59.0016
19.2088 60.6783
19.254 63.3741
19.2993 67.602
19.3447 72.2368
19.3898 75.6472
19.4352 73.2818
19.4804 64.9792
19.5257 58.0167
19.5709 55.0548
19.6163 54.6893
19.6615 54.4439
19.7068 54.1774
19.752 54.2607
19.7974 54.495
19.8426 55.5496
19.888 56.1753
19.9332 57.5106
19.9786 60.2629
20.0238 63.3571
20.0692 67.2453
20.1144 70.0215
20.1598 69.499
20.205 65.3081
20.2504 63.4432
20.2957 63.9626
20.3411 65.6165
20.3863 64.8252
20.4318 59.5463
20.477 54.6202
20.5224 52.392
20.5677 51.6313
20.6131 51.0682
20.6586 50.3459
20.7038 50.1662
20.7493 49.7244
20.7945 49.8566
20.84 49.7054
20.8853 49.303
20.9307 49.3089
20.976 49.4351
21.0215 49.429
21.0668 49.7657
21.1122 50.4755
21.1575 51.0651
21.203 51.5555
21.2483 51.8303
21.2938 52.2901
21.3391 50.9704
21.3846 49.8764
21.4299 49.2892
21.4754 49.1258
21.5207 49.2677
21.5662 49.6126
21.6116 50.0776
21.6571 50.9227
21.7024 51.8652
21.7479 53.8694
21.7933 56.6068
21.8388 59.6044
21.8843 62.7612
21.9297 64.826
21.9752 64.1745
22.0206 61.1269
22.0661 57.4179
22.1115 56.2981
22.157 56.4281
22.2024 55.3597
22.248 52.498
22.2933 50.7646
22.3389 49.9485
22.3843 49.7181
22.4299 49.5052
22.4753 49.643
22.5208 49.4025
22.5662 49.2882
22.6118 49.5592
22.6572 49.7861
22.7028 50.124
22.7483 50.5886
22.7939 51.5677
22.8393 52.7184
22.8849 54.8117
22.9303 56.506
22.9759 57.9128
23.0214 57.9069
23.067 55.4463
23.1126 52.2568
23.1581 50.1088
23.2037 49.6335
23.2492 49.8412
23.2948 49.6539
23.3403 50.1231
23.3859 50.7247
23.4314 51.6639
23.477 53.5992
23.5225 55.2716
23.5682 56.8278
23.6137 57.7874
23.6593 56.4755
23.7048 52.8501
23.7505 49.4899
23.796 47.3374
23.8417 46.7782
23.8872 46.3708
23.9329 45.9049
23.9784 45.6271
24.0241 45.3221
24.0697 45.179
24.1154 44.7606
24.1609 44.6131
24.2066 44.4636
24.2522 44.4113
24.2979 44.0318
24.3434 43.9828
24.3892 43.8231
24.4349 43.6689
24.4805 43.6229
24.5262 43.8575
24.5718 43.6177
24.6175 43.5477
24.6631 43.4763
24.7089 43.2705
24.7545 42.8656
24.8002 42.9651
24.8458 42.8489
24.8916 42.8367
24.9372 42.9766
24.983 43.1779
25.0286 43.6376
25.0744 43.9962
25.12 44.3583
25.1658 44.8927
25.2114 45.4637
25.2572 45.4874
25.3029 45.4816
25.3487 45.3598
25.3943 45.0132
25.4402 44.2814
25.4858 43.1909
25.5316 42.163
25.5773 41.4651
25.6231 41.4879
25.669 41.1165
25.7147 41.1209
25.7605 41.0842
25.8062 41.1541
25.8521 41.2349
25.8977 41.3053
25.9436 41.5652
25.9893 41.6167
26.0352 42.1018
26.0809 42.1825
26.1268 42.2099
26.1725 41.9824
26.2184 41.4955
26.2641 40.9684
26.31 40.8017
26.3557 40.8226
26.4017 40.6816
26.4474 41.1434
26.4933 41.5292
26.5391 41.8098
26.585 42.2959
26.6308 42.5239
26.6767 42.6684
26.7225 42.6347
26.7684 41.9977
26.8142 41.5695
26.8601 41.1932
26.9059 40.5124
26.9519 40.1822
26.9979 39.8423
27.0437 39.5252
27.0896 39.3551
27.1354 39.3152
27.1814 39.1815
27.2272 39.1961
27.2732 39.1717
27.3191 38.8817
27.3651 39.1821
27.4109 39.0357
27.4569 39.18
27.5027 39.0369
27.5488 39.075
27.5946 38.9092
27.6407 38.8115
27.6865 38.821
27.7326 38.4368
27.7784 38.5466
27.8245 38.4062
27.8703 38.651
27.9164 38.9606
27.9623 38.8871
28.0084 39.1505
28.0543 39.5688
28.1003 39.4808
28.1462 39.4342
28.1923 39.0599
28.2384 38.5389
28.2843 38.3113
28.3304 37.8423
28.3764 37.4091
28.4225 37.0554
28.4684 36.8423
28.5145 36.4807
28.5605 36.4392
28.6066 36.2206
28.6526 36.3045
28.6987 36.2173
28.7447 35.9836
28.7908 35.8439
28.8368 35.9651
28.8829 35.823
28.9289 35.8894
28.9751 35.6565
29.0211 35.4829
29.0673 35.2561
29.1133 35.0719
29.1595 35.0256
29.2055 34.9262
29.2517 34.8293
29.2977 34.7758
29.3439 34.8072
29.3899 34.803
29.4361 34.6251
29.4824 34.3908
29.5284 34.3795
29.5746 33.8911
29.6207 33.7042
29.6669 33.6368
29.713 33.5495
29.7593 33.3322
29.8053 33.3809
29.8516 33.235
29.8977 33.2125
29.9439 33.1085
29.99 33.0805
30.0363 32.9807
30.0824 33.0118
30.1287 32.9948
30.1748 32.9881
30.2211 32.9873
30.2673 32.829
30.3136 32.8445
30.3597 32.7534
30.406 32.7331
30.4522 32.6188
30.4985 32.4609
30.5447 32.6407
30.591 32.5899
30.6372 32.662
30.6835 32.6532
30.7297 32.6355
30.7761 32.6822
30.8224 32.5432
30.8686 32.3576
30.915 32.0194
30.9612 32.0264
31.0076 31.8107
31.0538 31.7717
31.1002 31.6092
31.1464 31.4076
31.1928 31.4227
31.2391 31.3718
31.2855 31.409
31.3317 31.1976
31.3781 31.3261
31.4244 31.2979
31.4708 31.2419
31.5171 31.1729
31.5636 31.1856
31.6098 30.9866
31.6563 30.7723
31.7026 30.7976
31.7491 30.6068
31.7953 30.6681
31.8418 30.6419
31.8881 30.6204
31.9346 30.512
31.9809 30.3864
32.0275 30.3203
32.074 30.3147
32.1203 30.1432
32.1668 29.9351
32.2132 29.8684
32.2597 29.7442
32.306 29.6433
32.3526 29.408
32.399 29.3835
32.4455 29.2301
32.4919 29.1503
32.5385 29.0402
32.5848 28.9374
32.6314 28.9474
32.6778 28.8838
32.7244 28.6738
32.7708 28.5602
32.8174 28.6286
32.8638 28.5127
32.9104 28.5517
32.9569 28.3839
33.0035 28.2654
33.0499 28.2494
33.0966 28.2012
33.143 28.25
33.1897 28.1521
33.2361 28.0737
33.2828 27.9621
33.3293 27.8055
33.3759 27.7436
33.4226 27.6659
33.4691 27.5058
33.5158 27.4775
33.5623 27.3642
33.609 27.1054
33.6555 27.0265
33.7022 26.993
33.7487 26.9012
33.7954 26.898
33.842 26.8277
33.8887 26.7466
33.9353 26.6712
33.982 26.6191
34.0286 26.4724
34.0753 26.357
34.1219 26.307
34.1687 26.256
34.2152 26.2233
34.262 26.0141
34.3086 25.962
34.3554 25.9076
34.402 25.7661
34.4488 25.6718
34.4954 25.638
34.5422 25.5255
34.5889 25.4763
34.6357 25.3181
34.6825 25.2945
34.7292 25.1283
34.776 25.1276
34.8227 25.0331
34.8695 25.0112
34.9162 25.0026
34.9631 24.7975
35.0098 24.8508
35.0566 24.7497
35.1033 24.7616
35.1502 24.6512
35.1969 24.535
35.2438 24.5053
35.2906 24.4316
35.3375 24.4791
35.3842 24.3758
35.4311 24.3432
35.4779 24.3471
35.5248 24.1918
35.5716 24.1458
35.6185 24.0799
35.6653 23.9576
35.7123 23.9338
35.759 23.7388
35.806 23.7255
35.8528 23.5379
35.8998 23.5057
35.9468 23.4632
35.9936 23.4295
36.0406 23.3646
36.0874 23.3046
36.1345 23.2858
36.1813 23.2059
36.2283 23.0939
36.2752 23.018
36.3222 23.0328
36.3691 22.8831
36.4161 22.7381
36.463 22.7941
36.5101 22.7873
36.557 22.6629
36.6041 22.4602
36.651 22.4805
36.6981 22.4613
36.745 22.3658
36.7921 22.2384
36.839 22.2013
36.8861 22.0969
36.9331 22.0644
36.9802 21.972
37.0272 21.9043
37.0743 21.8419
37.1213 21.7822
37.1684 21.7393
37.2154 21.6671
37.2626 21.5954
37.3098 21.5612
37.3568 21.4794
37.404 21.4207
37.451 21.3817
37.4982 21.2775
37.5452 21.1226
37.5924 21.1043
37.6395 21.1247
37.6867 21.0352
37.7337 20.9211
37.781 20.888
37.8281 20.8029
37.8753 20.7574
37.9224 20.6184
37.9697 20.5472
38.0168 20.5772
38.064 20.3866
38.1111 20.3848
38.1584 20.3109
38.2056 20.2379
38.2529 20.1531
38.3 20.1585
38.3473 20.1347
38.3945 20.0049
38.4418 19.9654
38.489 19.9235
38.5363 19.8461
38.5837 19.7026
38.6309 19.6849
38.6782 19.6177
38.7254 19.5492
38.7728 19.5629
38.82 19.4048
38.8674 19.4416
38.9146 19.3497
38.9621 19.2602
39.0093 19.2342
39.0567 19.1645
39.104 19.0709
39.1514 18.9381
39.1987 18.9844
39.2461 18.9334
39.2934 18.866
39.3409 18.7503
39.3882 18.6695
39.4356 18.6266
39.483 18.6175
39.5304 18.5449
39.5778 18.5251
39.6253 18.4958
39.6726 18.3633
39.7201 18.3302
39.7675 18.2967
39.815 18.2048
39.8624 18.1717
39.9099 18.1048
39.9575 17.9913
40.0049 17.9745
40.0525 17.8669
40.0999 17.8322
40.1474 17.8397
40.1949 17.7722
40.2425 17.6661
40.2899 17.6824
40.3375 17.5373
40.385 17.5056
40.4326 17.4221
40.48 17.366
40.5277 17.3949
40.5752 17.2985
40.6228 17.214
40.6703 17.1255
40.718 17.1484
40.7655 17.0559
40.8132 16.9952
40.8607 16.982
40.9084 16.8778
40.9559 16.9096
41.0036 16.8054
41.0512 16.7469
41.0989 16.7232
41.1465 16.596
41.1942 16.5683
41.242 16.4965
41.2896 16.4553
41.3373 16.3968
41.3849 16.3813
41.4327 16.2511
41.4803 16.2073
41.5281 16.1974
41.5758 16.1467
41.6236 16.0573
41.6712 16.0447
41.7191 15.9579
41.7667 15.8875
41.8146 15.8602
41.8622 15.7915
41.9101 15.7953
41.9578 15.6321
42.0057 15.6737
42.0534 15.6411
42.1013 15.5633
42.149 15.5076
42.1969 15.4426
42.2446 15.3911
42.2925 15.351
42.3403 15.2647
42.3882 15.2643
42.436 15.1742
42.4839 15.1186
42.5319 15.0617
42.5797 15.0087
42.6277 15.0002
42.6755 14.9718
42.7235 14.8501
42.7713 14.8234
42.8193 14.8036
42.8671 14.755
42.9152 14.6516
42.963 14.6114
43.0111 14.5573
43.0589 14.5358
43.107 14.455
43.1549 14.4331
43.2029 14.3619
43.2508 14.3144
43.2989 14.3281
43.3468 14.2319
43.3949 14.1695
43.4429 14.1368
43.491 14.1012
43.5389 14.0363
43.5871 14.0452
43.635 13.9045
43.6832 13.8964
43.7312 13.7971
43.7793 13.7726
43.8273 13.7566
43.8755 13.7055
43.9237 13.6456
43.9717 13.6161
44.0199 13.5256
44.068 13.5357
44.1162 13.4178
44.1642 13.4321
44.2125 13.3689
44.2606 13.3467
44.3088 13.2335
44.3569 13.2007
44.4052 13.2308
44.4533 13.1786
44.5016 13.0777
44.5497 13.0738
44.598 12.973
44.6461 12.914
44.6945 12.9179
44.7426 12.8316
44.791 12.8304
44.8391 12.7792
44.8875 12.7426
44.9357 12.6993
44.984 12.6388
45.0322 12.5774
45.0806 12.5616
45.1288 12.4998
45.1773 12.4721
45.2257 12.3969
45.2739 12.4022
45.3224 12.3629
45.3706 12.3202
45.4191 12.2085
45.4673 12.1995
45.5158 12.154
45.5641 12.0972
45.6126 12.0754
45.6609 12.0227
45.7094 11.9531
45.7577 11.9039
45.8063 11.8556
45.8546 11.8565
45.9031 11.8035
45.9515 11.7578
46.0001 11.7326
46.0484 11.71
46.097 11.6587
46.1454 11.6275
46.194 11.5687
46.2424 11.5225
46.291 11.4488
46.3395 11.4141
46.3881 11.3818
46.4365 11.3867
46.4852 11.2888
46.5337 11.2745
46.5823 11.2266
46.631 11.1581
46.6795 11.1843
46.7282 11.1123
46.7767 11.1008
46.8254 11.0055
46.8739 10.9865
46.9226 10.9333
46.9712 10.8624
47.0199 10.8661
47.0685 10.8365
47.1173 10.7818
47.1658 10.7763
47.2146 10.7185
47.2632 10.6552
47.312 10.6214
47.3606 10.6211
47.4095 10.5576
47.4581 10.5277
47.5069 10.4528
47.5556 10.435
47.6044 10.3983
47.6531 10.3451
47.702 10.284
47.7507 10.2724
47.7996 10.2133
47.8483 10.1924
47.8972 10.1586
47.9461 10.1155
47.9948 10.0633
48.0438 10.0643
48.0925 10.0349
48.1415 9.97847
48.1902 9.93907
48.2392 9.93722
48.288 9.89355
48.337 9.83746
48.3858 9.77225
48.4348 9.7969
48.4837 9.76546
48.5327 9.7054
48.5815 9.62715
48.6306 9.61319
48.6795 9.60566
48.7285 9.54256
48.7774 9.53617
48.8265 9.49339
48.8754 9.44921
48.9245 9.42621
48.9734 9.33815
49.0226 9.35074
49.0715 9.29514
49.1206 9.20799
49.1696 9.21491
49.2188 9.24209
49.2679 9.17575
49.3169 9.07403
49.3661 9.12427
49.4151 9.07257
49.4643 9.03901
49.5134 8.98869
49.5626 8.9188
49.6117 8.92327
49.6609 8.90053
49.71 8.89208
49.7592 8.82489
49.8083 8.78911
49.8576 8.76144
49.9067 8.70739
49.956 8.69608
50.0052 8.67689
50.0545 8.62951
50.1036 8.56771
50.153 8.56648
50.2022 8.52557
50.2515 8.49367
50.3007 8.44097
50.3501 8.43925
50.3993 8.38941
50.4487 8.3626
50.498 8.31362
50.5474 8.29888
50.5966 8.26301
50.6461 8.23295
50.6955 8.20194
50.7448 8.16553
50.7943 8.12497
50.8436 8.1177
50.8931 8.09041
50.9424 8.04764
50.9919 8.01967
51.0413 7.9745
51.0908 7.96057
51.1402 7.9427
51.1897 7.87853
51.2391 7.8579
51.2887 7.81981
51.3381 7.78983
51.3877 7.74225
51.4371 7.72107
51.4867 7.67268
51.5362 7.65656
51.5858 7.60858
51.6353 7.56498
51.6849 7.57211
51.7344 7.53731
51.7841 7.51822
51.8336 7.48088
51.8833 7.41672
51.9328 7.40626
51.9826 7.36693
52.0323 7.32066
52.0818 7.31147
52.1316 7.27659
52.1812 7.28369
52.231 7.22309
52.2806 7.21075
52.3304 7.16929
52.38 7.14683
52.4298 7.0609
52.4794 7.08527
52.5293 7.05399
52.5789 7.0177
52.6288 6.988
52.6785 6.93023
52.7284 6.96605
52.7781 6.88722
52.828 6.86234
52.8777 6.8365
52.9276 6.80133
52.9774 6.81779
53.0273 6.79562
53.0771 6.72765
53.1271 6.74059
53.1769 6.65591
53.2269 6.6599
53.2767 6.61667
53.3267 6.61747
53.3765 6.56532
53.4266 6.54077
53.4766 6.48142
53.5265 6.46398
53.5765 6.47518
53.6264 6.39262
53.6765 6.37443
53.7264 6.41125
53.7765 6.34934
53.8265 6.30709
53.8766 6.29542
53.9266 6.27881
53.9767 6.20422
54.0267 6.22868
54.0769 6.16003
54.1269 6.14136
54.1771 6.13131
54.2271 6.06119
54.2773 6.03102
54.3274 6.0129
54.3776 5.97417
54.4277 5.93493
54.478 5.91484
54.528 5.91336
54.5783 5.82182
54.6285 5.79219
54.6788 5.73672
54.7289 5.72577
54.7792 5.67763
54.8296 5.60749
54.8798 5.58167
54.9301 5.56181
54.9803 5.54015
55.0307 5.5436
55.0809 5.45917
55.1314 5.44849
55.1816 5.36166
55.232 5.3377
55.2823 5.26191
55.3328 5.22969
55.383 5.15414
55.4335 5.19103
55.4838 5.03022
55.5344 5.02936
55.5847 4.9762
55.6352 4.99998
55.6856 5.02323
55.7361 4.86938