File: XRD/Ni3Fe_FD0110.xy
TT I
1.27165 8.42476
1.31627 6.81944
1.36089 7.60376
1.40551 7.29776
1.45013 6.87887
1.49476 6.64868
1.53938 6.66321
1.584 6.37432
1.62863 5.94331
1.67325 5.5012
1.71787 5.79143
1.7625 5.22214
1.80712 5.61738
1.85174 5.83649
1.89636 5.34956
1.94099 5.37323
1.98562 4.55773
2.03025 5.35213
2.07487 5.11274
2.11949 5.60993
2.16411 5.00199
2.20874 4.53177
2.25338 4.13915
2.298 4.80621
2.34263 4.32653
2.38725 4.54586
2.43188 3.89546
2.4765 4.22025
2.52115 3.97503
2.56577 4.42109
2.6104 5.20248
2.65503 4.8215
2.69965 4.99916
2.7443 6.01519
2.78893 5.92291
2.83356 6.67158
2.87818 7.75421
2.92281 8.5842
2.96744 9.59738
3.01209 10.0601
3.05672 11.0645
3.10135 12.1998
3.14599 12.7363
3.19062 14.2994
3.23527 14.8597
3.2799 15.6525
3.32454 16.3709
3.36917 17.4348
3.4138 18.4574
3.45844 19.0872
3.50309 20.5016
3.54773 20.3627
3.59237 21.6234
3.637 21.952
3.68164 22.9991
3.7263 23.8901
3.77094 24.8454
3.81558 25.4781
3.86022 26.2518
3.90486 27.5277
3.9495 28.4192
3.99416 29.0488
4.0388 30.1257
4.08344 31.5593
4.12809 32.1336
4.17273 33.351
4.21738 34.7266
4.26204 35.8103
4.30669 37.1222
4.35133 39.3745
4.39598 40.4871
4.44063 42.6666
4.4853 44.58
4.52995 46.6626
4.5746 49.1027
4.61925 50.7684
4.6639 52.8521
4.70855 55.7105
4.75322 59.1441
4.79788 61.8711
4.84253 65.7769
4.88719 69.9772
4.93184 75.3409
4.97652 82.7915
5.02118 91.8836
5.06583 103.17
5.11049 121.935
5.15515 164.863
5.19981 624.884
5.24449 3777.44
5.28916 7158.33
5.33382 6802.39
5.37848 585.512
5.42315 178.22
5.46783 133.999
5.5125 116.993
5.55716 109.314
5.60183 102.831
5.6465 100.68
5.69117 99.0314
5.73586 96.2915
5.78053 96.5419
5.8252 96.8719
5.86988 100.767
5.91455 108.89
5.95924 131.4
6.00392 318.667
6.0486 1423.46
6.09328 2358.37
6.13795 3905.99
6.18263 856.453
6.22733 136.969
6.27201 93.3883
6.3167 79.9692
6.36138 73.1422
6.40606 68.8002
6.45075 66.5487
6.49545 64.1258
6.54014 62.1135
6.58483 60.2389
6.62952 59.2482
6.67421 57.8434
6.71892 56.5978
6.76361 56.1692
6.8083 55.1363
6.853 54.4143
6.89769 53.7267
6.94239 53.2937
6.98711 53.1253
7.03181 52.4104
7.07651 51.9858
7.12121 51.6953
7.16591 51.7701
7.21063 51.2945
7.25533 51.4528
7.30004 51.3584
7.34475 51.6662
7.38945 51.3131
7.43416 51.0478
7.47889 51.5141
7.5236 57.1058
7.56831 70.306
7.61303 56.9165
7.65774 53.1325
7.70247 53.274
7.74719 53.6906
7.79191 54.4638
7.83663 54.262
7.88135 55.2412
7.92607 56.4303
7.97081 57.5454
8.01553 58.6917
8.06026 59.982
8.10498 61.1585
8.14971 62.8523
8.19446 64.3674
8.23919 67.5067
8.28392 70.1636
8.32865 72.8246
8.37339 77.9773
8.41812 83.907
8.46288 96.8802
8.50761 182.728
8.55235 634.587
8.59709 798.261
8.64183 1271.12
8.68658 1743.67
8.73134 505.102
8.77609 123.778
8.82083 99.2481
8.86558 91.4257
8.91033 87.6693
8.9551 84.6988
8.99985 83.37
9.04461 82.4507
9.08936 81.5612
9.13412 80.9958
9.17888 81.0755
9.22365 89.5804
9.26841 108.439
9.31318 90.9068
9.35794 81.948
9.4027 81.3624
9.44749 82.1355
9.49226 83.0076
9.53703 83.7285
9.5818 85.2485
9.62657 86.3458
9.67134 87.7029
9.71614 89.631
9.76091 91.8747
9.80569 94.5056
9.85047 98.0385
9.89525 103.907
9.94005 115.434
9.98484 194.182
10.0296 574.668
10.0744 691.974
10.1192 859.502
10.164 1534.74
10.2088 1127.45
10.2536 252.571
10.2984 119.494
10.3432 108.642
10.388 104.724
10.4328 122.826
10.4776 222.732
10.5224 249.607
10.5672 284.849
10.612 452.449
10.6568 407.824
10.7017 150.764
10.7465 92.9047
10.7913 83.6095
10.8361 80.1456
10.8809 77.3345
10.9257 74.9176
10.9706 73.5048
11.0154 71.9216
11.0602 70.36
11.105 69.3565
11.1499 67.744
11.1947 66.797
11.2395 65.8553
11.2844 65.4428
11.3292 64.382
11.374 63.7608
11.4189 63.482
11.4637 62.5101
11.5086 61.901
11.5534 61.4598
11.5983 61.104
11.6431 61.4177
11.688 60.8963
11.7328 60.7653
11.7777 60.5825
11.8225 60.6251
11.8674 60.6983
11.9122 62.3863
11.9571 67.5641
12.002 67.3706
12.0468 68.3265
12.0917 92.2797
12.1366 106.813
12.1814 108.312
12.2263 134.273
12.2712 183.623
12.3161 153.155
12.3609 78.5152
12.4058 63.8897
12.4507 62.6435
12.4956 62.6146
12.5405 62.298
12.5853 62.8113
12.6302 63.053
12.6751 63.5612
12.72 64.3634
12.7649 65.1886
12.8098 66.3699
12.8547 67.2856
12.8996 68.9107
12.9445 70.2133
12.9894 71.9659
13.0343 74.2478
13.0792 78.7435
13.1242 86.8087
13.1691 136.371
13.214 191.473
13.2589 191.143
13.3038 213.949
13.3487 311.391
13.3937 388.48
13.4386 238.881
13.4835 126.115
13.5285 159.011
13.5734 183.212
13.6183 175.75
13.6633 206.94
13.7082 301.969
13.7531 318.367
13.7981 170.602
13.843 89.9962
13.888 80.3101
13.9329 76.9961
13.9779 75.2815
14.0228 73.8601
14.0678 72.2327
14.1127 72.3013
14.1577 75.309
14.2027 73.8956
14.2476 70.2549
14.2926 68.6866
14.3376 68.198
14.3825 67.8347
14.4275 67.3579
14.4725 67.043
14.5175 67.6267
14.5624 67.625
14.6074 67.7531
14.6524 68.3006
14.6974 68.5177
14.7424 70.483
14.7874 80.5178
14.8324 108.951
14.8774 120.047
14.9224 117.953
14.9674 131.952
15.0124 174.251
15.0574 206.766
15.1024 151.417
15.1474 85.4285
15.1924 71.245
15.2374 68.55
15.2824 66.7781
15.3274 66.1399
15.3725 65.5905
15.4175 65.4049
15.4625 64.8236
15.5076 64.5122
15.5526 64.7909
15.5976 64.9105
15.6426 65.828
15.6877 73.6078
15.7327 96.4577
15.7778 107.584
15.8228 104.276
15.8679 111.955
15.9129 138.41
15.958 179.378
16.003 162.651
16.0481 96.1397
16.0931 67.4619
16.1382 61.6775
16.1833 60.0563
16.2283 58.2894
16.2734 57.2292
16.3185 56.5
16.3636 55.9137
16.4086 55.3153
16.4537 54.8824
16.4988 54.244
16.5439 54.3585
16.589 53.9363
16.6341 53.8361
16.6792 53.4371
16.7243 53.3477
16.7694 53.3957
16.8145 53.4071
16.8596 53.6183
16.9047 53.9942
16.9498 54.6446
16.9949 54.2779
17.04 54.664
17.0851 56.2373
17.1302 60.524
17.1754 63.9127
17.2205 63.8387
17.2656 64.3587
17.3108 68.8263
17.3559 75.8081
17.401 80.9139
17.4462 72.8238
17.4913 61.6116
17.5365 58.4988
17.5815 58.2772
17.6268 58.4421
17.6718 59.0365
17.7171 59.6041
17.7622 60.6917
17.8074 61.3392
17.8525 63.1929
17.8977 71.6844
17.9428 84.3309
17.9881 87.8462
18.0331 86.4497
18.0784 90.8235
18.1237 105.187
18.1688 133.608
18.214 146.311
18.2591 116.994
18.3044 87.7102
18.3495 82.2486
18.3948 89.3283
18.4399 100.507
18.4852 97.8812
18.5303 79.0744
18.5756 65.5256
18.6207 61.7029
18.666 60.3036
18.7112 59.3175
18.7565 58.4037
18.8016 58.2118
18.8469 57.7452
18.892 57.2682
18.9374 56.6217
18.9825 56.438
19.0278 56.0938
19.073 56.2119
19.1183 56.75
19.1635 59.2766
19.2088 61.4471
19.254 61.3822
19.2993 61.2932
19.3447 62.8669
19.3898 66.0701
19.4352 71.3736
19.4804 72.7454
19.5257 65.4087
19.5709 56.715
19.6163 53.9655
19.6615 53.2247
19.7068 52.8333
19.752 52.7722
19.7974 52.7586
19.8426 54.1673
19.888 56.3075
19.9332 57.7139
19.9786 57.6113
20.0238 57.4611
20.0692 59.8989
20.1144 64.5421
20.1598 70.6329
20.205 70.9131
20.2504 65.6092
20.2957 59.8878
20.3411 59.4205
20.3863 62.5616
20.4318 64.1311
20.477 59.9348
20.5224 53.5345
20.5677 50.722
20.6131 49.8025
20.6586 49.0449
20.7038 49.1265
20.7493 48.7005
20.7945 48.6647
20.84 48.4712
20.8853 48.1944
20.9307 47.9897
20.976 48.2497
21.0215 48.3547
21.0668 48.8627
21.1122 48.694
21.1575 48.859
21.203 48.6256
21.2483 49.2171
21.2938 50.4693
21.3391 50.8059
21.3846 50.0801
21.4299 48.8913
21.4754 48.2124
21.5207 48.225
21.5662 48.3826
21.6116 48.7525
21.6571 50.8638
21.7024 52.7673
21.7479 53.5821
21.7933 53.3063
21.8388 54.1891
21.8843 56.4599
21.9297 59.8028
21.9752 63.8869
22.0206 65.2061
22.0661 61.2436
22.1115 55.8968
22.157 54.4255
22.2024 55.6071
22.248 55.0852
22.2933 52.7293
22.3389 49.9685
22.3843 48.7293
22.4299 48.2017
22.4753 48.3862
22.5208 48.1827
22.5662 48.1497
22.6118 48.3121
22.6572 48.598
22.7028 49.6597
22.7483 51.0441
22.7939 51.4177
22.8393 51.1322
22.8849 51.2154
22.9303 51.9471
22.9759 53.1645
23.0214 55.5772
23.067 57.692
23.1126 56.3774
23.1581 52.5847
23.2037 49.6918
23.2492 48.7425
23.2948 49.2914
23.3403 50.6627
23.3859 51.3875
23.4314 51.0098
23.477 50.826
23.5225 50.9813
23.5682 51.7149
23.6137 53.8919
23.6593 56.2617
23.7048 57.2835
23.7505 54.0038
23.796 49.4977
23.8417 46.7676
23.8872 45.6452
23.9329 45.1865
23.9784 44.8481
24.0241 44.5603
24.0697 44.2103
24.1154 43.9328
24.1609 43.6253
24.2066 43.4617
24.2522 43.4388
24.2979 43.1678
24.3434 43.0621
24.3892 42.8032
24.4349 42.6891
24.4805 42.3644
24.5262 42.6036
24.5718 42.4328
24.6175 42.3604
24.6631 42.6317
24.7089 42.4017
24.7545 42.3289
24.8002 42.0199
24.8458 42.0708
24.8916 41.9247
24.9372 42.2037
24.983 42.2888
25.0286 42.4978
25.0744 42.835
25.12 43.3037
25.1658 43.5622
25.2114 43.7074
25.2572 44.1367
25.3029 44.3754
25.3487 44.0695
25.3943 44.0453
25.4402 44.3089
25.4858 44.3089
25.5316 43.0618
25.5773 41.5129
25.6231 40.8981
25.669 40.3804
25.7147 40.3373
25.7605 40.3491
25.8062 40.4422
25.8521 40.7304
25.8977 40.5955
25.9436 40.5686
25.9893 40.3055
26.0352 40.5252
26.0809 40.5335
26.1268 40.9434
26.1725 41.2606
26.2184 41.564
26.2641 41.2667
26.31 40.6005
26.3557 40.5578
26.4017 40.4322
26.4474 40.3903
26.4933 40.4059
26.5391 40.5607
26.585 40.7357
26.6308 40.8954
26.6767 41.3761
26.7225 41.8721
26.7684 42.1193
26.8142 41.6833
26.8601 40.9079
26.9059 40.3271
26.9519 39.9921
26.9979 39.7553
27.0437 38.9784
27.0896 38.6131
27.1354 38.612
27.1814 38.4902
27.2272 38.4807
27.2732 38.5456
27.3191 38.3002
27.3651 38.3062
27.4109 37.9701
27.4569 38.2006
27.5027 38.3323
27.5488 38.1753
27.5946 38.388
27.6407 38.2622
27.6865 38.4208
27.7326 38.2767
27.7784 38.1559
27.8245 37.9727
27.8703 37.9139
27.9164 37.9623
27.9623 37.98
28.0084 38.1042
28.0543 38.4236
28.1003 38.3871
28.1462 38.7393
28.1923 38.872
28.2384 38.6006
28.2843 37.9782
28.3304 37.6544
28.3764 37.2911
28.4225 36.9679
28.4684 36.5266
28.5145 36.0325
28.5605 35.9393
28.6066 35.5991
28.6526 35.6304
28.6987 35.5911
28.7447 35.2583
28.7908 35.1257
28.8368 35.1617
28.8829 35.1407
28.9289 35.1267
28.9751 34.9333
29.0211 34.8128
29.0673 34.7934
29.1133 34.7041
29.1595 34.4684
29.2055 34.1785
29.2517 34.0663
29.2977 33.9685
29.3439 33.9531
29.3899 33.8882
29.4361 33.7165
29.4824 33.7236
29.5284 33.7088
29.5746 33.6454
29.6207 33.3248
29.6669 33.0863
29.713 32.7799
29.7593 32.7279
29.8053 32.6583
29.8516 32.5773
29.8977 32.5956
29.9439 32.4962
29.99 32.3488
30.0363 32.277
30.0824 32.3251
30.1287 32.1602
30.1748 32.1128
30.2211 32.1758
30.2673 31.9815
30.3136 32.1569
30.3597 32.1897
30.406 32.3052
30.4522 32.0864
30.4985 31.9139
30.5447 31.9809
30.591 31.9041
30.6372 31.9489
30.6835 31.8159
30.7297 31.8695
30.7761 31.8776
30.8224 31.9718
30.8686 32.0073
30.915 31.7075
30.9612 31.5723
31.0076 31.4056
31.0538 31.161
31.1002 31.1567
31.1464 30.8627
31.1928 30.8694
31.2391 30.9515
31.2855 30.7304
31.3317 30.6418
31.3781 30.7167
31.4244 30.5446
31.4708 30.587
31.5171 30.5857
31.5636 30.6938
31.6098 30.6068
31.6563 30.3911
31.7026 30.4178
31.7491 30.1286
31.7953 30.0559
31.8418 29.9205
31.8881 29.9021
31.9346 29.8867
31.9809 29.8343
32.0275 29.7336
32.074 29.7989
32.1203 29.7052
32.1668 29.5692
32.2132 29.4154
32.2597 29.1759
32.306 29.159
32.3526 28.9345
32.399 28.8136
32.4455 28.6732
32.4919 28.5955
32.5385 28.5048
32.5848 28.3576
32.6314 28.4185
32.6778 28.2464
32.7244 28.1022
32.7708 27.9873
32.8174 28.0399
32.8638 27.8809
32.9104 27.9949
32.9569 27.9392
33.0035 27.7278
33.0499 27.7663
33.0966 27.6212
33.143 27.6273
33.1897 27.4534
33.2361 27.443
33.2828 27.4883
33.3293 27.3106
33.3759 27.3151
33.4226 27.2223
33.4691 27.0971
33.5158 27.0927
33.5623 26.8208
33.609 26.5452
33.6555 26.5797
33.7022 26.4935
33.7487 26.319
33.7954 26.3499
33.842 26.2381
33.8887 26.1259
33.9353 26.1347
33.982 26.0284
34.0286 25.9793
34.0753 25.9084
34.1219 25.7811
34.1687 25.7133
34.2152 25.6216
34.262 25.5031
34.3086 25.4052
34.3554 25.4176
34.402 25.2236
34.4488 25.2377
34.4954 25.0797
34.5422 25.0755
34.5889 24.8746
34.6357 24.854
34.6825 24.811
34.7292 24.698
34.776 24.6339
34.8227 24.5428
34.8695 24.4547
34.9162 24.4781
34.9631 24.4143
35.0098 24.3179
35.0566 24.2054
35.1033 24.0601
35.1502 24.1106
35.1969 24.0524
35.2438 23.9382
35.2906 24.0069
35.3375 23.9006
35.3842 23.8424
35.4311 23.7834
35.4779 23.795
35.5248 23.6913
35.5716 23.7082
35.6185 23.651
35.6653 23.5836
35.7123 23.4819
35.759 23.4023
35.806 23.2921
35.8528 23.1976
35.8998 23.1079
35.9468 23.0402
35.9936 23.0375
36.0406 22.9203
36.0874 22.8619
36.1345 22.7509
36.1813 22.7158
36.2283 22.6086
36.2752 22.5341
36.3222 22.5467
36.3691 22.4177
36.4161 22.2615
36.463 22.3186
36.5101 22.2889
36.557 22.1487
36.6041 22.0444
36.651 22.0539
36.6981 21.9973
36.745 21.943
36.7921 21.8876
36.839 21.7966
36.8861 21.7184
36.9331 21.6545
36.9802 21.5685
37.0272 21.4999
37.0743 21.436
37.1213 21.3464
37.1684 21.3062
37.2154 21.2312
37.2626 21.163
37.3098 21.1016
37.3568 21.0824
37.404 20.9689
37.451 20.9297
37.4982 20.8125
37.5452 20.7189
37.5924 20.6517
37.6395 20.7342
37.6867 20.5702
37.7337 20.5007
37.781 20.4469
37.8281 20.4255
37.8753 20.2515
37.9224 20.2751
37.9697 20.2001
38.0168 20.072
38.064 20.0365
38.1111 19.9382
38.1584 19.8869
38.2056 19.8097
38.2529 19.8354
38.3 19.7062
38.3473 19.7136
38.3945 19.5942
38.4418 19.503
38.489 19.4837
38.5363 19.3688
38.5837 19.3375
38.6309 19.3194
38.6782 19.2159
38.7254 19.1506
38.7728 19.1331
38.82 19.0005
38.8674 19.0341
38.9146 18.8887
38.9621 18.8886
39.0093 18.78
39.0567 18.7603
39.104 18.6951
39.1514 18.5337
39.1987 18.6291
39.2461 18.5012
39.2934 18.4478
39.3409 18.367
39.3882 18.2232
39.4356 18.2281
39.483 18.229
39.5304 18.1148
39.5778 18.1416
39.6253 18.0356
39.6726 17.9331
39.7201 17.9649
39.7675 17.9181
39.815 17.7818
39.8624 17.7407
39.9099 17.7604
39.9575 17.6315
40.0049 17.6036
40.0525 17.5215
40.0999 17.4832
40.1474 17.4251
40.1949 17.3878
40.2425 17.2788
40.2899 17.2574
40.3375 17.2259
40.385 17.1548
40.4326 17.1254
40.48 16.9888
40.5277 17.0011
40.5752 16.9371
40.6228 16.8487
40.6703 16.8142
40.718 16.8271
40.7655 16.7514
40.8132 16.6699
40.8607 16.6533
40.9084 16.56
40.9559 16.4783
41.0036 16.4725
41.0512 16.478
41.0989 16.3857
41.1465 16.2695
41.1942 16.2907
41.242 16.1305
41.2896 16.1349
41.3373 16.0204
41.3849 16.0431
41.4327 15.9549
41.4803 15.934
41.5281 15.8944
41.5758 15.7929
41.6236 15.7697
41.6712 15.7042
41.7191 15.6443
41.7667 15.5475
41.8146 15.5324
41.8622 15.4982
41.9101 15.5038
41.9578 15.3859
42.0057 15.3493
42.0534 15.2538
42.1013 15.2765
42.149 15.1896
42.1969 15.1067
42.2446 15.1132
42.2925 15.0611
42.3403 15.0065
42.3882 14.9951
42.436 14.9306
42.4839 14.833
42.5319 14.8515
42.5797 14.7451
42.6277 14.6673
42.6755 14.6825
42.7235 14.5711
42.7713 14.5235
42.8193 14.4506
42.8671 14.422
42.9152 14.3795
42.963 14.3413
43.0111 14.3
43.0589 14.2863
43.107 14.2051
43.1549 14.0881
43.2029 14.0451
43.2508 14.1047
43.2989 13.9866
43.3468 13.9932
43.3949 13.9131
43.4429 13.8502
43.491 13.8227
43.5389 13.783
43.5871 13.7058
43.635 13.6264
43.6832 13.6438
43.7312 13.5715
43.7793 13.4659
43.8273 13.4768
43.8755 13.4129
43.9237 13.393
43.9717 13.3508
44.0199 13.3225
44.068 13.2496
44.1162 13.2156
44.1642 13.1777
44.2125 13.14
44.2606 13.0971
44.3088 13.0378
44.3569 12.9704
44.4052 12.9389
44.4533 12.8548
44.5016 12.7836
44.5497 12.7881
44.598 12.7737
44.6461 12.6996
44.6945 12.6392
44.7426 12.6364
44.791 12.527
44.8391 12.5106
44.8875 12.4529
44.9357 12.4358
44.984 12.3973
45.0322 12.3298
45.0806 12.2759
45.1288 12.254
45.1773 12.2192
45.2257 12.1494
45.2739 12.1261
45.3224 12.1333
45.3706 12.0633
45.4191 11.9726
45.4673 11.9441
45.5158 11.947
45.5641 11.8421
45.6126 11.8362
45.6609 11.772
45.7094 11.721
45.7577 11.7351
45.8063 11.6283
45.8546 11.6155
45.9031 11.5763
45.9515 11.5694
46.0001 11.4841
46.0484 11.4758
46.097 11.3885
46.1454 11.397
46.194 11.3984
46.2424 11.27
46.291 11.2586
46.3395 11.2334
46.3881 11.1445
46.4365 11.1455
46.4852 11.1008
46.5337 11.0587
46.5823 11.0146
46.631 10.955
46.6795 10.9139
46.7282 10.9029
46.7767 10.861
46.8254 10.798
46.8739 10.7408
46.9226 10.7072
46.9712 10.7034
47.0199 10.6538
47.0685 10.5922
47.1173 10.5746
47.1658 10.5591
47.2146 10.5351
47.2632 10.4364
47.312 10.4086
47.3606 10.3739
47.4095 10.3361
47.4581 10.2406
47.5069 10.2887
47.5556 10.2164
47.6044 10.1634
47.6531 10.1416
47.702 10.0703
47.7507 10.0545
47.7996 10.0144
47.8483 9.97965
47.8972 9.99571
47.9461 9.92001
47.9948 9.88313
48.0438 9.82656
48.0925 9.80133
48.1415 9.75335
48.1902 9.73462
48.2392 9.72921
48.288 9.66891
48.337 9.66581
48.3858 9.60258
48.4348 9.57449
48.4837 9.55849
48.5327 9.54187
48.5815 9.49193
48.6306 9.47294
48.6795 9.43613
48.7285 9.37497
48.7774 9.36464
48.8265 9.30272
48.8754 9.27408
48.9245 9.21004
48.9734 9.20885
49.0226 9.18146
49.0715 9.10944
49.1206 9.08445
49.1696 9.05781
49.2188 9.03942
49.2679 8.97915
49.3169 8.97379
49.3661 8.93962
49.4151 8.90569
49.4643 8.87473
49.5134 8.82569
49.5626 8.78325
49.6117 8.7134
49.6609 8.70661
49.71 8.68862
49.7592 8.7026
49.8083 8.62808
49.8576 8.59644
49.9067 8.52682
49.956 8.54298
50.0052 8.47033
50.0545 8.51083
50.1036 8.41966
50.153 8.42369
50.2022 8.36397
50.2515 8.3558
50.3007 8.2942
50.3501 8.27524
50.3993 8.20748
50.4487 8.19613
50.498 8.16118
50.5474 8.11868
50.5966 8.09009
50.6461 8.0867
50.6955 8.05609
50.7448 8.0264
50.7943 8.00755
50.8436 7.96403
50.8931 7.91575
50.9424 7.90386
50.9919 7.89231
51.0413 7.85155
51.0908 7.80488
51.1402 7.77993
51.1897 7.74716
51.2391 7.72725
51.2887 7.65879
51.3381 7.67335
51.3877 7.62012
51.4371 7.57656
51.4867 7.55019
51.5362 7.52009
51.5858 7.51583
51.6353 7.47608
51.6849 7.45482
51.7344 7.37422
51.7841 7.3891
51.8336 7.34887
51.8833 7.27502
51.9328 7.2589
51.9826 7.20356
52.0323 7.22575
52.0818 7.16025
52.1316 7.12918
52.1812 7.13925
52.231 7.08258
52.2806 7.0684
52.3304 7.04823
52.38 7.00202
52.4298 6.97438
52.4794 6.91663
52.5293 6.90597
52.5789 6.8837
52.6288 6.91661
52.6785 6.82721
52.7284 6.80689
52.7781 6.74361
52.828 6.74638
52.8777 6.70569
52.9276 6.70854
52.9774 6.66315
53.0273 6.64458
53.0771 6.62132
53.1271 6.60723
53.1769 6.57644
53.2269 6.54358
53.2767 6.48646
53.3267 6.4571
53.3765 6.44733
53.4266 6.41814
53.4766 6.39665
53.5265 6.35429
53.5765 6.35189
53.6264 6.26816
53.6765 6.29331
53.7264 6.23144
53.7765 6.27349
53.8265 6.21079
53.8766 6.18358
53.9266 6.14207
53.9767 6.13221
54.0267 6.07799
54.0769 6.08304
54.1269 6.03099
54.1771 5.95815
54.2271 5.9373
54.2773 5.83835
54.3274 5.90489
54.3776 5.8408
54.4277 5.82512
54.478 5.76289
54.528 5.76025
54.5783 5.66252
54.6285 5.63793
54.6788 5.57003
54.7289 5.51521
54.7792 5.46077
54.8296 5.43699
54.8798 5.40278
54.9301 5.39091
54.9803 5.33602
55.0307 5.30502
55.0809 5.2611
55.1314 5.27089
55.1816 5.11466
55.232 5.05509
55.2823 5.02209
55.3328 4.9848
55.383 4.95154
55.4335 4.92818
55.4838 4.82672
55.5344 4.83688
55.5847 4.77817
55.6352 4.7955
55.6856 4.78028
55.7361 4.67494