File: XRD/Ni3Fe_FD0406.xy
TT I
1.27165 7.13663
1.31627 6.80008
1.36089 7.24732
1.40551 6.61489
1.45013 5.99911
1.49476 6.21712
1.53938 6.02551
1.584 5.28233
1.62863 5.8049
1.67325 4.9786
1.71787 5.02361
1.7625 5.1332
1.80712 5.01289
1.85174 4.75378
1.89636 4.92565
1.94099 5.23013
1.98562 4.76465
2.03025 4.26335
2.07487 4.4205
2.11949 5.05612
2.16411 5.08122
2.20874 16.5296
2.25338 27.617
2.298 5.88292
2.34263 5.11005
2.38725 5.14847
2.43188 5.77344
2.4765 6.71086
2.52115 6.47107
2.56577 6.5962
2.6104 7.12134
2.65503 7.47431
2.69965 7.92256
2.7443 7.64419
2.78893 7.49692
2.83356 7.97343
2.87818 8.40886
2.92281 8.91015
2.96744 9.60905
3.01209 10.4604
3.05672 11.2637
3.10135 12.6486
3.14599 12.9915
3.19062 14.4133
3.23527 15.0596
3.2799 15.8457
3.32454 17.1058
3.36917 18.3194
3.4138 19.2393
3.45844 19.9024
3.50309 21.2542
3.54773 22.0989
3.59237 24.6605
3.637 110.561
3.68164 68.6516
3.7263 26.809
3.77094 26.4336
3.81558 27.4167
3.86022 27.8521
3.90486 29.5429
3.9495 30.4007
3.99416 31.2293
4.0388 32.6589
4.08344 34.6583
4.12809 35.325
4.17273 38.3531
4.21738 45.4074
4.26204 300.333
4.30669 264.789
4.35133 51.0877
4.39598 45.4831
4.44063 56.9028
4.4853 71.3424
4.52995 51.9989
4.5746 52.4499
4.61925 54.6097
4.6639 56.7462
4.70855 58.8025
4.75322 61.9558
4.79788 65.2159
4.84253 68.2956
4.88719 72.8236
4.93184 76.5521
4.97652 82.3751
5.02118 88.8686
5.06583 97.2919
5.11049 110.383
5.15515 196.939
5.19981 428.008
5.24449 2944.92
5.28916 11524.4
5.33382 3605.42
5.37848 224.774
5.42315 138.636
5.46783 119.286
5.5125 110.04
5.55716 104.992
5.60183 101.297
5.6465 99.5727
5.69117 96.7651
5.73586 94.7317
5.78053 94.7158
5.8252 93.8582
5.86988 94.9244
5.91455 97.4337
5.95924 106.799
6.00392 231.433
6.0486 1034.38
6.09328 3934.68
6.13795 3468.23
6.18263 305.497
6.22733 100.358
6.27201 86.9831
6.3167 111.956
6.36138 85.2106
6.40606 71.3746
6.45075 68.9761
6.49545 67.3076
6.54014 65.4739
6.58483 64.6346
6.62952 64.4307
6.67421 102.234
6.71892 167.599
6.76361 72.6719
6.8083 60.393
6.853 59.1249
6.89769 58.3535
6.94239 58.0711
6.98711 57.3296
7.03181 56.8733
7.07651 56.7652
7.12121 56.8708
7.16591 56.9636
7.21063 57.3416
7.25533 75.4281
7.30004 213.642
7.34475 103.241
7.38945 58.4121
7.43416 55.9822
7.47889 55.8871
7.5236 56.3469
7.56831 56.4131
7.61303 58.8266
7.65774 59.5032
7.70247 57.5801
7.74719 57.5918
7.79191 58.2017
7.83663 58.1585
7.88135 59.1607
7.92607 59.8147
7.97081 61.0511
8.01553 62.754
8.06026 63.264
8.10498 65.5
8.14971 76.7502
8.19446 75.143
8.23919 70.8313
8.28392 73.6395
8.32865 75.5976
8.37339 79.9156
8.41812 87.9811
8.46288 122.859
8.50761 177.636
8.55235 413.24
8.59709 1090.93
8.64183 2107.43
8.68658 1131.45
8.73134 198.237
8.77609 104.876
8.82083 95.7695
8.86558 92.273
8.91033 92.6263
8.9551 95.1512
8.99985 87.4049
9.04461 85.1617
9.08936 84.3775
9.13412 83.8439
9.17888 83.6095
9.22365 84.8267
9.26841 83.4738
9.31318 84.9811
9.35794 84.5839
9.4027 84.9248
9.44749 85.7104
9.49226 85.9125
9.53703 87.2726
9.5818 89.2265
9.62657 94.6167
9.67134 102.637
9.71614 95.9644
9.76091 96.0098
9.80569 98.4173
9.85047 102.642
9.89525 131.576
9.94005 146.612
9.98484 187.007
10.0296 363.393
10.0744 766.142
10.1192 1579.99
10.164 1739.56
10.2088 511.947
10.2536 141.003
10.2984 118.789
10.3432 120.76
10.388 108.12
10.4328 122.461
10.4776 165.901
10.5224 268.699
10.5672 476.852
10.612 541.083
10.6568 230.879
10.7017 103.062
10.7465 89.22
10.7913 85.6958
10.8361 82.9772
10.8809 80.8603
10.9257 80.5674
10.9706 81.7273
11.0154 76.778
11.0602 74.4464
11.105 73.5881
11.1499 79.0032
11.1947 89.1763
11.2395 77.744
11.2844 72.9642
11.3292 69.1923
11.374 67.8081
11.4189 67.2116
11.4637 66.4501
11.5086 66.7715
11.5534 71.0844
11.5983 67.5201
11.6431 65.2101
11.688 64.4989
11.7328 64.1557
11.7777 64.3863
11.8225 63.9449
11.8674 63.6585
11.9122 64.1479
11.9571 64.3451
12.002 65.1754
12.0468 69.6307
12.0917 81.9805
12.1366 103.021
12.1814 144.117
12.2263 199.664
12.2712 183.274
12.3161 108.878
12.3609 74.2963
12.4058 66.7555
12.4507 65.8371
12.4956 66.0668
12.5405 66.2204
12.5853 67.0413
12.6302 76.7344
12.6751 83.8546
12.72 72.7214
12.7649 69.3636
12.8098 69.9974
12.8547 71.2243
12.8996 72.3584
12.9445 73.7767
12.9894 75.4337
13.0343 77.0549
13.0792 80.6348
13.1242 90.3122
13.1691 116.696
13.214 152.235
13.2589 225.772
13.3038 342.12
13.3487 431.706
13.3937 297.369
13.4386 138.759
13.4835 110.154
13.5285 125.08
13.5734 158.266
13.6183 230.196
13.6633 326.272
13.7082 357.563
13.7531 216.957
13.7981 106.67
13.843 84.5009
13.888 81.2505
13.9329 78.9175
13.9779 77.4265
14.0228 76.0599
14.0678 74.7072
14.1127 74.2221
14.1577 74.4887
14.2027 73.4358
14.2476 71.875
14.2926 72.441
14.3376 73.6985
14.3825 72.1282
14.4275 70.3206
14.4725 69.9817
14.5175 70.4186
14.5624 70.4406
14.6074 73.5107
14.6524 73.8648
14.6974 72.3022
14.7424 73.3946
14.7874 81.02
14.8324 91.6131
14.8774 110.653
14.9224 145.931
14.9674 196.36
15.0124 221.72
15.0574 166.61
15.1024 100.645
15.1474 75.3166
15.1924 72.4144
15.2374 73.2983
15.2824 72.4304
15.3274 69.9753
15.3725 68.4985
15.4175 68.0127
15.4625 67.5656
15.5076 67.9094
15.5526 67.7979
15.5976 67.1555
15.6426 68.2139
15.6877 74.2487
15.7327 82.1657
15.7778 96.0243
15.8228 121.281
15.8679 159.884
15.9129 193.224
15.958 171.427
16.003 108.188
16.0481 71.9044
16.0931 67.2136
16.1382 65.0429
16.1833 62.306
16.2283 60.5151
16.2734 59.7673
16.3185 60.2912
16.3636 61.5294
16.4086 59.517
16.4537 57.7778
16.4988 56.7737
16.5439 56.6723
16.589 56.6473
16.6341 56.2655
16.6792 55.6019
16.7243 56.1858
16.7694 56.3119
16.8145 56.2027
16.8596 56.7258
16.9047 58.6007
16.9498 58.8622
16.9949 57.2586
17.04 57.1238
17.0851 58.3488
17.1302 60.0391
17.1754 63.1542
17.2205 67.0693
17.2656 73.4768
17.3108 81.8128
17.3559 83.5408
17.401 74.3341
17.4462 64.625
17.4913 60.7475
17.5365 60.4706
17.5815 60.5209
17.6268 61.0337
17.6718 61.7214
17.7171 62.4051
17.7622 62.5979
17.8074 63.1392
17.8525 65.6567
17.8977 69.9583
17.9428 75.5958
17.9881 83.2791
18.0331 97.283
18.0784 116.299
18.1237 137.169
18.1688 137.853
18.214 111.685
18.2591 90.0919
18.3044 89.7621
18.3495 98.0796
18.3948 106.834
18.4399 101.594
18.4852 82.894
18.5303 68.733
18.5756 63.8688
18.6207 62.6688
18.666 61.7803
18.7112 61.1037
18.7565 60.3907
18.8016 60.1695
18.8469 59.3228
18.892 59.0564
18.9374 58.6038
18.9825 58.4369
19.0278 58.4104
19.073 58.5107
19.1183 58.9573
19.1635 59.8725
19.2088 61.1409
19.254 63.0603
19.2993 66.7397
19.3447 72.5326
19.3898 77.5379
19.4352 75.4694
19.4804 66.5766
19.5257 59.2023
19.5709 55.7228
19.6163 55.1168
19.6615 55.0259
19.7068 54.6645
19.752 54.4491
19.7974 54.8352
19.8426 55.9265
19.888 56.5985
19.9332 57.6145
19.9786 59.5658
20.0238 62.432
20.0692 67.1946
20.1144 70.5602
20.1598 70.4496
20.205 65.6912
20.2504 63.1269
20.2957 63.9341
20.3411 66.2728
20.3863 66.1886
20.4318 61.1462
20.477 55.8354
20.5224 53.1607
20.5677 52.6097
20.6131 51.6463
20.6586 50.8717
20.7038 50.942
20.7493 50.2103
20.7945 50.1032
20.84 49.9638
20.8853 49.9267
20.9307 49.6303
20.976 49.8808
21.0215 49.7894
21.0668 50.0825
21.1122 50.613
21.1575 50.8124
21.203 51.8233
21.2483 52.3121
21.2938 52.8961
21.3391 51.5247
21.3846 50.5302
21.4299 49.589
21.4754 49.6558
21.5207 49.7145
21.5662 49.8705
21.6116 50.4232
21.6571 51.0294
21.7024 52.2356
21.7479 53.5776
21.7933 55.9631
21.8388 59.0952
21.8843 62.7725
21.9297 65.4154
21.9752 65.627
22.0206 61.951
22.0661 58.0794
22.1115 57.1351
22.157 57.3191
22.2024 56.2018
22.248 53.3467
22.2933 51.4778
22.3389 50.5558
22.3843 50.3405
22.4299 50.2395
22.4753 50.1717
22.5208 49.8543
22.5662 49.5559
22.6118 49.7538
22.6572 50.1802
22.7028 50.455
22.7483 51.0528
22.7939 51.4478
22.8393 52.8865
22.8849 54.5395
22.9303 56.3719
22.9759 58.7403
23.0214 59.2057
23.067 56.6661
23.1126 52.9461
23.1581 50.6955
23.2037 50.145
23.2492 50.2329
23.2948 49.9214
23.3403 50.2967
23.3859 50.8598
23.4314 51.6482
23.477 53.3261
23.5225 55.109
23.5682 57.3954
23.6137 58.9901
23.6593 57.8368
23.7048 53.967
23.7505 50.0219
23.796 48.129
23.8417 47.2271
23.8872 46.5381
23.9329 46.3729
23.9784 46.1698
24.0241 45.7271
24.0697 45.4929
24.1154 45.4404
24.1609 45.127
24.2066 45.1271
24.2522 44.8168
24.2979 44.5712
24.3434 44.365
24.3892 44.2327
24.4349 44.3156
24.4805 43.8981
24.5262 44.1822
24.5718 44.0105
24.6175 43.8708
24.6631 43.7643
24.7089 43.6683
24.7545 43.5746
24.8002 43.3962
24.8458 43.3603
24.8916 43.0042
24.9372 43.1965
24.983 43.5536
25.0286 43.8213
25.0744 44.1597
25.12 44.6023
25.1658 45.1463
25.2114 45.7609
25.2572 45.7651
25.3029 45.7242
25.3487 45.8468
25.3943 45.8763
25.4402 44.8054
25.4858 43.7783
25.5316 42.462
25.5773 42.0272
25.6231 42.0053
25.669 41.5622
25.7147 41.6656
25.7605 41.449
25.8062 41.5316
25.8521 41.7159
25.8977 41.5398
25.9436 41.6875
25.9893 41.817
26.0352 42.2035
26.0809 42.2071
26.1268 42.7218
26.1725 42.5649
26.2184 41.8892
26.2641 41.4637
26.31 41.0889
26.3557 41.2063
26.4017 41.0188
26.4474 41.2988
26.4933 41.675
26.5391 42.0472
26.585 42.3574
26.6308 42.8597
26.6767 43.1025
26.7225 42.9925
26.7684 42.6612
26.8142 42.0114
26.8601 41.4004
26.9059 41.1129
26.9519 40.5503
26.9979 40.2362
27.0437 39.9148
27.0896 39.6867
27.1354 39.6846
27.1814 39.59
27.2272 39.4067
27.2732 39.5083
27.3191 39.2722
27.3651 39.3764
27.4109 39.2526
27.4569 39.3684
27.5027 39.361
27.5488 39.4914
27.5946 39.3036
27.6407 39.1033
27.6865 39.1373
27.7326 38.7597
27.7784 38.8273
27.8245 38.7066
27.8703 38.9333
27.9164 39.1253
27.9623 39.2055
28.0084 39.5983
28.0543 39.9503
28.1003 39.8357
28.1462 39.8398
28.1923 39.4698
28.2384 38.8328
28.2843 38.7263
28.3304 38.1493
28.3764 37.6832
28.4225 37.3423
28.4684 37.1218
28.5145 36.7796
28.5605 36.8859
28.6066 36.4968
28.6526 36.4987
28.6987 36.4757
28.7447 36.2555
28.7908 36.3138
28.8368 36.1822
28.8829 36.3718
28.9289 36.2413
28.9751 36.1179
29.0211 35.7873
29.0673 35.5377
29.1133 35.5148
29.1595 35.3177
29.2055 35.0679
29.2517 35.2606
29.2977 35.1201
29.3439 35.0
29.3899 35.0993
29.4361 34.9597
29.4824 34.8151
29.5284 34.655
29.5746 34.2527
29.6207 34.1032
29.6669 33.884
29.713 33.7791
29.7593 33.7089
29.8053 33.7458
29.8516 33.6075
29.8977 33.6397
29.9439 33.3266
29.99 33.4619
30.0363 33.2135
30.0824 33.3505
30.1287 33.1411
30.1748 33.1815
30.2211 33.0911
30.2673 33.1193
30.3136 33.2138
30.3597 33.0513
30.406 33.0116
30.4522 32.7047
30.4985 32.8747
30.5447 32.9185
30.591 32.8614
30.6372 32.9344
30.6835 32.9255
30.7297 32.9402
30.7761 32.938
30.8224 32.769
30.8686 32.6419
30.915 32.3594
30.9612 32.2426
31.0076 32.0977
31.0538 31.9145
31.1002 31.8121
31.1464 31.7182
31.1928 31.7106
31.2391 31.6555
31.2855 31.6155
31.3317 31.5483
31.3781 31.7116
31.4244 31.6088
31.4708 31.5013
31.5171 31.5384
31.5636 31.4402
31.6098 31.3656
31.6563 31.2448
31.7026 30.9887
31.7491 30.7618
31.7953 30.8725
31.8418 30.9205
31.8881 30.9028
31.9346 30.847
31.9809 30.779
32.0275 30.726
32.074 30.5594
32.1203 30.3229
32.1668 30.3155
32.2132 30.0754
32.2597 30.015
32.306 29.9492
32.3526 29.6229
32.399 29.6049
32.4455 29.5634
32.4919 29.3914
32.5385 29.2536
32.5848 29.1896
32.6314 29.2685
32.6778 29.1049
32.7244 28.934
32.7708 28.8434
32.8174 28.8436
32.8638 28.7377
32.9104 28.7398
32.9569 28.6906
33.0035 28.5645
33.0499 28.5138
33.0966 28.5175
33.143 28.4341
33.1897 28.3962
33.2361 28.2842
33.2828 28.2481
33.3293 28.1385
33.3759 28.1492
33.4226 27.9751
33.4691 27.7962
33.5158 27.7536
33.5623 27.5246
33.609 27.3942
33.6555 27.2792
33.7022 27.2186
33.7487 27.1702
33.7954 27.0539
33.842 26.9954
33.8887 26.9883
33.9353 26.9337
33.982 26.7411
34.0286 26.7374
34.0753 26.7146
34.1219 26.5404
34.1687 26.535
34.2152 26.4546
34.262 26.2652
34.3086 26.1606
34.3554 26.1831
34.402 26.0124
34.4488 25.9797
34.4954 25.8975
34.5422 25.7974
34.5889 25.5703
34.6357 25.6839
34.6825 25.479
34.7292 25.4656
34.776 25.333
34.8227 25.3493
34.8695 25.215
34.9162 25.1367
34.9631 25.0177
35.0098 25.0791
35.0566 24.9662
35.1033 24.8452
35.1502 24.8322
35.1969 24.7126
35.2438 24.6991
35.2906 24.6355
35.3375 24.6377
35.3842 24.4993
35.4311 24.5126
35.4779 24.5072
35.5248 24.4265
35.5716 24.32
35.6185 24.2135
35.6653 24.1324
35.7123 24.1727
35.759 24.0353
35.806 23.8564
35.8528 23.8711
35.8998 23.7827
35.9468 23.7043
35.9936 23.6608
36.0406 23.5156
36.0874 23.5908
36.1345 23.4194
36.1813 23.3322
36.2283 23.2534
36.2752 23.1724
36.3222 23.178
36.3691 23.1654
36.4161 22.9836
36.463 22.9006
36.5101 22.9401
36.557 22.8414
36.6041 22.723
36.651 22.7479
36.6981 22.6377
36.745 22.601
36.7921 22.5611
36.839 22.3684
36.8861 22.4035
36.9331 22.2866
36.9802 22.1934
37.0272 22.0873
37.0743 22.0121
37.1213 21.9458
37.1684 21.946
37.2154 21.8541
37.2626 21.752
37.3098 21.7723
37.3568 21.69
37.404 21.6136
37.451 21.4354
37.4982 21.497
37.5452 21.3207
37.5924 21.3398
37.6395 21.2759
37.6867 21.2191
37.7337 21.0618
37.781 21.0494
37.8281 21.0186
37.8753 20.9351
37.9224 20.8142
37.9697 20.7865
38.0168 20.647
38.064 20.6349
38.1111 20.6015
38.1584 20.5221
38.2056 20.4626
38.2529 20.3757
38.3 20.3232
38.3473 20.3483
38.3945 20.1689
38.4418 20.1215
38.489 20.0854
38.5363 19.9358
38.5837 19.8704
38.6309 19.8803
38.6782 19.7564
38.7254 19.7483
38.7728 19.6763
38.82 19.6042
38.8674 19.5935
38.9146 19.4823
38.9621 19.3999
39.0093 19.3964
39.0567 19.2756
39.104 19.2203
39.1514 19.165
39.1987 19.1614
39.2461 19.0809
39.2934 18.9858
39.3409 18.8941
39.3882 18.8686
39.4356 18.7938
39.483 18.7822
39.5304 18.624
39.5778 18.5897
39.6253 18.5865
39.6726 18.52
39.7201 18.472
39.7675 18.4344
39.815 18.3373
39.8624 18.3311
39.9099 18.2153
39.9575 18.2016
40.0049 18.1292
40.0525 18.02
40.0999 17.9724
40.1474 17.951
40.1949 17.9085
40.2425 17.7871
40.2899 17.7959
40.3375 17.7076
40.385 17.6382
40.4326 17.636
40.48 17.4553
40.5277 17.5568
40.5752 17.436
40.6228 17.3502
40.6703 17.2849
40.718 17.3334
40.7655 17.2474
40.8132 17.1146
40.8607 17.1683
40.9084 17.0602
40.9559 16.9678
41.0036 16.9637
41.0512 16.9055
41.0989 16.8623
41.1465 16.7617
41.1942 16.6843
41.242 16.6389
41.2896 16.5842
41.3373 16.6017
41.3849 16.5395
41.4327 16.496
41.4803 16.3428
41.5281 16.2835
41.5758 16.3158
41.6236 16.1877
41.6712 16.1739
41.7191 16.1048
41.7667 16.0612
41.8146 16.0497
41.8622 15.933
41.9101 15.9327
41.9578 15.8026
42.0057 15.8047
42.0534 15.7695
42.1013 15.6797
42.149 15.651
42.1969 15.5344
42.2446 15.5102
42.2925 15.4437
42.3403 15.4182
42.3882 15.3858
42.436 15.3805
42.4839 15.2863
42.5319 15.2114
42.5797 15.1659
42.6277 15.0852
42.6755 15.0636
42.7235 15.0468
42.7713 15.0113
42.8193 14.9224
42.8671 14.8548
42.9152 14.8282
42.963 14.753
43.0111 14.7071
43.0589 14.6453
43.107 14.6768
43.1549 14.5617
43.2029 14.4986
43.2508 14.3934
43.2989 14.4019
43.3468 14.3258
43.3949 14.3054
43.4429 14.2853
43.491 14.1978
43.5389 14.1806
43.5871 14.1389
43.635 14.0456
43.6832 14.0337
43.7312 13.9705
43.7793 13.9213
43.8273 13.9131
43.8755 13.8194
43.9237 13.8013
43.9717 13.7735
44.0199 13.6775
44.068 13.6694
44.1162 13.6057
44.1642 13.5962
44.2125 13.5229
44.2606 13.482
44.3088 13.4205
44.3569 13.3805
44.4052 13.317
44.4533 13.2227
44.5016 13.212
44.5497 13.1598
44.598 13.1521
44.6461 13.0186
44.6945 13.0035
44.7426 12.9796
44.791 12.9199
44.8391 12.8985
44.8875 12.8455
44.9357 12.8005
44.984 12.7496
45.0322 12.7014
45.0806 12.6504
45.1288 12.6232
45.1773 12.5573
45.2257 12.5189
45.2739 12.5241
45.3224 12.4135
45.3706 12.4283
45.4191 12.3439
45.4673 12.3321
45.5158 12.2913
45.5641 12.2069
45.6126 12.1717
45.6609 12.116
45.7094 12.0581
45.7577 12.0157
45.8063 12.0057
45.8546 11.957
45.9031 11.9364
45.9515 11.8998
46.0001 11.8468
46.0484 11.804
46.097 11.7816
46.1454 11.6828
46.194 11.702
46.2424 11.6115
46.291 11.5977
46.3395 11.5589
46.3881 11.4677
46.4365 11.4654
46.4852 11.4307
46.5337 11.4025
46.5823 11.3456
46.631 11.2938
46.6795 11.2585
46.7282 11.1911
46.7767 11.2162
46.8254 11.1068
46.8739 11.0694
46.9226 11.0324
46.9712 10.9837
47.0199 10.9413
47.0685 10.8814
47.1173 10.8826
47.1658 10.8224
47.2146 10.81
47.2632 10.7159
47.312 10.7426
47.3606 10.6775
47.4095 10.6025
47.4581 10.5876
47.5069 10.5868
47.5556 10.5062
47.6044 10.4876
47.6531 10.4298
47.702 10.3731
47.7507 10.359
47.7996 10.3517
47.8483 10.3213
47.8972 10.2573
47.9461 10.2585
47.9948 10.198
48.0438 10.1089
48.0925 10.1457
48.1415 10.0541
48.1902 10.0323
48.2392 10.0255
48.288 9.94998
48.337 9.93636
48.3858 9.91097
48.4348 9.87641
48.4837 9.82553
48.5327 9.77373
48.5815 9.78865
48.6306 9.72435
48.6795 9.69616
48.7285 9.63415
48.7774 9.61214
48.8265 9.56491
48.8754 9.54735
48.9245 9.5055
48.9734 9.49786
49.0226 9.45542
49.0715 9.39712
49.1206 9.35427
49.1696 9.3374
49.2188 9.29016
49.2679 9.24894
49.3169 9.22086
49.3661 9.17175
49.4151 9.13352
49.4643 9.08743
49.5134 9.07739
49.5626 9.03873
49.6117 8.99541
49.6609 8.98752
49.71 8.91181
49.7592 8.90636
49.8083 8.8529
49.8576 8.85536
49.9067 8.80177
49.956 8.77939
50.0052 8.76311
50.0545 8.70227
50.1036 8.67152
50.153 8.63698
50.2022 8.57445
50.2515 8.55616
50.3007 8.52487
50.3501 8.47401
50.3993 8.45475
50.4487 8.42166
50.498 8.41961
50.5474 8.37853
50.5966 8.32102
50.6461 8.33971
50.6955 8.30099
50.7448 8.25126
50.7943 8.24096
50.8436 8.17998
50.8931 8.14277
50.9424 8.12514
50.9919 8.10546
51.0413 8.07696
51.0908 7.99428
51.1402 8.00263
51.1897 7.9328
51.2391 7.93001
51.2887 7.89679
51.3381 7.88061
51.3877 7.8168
51.4371 7.80901
51.4867 7.77407
51.5362 7.74987
51.5858 7.7307
51.6353 7.63878
51.6849 7.64244
51.7344 7.60815
51.7841 7.58023
51.8336 7.51767
51.8833 7.52455
51.9328 7.49569
51.9826 7.42427
52.0323 7.41303
52.0818 7.40531
52.1316 7.33464
52.1812 7.35621
52.231 7.2922
52.2806 7.26036
52.3304 7.21518
52.38 7.20788
52.4298 7.18919
52.4794 7.1165
52.5293 7.13393
52.5789 7.11013
52.6288 7.07803
52.6785 7.01694
52.7284 6.99112
52.7781 6.98083
52.828 6.95158
52.8777 6.89618
52.9276 6.90942
52.9774 6.88548
53.0273 6.84813
53.0771 6.82144
53.1271 6.79557
53.1769 6.74071
53.2269 6.73305
53.2767 6.6523
53.3267 6.65252
53.3765 6.65151
53.4266 6.60316
53.4766 6.57004
53.5265 6.50355
53.5765 6.51856
53.6264 6.45786
53.6765 6.44682
53.7264 6.45088
53.7765 6.42334
53.8265 6.33952
53.8766 6.36764
53.9266 6.29987
53.9767 6.28548
54.0267 6.28226
54.0769 6.23883
54.1269 6.16307
54.1771 6.17249
54.2271 6.16213
54.2773 6.08031
54.3274 6.06047
54.3776 5.98751
54.4277 6.04587
54.478 5.99133
54.528 5.91623
54.5783 5.86723
54.6285 5.87989
54.6788 5.80172
54.7289 5.73413
54.7792 5.72834
54.8296 5.70923
54.8798 5.68116
54.9301 5.62311
54.9803 5.61186
55.0307 5.53517
55.0809 5.50772
55.1314 5.4784
55.1816 5.42557
55.232 5.35459
55.2823 5.3166
55.3328 5.24726
55.383 5.20397
55.4335 5.20483
55.4838 5.12165
55.5344 5.0761
55.5847 5.04615
55.6352 5.02041
55.6856 5.0004
55.7361 4.91844