File: XRD/Ni3Fe_FD0001.xy
TT I
1.27165 36.1315
1.31627 36.0951
1.36089 35.5728
1.40551 31.424
1.45013 31.3632
1.49476 32.0325
1.53938 30.3067
1.584 29.4605
1.62863 28.5764
1.67325 27.2524
1.71787 26.8896
1.7625 26.5489
1.80712 25.8972
1.85174 25.3473
1.89636 25.4195
1.94099 25.7983
1.98562 25.5467
2.03025 25.5774
2.07487 24.6906
2.11949 25.6378
2.16411 25.9063
2.20874 26.3555
2.25338 26.1595
2.298 26.7033
2.34263 25.861
2.38725 26.3818
2.43188 26.1632
2.4765 25.7807
2.52115 26.209
2.56577 27.1297
2.6104 28.4408
2.65503 27.6395
2.69965 29.9521
2.7443 31.3266
2.78893 33.7467
2.83356 35.9201
2.87818 39.2593
2.92281 44.3277
2.96744 48.8606
3.01209 57.3909
3.05672 64.9435
3.10135 76.6752
3.14599 83.6697
3.19062 87.1307
3.23527 82.766
3.2799 72.7097
3.32454 60.7933
3.36917 52.5
3.4138 46.2593
3.45844 42.6237
3.50309 40.7789
3.54773 39.3626
3.59237 39.7136
3.637 40.6795
3.68164 41.3518
3.7263 41.8682
3.77094 41.8922
3.81558 41.514
3.86022 41.3904
3.90486 43.0516
3.9495 43.9061
3.99416 44.9074
4.0388 47.4742
4.08344 50.852
4.12809 54.2527
4.17273 59.5609
4.21738 65.4398
4.26204 71.6783
4.30669 77.1847
4.35133 79.1248
4.39598 76.4237
4.44063 72.9403
4.4853 68.9847
4.52995 64.8352
4.5746 60.911
4.61925 57.7775
4.6639 55.0882
4.70855 54.077
4.75322 55.2876
4.79788 56.4346
4.84253 59.7779
4.88719 63.2232
4.93184 68.6264
4.97652 76.146
5.02118 88.6728
5.06583 111.724
5.11049 133.18
5.15515 167.821
5.19981 242.451
5.24449 456.744
5.28916 942.392
5.33382 2391.7
5.37848 4214.46
5.42315 1736.96
5.46783 467.048
5.5125 240.695
5.55716 166.581
5.60183 129.627
5.6465 112.649
5.69117 104.244
5.73586 98.2895
5.78053 93.9067
5.8252 92.2188
5.86988 96.0654
5.91455 104.169
5.95924 119.404
6.00392 152.308
6.0486 228.433
6.09328 383.457
6.13795 646.736
6.18263 1219.8
6.22733 985.314
6.27201 406.362
6.3167 196.292
6.36138 120.144
6.40606 88.0116
6.45075 73.7427
6.49545 64.3514
6.54014 59.0862
6.58483 56.002
6.62952 53.4318
6.67421 52.5385
6.71892 51.9989
6.76361 51.7261
6.8083 51.0144
6.853 50.2064
6.89769 49.48
6.94239 48.771
6.98711 46.971
7.03181 47.4706
7.07651 47.8877
7.12121 49.0401
7.16591 50.9043
7.21063 52.8096
7.25533 56.1764
7.30004 62.4232
7.34475 68.8581
7.38945 71.6978
7.43416 68.0353
7.47889 63.6767
7.5236 62.8655
7.56831 83.885
7.61303 165.788
7.65774 114.867
7.70247 54.1864
7.74719 44.0425
7.79191 40.9394
7.83663 39.2815
7.88135 38.295
7.92607 38.08
7.97081 37.9297
8.01553 38.1528
8.06026 38.4159
8.10498 38.9933
8.14971 40.1575
8.19446 40.9538
8.23919 42.9329
8.28392 44.0926
8.32865 45.8762
8.37339 48.9893
8.41812 52.7324
8.46288 59.4552
8.50761 69.0267
8.55235 87.9119
8.59709 132.455
8.64183 189.5
8.68658 281.057
8.73134 569.373
8.77609 808.047
8.82083 434.579
8.86558 182.381
8.91033 109.45
8.9551 82.3967
8.99985 70.7944
9.04461 64.1915
9.08936 59.9424
9.13412 57.4146
9.17888 57.0025
9.22365 60.7835
9.26841 88.7965
9.31318 220.04
9.35794 233.306
9.4027 90.0615
9.44749 55.7167
9.49226 50.1801
9.53703 47.7274
9.5818 47.289
9.62657 46.7432
9.67134 47.5108
9.71614 48.4939
9.76091 49.5703
9.80569 51.078
9.85047 52.9926
9.89525 56.015
9.94005 60.5154
9.98484 68.1673
10.0296 82.4136
10.0744 112.395
10.1192 160.53
10.164 201.037
10.2088 332.881
10.2536 684.134
10.2984 799.415
10.3432 410.03
10.388 175.483
10.4328 108.174
10.4776 85.0046
10.5224 80.0396
10.5672 86.0496
10.612 90.9003
10.6568 114.381
10.7017 208.269
10.7465 308.141
10.7913 224.007
10.8361 104.022
10.8809 59.8116
10.9257 48.2701
10.9706 44.2619
11.0154 41.9884
11.0602 40.8043
11.105 39.8869
11.1499 39.1646
11.1947 38.5836
11.2395 38.7566
11.2844 38.526
11.3292 38.2797
11.374 38.0707
11.4189 37.5682
11.4637 37.0487
11.5086 36.5169
11.5534 36.2959
11.5983 36.5005
11.6431 36.3653
11.688 35.9841
11.7328 36.0131
11.7777 35.8217
11.8225 35.7678
11.8674 36.3201
11.9122 37.3372
11.9571 40.8661
12.002 57.1697
12.0468 93.0691
12.0917 85.4705
12.1366 51.7373
12.1814 44.8746
12.2263 46.2235
12.2712 49.6187
12.3161 59.0296
12.3609 81.0201
12.4058 99.9599
12.4507 83.7518
12.4956 59.1218
12.5405 47.0532
12.5853 42.0487
12.6302 39.303
12.6751 38.6047
12.72 38.1753
12.7649 38.4573
12.8098 38.2237
12.8547 38.056
12.8996 37.7032
12.9445 37.3256
12.9894 37.7503
13.0343 38.1308
13.0792 39.22
13.1242 41.2058
13.1691 48.7529
13.214 60.0539
13.2589 60.612
13.3038 63.3593
13.3487 68.2682
13.3937 78.0562
13.4386 108.151
13.4835 180.818
13.5285 241.837
13.5734 186.798
13.6183 113.962
13.6633 88.2524
13.7082 79.809
13.7531 83.8625
13.7981 115.806
13.843 190.701
13.888 225.276
13.9329 144.984
13.9779 79.8568
14.0228 55.3156
14.0678 46.0314
14.1127 42.5175
14.1577 42.676
14.2027 50.908
14.2476 78.3556
14.2926 91.1864
14.3376 59.8111
14.3825 40.5561
14.4275 36.3207
14.4725 35.0897
14.5175 34.7243
14.5624 34.2863
14.6074 34.1274
14.6524 34.2176
14.6974 34.42
14.7424 34.7992
14.7874 35.2817
14.8324 36.3677
14.8774 38.096
14.9224 41.9936
14.9674 45.8699
15.0124 48.359
15.0574 52.1972
15.1024 63.7482
15.1474 93.3421
15.1924 133.367
15.2374 130.868
15.2824 88.4584
15.3274 58.5148
15.3725 45.9129
15.4175 40.6661
15.4625 38.2665
15.5076 36.8016
15.5526 36.3631
15.5976 35.7478
15.6426 35.5052
15.6877 35.8396
15.7327 36.3028
15.7778 37.5333
15.8228 40.3724
15.8679 44.0945
15.9129 46.1202
15.958 48.8921
16.003 56.0104
16.0481 74.7562
16.0931 111.127
16.1382 142.562
16.1833 126.067
16.2283 85.2302
16.2734 55.2569
16.3185 42.1879
16.3636 37.008
16.4086 34.2803
16.4537 32.6577
16.4988 31.7158
16.5439 31.0862
16.589 30.7909
16.6341 30.21
16.6792 29.7631
16.7243 29.6483
16.7694 29.4372
16.8145 29.4259
16.8596 29.5892
16.9047 29.7651
16.9498 30.1036
16.9949 31.6448
17.04 36.2437
17.0851 40.0981
17.1302 36.5501
17.1754 32.2974
17.2205 31.1135
17.2656 31.6333
17.3108 32.3053
17.3559 32.489
17.401 33.165
17.4462 35.2933
17.4913 40.0171
17.5365 48.5149
17.5815 53.6288
17.6268 47.7245
17.6718 39.0365
17.7171 34.6009
17.7622 33.2903
17.8074 33.213
17.8525 35.4621
17.8977 40.0013
17.9428 41.6052
17.9881 38.0957
18.0331 37.5389
18.0784 39.1307
18.1237 41.0314
18.1688 41.9427
18.214 45.1483
18.2591 52.8749
18.3044 71.0618
18.3495 100.204
18.3948 116.163
18.4399 95.3528
18.4852 67.4451
18.5303 58.1557
18.5756 62.3779
18.6207 76.9554
18.666 82.3896
18.7112 69.5217
18.7565 52.2131
18.8016 41.0344
18.8469 35.9504
18.892 33.8355
18.9374 32.396
18.9825 31.7738
19.0278 31.1826
19.073 31.0912
19.1183 30.7897
19.1635 30.6892
19.2088 30.9079
19.254 31.4526
19.2993 32.1881
19.3447 33.1909
19.3898 35.3267
19.4352 41.2159
19.4804 48.4902
19.5257 50.1679
19.5709 46.0626
19.6163 48.6502
19.6615 52.2754
19.7068 48.5042
19.752 40.5808
19.7974 35.1327
19.8426 32.3452
19.888 30.9582
19.9332 30.3229
19.9786 30.0509
20.0238 30.1491
20.0692 30.6492
20.1144 30.7788
20.1598 31.1406
20.205 31.774
20.2504 33.579
20.2957 37.3745
20.3411 43.4922
20.3863 49.8455
20.4318 48.9629
20.477 42.9501
20.5224 39.4431
20.5677 41.8412
20.6131 46.7388
20.6586 46.7008
20.7038 40.1275
20.7493 33.8526
20.7945 30.9557
20.84 29.9967
20.8853 31.0356
20.9307 33.2156
20.976 33.7169
21.0215 30.5324
21.0668 28.1584
21.1122 27.0689
21.1575 26.782
21.203 26.7624
21.2483 26.7738
21.2938 26.814
21.3391 26.67
21.3846 26.935
21.4299 27.525
21.4754 28.6688
21.5207 30.5804
21.5662 32.3446
21.6116 31.7752
21.6571 30.3153
21.7024 28.8676
21.7479 28.0924
21.7933 28.1336
21.8388 28.5446
21.8843 29.2789
21.9297 29.5895
21.9752 30.2207
22.0206 31.3664
22.0661 33.085
22.1115 36.5188
22.157 42.3069
22.2024 50.7174
22.248 55.1439
22.2933 52.6593
22.3389 46.764
22.3843 42.939
22.4299 41.793
22.4753 40.6553
22.5208 36.6278
22.5662 32.679
22.6118 30.303
22.6572 29.1325
22.7028 28.571
22.7483 28.323
22.7939 28.128
22.8393 28.3455
22.8849 29.1409
22.9303 30.587
22.9759 31.5477
23.0214 31.088
23.067 30.3681
23.1126 30.3559
23.1581 31.5813
23.2037 34.5536
23.2492 40.1251
23.2948 45.8637
23.3403 46.1537
23.3859 40.4828
23.4314 34.8486
23.477 32.3596
23.5225 32.4269
23.5682 34.1543
23.6137 35.4674
23.6593 34.5783
23.7048 32.7069
23.7505 32.2877
23.796 34.0288
23.8417 38.249
23.8872 44.8962
23.9329 50.0792
23.9784 47.5728
24.0241 39.6662
24.0697 33.3749
24.1154 30.0477
24.1609 28.6347
24.2066 28.084
24.2522 27.7792
24.2979 26.8264
24.3434 25.915
24.3892 25.4059
24.4349 25.1329
24.4805 24.9728
24.5262 24.9327
24.5718 24.747
24.6175 24.8295
24.6631 24.8267
24.7089 24.8479
24.7545 25.4711
24.8002 26.5154
24.8458 27.4441
24.8916 27.2575
24.9372 26.3736
24.983 25.7964
25.0286 25.1147
25.0744 24.8745
25.12 24.8778
25.1658 24.8383
25.2114 24.9595
25.2572 25.0776
25.3029 25.6006
25.3487 26.2482
25.3943 27.2148
25.4402 28.5357
25.4858 30.1697
25.5316 31.2122
25.5773 31.4025
25.6231 31.685
25.669 32.8363
25.7147 34.5085
25.7605 33.6925
25.8062 30.4703
25.8521 27.7219
25.8977 26.3993
25.9436 26.1204
25.9893 26.3014
26.0352 26.5914
26.0809 25.784
26.1268 25.0323
26.1725 24.7017
26.2184 24.5968
26.2641 24.7626
26.31 25.1345
26.3557 26.0566
26.4017 27.4212
26.4474 29.2639
26.4933 29.9517
26.5391 29.1476
26.585 27.5328
26.6308 26.2833
26.6767 25.5789
26.7225 25.2529
26.7684 25.3572
26.8142 25.5169
26.8601 26.0502
26.9059 27.2725
26.9519 28.9087
26.9979 31.6483
27.0437 33.4263
27.0896 33.6343
27.1354 32.532
27.1814 31.1879
27.2272 29.5462
27.2732 27.7818
27.3191 25.9612
27.3651 24.8514
27.4109 24.0377
27.4569 23.9559
27.5027 23.5722
27.5488 23.5242
27.5946 23.4495
27.6407 23.6646
27.6865 23.8994
27.7326 23.9045
27.7784 23.8998
27.8245 24.1276
27.8703 24.7975
27.9164 25.6567
27.9623 25.9514
28.0084 25.4933
28.0543 24.8637
28.1003 24.6055
28.1462 24.9727
28.1923 25.8
28.2384 26.3681
28.2843 26.4703
28.3304 26.4921
28.3764 27.5494
28.4225 29.7787
28.4684 31.4818
28.5145 30.9876
28.5605 29.6689
28.6066 28.7762
28.6526 28.3479
28.6987 27.3908
28.7447 25.8906
28.7908 24.684
28.8368 23.5821
28.8829 22.7939
28.9289 22.3806
28.9751 22.0248
29.0211 21.8328
29.0673 21.694
29.1133 21.7115
29.1595 21.7714
29.2055 22.1387
29.2517 22.8019
29.2977 23.211
29.3439 23.3269
29.3899 22.9228
29.4361 22.1649
29.4824 21.6285
29.5284 21.3851
29.5746 21.1448
29.6207 21.3257
29.6669 21.4055
29.713 21.775
29.7593 22.3662
29.8053 23.0977
29.8516 23.2828
29.8977 22.686
29.9439 21.9155
29.99 21.1973
30.0363 20.8135
30.0824 20.6121
30.1287 20.4695
30.1748 20.6753
30.2211 20.8771
30.2673 21.2449
30.3136 21.3964
30.3597 21.046
30.406 20.6196
30.4522 20.3941
30.4985 20.3615
30.5447 20.6465
30.591 20.9636
30.6372 21.3301
30.6835 21.4932
30.7297 21.3208
30.7761 21.0055
30.8224 20.7689
30.8686 20.6461
30.915 20.7248
30.9612 20.9276
31.0076 21.3402
31.0538 22.1816
31.1002 23.3077
31.1464 24.2086
31.1928 24.4486
31.2391 24.1558
31.2855 23.4385
31.3317 22.8073
31.3781 22.0153
31.4244 21.1271
31.4708 20.5983
31.5171 20.3872
31.5636 20.2341
31.6098 20.0707
31.6563 20.0903
31.7026 20.3209
31.7491 20.5479
31.7953 20.9124
31.8418 21.2788
31.8881 21.8577
31.9346 22.5072
31.9809 22.4049
32.0275 21.7895
32.074 20.954
32.1203 20.4788
32.1668 20.3181
32.2132 20.4863
32.2597 20.6516
32.306 20.8984
32.3526 21.2341
32.399 21.8577
32.4455 21.9781
32.4919 21.5678
32.5385 20.9967
32.5848 20.5779
32.6314 20.0371
32.6778 19.618
32.7244 19.1784
32.7708 18.7978
32.8174 18.6258
32.8638 18.4223
32.9104 18.3672
32.9569 18.3257
33.0035 18.2306
33.0499 18.3472
33.0966 18.5494
33.143 18.7281
33.1897 18.7377
33.2361 18.5611
33.2828 18.3631
33.3293 18.0812
33.3759 18.1248
33.4226 18.1825
33.4691 18.2825
33.5158 18.4931
33.5623 18.887
33.609 19.2865
33.6555 19.627
33.7022 19.692
33.7487 19.7904
33.7954 19.7224
33.842 19.3352
33.8887 18.7582
33.9353 18.1969
33.982 17.858
34.0286 17.7068
34.0753 17.5911
34.1219 17.5358
34.1687 17.4644
34.2152 17.4033
34.262 17.3922
34.3086 17.5295
34.3554 17.7004
34.402 17.7361
34.4488 17.5451
34.4954 17.2781
34.5422 17.1297
34.5889 16.928
34.6357 16.8154
34.6825 16.836
34.7292 16.9774
34.776 16.9957
34.8227 17.0833
34.8695 17.0468
34.9162 16.9139
34.9631 16.6454
35.0098 16.4953
35.0566 16.2375
35.1033 16.1463
35.1502 16.1113
35.1969 15.9782
35.2438 16.0203
35.2906 16.0393
35.3375 16.0782
35.3842 16.1031
35.4311 16.2303
35.4779 16.2514
35.5248 16.2277
35.5716 16.1686
35.6185 16.1239
35.6653 16.2094
35.7123 16.2266
35.759 16.39
35.806 16.6851
35.8528 16.9256
35.8998 17.199
35.9468 17.489
35.9936 17.7972
36.0406 17.5611
36.0874 17.2655
36.1345 16.8692
36.1813 16.5135
36.2283 16.1284
36.2752 15.8748
36.3222 15.7507
36.3691 15.5875
36.4161 15.4854
36.463 15.4425
36.5101 15.5606
36.557 15.5854
36.6041 15.6632
36.651 15.8497
36.6981 15.9637
36.745 15.8583
36.7921 15.5502
36.839 15.3155
36.8861 15.2698
36.9331 15.2243
36.9802 15.2585
37.0272 15.3197
37.0743 15.5232
37.1213 15.6355
37.1684 15.595
37.2154 15.505
37.2626 15.2612
37.3098 15.0472
37.3568 14.8712
37.404 14.6771
37.451 14.6574
37.4982 14.5566
37.5452 14.5147
37.5924 14.432
37.6395 14.356
37.6867 14.283
37.7337 14.3039
37.781 14.2531
37.8281 14.2315
37.8753 14.1947
37.9224 14.0733
37.9697 14.0005
38.0168 13.9605
38.064 13.9947
38.1111 14.0159
38.1584 14.1286
38.2056 14.0892
38.2529 14.1165
38.3 14.0451
38.3473 13.9706
38.3945 13.8099
38.4418 13.6948
38.489 13.5675
38.5363 13.4541
38.5837 13.4018
38.6309 13.3685
38.6782 13.4405
38.7254 13.465
38.7728 13.5374
38.82 13.5729
38.8674 13.5538
38.9146 13.4885
38.9621 13.3525
39.0093 13.2557
39.0567 13.1862
39.104 13.2579
39.1514 13.2252
39.1987 13.4174
39.2461 13.4052
39.2934 13.333
39.3409 13.2054
39.3882 12.9709
39.4356 12.8509
39.483 12.7726
39.5304 12.729
39.5778 12.6959
39.6253 12.5846
39.6726 12.5381
39.7201 12.5227
39.7675 12.4688
39.815 12.4839
39.8624 12.464
39.9099 12.5032
39.9575 12.3907
40.0049 12.3627
40.0525 12.3294
40.0999 12.2742
40.1474 12.2626
40.1949 12.2717
40.2425 12.3003
40.2899 12.2955
40.3375 12.4153
40.385 12.4281
40.4326 12.4621
40.48 12.2934
40.5277 12.2796
40.5752 12.1382
40.6228 12.0592
40.6703 12.0325
40.718 11.9797
40.7655 11.9516
40.8132 11.9023
40.8607 11.9014
40.9084 11.9215
40.9559 11.8758
41.0036 11.8185
41.0512 11.7148
41.0989 11.7812
41.1465 11.7067
41.1942 11.7315
41.242 11.7482
41.2896 11.7688
41.3373 11.7865
41.3849 11.7743
41.4327 11.662
41.4803 11.5616
41.5281 11.5153
41.5758 11.2971
41.6236 11.2639
41.6712 11.2128
41.7191 11.1735
41.7667 11.1636
41.8146 11.1531
41.8622 11.1204
41.9101 11.0631
41.9578 11.0286
42.0057 10.9955
42.0534 10.9698
42.1013 10.9467
42.149 10.9958
42.1969 10.9947
42.2446 11.0017
42.2925 11.057
42.3403 11.0459
42.3882 10.983
42.436 10.9381
42.4839 10.8226
42.5319 10.7369
42.5797 10.6445
42.6277 10.5274
42.6755 10.4665
42.7235 10.4197
42.7713 10.3927
42.8193 10.3608
42.8671 10.3729
42.9152 10.3418
42.963 10.2863
43.0111 10.2585
43.0589 10.1949
43.107 10.1546
43.1549 10.1164
43.2029 10.0944
43.2508 10.041
43.2989 10.0288
43.3468 9.98941
43.3949 9.95524
43.4429 9.89539
43.491 9.78135
43.5389 9.82848
43.5871 9.74249
43.635 9.72773
43.6832 9.73853
43.7312 9.67735
43.7793 9.66801
43.8273 9.65312
43.8755 9.55264
43.9237 9.5675
43.9717 9.50032
44.0199 9.51602
44.068 9.51716
44.1162 9.51165
44.1642 9.52164
44.2125 9.47853
44.2606 9.51545
44.3088 9.46928
44.3569 9.43838
44.4052 9.44206
44.4533 9.36673
44.5016 9.24223
44.5497 9.23171
44.598 9.19714
44.6461 9.18785
44.6945 9.15823
44.7426 9.11317
44.791 9.15098
44.8391 9.16102
44.8875 9.05881
44.9357 9.08927
44.984 9.01769
45.0322 9.01986
45.0806 8.965
45.1288 8.98191
45.1773 8.96565
45.2257 8.94438
45.2739 8.90346
45.3224 8.85372
45.3706 8.82862
45.4191 8.74388
45.4673 8.68933
45.5158 8.63983
45.5641 8.6482
45.6126 8.60505
45.6609 8.53996
45.7094 8.52528
45.7577 8.52061
45.8063 8.46739
45.8546 8.44733
45.9031 8.409
45.9515 8.37518
46.0001 8.37741
46.0484 8.40326
46.097 8.35471
46.1454 8.33776
46.194 8.31504
46.2424 8.2953
46.291 8.26673
46.3395 8.22503
46.3881 8.12745
46.4365 8.12896
46.4852 8.11059
46.5337 8.06777
46.5823 8.05995
46.631 8.03702
46.6795 7.99251
46.7282 8.01321
46.7767 7.9543
46.8254 7.87576
46.8739 7.84816
46.9226 7.81711
46.9712 7.82143
47.0199 7.79405
47.0685 7.75045
47.1173 7.72739
47.1658 7.70931
47.2146 7.71566
47.2632 7.6334
47.312 7.6357
47.3606 7.55734
47.4095 7.52601
47.4581 7.53351
47.5069 7.49257
47.5556 7.45977
47.6044 7.4438
47.6531 7.40952
47.702 7.36862
47.7507 7.36431
47.7996 7.3454
47.8483 7.34027
47.8972 7.35127
47.9461 7.35724
47.9948 7.26764
48.0438 7.25064
48.0925 7.25433
48.1415 7.16457
48.1902 7.13121
48.2392 7.11945
48.288 7.07148
48.337 7.04558
48.3858 7.01606
48.4348 7.00255
48.4837 7.0023
48.5327 6.96403
48.5815 6.91467
48.6306 6.93276
48.6795 6.89671
48.7285 6.84361
48.7774 6.86275
48.8265 6.80364
48.8754 6.78858
48.9245 6.75735
48.9734 6.75722
49.0226 6.71388
49.0715 6.68765
49.1206 6.63698
49.1696 6.60971
49.2188 6.61726
49.2679 6.57901
49.3169 6.5553
49.3661 6.55708
49.4151 6.4975
49.4643 6.50599
49.5134 6.4948
49.5626 6.42987
49.6117 6.45078
49.6609 6.42567
49.71 6.39824
49.7592 6.41478
49.8083 6.38351
49.8576 6.36244
49.9067 6.32073
49.956 6.28012
50.0052 6.28765
50.0545 6.2447
50.1036 6.24708
50.153 6.23125
50.2022 6.19852
50.2515 6.16571
50.3007 6.13205
50.3501 6.12821
50.3993 6.10355
50.4487 6.08822
50.498 6.05964
50.5474 6.06049
50.5966 6.0289
50.6461 6.00656
50.6955 6.01733
50.7448 5.92527
50.7943 5.9449
50.8436 5.88799
50.8931 5.88165
50.9424 5.84955
50.9919 5.82496
51.0413 5.81953
51.0908 5.79418
51.1402 5.76831
51.1897 5.74328
51.2391 5.71875
51.2887 5.69476
51.3381 5.69795
51.3877 5.64544
51.4371 5.64786
51.4867 5.63866
51.5362 5.60829
51.5858 5.60129
51.6353 5.56329
51.6849 5.5089
51.7344 5.51972
51.7841 5.52235
51.8336 5.45765
51.8833 5.46633
51.9328 5.45273
51.9826 5.40781
52.0323 5.36536
52.0818 5.34148
52.1316 5.34351
52.1812 5.31058
52.231 5.24209
52.2806 5.27905
52.3304 5.23339
52.38 5.21109
52.4298 5.21274
52.4794 5.17291
52.5293 5.17069
52.5789 5.12624
52.6288 5.12494
52.6785 5.08466
52.7284 5.09272
52.7781 5.09225
52.828 5.03659
52.8777 5.05075
52.9276 4.98426
52.9774 5.00572
53.0273 4.96258
53.0771 4.92198
53.1271 4.92073
53.1769 4.88618
53.2269 4.90058
53.2767 4.86611
53.3267 4.85429
53.3765 4.82103
53.4266 4.78608
53.4766 4.79166
53.5265 4.75584
53.5765 4.75709
53.6264 4.71525
53.6765 4.67398
53.7264 4.69585
53.7765 4.66134
53.8265 4.61389
53.8766 4.59892
53.9266 4.55777
53.9767 4.57012
54.0267 4.53188
54.0769 4.49356
54.1269 4.49399
54.1771 4.4723
54.2271 4.42979
54.2773 4.40818
54.3274 4.37517
54.3776 4.36588
54.4277 4.34136
54.478 4.27207
54.528 4.25392
54.5783 4.24273
54.6285 4.17266
54.6788 4.17725
54.7289 4.122
54.7792 4.10073
54.8296 4.06807
54.8798 4.04499
54.9301 4.00425
54.9803 4.02643
55.0307 3.9547
55.0809 3.9674
55.1314 3.91686
55.1816 3.85588
55.232 3.83794
55.2823 3.78169
55.3328 3.74208
55.383 3.70026
55.4335 3.7012
55.4838 3.61246
55.5344 3.6089
55.5847 3.58088
55.6352 3.5722
55.6856 3.55933
55.7361 3.55315