File: XRD/Ni3Fe_FD0304.xy
TT I
1.27165 8.12313
1.31627 6.98813
1.36089 7.31351
1.40551 6.81411
1.45013 6.03935
1.49476 6.33922
1.53938 5.78413
1.584 5.54521
1.62863 5.70126
1.67325 5.06506
1.71787 5.89062
1.7625 5.38223
1.80712 5.21723
1.85174 5.35722
1.89636 4.7438
1.94099 4.69381
1.98562 4.64968
2.03025 5.39945
2.07487 4.46515
2.11949 5.24705
2.16411 4.73544
2.20874 18.5687
2.25338 33.7583
2.298 6.10993
2.34263 5.40227
2.38725 5.32164
2.43188 5.12523
2.4765 5.84155
2.52115 5.24838
2.56577 6.27337
2.6104 6.27944
2.65503 7.29356
2.69965 6.76721
2.7443 6.58144
2.78893 7.17903
2.83356 7.81368
2.87818 8.28392
2.92281 8.9505
2.96744 9.82075
3.01209 10.8753
3.05672 11.1206
3.10135 11.6977
3.14599 12.7562
3.19062 13.9461
3.23527 15.3278
3.2799 15.2028
3.32454 17.3106
3.36917 18.5496
3.4138 19.3623
3.45844 20.0546
3.50309 21.7206
3.54773 22.3063
3.59237 25.5182
3.637 129.719
3.68164 78.9629
3.7263 27.5265
3.77094 27.0479
3.81558 27.7901
3.86022 28.1634
3.90486 29.488
3.9495 30.9666
3.99416 31.3893
4.0388 33.1725
4.08344 34.745
4.12809 36.3696
4.17273 38.8068
4.21738 46.6767
4.26204 354.721
4.30669 318.084
4.35133 53.7349
4.39598 46.8188
4.44063 59.8601
4.4853 77.4686
4.52995 53.3139
4.5746 52.9149
4.61925 54.6361
4.6639 56.9011
4.70855 59.8619
4.75322 62.6469
4.79788 65.72
4.84253 69.1648
4.88719 73.7353
4.93184 77.3808
4.97652 83.2787
5.02118 90.5212
5.06583 99.3787
5.11049 113.281
5.15515 215.932
5.19981 485.345
5.24449 2917.5
5.28916 11058.4
5.33382 4319.1
5.37848 257.321
5.42315 145.17
5.46783 122.872
5.5125 112.798
5.55716 106.703
5.60183 103.07
5.6465 101.126
5.69117 97.774
5.73586 95.9598
5.78053 96.6784
5.8252 95.4846
5.86988 96.8925
5.91455 99.4334
5.95924 110.479
6.00392 250.1
6.0486 1022.74
6.09328 3660.95
6.13795 3943.53
6.18263 361.963
6.22733 106.692
6.27201 90.0966
6.3167 120.52
6.36138 89.0606
6.40606 72.475
6.45075 70.4582
6.49545 68.0581
6.54014 66.3437
6.58483 65.7491
6.62952 65.7062
6.67421 111.152
6.71892 193.427
6.76361 76.2567
6.8083 61.6732
6.853 59.8377
6.89769 58.9923
6.94239 58.6169
6.98711 58.0001
7.03181 57.7926
7.07651 57.6481
7.12121 57.1413
7.16591 58.2401
7.21063 58.6448
7.25533 78.6586
7.30004 246.715
7.34475 115.142
7.38945 59.5094
7.43416 57.3563
7.47889 56.4636
7.5236 57.0341
7.56831 57.2902
7.61303 60.2398
7.65774 60.6326
7.70247 58.288
7.74719 58.2894
7.79191 58.9209
7.83663 58.7743
7.88135 59.7214
7.92607 60.7376
7.97081 61.5586
8.01553 62.7358
8.06026 64.2003
8.10498 66.0341
8.14971 79.7879
8.19446 77.9814
8.23919 71.9888
8.28392 73.8464
8.32865 76.6336
8.37339 80.8914
8.41812 89.7921
8.46288 131.498
8.50761 188.798
8.55235 424.483
8.59709 970.8
8.64183 2041.3
8.68658 1264.55
8.73134 224.145
8.77609 107.804
8.82083 97.3174
8.86558 93.6654
8.91033 94.2431
8.9551 98.558
8.99985 89.0386
9.04461 85.9815
9.08936 85.6585
9.13412 84.673
9.17888 84.7204
9.22365 86.0143
9.26841 84.5141
9.31318 85.244
9.35794 85.6217
9.4027 85.8209
9.44749 86.5745
9.49226 86.7381
9.53703 88.0829
9.5818 90.3572
9.62657 96.3629
9.67134 106.677
9.71614 97.6221
9.76091 96.871
9.80569 99.3513
9.85047 103.406
9.89525 137.633
9.94005 157.129
9.98484 195.344
10.0296 369.959
10.0744 694.618
10.1192 1475.61
10.164 1812.03
10.2088 591.951
10.2536 154.75
10.2984 122.616
10.3432 126.002
10.388 110.417
10.4328 125.285
10.4776 168.679
10.5224 250.684
10.5672 443.461
10.612 546.676
10.6568 259.121
10.7017 106.282
10.7465 90.8114
10.7913 86.5867
10.8361 84.1322
10.8809 81.3728
10.9257 81.9661
10.9706 83.7745
11.0154 78.1973
11.0602 75.5529
11.105 74.4204
11.1499 81.5255
11.1947 93.9137
11.2395 80.5167
11.2844 74.3135
11.3292 69.5437
11.374 68.2282
11.4189 68.3001
11.4637 67.7267
11.5086 68.4223
11.5534 73.2857
11.5983 69.2251
11.6431 65.9172
11.688 65.0354
11.7328 65.1975
11.7777 65.2329
11.8225 64.6849
11.8674 64.8621
11.9122 64.9393
11.9571 65.1335
12.002 66.0735
12.0468 70.8984
12.0917 83.4029
12.1366 101.271
12.1814 135.092
12.2263 198.431
12.2712 194.188
12.3161 116.938
12.3609 77.5723
12.4058 67.5142
12.4507 67.0744
12.4956 67.1994
12.5405 66.8406
12.5853 67.8869
12.6302 79.742
12.6751 88.5788
12.72 74.4123
12.7649 70.369
12.8098 70.6852
12.8547 71.9743
12.8996 73.3776
12.9445 74.5437
12.9894 76.5854
13.0343 78.0055
13.0792 81.4838
13.1242 92.189
13.1691 120.263
13.214 151.541
13.2589 208.878
13.3038 319.536
13.3487 445.933
13.3937 329.414
13.4386 149.86
13.4835 113.926
13.5285 128.508
13.5734 154.198
13.6183 211.271
13.6633 310.084
13.7082 370.073
13.7531 236.594
13.7981 112.81
13.843 85.8987
13.888 82.8349
13.9329 79.7213
13.9779 78.5605
14.0228 76.8056
14.0678 75.394
14.1127 75.3019
14.1577 75.4444
14.2027 74.2876
14.2476 72.8075
14.2926 73.5155
14.3376 75.3784
14.3825 73.3034
14.4275 71.2882
14.4725 70.9974
14.5175 71.2009
14.5624 71.4633
14.6074 74.3207
14.6524 75.1848
14.6974 72.8694
14.7424 74.6684
14.7874 82.4112
14.8324 92.9708
14.8774 108.101
14.9224 136.445
14.9674 186.031
15.0124 227.252
15.0574 175.476
15.1024 104.259
15.1474 76.3734
15.1924 73.5376
15.2374 74.8499
15.2824 74.0946
15.3274 71.0349
15.3725 69.2778
15.4175 68.6145
15.4625 68.4061
15.5076 68.9181
15.5526 68.9547
15.5976 68.0767
15.6426 69.0997
15.6877 75.4256
15.7327 83.6755
15.7778 94.5384
15.8228 114.688
15.8679 151.049
15.9129 194.014
15.958 181.755
16.003 117.039
16.0481 74.8453
16.0931 68.9179
16.1382 66.4186
16.1833 63.0155
16.2283 61.3886
16.2734 60.6978
16.3185 61.3995
16.3636 62.9012
16.4086 60.8535
16.4537 58.4294
16.4988 57.587
16.5439 57.5973
16.589 57.3188
16.6341 56.9564
16.6792 56.5735
16.7243 56.9503
16.7694 57.1844
16.8145 57.0546
16.8596 57.5442
16.9047 59.739
16.9498 60.062
16.9949 58.1262
17.04 57.8191
17.0851 59.0217
17.1302 61.1297
17.1754 63.5576
17.2205 66.8107
17.2656 72.0617
17.3108 81.6778
17.3559 86.0112
17.401 77.7647
17.4462 66.4346
17.4913 61.3808
17.5365 61.1699
17.5815 61.3704
17.6268 61.5533
17.6718 62.6412
17.7171 63.1738
17.7622 63.2346
17.8074 63.9438
17.8525 66.3255
17.8977 71.1763
17.9428 76.6511
17.9881 82.4576
18.0331 93.5044
18.0784 111.986
18.1237 137.43
18.1688 143.849
18.214 118.1
18.2591 92.1911
18.3044 88.4129
18.3495 96.5463
18.3948 108.215
18.4399 106.145
18.4852 86.1224
18.5303 70.4132
18.5756 64.9899
18.6207 63.7234
18.666 62.6512
18.7112 61.9902
18.7565 61.1706
18.8016 60.8974
18.8469 60.0673
18.892 59.9137
18.9374 59.3318
18.9825 59.1721
19.0278 59.2377
19.073 59.0956
19.1183 59.8981
19.1635 61.0665
19.2088 61.9893
19.254 63.1686
19.2993 65.7272
19.3447 71.8651
19.3898 78.6012
19.4352 77.8724
19.4804 69.2223
19.5257 60.351
19.5709 56.6215
19.6163 55.755
19.6615 55.7257
19.7068 55.1583
19.752 55.2165
19.7974 55.5054
19.8426 56.6337
19.888 57.2536
19.9332 58.168
19.9786 59.7296
20.0238 61.8438
20.0692 66.6667
20.1144 71.2906
20.1598 72.1341
20.205 67.2315
20.2504 63.3785
20.2957 63.6807
20.3411 66.6697
20.3863 67.7825
20.4318 62.8073
20.477 56.8639
20.5224 54.3254
20.5677 53.3527
20.6131 52.3099
20.6586 51.5223
20.7038 51.276
20.7493 51.0424
20.7945 50.9309
20.84 50.6212
20.8853 50.5523
20.9307 50.3877
20.976 50.6126
21.0215 50.4124
21.0668 50.7044
21.1122 51.0976
21.1575 51.4848
21.203 52.1977
21.2483 52.9593
21.2938 53.5001
21.3391 52.4835
21.3846 50.9409
21.4299 50.3143
21.4754 50.1835
21.5207 50.3185
21.5662 50.3828
21.6116 50.8727
21.6571 51.6816
21.7024 52.641
21.7479 54.1306
21.7933 56.0039
21.8388 58.5028
21.8843 62.3745
21.9297 66.3654
21.9752 67.0798
22.0206 63.3209
22.0661 58.783
22.1115 57.3836
22.157 57.9984
22.2024 57.3521
22.248 54.3932
22.2933 52.3462
22.3389 51.1672
22.3843 51.0952
22.4299 50.847
22.4753 50.9552
22.5208 50.3685
22.5662 50.3356
22.6118 50.5276
22.6572 50.5877
22.7028 51.0309
22.7483 51.4532
22.7939 51.7709
22.8393 52.842
22.8849 54.4022
22.9303 56.3242
22.9759 58.7738
23.0214 60.1662
23.067 58.137
23.1126 54.1295
23.1581 51.4088
23.2037 50.7449
23.2492 50.7786
23.2948 50.687
23.3403 50.9816
23.3859 51.5649
23.4314 51.8714
23.477 53.1766
23.5225 54.7753
23.5682 57.1566
23.6137 59.6079
23.6593 59.1746
23.7048 55.201
23.7505 51.1452
23.796 48.694
23.8417 47.8184
23.8872 47.0861
23.9329 47.0336
23.9784 46.5892
24.0241 46.3245
24.0697 46.2166
24.1154 45.693
24.1609 45.6283
24.2066 45.6018
24.2522 45.3387
24.2979 45.0818
24.3434 44.9756
24.3892 44.8455
24.4349 44.6254
24.4805 44.421
24.5262 44.6449
24.5718 44.4188
24.6175 44.4383
24.6631 44.4357
24.7089 44.1055
24.7545 44.099
24.8002 43.7655
24.8458 43.7706
24.8916 43.6173
24.9372 43.674
24.983 43.9874
25.0286 44.2902
25.0744 44.5494
25.12 45.004
25.1658 45.6285
25.2114 46.0019
25.2572 46.1533
25.3029 45.9104
25.3487 46.3166
25.3943 46.4687
25.4402 45.7818
25.4858 44.6255
25.5316 43.3251
25.5773 42.498
25.6231 42.5266
25.669 41.9589
25.7147 42.0332
25.7605 41.822
25.8062 41.8888
25.8521 42.2163
25.8977 41.9612
25.9436 42.1127
25.9893 42.1688
26.0352 42.4661
26.0809 42.8998
26.1268 43.0492
26.1725 43.0942
26.2184 42.5214
26.2641 41.9944
26.31 41.6914
26.3557 41.6506
26.4017 41.5073
26.4474 41.6949
26.4933 42.0999
26.5391 42.3442
26.585 42.7143
26.6308 43.2155
26.6767 43.4558
26.7225 43.7154
26.7684 43.0228
26.8142 42.4422
26.8601 42.0447
26.9059 41.497
26.9519 41.1773
26.9979 40.7693
27.0437 40.2415
27.0896 40.1277
27.1354 40.1884
27.1814 39.9594
27.2272 39.8402
27.2732 39.8828
27.3191 39.5803
27.3651 39.8162
27.4109 39.5576
27.4569 39.6302
27.5027 39.6787
27.5488 39.8619
27.5946 39.6625
27.6407 39.4624
27.6865 39.5508
27.7326 39.3705
27.7784 39.2595
27.8245 39.1151
27.8703 39.2391
27.9164 39.4788
27.9623 39.5165
28.0084 39.7422
28.0543 40.0528
28.1003 40.3415
28.1462 40.4219
28.1923 39.8565
28.2384 39.4514
28.2843 39.1735
28.3304 38.7896
28.3764 38.186
28.4225 37.9454
28.4684 37.6224
28.5145 37.3334
28.5605 37.2278
28.6066 36.9448
28.6526 36.8843
28.6987 36.9635
28.7447 36.7427
28.7908 36.6255
28.8368 36.6326
28.8829 36.7517
28.9289 36.5331
28.9751 36.4279
29.0211 36.2951
29.0673 35.9993
29.1133 35.8516
29.1595 35.5691
29.2055 35.5052
29.2517 35.4877
29.2977 35.5062
29.3439 35.4251
29.3899 35.4103
29.4361 35.3448
29.4824 35.3273
29.5284 35.0655
29.5746 34.6634
29.6207 34.3021
29.6669 34.277
29.713 34.3008
29.7593 34.151
29.8053 34.066
29.8516 34.019
29.8977 34.0256
29.9439 33.7879
29.99 33.7964
30.0363 33.6194
30.0824 33.6711
30.1287 33.5136
30.1748 33.5063
30.2211 33.6147
30.2673 33.5099
30.3136 33.4893
30.3597 33.4767
30.406 33.3635
30.4522 33.2486
30.4985 33.0682
30.5447 33.202
30.591 33.1
30.6372 33.2097
30.6835 33.1192
30.7297 33.2541
30.7761 33.3731
30.8224 33.1159
30.8686 33.0176
30.915 32.8221
30.9612 32.6552
31.0076 32.3815
31.0538 32.329
31.1002 32.2705
31.1464 32.0629
31.1928 32.1284
31.2391 32.0272
31.2855 31.9796
31.3317 31.885
31.3781 31.9572
31.4244 31.9425
31.4708 31.8807
31.5171 31.783
31.5636 31.9111
31.6098 31.6607
31.6563 31.5183
31.7026 31.3648
31.7491 31.0973
31.7953 31.3211
31.8418 31.0862
31.8881 31.1147
31.9346 31.1951
31.9809 31.0852
32.0275 31.0296
32.074 30.989
32.1203 30.6015
32.1668 30.5976
32.2132 30.4582
32.2597 30.224
32.306 30.3117
32.3526 30.0227
32.399 29.9352
32.4455 29.9014
32.4919 29.6864
32.5385 29.7743
32.5848 29.5238
32.6314 29.4869
32.6778 29.3923
32.7244 29.2437
32.7708 29.2143
32.8174 29.1228
32.8638 29.0515
32.9104 29.0266
32.9569 29.0857
33.0035 28.8883
33.0499 28.8561
33.0966 28.719
33.143 28.6263
33.1897 28.6148
33.2361 28.5044
33.2828 28.597
33.3293 28.3753
33.3759 28.344
33.4226 28.2696
33.4691 28.1674
33.5158 28.0367
33.5623 27.8106
33.609 27.7172
33.6555 27.6088
33.7022 27.5635
33.7487 27.4697
33.7954 27.4077
33.842 27.1882
33.8887 27.2737
33.9353 27.2153
33.982 27.1491
34.0286 27.0738
34.0753 26.9377
34.1219 26.8505
34.1687 26.7074
34.2152 26.7217
34.262 26.498
34.3086 26.5565
34.3554 26.4575
34.402 26.2489
34.4488 26.2033
34.4954 26.1353
34.5422 26.0215
34.5889 25.9665
34.6357 25.916
34.6825 25.8054
34.7292 25.8156
34.776 25.6485
34.8227 25.5909
34.8695 25.5615
34.9162 25.5711
34.9631 25.3061
35.0098 25.4178
35.0566 25.2088
35.1033 25.1432
35.1502 25.1279
35.1969 25.0332
35.2438 25.001
35.2906 24.9611
35.3375 24.9755
35.3842 24.8837
35.4311 24.8478
35.4779 24.7266
35.5248 24.6694
35.5716 24.6497
35.6185 24.6169
35.6653 24.5381
35.7123 24.4238
35.759 24.255
35.806 24.0774
35.8528 24.0359
35.8998 24.1185
35.9468 23.9801
35.9936 23.9677
36.0406 23.8573
36.0874 23.8074
36.1345 23.7645
36.1813 23.6101
36.2283 23.4991
36.2752 23.4479
36.3222 23.3886
36.3691 23.4092
36.4161 23.2138
36.463 23.2415
36.5101 23.1834
36.557 23.1632
36.6041 22.9681
36.651 22.9246
36.6981 22.9057
36.745 22.8513
36.7921 22.8602
36.839 22.6753
36.8861 22.5873
36.9331 22.5332
36.9802 22.4651
37.0272 22.3367
37.0743 22.3386
37.1213 22.2486
37.1684 22.1548
37.2154 22.1504
37.2626 22.0407
37.3098 21.9752
37.3568 21.9933
37.404 21.8328
37.451 21.7326
37.4982 21.6637
37.5452 21.5648
37.5924 21.5221
37.6395 21.5927
37.6867 21.4606
37.7337 21.3369
37.781 21.2126
37.8281 21.2432
37.8753 21.1338
37.9224 21.0892
37.9697 21.0466
38.0168 20.8819
38.064 20.8654
38.1111 20.77
38.1584 20.763
38.2056 20.6299
38.2529 20.6635
38.3 20.578
38.3473 20.492
38.3945 20.4252
38.4418 20.4086
38.489 20.2704
38.5363 20.2581
38.5837 20.1309
38.6309 20.0826
38.6782 20.0626
38.7254 19.8943
38.7728 19.9477
38.82 19.8329
38.8674 19.7862
38.9146 19.7244
38.9621 19.6967
39.0093 19.6955
39.0567 19.5728
39.104 19.4887
39.1514 19.4326
39.1987 19.3241
39.2461 19.3078
39.2934 19.2528
39.3409 19.1548
39.3882 18.9745
39.4356 18.9571
39.483 18.9829
39.5304 18.931
39.5778 18.8754
39.6253 18.8309
39.6726 18.687
39.7201 18.6803
39.7675 18.6524
39.815 18.5909
39.8624 18.394
39.9099 18.5029
39.9575 18.3941
40.0049 18.3637
40.0525 18.2327
40.0999 18.2269
40.1474 18.1404
40.1949 18.0839
40.2425 18.1003
40.2899 18.0128
40.3375 17.9
40.385 17.9232
40.4326 17.8355
40.48 17.6979
40.5277 17.7059
40.5752 17.6197
40.6228 17.6085
40.6703 17.5285
40.718 17.489
40.7655 17.4407
40.8132 17.3965
40.8607 17.3567
40.9084 17.2488
40.9559 17.1758
41.0036 17.1981
41.0512 17.1452
41.0989 17.1187
41.1465 16.9762
41.1942 16.8894
41.242 16.8423
41.2896 16.7617
41.3373 16.7403
41.3849 16.6794
41.4327 16.6005
41.4803 16.5853
41.5281 16.5394
41.5758 16.4357
41.6236 16.4058
41.6712 16.3681
41.7191 16.266
41.7667 16.2465
41.8146 16.2711
41.8622 16.0832
41.9101 16.1064
41.9578 15.9873
42.0057 16.0278
42.0534 15.9293
42.1013 15.8834
42.149 15.8265
42.1969 15.7882
42.2446 15.7463
42.2925 15.7011
42.3403 15.6573
42.3882 15.5702
42.436 15.59
42.4839 15.4775
42.5319 15.42
42.5797 15.3925
42.6277 15.2895
42.6755 15.3294
42.7235 15.182
42.7713 15.199
42.8193 15.0402
42.8671 15.0386
42.9152 15.0201
42.963 14.9792
43.0111 14.8671
43.0589 14.838
43.107 14.818
43.1549 14.7343
43.2029 14.7309
43.2508 14.6671
43.2989 14.5793
43.3468 14.4892
43.3949 14.4727
43.4429 14.4509
43.491 14.4213
43.5389 14.3622
43.5871 14.3333
43.635 14.2383
43.6832 14.1938
43.7312 14.1122
43.7793 14.0511
43.8273 14.037
43.8755 13.9807
43.9237 13.9108
43.9717 13.9356
44.0199 13.8513
44.068 13.7755
44.1162 13.7845
44.1642 13.7382
44.2125 13.7071
44.2606 13.6273
44.3088 13.5961
44.3569 13.5585
44.4052 13.5231
44.4533 13.4138
44.5016 13.3613
44.5497 13.3515
44.598 13.3188
44.6461 13.2432
44.6945 13.2535
44.7426 13.0978
44.791 13.1127
44.8391 13.0738
44.8875 12.9749
44.9357 12.9947
44.984 12.9077
45.0322 12.8711
45.0806 12.8244
45.1288 12.8211
45.1773 12.715
45.2257 12.7162
45.2739 12.65
45.3224 12.6102
45.3706 12.513
45.4191 12.4918
45.4673 12.4625
45.5158 12.4378
45.5641 12.3578
45.6126 12.3275
45.6609 12.3093
45.7094 12.2133
45.7577 12.1934
45.8063 12.1514
45.8546 12.1311
45.9031 12.0613
45.9515 12.0078
46.0001 11.9874
46.0484 11.9539
46.097 11.9204
46.1454 11.8924
46.194 11.846
46.2424 11.772
46.291 11.7143
46.3395 11.7025
46.3881 11.6405
46.4365 11.6106
46.4852 11.5555
46.5337 11.5345
46.5823 11.5088
46.631 11.4265
46.6795 11.3907
46.7282 11.4064
46.7767 11.3266
46.8254 11.2321
46.8739 11.2103
46.9226 11.2066
46.9712 11.1239
47.0199 11.0823
47.0685 11.0587
47.1173 11.0377
47.1658 10.9868
47.2146 10.9384
47.2632 10.9127
47.312 10.887
47.3606 10.7738
47.4095 10.7626
47.4581 10.764
47.5069 10.6599
47.5556 10.6442
47.6044 10.5595
47.6531 10.605
47.702 10.5643
47.7507 10.4818
47.7996 10.4378
47.8483 10.4203
47.8972 10.4223
47.9461 10.3707
47.9948 10.3013
48.0438 10.2801
48.0925 10.244
48.1415 10.2115
48.1902 10.1652
48.2392 10.1157
48.288 10.1137
48.337 10.1004
48.3858 10.0198
48.4348 9.9987
48.4837 9.97326
48.5327 9.91893
48.5815 9.87741
48.6306 9.81129
48.6795 9.80171
48.7285 9.76081
48.7774 9.70832
48.8265 9.72324
48.8754 9.61622
48.9245 9.64324
48.9734 9.57734
49.0226 9.5527
49.0715 9.50164
49.1206 9.50078
49.1696 9.44089
49.2188 9.41983
49.2679 9.35719
49.3169 9.35173
49.3661 9.27573
49.4151 9.25304
49.4643 9.25112
49.5134 9.20975
49.5626 9.12675
49.6117 9.12046
49.6609 9.11404
49.71 9.03543
49.7592 9.02786
49.8083 8.97838
49.8576 8.98253
49.9067 8.88618
49.956 8.90641
50.0052 8.81288
50.0545 8.81799
50.1036 8.74065
50.153 8.72007
50.2022 8.72241
50.2515 8.65027
50.3007 8.60966
50.3501 8.5896
50.3993 8.5992
50.4487 8.52411
50.498 8.46267
50.5474 8.47193
50.5966 8.40814
50.6461 8.42479
50.6955 8.3748
50.7448 8.34522
50.7943 8.33167
50.8436 8.29342
50.8931 8.24103
50.9424 8.20031
50.9919 8.16747
51.0413 8.16637
51.0908 8.13893
51.1402 8.10869
51.1897 8.0597
51.2391 8.03749
51.2887 7.96898
51.3381 7.96391
51.3877 7.97009
51.4371 7.89594
51.4867 7.86902
51.5362 7.8599
51.5858 7.78268
51.6353 7.73374
51.6849 7.716
51.7344 7.70609
51.7841 7.65955
51.8336 7.62166
51.8833 7.59959
51.9328 7.50347
51.9826 7.50729
52.0323 7.50371
52.0818 7.45633
52.1316 7.41819
52.1812 7.3977
52.231 7.34351
52.2806 7.35898
52.3304 7.31684
52.38 7.29657
52.4298 7.25171
52.4794 7.24822
52.5293 7.19949
52.5789 7.20926
52.6288 7.14676
52.6785 7.12154
52.7284 7.08774
52.7781 7.0345
52.828 7.02261
52.8777 6.97294
52.9276 6.9651
52.9774 6.94179
53.0273 6.95815
53.0771 6.83234
53.1271 6.83776
53.1769 6.85058
53.2269 6.80207
53.2767 6.73756
53.3267 6.75168
53.3765 6.71951
53.4266 6.66622
53.4766 6.63005
53.5265 6.60408
53.5765 6.59107
53.6264 6.54006
53.6765 6.56635
53.7264 6.48941
53.7765 6.44957
53.8265 6.49504
53.8766 6.41078
53.9266 6.37974
53.9767 6.36136
54.0267 6.3659
54.0769 6.31792
54.1269 6.26302
54.1771 6.19542
54.2271 6.21095
54.2773 6.17225
54.3274 6.1915
54.3776 6.11042
54.4277 6.06738
54.478 6.04967
54.528 6.04019
54.5783 5.97539
54.6285 5.91996
54.6788 5.87577
54.7289 5.85976
54.7792 5.79222
54.8296 5.72825
54.8798 5.69126
54.9301 5.67448
54.9803 5.63111
55.0307 5.62468
55.0809 5.55846
55.1314 5.52964
55.1816 5.43948
55.232 5.43686
55.2823 5.41421
55.3328 5.33445
55.383 5.26907
55.4335 5.22467
55.4838 5.19668
55.5344 5.12316
55.5847 5.10132
55.6352 5.05505
55.6856 5.04097
55.7361 5.0045