File: XRD/Ni3Fe_FD0738.xy
TT I
1.27165 7.04133
1.31627 6.91259
1.36089 6.58072
1.40551 6.27767
1.45013 5.54754
1.49476 5.33009
1.53938 5.6029
1.584 5.44254
1.62863 4.91124
1.67325 5.11957
1.71787 5.03923
1.7625 4.74997
1.80712 4.70529
1.85174 4.79839
1.89636 4.61229
1.94099 4.54658
1.98562 4.37425
2.03025 5.30266
2.07487 4.31817
2.11949 4.85522
2.16411 4.79805
2.20874 14.035
2.25338 22.2011
2.298 6.11082
2.34263 5.40347
2.38725 6.39531
2.43188 6.37608
2.4765 7.12808
2.52115 7.13196
2.56577 7.79806
2.6104 8.08264
2.65503 8.0452
2.69965 8.12171
2.7443 7.81688
2.78893 8.17406
2.83356 8.53379
2.87818 8.72765
2.92281 9.23753
2.96744 9.73864
3.01209 10.7228
3.05672 11.2582
3.10135 12.1933
3.14599 13.4519
3.19062 14.8748
3.23527 15.0915
3.2799 16.0551
3.32454 17.0667
3.36917 17.9103
3.4138 19.0777
3.45844 19.5767
3.50309 20.95
3.54773 21.8948
3.59237 24.1371
3.637 91.4298
3.68164 57.9715
3.7263 26.752
3.77094 26.3454
3.81558 26.9364
3.86022 27.4985
3.90486 28.5402
3.9495 30.121
3.99416 30.9687
4.0388 32.2295
4.08344 33.5287
4.12809 34.8244
4.17273 36.9845
4.21738 42.8158
4.26204 243.337
4.30669 215.038
4.35133 48.6371
4.39598 44.2553
4.44063 53.851
4.4853 64.8397
4.52995 50.6052
4.5746 50.8829
4.61925 53.1058
4.6639 55.209
4.70855 57.8572
4.75322 60.7719
4.79788 63.6075
4.84253 67.0067
4.88719 71.1721
4.93184 74.3193
4.97652 79.8229
5.02118 86.0167
5.06583 93.326
5.11049 103.788
5.15515 169.144
5.19981 319.854
5.24449 2717.99
5.28916 12732.9
5.33382 2859.98
5.37848 184.174
5.42315 127.806
5.46783 113.079
5.5125 105.439
5.55716 101.349
5.60183 98.3771
5.6465 96.1817
5.69117 93.9496
5.73586 91.5017
5.78053 90.7252
5.8252 89.9272
5.86988 90.8273
5.91455 92.5418
5.95924 99.4624
6.00392 189.742
6.0486 897.185
6.09328 4577.03
6.13795 3230.39
6.18263 238.987
6.22733 91.9501
6.27201 82.3979
6.3167 101.01
6.36138 79.894
6.40606 69.0315
6.45075 67.1245
6.49545 65.2002
6.54014 63.5151
6.58483 62.6669
6.62952 62.696
6.67421 93.524
6.71892 141.419
6.76361 68.645
6.8083 58.2832
6.853 57.3418
6.89769 56.7692
6.94239 56.4046
6.98711 55.5981
7.03181 54.9829
7.07651 55.2727
7.12121 55.0393
7.16591 54.9423
7.21063 55.2963
7.25533 70.2176
7.30004 175.91
7.34475 89.9906
7.38945 56.191
7.43416 54.2969
7.47889 54.3078
7.5236 54.5405
7.56831 54.8898
7.61303 56.6665
7.65774 57.2195
7.70247 56.065
7.74719 55.7283
7.79191 56.3178
7.83663 56.4612
7.88135 57.571
7.92607 58.6232
7.97081 59.4649
8.01553 60.7164
8.06026 61.7962
8.10498 63.4398
8.14971 72.8211
8.19446 72.0704
8.23919 69.1751
8.28392 71.4838
8.32865 73.7403
8.37339 77.7222
8.41812 84.2824
8.46288 111.735
8.50761 154.143
8.55235 366.02
8.59709 1155.04
8.64183 2156.23
8.68658 973.696
8.73134 163.51
8.77609 98.6361
8.82083 92.3107
8.86558 88.5778
8.91033 89.3105
8.9551 91.0205
8.99985 85.3202
9.04461 82.942
9.08936 82.5389
9.13412 81.7126
9.17888 81.5195
9.22365 82.1804
9.26841 81.7378
9.31318 82.0953
9.35794 82.2899
9.4027 82.7982
9.44749 83.4156
9.49226 84.158
9.53703 84.9289
9.5818 86.5633
9.62657 91.6768
9.67134 97.4153
9.71614 93.1582
9.76091 93.6301
9.80569 96.0163
9.85047 99.1821
9.89525 122.922
9.94005 134.089
9.98484 165.406
10.0296 324.089
10.0744 793.612
10.1192 1747.59
10.164 1621.18
10.2088 411.354
10.2536 126.375
10.2984 112.546
10.3432 113.903
10.388 103.565
10.4328 115.228
10.4776 154.357
10.5224 277.571
10.5672 514.24
10.612 510.168
10.6568 208.589
10.7017 96.6566
10.7465 86.2831
10.7913 82.8049
10.8361 80.8298
10.8809 78.2899
10.9257 78.3085
10.9706 78.5096
11.0154 74.5906
11.0602 72.3959
11.105 71.3711
11.1499 75.8019
11.1947 83.0698
11.2395 73.9654
11.2844 70.0522
11.3292 67.0085
11.374 65.9199
11.4189 65.155
11.4637 64.6713
11.5086 65.1367
11.5534 67.7789
11.5983 65.287
11.6431 63.5143
11.688 62.7145
11.7328 62.615
11.7777 62.7334
11.8225 62.2631
11.8674 62.0173
11.9122 62.4023
11.9571 62.6126
12.002 63.1523
12.0468 66.4799
12.0917 76.8035
12.1366 101.055
12.1814 152.182
12.2263 200.964
12.2712 165.265
12.3161 98.882
12.3609 70.3709
12.4058 64.4048
12.4507 64.1583
12.4956 64.4069
12.5405 64.2844
12.5853 65.2539
12.6302 73.1935
12.6751 78.028
12.72 69.512
12.7649 67.6482
12.8098 68.0617
12.8547 69.2242
12.8996 70.6412
12.9445 71.7252
12.9894 73.4917
13.0343 75.1617
13.0792 78.1855
13.1242 85.9825
13.1691 107.846
13.214 144.63
13.2589 235.598
13.3038 370.648
13.3487 416.892
13.3937 265.402
13.4386 126.82
13.4835 103.466
13.5285 116.896
13.5734 154.83
13.6183 247.784
13.6633 351.424
13.7082 336.315
13.7531 185.431
13.7981 97.8998
13.843 81.6789
13.888 79.2494
13.9329 76.7323
13.9779 75.2609
14.0228 73.9254
14.0678 72.5642
14.1127 72.2742
14.1577 72.0568
14.2027 71.0184
14.2476 69.9958
14.2926 70.1918
14.3376 71.1565
14.3825 70.0925
14.4275 68.4494
14.4725 68.6854
14.5175 68.4437
14.5624 68.5851
14.6074 71.0258
14.6524 71.2742
14.6974 69.978
14.7424 71.2254
14.7874 77.0011
14.8324 87.0345
14.8774 108.689
14.9224 152.322
14.9674 206.741
15.0124 215.452
15.0574 149.702
15.1024 91.2359
15.1474 72.196
15.1924 69.956
15.2374 70.7378
15.2824 70.1191
15.3274 67.8917
15.3725 66.4629
15.4175 66.1359
15.4625 65.5867
15.5076 65.8966
15.5526 65.7139
15.5976 65.3531
15.6426 66.1105
15.6877 70.9608
15.7327 78.2437
15.7778 93.4427
15.8228 126.158
15.8679 171.692
15.9129 194.02
15.958 155.988
16.003 97.8774
16.0481 68.2977
16.0931 64.2566
16.1382 62.3723
16.1833 60.3525
16.2283 58.7357
16.2734 57.9863
16.3185 58.4374
16.3636 59.1332
16.4086 57.4414
16.4537 55.9493
16.4988 55.4759
16.5439 55.4253
16.589 55.0172
16.6341 54.6174
16.6792 54.3263
16.7243 54.6042
16.7694 54.6544
16.8145 54.5607
16.8596 54.8786
16.9047 56.363
16.9498 56.7252
16.9949 55.286
17.04 55.4458
17.0851 56.6033
17.1302 58.0288
17.1754 61.1677
17.2205 66.2499
17.2656 74.2508
17.3108 82.8241
17.3559 82.0172
17.401 70.5978
17.4462 62.0485
17.4913 58.8928
17.5365 59.0106
17.5815 59.0323
17.6268 59.1264
17.6718 60.1829
17.7171 60.392
17.7622 60.6795
17.8074 61.4557
17.8525 63.2429
17.8977 67.3653
17.9428 72.6201
17.9881 81.4432
18.0331 99.6719
18.0784 122.019
18.1237 138.407
18.1688 129.822
18.214 103.056
18.2591 86.6422
18.3044 90.4712
18.3495 100.119
18.3948 105.389
18.4399 95.1731
18.4852 77.0917
18.5303 65.596
18.5756 61.8268
18.6207 61.0436
18.666 60.2313
18.7112 59.3734
18.7565 58.7447
18.8016 58.3977
18.8469 57.6721
18.892 57.3831
18.9374 56.967
18.9825 56.8607
19.0278 56.5704
19.073 56.6681
19.1183 57.0992
19.1635 57.8854
19.2088 59.0436
19.254 61.9149
19.2993 66.4119
19.3447 72.2432
19.3898 75.859
19.4352 71.5201
19.4804 63.1052
19.5257 56.6014
19.5709 53.924
19.6163 53.7084
19.6615 53.6048
19.7068 52.9448
19.752 53.0074
19.7974 53.2888
19.8426 54.0766
19.888 54.7741
19.9332 55.7383
19.9786 58.3837
20.0238 62.0897
20.0692 66.9122
20.1144 69.4813
20.1598 67.6343
20.205 63.2394
20.2504 61.8596
20.2957 63.8158
20.3411 65.5834
20.3863 63.4226
20.4318 58.1089
20.477 53.5986
20.5224 51.6059
20.5677 50.8275
20.6131 50.0981
20.6586 49.4389
20.7038 49.3872
20.7493 48.8657
20.7945 48.9813
20.84 48.6963
20.8853 48.6349
20.9307 48.3246
20.976 48.4577
21.0215 48.2489
21.0668 48.7678
21.1122 49.1969
21.1575 49.6556
21.203 50.845
21.2483 51.1813
21.2938 51.1449
21.3391 49.7864
21.3846 48.7231
21.4299 48.1783
21.4754 48.2053
21.5207 48.1163
21.5662 48.4935
21.6116 48.8153
21.6571 49.4604
21.7024 50.4491
21.7479 52.2953
21.7933 55.133
21.8388 58.7397
21.8843 62.3308
21.9297 64.1249
21.9752 63.0068
22.0206 59.3649
22.0661 56.3757
22.1115 55.6726
22.157 55.4897
22.2024 54.0378
22.248 51.2864
22.2933 49.509
22.3389 48.8427
22.3843 48.851
22.4299 48.6631
22.4753 48.6114
22.5208 48.3023
22.5662 48.2823
22.6118 48.3771
22.6572 48.4601
22.7028 48.7287
22.7483 49.4487
22.7939 50.0142
22.8393 51.6757
22.8849 53.8296
22.9303 55.9884
22.9759 57.5428
23.0214 56.8221
23.067 54.3841
23.1126 50.9839
23.1581 49.0945
23.2037 48.5248
23.2492 48.5954
23.2948 48.4199
23.3403 48.761
23.3859 49.35
23.4314 50.4065
23.477 52.2521
23.5225 54.8194
23.5682 56.6741
23.6137 57.6964
23.6593 55.1872
23.7048 51.2862
23.7505 48.1645
23.796 46.4358
23.8417 45.8396
23.8872 45.2923
23.9329 45.0976
23.9784 44.764
24.0241 44.5003
24.0697 44.3794
24.1154 43.9198
24.1609 43.7302
24.2066 43.6046
24.2522 43.4421
24.2979 43.2167
24.3434 43.1494
24.3892 42.8923
24.4349 42.8583
24.4805 42.722
24.5262 42.8993
24.5718 42.7918
24.6175 42.7244
24.6631 42.5353
24.7089 42.2024
24.7545 42.1245
24.8002 42.0632
24.8458 42.0379
24.8916 41.8336
24.9372 42.0419
24.983 42.3255
25.0286 42.6889
25.0744 42.9953
25.12 43.4129
25.1658 44.1526
25.2114 44.408
25.2572 44.6807
25.3029 44.8396
25.3487 44.7453
25.3943 44.4319
25.4402 43.2987
25.4858 42.3648
25.5316 41.2463
25.5773 40.7502
25.6231 40.7632
25.669 40.3249
25.7147 40.3466
25.7605 40.2905
25.8062 40.2912
25.8521 40.381
25.8977 40.2802
25.9436 40.6859
25.9893 40.7075
26.0352 41.3381
26.0809 41.426
26.1268 41.4606
26.1725 41.1112
26.2184 40.6383
26.2641 40.0888
26.31 39.965
26.3557 39.8071
26.4017 39.945
26.4474 40.3559
26.4933 40.5007
26.5391 41.0512
26.585 41.5424
26.6308 41.873
26.6767 41.9316
26.7225 41.7639
26.7684 41.2163
26.8142 40.6294
26.8601 40.1957
26.9059 39.7413
26.9519 39.3059
26.9979 39.0329
27.0437 38.7152
27.0896 38.5021
27.1354 38.4545
27.1814 38.4673
27.2272 38.3054
27.2732 38.3364
27.3191 38.1096
27.3651 38.3086
27.4109 38.2594
27.4569 38.3293
27.5027 38.3023
27.5488 38.3056
27.5946 38.1132
27.6407 37.8916
27.6865 37.8532
27.7326 37.5516
27.7784 37.6357
27.8245 37.5973
27.8703 37.776
27.9164 38.0743
27.9623 38.1299
28.0084 38.5736
28.0543 38.8525
28.1003 38.8681
28.1462 38.7176
28.1923 38.2462
28.2384 37.756
28.2843 37.4442
28.3304 37.0326
28.3764 36.5889
28.4225 36.2251
28.4684 36.163
28.5145 35.8237
28.5605 35.6307
28.6066 35.4235
28.6526 35.463
28.6987 35.4229
28.7447 35.4047
28.7908 35.4117
28.8368 35.2975
28.8829 35.2255
28.9289 35.2158
28.9751 34.9808
29.0211 34.7828
29.0673 34.4843
29.1133 34.3776
29.1595 34.3014
29.2055 34.229
29.2517 34.2606
29.2977 34.1352
29.3439 34.1102
29.3899 34.0209
29.4361 33.986
29.4824 33.7576
29.5284 33.5986
29.5746 33.146
29.6207 32.8807
29.6669 32.9498
29.713 32.8047
29.7593 32.7678
29.8053 32.7725
29.8516 32.5975
29.8977 32.6174
29.9439 32.4914
29.99 32.4433
30.0363 32.1556
30.0824 32.3454
30.1287 32.2635
30.1748 32.1994
30.2211 32.3135
30.2673 32.1409
30.3136 32.1638
30.3597 32.0684
30.406 32.0679
30.4522 31.8366
30.4985 31.871
30.5447 31.9672
30.591 31.9916
30.6372 32.0829
30.6835 32.0459
30.7297 32.0334
30.7761 31.9483
30.8224 31.808
30.8686 31.6592
30.915 31.4936
30.9612 31.3895
31.0076 31.1651
31.0538 30.9643
31.1002 30.9369
31.1464 30.7921
31.1928 30.8153
31.2391 30.8749
31.2855 30.7761
31.3317 30.6452
31.3781 30.7711
31.4244 30.7281
31.4708 30.6222
31.5171 30.6836
31.5636 30.6903
31.6098 30.3483
31.6563 30.2704
31.7026 30.1506
31.7491 29.9584
31.7953 29.9522
31.8418 30.0634
31.8881 30.036
31.9346 29.9263
31.9809 29.9157
32.0275 29.7824
32.074 29.6429
32.1203 29.4134
32.1668 29.4117
32.2132 29.193
32.2597 29.144
32.306 29.0167
32.3526 28.9072
32.399 28.8476
32.4455 28.6596
32.4919 28.4992
32.5385 28.511
32.5848 28.3709
32.6314 28.4221
32.6778 28.2056
32.7244 28.1079
32.7708 28.0608
32.8174 28.0309
32.8638 27.919
32.9104 27.9339
32.9569 27.847
33.0035 27.6612
33.0499 27.6498
33.0966 27.676
33.143 27.6878
33.1897 27.5746
33.2361 27.5078
33.2828 27.3723
33.3293 27.2298
33.3759 27.2748
33.4226 27.0516
33.4691 27.0136
33.5158 26.8997
33.5623 26.7471
33.609 26.71
33.6555 26.6358
33.7022 26.4736
33.7487 26.4136
33.7954 26.4476
33.842 26.1678
33.8887 26.2636
33.9353 26.1868
33.982 26.0085
34.0286 25.995
34.0753 25.8983
34.1219 25.7124
34.1687 25.7881
34.2152 25.6986
34.262 25.5589
34.3086 25.4612
34.3554 25.3862
34.402 25.2584
34.4488 25.1989
34.4954 25.0776
34.5422 25.0744
34.5889 24.9224
34.6357 24.8188
34.6825 24.795
34.7292 24.7695
34.776 24.6229
34.8227 24.5916
34.8695 24.6078
34.9162 24.5088
34.9631 24.3841
35.0098 24.3307
35.0566 24.1889
35.1033 24.2358
35.1502 24.1532
35.1969 24.0956
35.2438 24.0494
35.2906 24.0039
35.3375 23.9071
35.3842 23.8357
35.4311 23.8784
35.4779 23.8462
35.5248 23.7464
35.5716 23.6868
35.6185 23.5607
35.6653 23.5397
35.7123 23.4548
35.759 23.3372
35.806 23.2223
35.8528 23.1349
35.8998 23.06
35.9468 23.0272
35.9936 22.9324
36.0406 22.9037
36.0874 22.8604
36.1345 22.8688
36.1813 22.761
36.2283 22.6759
36.2752 22.4956
36.3222 22.5089
36.3691 22.452
36.4161 22.3953
36.463 22.3574
36.5101 22.3698
36.557 22.2532
36.6041 22.0424
36.651 22.0563
36.6981 22.0064
36.745 21.9891
36.7921 21.8278
36.839 21.7319
36.8861 21.7561
36.9331 21.6639
36.9802 21.6124
37.0272 21.5385
37.0743 21.3849
37.1213 21.3806
37.1684 21.2606
37.2154 21.2435
37.2626 21.2062
37.3098 21.1402
37.3568 21.0518
37.404 21.0083
37.451 20.8967
37.4982 20.9487
37.5452 20.7406
37.5924 20.763
37.6395 20.6576
37.6867 20.5914
37.7337 20.6177
37.781 20.4331
37.8281 20.4015
37.8753 20.373
37.9224 20.2102
37.9697 20.0931
38.0168 20.1109
38.064 20.0942
38.1111 20.0063
38.1584 19.9801
38.2056 19.9144
38.2529 19.7953
38.3 19.7207
38.3473 19.7072
38.3945 19.5605
38.4418 19.5571
38.489 19.494
38.5363 19.3979
38.5837 19.4074
38.6309 19.3145
38.6782 19.3092
38.7254 19.152
38.7728 19.1133
38.82 19.0235
38.8674 19.0912
38.9146 19.0265
38.9621 18.8673
39.0093 18.8658
39.0567 18.8531
39.104 18.7323
39.1514 18.6411
39.1987 18.5741
39.2461 18.5276
39.2934 18.4542
39.3409 18.3536
39.3882 18.3587
39.4356 18.3201
39.483 18.1907
39.5304 18.1712
39.5778 18.1535
39.6253 18.0886
39.6726 17.9879
39.7201 17.9761
39.7675 17.926
39.815 17.8523
39.8624 17.7456
39.9099 17.7262
39.9575 17.6629
40.0049 17.6014
40.0525 17.5358
40.0999 17.507
40.1474 17.4422
40.1949 17.3847
40.2425 17.3102
40.2899 17.2716
40.3375 17.2822
40.385 17.2052
40.4326 17.13
40.48 17.0438
40.5277 16.9844
40.5752 16.9176
40.6228 16.8358
40.6703 16.8021
40.718 16.7964
40.7655 16.7498
40.8132 16.6338
40.8607 16.6709
40.9084 16.6341
40.9559 16.6016
41.0036 16.4813
41.0512 16.4912
41.0989 16.41
41.1465 16.2706
41.1942 16.2996
41.242 16.1711
41.2896 16.1948
41.3373 16.0852
41.3849 16.0636
41.4327 16.0198
41.4803 15.9001
41.5281 15.8476
41.5758 15.7983
41.6236 15.7748
41.6712 15.7083
41.7191 15.6654
41.7667 15.6238
41.8146 15.5838
41.8622 15.5031
41.9101 15.5107
41.9578 15.3765
42.0057 15.3462
42.0534 15.3393
42.1013 15.3023
42.149 15.2155
42.1969 15.2012
42.2446 15.17
42.2925 15.0441
42.3403 14.9796
42.3882 14.9759
42.436 14.8979
42.4839 14.8816
42.5319 14.8066
42.5797 14.7214
42.6277 14.7309
42.6755 14.6624
42.7235 14.6143
42.7713 14.5904
42.8193 14.5028
42.8671 14.456
42.9152 14.3518
42.963 14.3876
43.0111 14.2977
43.0589 14.271
43.107 14.168
43.1549 14.1906
43.2029 14.1228
43.2508 14.1283
43.2989 14.0604
43.3468 13.9187
43.3949 13.8718
43.4429 13.9052
43.491 13.8623
43.5389 13.7947
43.5871 13.7287
43.635 13.7015
43.6832 13.666
43.7312 13.572
43.7793 13.5563
43.8273 13.5024
43.8755 13.4611
43.9237 13.361
43.9717 13.3879
44.0199 13.3097
44.068 13.2956
44.1162 13.1706
44.1642 13.1614
44.2125 13.1482
44.2606 13.0825
44.3088 13.0619
44.3569 12.979
44.4052 12.9738
44.4533 12.8578
44.5016 12.8535
44.5497 12.8701
44.598 12.7763
44.6461 12.6638
44.6945 12.6945
44.7426 12.6748
44.791 12.5723
44.8391 12.5702
44.8875 12.5182
44.9357 12.4707
44.984 12.376
45.0322 12.3457
45.0806 12.2634
45.1288 12.3255
45.1773 12.23
45.2257 12.1975
45.2739 12.1822
45.3224 12.142
45.3706 12.0757
45.4191 12.0411
45.4673 11.9869
45.5158 11.9754
45.5641 11.8684
45.6126 11.882
45.6609 11.7812
45.7094 11.7169
45.7577 11.7256
45.8063 11.6676
45.8546 11.6473
45.9031 11.6232
45.9515 11.5457
46.0001 11.5204
46.0484 11.4743
46.097 11.4514
46.1454 11.4566
46.194 11.3681
46.2424 11.3144
46.291 11.2449
46.3395 11.2493
46.3881 11.1943
46.4365 11.1734
46.4852 11.1308
46.5337 11.049
46.5823 11.0544
46.631 11.0122
46.6795 10.9237
46.7282 10.9136
46.7767 10.8488
46.8254 10.8225
46.8739 10.7766
46.9226 10.7316
46.9712 10.7174
47.0199 10.6705
47.0685 10.6174
47.1173 10.5836
47.1658 10.5963
47.2146 10.496
47.2632 10.4724
47.312 10.464
47.3606 10.3829
47.4095 10.3329
47.4581 10.2916
47.5069 10.2862
47.5556 10.2283
47.6044 10.1952
47.6531 10.1201
47.702 10.0696
47.7507 10.1042
47.7996 10.0503
47.8483 10.0288
47.8972 9.98949
47.9461 9.92317
47.9948 9.90428
48.0438 9.87347
48.0925 9.84573
48.1415 9.77272
48.1902 9.73222
48.2392 9.77092
48.288 9.68308
48.337 9.68303
48.3858 9.62729
48.4348 9.57474
48.4837 9.5852
48.5327 9.53958
48.5815 9.49896
48.6306 9.45227
48.6795 9.45537
48.7285 9.3397
48.7774 9.3621
48.8265 9.34704
48.8754 9.29784
48.9245 9.27014
48.9734 9.2217
49.0226 9.20286
49.0715 9.20093
49.1206 9.10108
49.1696 9.05373
49.2188 9.06553
49.2679 8.99404
49.3169 8.94692
49.3661 8.93629
49.4151 8.89728
49.4643 8.85297
49.5134 8.83689
49.5626 8.78778
49.6117 8.77427
49.6609 8.71918
49.71 8.72261
49.7592 8.66632
49.8083 8.60375
49.8576 8.60625
49.9067 8.54618
49.956 8.50708
50.0052 8.45819
50.0545 8.50165
50.1036 8.43879
50.153 8.41227
50.2022 8.35652
50.2515 8.34356
50.3007 8.29849
50.3501 8.24054
50.3993 8.26163
50.4487 8.21507
50.498 8.18147
50.5474 8.12114
50.5966 8.10185
50.6461 8.07447
50.6955 8.03213
50.7448 8.03673
50.7943 7.98844
50.8436 7.99153
50.8931 7.92535
50.9424 7.91208
50.9919 7.89759
51.0413 7.84385
51.0908 7.78671
51.1402 7.80233
51.1897 7.7311
51.2391 7.71769
51.2887 7.68078
51.3381 7.66777
51.3877 7.66254
51.4371 7.5998
51.4867 7.51359
51.5362 7.5121
51.5858 7.50385
51.6353 7.44061
51.6849 7.43721
51.7344 7.4036
51.7841 7.40359
51.8336 7.32441
51.8833 7.30581
51.9328 7.25657
51.9826 7.24776
52.0323 7.17152
52.0818 7.18985
52.1316 7.1355
52.1812 7.13957
52.231 7.10167
52.2806 7.12142
52.3304 7.0258
52.38 7.03603
52.4298 6.98476
52.4794 6.96108
52.5293 6.89872
52.5789 6.91043
52.6288 6.86315
52.6785 6.8122
52.7284 6.81775
52.7781 6.74999
52.828 6.72489
52.8777 6.71071
52.9276 6.7151
52.9774 6.67493
53.0273 6.68273
53.0771 6.63153
53.1271 6.57407
53.1769 6.51456
53.2269 6.54535
53.2767 6.47503
53.3267 6.50084
53.3765 6.41623
53.4266 6.39571
53.4766 6.37501
53.5265 6.36711
53.5765 6.34657
53.6264 6.32162
53.6765 6.27516
53.7264 6.25239
53.7765 6.26658
53.8265 6.19113
53.8766 6.16595
53.9266 6.14888
53.9767 6.1502
54.0267 6.12593
54.0769 6.02173
54.1269 5.99697
54.1771 5.97574
54.2271 5.97579
54.2773 5.93804
54.3274 5.90257
54.3776 5.86503
54.4277 5.86396
54.478 5.82428
54.528 5.77006
54.5783 5.7336
54.6285 5.69107
54.6788 5.66523
54.7289 5.59208
54.7792 5.56289
54.8296 5.56026
54.8798 5.46597
54.9301 5.44004
54.9803 5.43677
55.0307 5.39826
55.0809 5.36581
55.1314 5.33193
55.1816 5.26528
55.232 5.21909
55.2823 5.18964
55.3328 5.11586
55.383 5.08786
55.4335 5.04612
55.4838 4.97507
55.5344 4.98926
55.5847 4.90192
55.6352 4.8709
55.6856 4.83949
55.7361 4.80292