File: XRD/Ni3Fe_FD0953.xy
TT I
1.27165 7.0539
1.31627 6.7077
1.36089 7.03978
1.40551 5.90566
1.45013 5.7925
1.49476 5.71572
1.53938 6.03939
1.584 5.3676
1.62863 5.50491
1.67325 5.27694
1.71787 4.63059
1.7625 4.50865
1.80712 4.84136
1.85174 4.66586
1.89636 4.74954
1.94099 5.14216
1.98562 4.79026
2.03025 4.6355
2.07487 4.73724
2.11949 5.26564
2.16411 4.84808
2.20874 10.7955
2.25338 15.8669
2.298 5.54219
2.34263 5.52731
2.38725 6.36463
2.43188 6.49139
2.4765 6.99957
2.52115 7.62346
2.56577 8.025
2.6104 8.49132
2.65503 8.44759
2.69965 8.9232
2.7443 8.84534
2.78893 8.24964
2.83356 8.62472
2.87818 9.43805
2.92281 9.0817
2.96744 9.5633
3.01209 11.0952
3.05672 11.2905
3.10135 12.162
3.14599 13.3642
3.19062 14.4944
3.23527 15.4738
3.2799 15.3499
3.32454 16.5686
3.36917 17.6264
3.4138 18.7666
3.45844 19.5736
3.50309 20.3644
3.54773 21.4864
3.59237 23.6571
3.637 66.0013
3.68164 44.8014
3.7263 25.3805
3.77094 25.7035
3.81558 26.4615
3.86022 27.3593
3.90486 28.5375
3.9495 29.619
3.99416 30.7791
4.0388 31.7114
4.08344 33.0493
4.12809 34.2648
4.17273 36.1553
4.21738 40.5982
4.26204 169.563
4.30669 147.773
4.35133 46.5089
4.39598 43.9555
4.44063 50.69
4.4853 57.9938
4.52995 52.7528
4.5746 53.5266
4.61925 53.2406
4.6639 54.5392
4.70855 57.5138
4.75322 60.6491
4.79788 65.3391
4.84253 66.5959
4.88719 71.9255
4.93184 74.994
4.97652 79.4075
5.02118 85.6903
5.06583 92.7181
5.11049 103.469
5.15515 156.377
5.19981 303.313
5.24449 2622.54
5.28916 13430.3
5.33382 2782.43
5.37848 182.163
5.42315 126.048
5.46783 113.962
5.5125 107.17
5.55716 100.481
5.60183 96.6939
5.6465 94.7874
5.69117 93.0439
5.73586 90.9658
5.78053 93.3459
5.8252 93.0769
5.86988 94.2417
5.91455 91.9482
5.95924 98.699
6.00392 189.045
6.0486 867.921
6.09328 4509.98
6.13795 3072.46
6.18263 213.022
6.22733 88.3382
6.27201 79.4764
6.3167 90.0616
6.36138 75.6548
6.40606 67.7599
6.45075 67.8822
6.49545 64.2976
6.54014 62.701
6.58483 61.8753
6.62952 62.1511
6.67421 81.7053
6.71892 109.019
6.76361 64.3056
6.8083 58.215
6.853 57.5861
6.89769 55.9115
6.94239 55.5189
6.98711 54.7904
7.03181 54.8944
7.07651 54.4685
7.12121 54.4824
7.16591 55.3775
7.21063 54.6965
7.25533 64.9937
7.30004 129.926
7.34475 75.8298
7.38945 54.9602
7.43416 53.3572
7.47889 53.4277
7.5236 53.5618
7.56831 54.4504
7.61303 55.5794
7.65774 56.2171
7.70247 55.7509
7.74719 55.5902
7.79191 55.9315
7.83663 55.9083
7.88135 56.8888
7.92607 57.7477
7.97081 59.1099
8.01553 59.741
8.06026 61.4808
8.10498 62.8692
8.14971 70.6001
8.19446 70.3314
8.23919 68.4438
8.28392 70.6381
8.32865 72.9036
8.37339 77.3434
8.41812 82.7911
8.46288 102.732
8.50761 150.413
8.55235 354.464
8.59709 1174.93
8.64183 2194.43
8.68658 926.881
8.73134 156.423
8.77609 96.5144
8.82083 90.7489
8.86558 89.5786
8.91033 89.6357
8.9551 88.7306
8.99985 84.0978
9.04461 82.5241
9.08936 82.3502
9.13412 81.4199
9.17888 80.6724
9.22365 81.5863
9.26841 81.0142
9.31318 82.5833
9.35794 83.4381
9.4027 83.2561
9.44749 83.5349
9.49226 83.1063
9.53703 84.4628
9.5818 87.0055
9.62657 91.6774
9.67134 94.7439
9.71614 91.1954
9.76091 92.8758
9.80569 95.9348
9.85047 99.3517
9.89525 114.431
9.94005 124.071
9.98484 165.575
10.0296 319.192
10.0744 804.076
10.1192 1767.88
10.164 1531.5
10.2088 365.127
10.2536 122.253
10.2984 109.114
10.3432 108.585
10.388 102.646
10.4328 113.906
10.4776 154.124
10.5224 282.026
10.5672 530.806
10.612 491.75
10.6568 188.975
10.7017 93.7191
10.7465 84.9957
10.7913 81.4309
10.8361 79.834
10.8809 77.8
10.9257 76.8761
10.9706 77.2544
11.0154 73.8742
11.0602 71.7619
11.105 70.5229
11.1499 72.7248
11.1947 76.4551
11.2395 70.8241
11.2844 68.2481
11.3292 66.2662
11.374 65.0855
11.4189 64.373
11.4637 63.7098
11.5086 63.824
11.5534 65.6618
11.5983 63.7581
11.6431 62.3787
11.688 61.8185
11.7328 62.0426
11.7777 61.5329
11.8225 61.5433
11.8674 61.4763
11.9122 61.8175
11.9571 61.9013
12.002 62.4809
12.0468 66.0826
12.0917 76.5706
12.1366 100.98
12.1814 156.647
12.2263 202.485
12.2712 157.107
12.3161 91.9701
12.3609 67.2192
12.4058 63.3005
12.4507 63.0716
12.4956 63.4192
12.5405 63.433
12.5853 64.3066
12.6302 69.3603
12.6751 72.6147
12.72 67.6123
12.7649 66.7329
12.8098 67.2461
12.8547 68.3872
12.8996 69.6839
12.9445 71.2239
12.9894 72.9003
13.0343 74.6542
13.0792 77.827
13.1242 86.1697
13.1691 106.692
13.214 143.521
13.2589 241.545
13.3038 383.333
13.3487 419.605
13.3937 246.362
13.4386 119.12
13.4835 101.895
13.5285 115.624
13.5734 155.038
13.6183 255.63
13.6633 361.469
13.7082 323.438
13.7531 178.342
13.7981 94.9512
13.843 80.1566
13.888 78.0281
13.9329 75.6769
13.9779 74.8004
14.0228 73.0353
14.0678 71.6721
14.1127 71.1833
14.1577 70.8947
14.2027 70.0753
14.2476 69.2762
14.2926 69.4591
14.3376 69.5667
14.3825 68.8183
14.4275 67.4803
14.4725 67.7294
14.5175 67.83
14.5624 67.9846
14.6074 69.4233
14.6524 69.483
14.6974 69.2048
14.7424 70.7045
14.7874 76.4986
14.8324 86.1851
14.8774 109.131
14.9224 157.216
14.9674 213.325
15.0124 215.902
15.0574 144.271
15.1024 87.3933
15.1474 71.1101
15.1924 69.1381
15.2374 68.7748
15.2824 68.1837
15.3274 66.7329
15.3725 65.5441
15.4175 65.2788
15.4625 64.9518
15.5076 64.9651
15.5526 64.8596
15.5976 64.6494
15.6426 65.565
15.6877 70.3327
15.7327 77.5608
15.7778 93.2669
15.8228 127.553
15.8679 174.872
15.9129 193.685
15.958 149.414
16.003 92.8924
16.0481 66.5666
16.0931 62.6365
16.1382 60.8901
16.1833 59.5242
16.2283 58.1741
16.2734 57.3876
16.3185 57.32
16.3636 57.4699
16.4086 56.1956
16.4537 55.0428
16.4988 54.4268
16.5439 54.4561
16.589 54.2001
16.6341 53.956
16.6792 53.6887
16.7243 53.8611
16.7694 53.9103
16.8145 53.9905
16.8596 54.2175
16.9047 55.0404
16.9498 55.09
16.9949 54.524
17.04 54.8978
17.0851 55.8814
17.1302 57.3307
17.1754 60.3485
17.2205 65.9732
17.2656 74.9378
17.3108 82.969
17.3559 79.9976
17.401 69.1865
17.4462 60.9019
17.4913 57.97
17.5365 58.241
17.5815 58.206
17.6268 58.5145
17.6718 59.1937
17.7171 59.5231
17.7622 60.1644
17.8074 60.9771
17.8525 63.0217
17.8977 66.8645
17.9428 71.781
17.9881 81.2211
18.0331 100.076
18.0784 123.309
18.1237 136.431
18.1688 125.631
18.214 100.28
18.2591 85.0832
18.3044 90.2609
18.3495 100.692
18.3948 104.324
18.4399 92.7978
18.4852 75.0029
18.5303 64.6157
18.5756 61.3002
18.6207 60.2558
18.666 59.2934
18.7112 58.5537
18.7565 57.845
18.8016 57.7436
18.8469 56.9929
18.892 56.7691
18.9374 56.1449
18.9825 56.0409
19.0278 55.8304
19.073 55.7695
19.1183 56.2946
19.1635 56.9282
19.2088 58.3008
19.254 60.8836
19.2993 65.8186
19.3447 71.3813
19.3898 74.0949
19.4352 69.7096
19.4804 61.683
19.5257 55.5105
19.5709 53.2424
19.6163 52.925
19.6615 52.9153
19.7068 52.4499
19.752 52.2457
19.7974 52.6715
19.8426 53.4782
19.888 53.9041
19.9332 55.2774
19.9786 58.0835
20.0238 61.9452
20.0692 66.9321
20.1144 68.8023
20.1598 66.5401
20.205 62.3638
20.2504 61.7248
20.2957 63.8329
20.3411 64.7889
20.3863 62.5165
20.4318 56.9476
20.477 52.5839
20.5224 50.7479
20.5677 49.952
20.6131 49.3241
20.6586 49.0252
20.7038 48.8213
20.7493 48.2958
20.7945 48.1435
20.84 48.0748
20.8853 48.0007
20.9307 47.6444
20.976 47.9827
21.0215 47.8888
21.0668 48.0982
21.1122 48.5921
21.1575 49.2828
21.203 50.1393
21.2483 50.6963
21.2938 50.5588
21.3391 49.2109
21.3846 48.1928
21.4299 47.7216
21.4754 47.6473
21.5207 47.7441
21.5662 48.1179
21.6116 48.2188
21.6571 49.0705
21.7024 49.947
21.7479 51.7821
21.7933 54.7334
21.8388 58.7717
21.8843 62.2357
21.9297 63.355
21.9752 61.7195
22.0206 58.2115
22.0661 55.6981
22.1115 55.4129
22.157 54.917
22.2024 53.1056
22.248 50.3907
22.2933 49.0003
22.3389 48.3613
22.3843 48.2373
22.4299 47.878
22.4753 48.0112
22.5208 47.8101
22.5662 47.6088
22.6118 47.6986
22.6572 47.9814
22.7028 48.1818
22.7483 48.9087
22.7939 49.5561
22.8393 51.3189
22.8849 53.4291
22.9303 55.6555
22.9759 56.9821
23.0214 56.026
23.067 53.277
23.1126 50.1597
23.1581 48.4458
23.2037 48.022
23.2492 47.9673
23.2948 47.9019
23.3403 48.1665
23.3859 48.8364
23.4314 50.0653
23.477 51.8407
23.5225 54.5623
23.5682 56.537
23.6137 56.8858
23.6593 54.3406
23.7048 50.5022
23.7505 47.2073
23.796 45.8123
23.8417 45.3038
23.8872 44.8178
23.9329 44.4963
23.9784 44.1861
24.0241 43.8872
24.0697 43.7986
24.1154 43.505
24.1609 43.3056
24.2066 43.1712
24.2522 43.0216
24.2979 42.717
24.3434 42.6278
24.3892 42.5508
24.4349 42.3109
24.4805 42.274
24.5262 42.4082
24.5718 42.2986
24.6175 42.1105
24.6631 42.1033
24.7089 41.7837
24.7545 41.6005
24.8002 41.5014
24.8458 41.6108
24.8916 41.3364
24.9372 41.461
24.983 41.7891
25.0286 42.1948
25.0744 42.6745
25.12 42.9364
25.1658 43.7339
25.2114 43.955
25.2572 44.1575
25.3029 44.1536
25.3487 44.2569
25.3943 43.6936
25.4402 42.5833
25.4858 41.6739
25.5316 40.7034
25.5773 40.2307
25.6231 40.2675
25.669 39.9669
25.7147 39.72
25.7605 39.8471
25.8062 39.8684
25.8521 39.9119
25.8977 39.8908
25.9436 40.1998
25.9893 40.3318
26.0352 40.7725
26.0809 40.8657
26.1268 40.8147
26.1725 40.642
26.2184 40.0992
26.2641 39.6506
26.31 39.4025
26.3557 39.5366
26.4017 39.3675
26.4474 39.6169
26.4933 40.069
26.5391 40.5818
26.585 41.0744
26.6308 41.3686
26.6767 41.3753
26.7225 41.2014
26.7684 40.686
26.8142 40.0955
26.8601 39.7787
26.9059 39.3542
26.9519 38.8014
26.9979 38.5455
27.0437 38.2663
27.0896 38.0066
27.1354 38.0276
27.1814 38.0972
27.2272 37.8863
27.2732 37.8904
27.3191 37.7255
27.3651 37.8711
27.4109 37.7878
27.4569 37.8624
27.5027 37.9728
27.5488 37.9991
27.5946 37.7217
27.6407 37.5372
27.6865 37.414
27.7326 37.2536
27.7784 37.2696
27.8245 37.2153
27.8703 37.3676
27.9164 37.6996
27.9623 37.9573
28.0084 37.9963
28.0543 38.5581
28.1003 38.4052
28.1462 38.2739
28.1923 37.9207
28.2384 37.3389
28.2843 37.1583
28.3304 36.6318
28.3764 35.939
28.4225 35.8075
28.4684 35.5637
28.5145 35.2636
28.5605 35.2543
28.6066 35.0343
28.6526 35.1415
28.6987 35.0243
28.7447 34.9041
28.7908 34.8909
28.8368 34.8152
28.8829 34.901
28.9289 34.8207
28.9751 34.4873
29.0211 34.3234
29.0673 34.1087
29.1133 33.9705
29.1595 33.8262
29.2055 33.6662
29.2517 33.7716
29.2977 33.8716
29.3439 33.67
29.3899 33.7382
29.4361 33.6028
29.4824 33.3368
29.5284 33.1798
29.5746 32.8662
29.6207 32.5705
29.6669 32.5177
29.713 32.5067
29.7593 32.2695
29.8053 32.3672
29.8516 32.1455
29.8977 32.2886
29.9439 32.0625
29.99 32.039
30.0363 32.0064
30.0824 32.0237
30.1287 31.9456
30.1748 31.9188
30.2211 31.9068
30.2673 31.7727
30.3136 31.8958
30.3597 31.7363
30.406 31.701
30.4522 31.5782
30.4985 31.5826
30.5447 31.6945
30.591 31.6723
30.6372 31.6617
30.6835 31.6726
30.7297 31.7249
30.7761 31.7138
30.8224 31.4942
30.8686 31.3694
30.915 31.0735
30.9612 30.9434
31.0076 30.8266
31.0538 30.6822
31.1002 30.5444
31.1464 30.5189
31.1928 30.3291
31.2391 30.5067
31.2855 30.3144
31.3317 30.4723
31.3781 30.4184
31.4244 30.487
31.4708 30.3943
31.5171 30.3277
31.5636 30.3213
31.6098 30.0292
31.6563 29.8836
31.7026 29.7404
31.7491 29.6726
31.7953 29.6918
31.8418 29.6756
31.8881 29.7523
31.9346 29.5591
31.9809 29.5207
32.0275 29.4331
32.074 29.3999
32.1203 29.1564
32.1668 29.045
32.2132 28.9372
32.2597 28.737
32.306 28.7113
32.3526 28.4715
32.399 28.5003
32.4455 28.2941
32.4919 28.2193
32.5385 28.2119
32.5848 28.0659
32.6314 28.1274
32.6778 27.9274
32.7244 27.8
32.7708 27.6943
32.8174 27.7551
32.8638 27.5397
32.9104 27.6304
32.9569 27.5762
33.0035 27.3976
33.0499 27.4011
33.0966 27.4043
33.143 27.3524
33.1897 27.2165
33.2361 27.2576
33.2828 27.1904
33.3293 27.0312
33.3759 26.9292
33.4226 26.8625
33.4691 26.6266
33.5158 26.5996
33.5623 26.4777
33.609 26.4028
33.6555 26.312
33.7022 26.2315
33.7487 26.078
33.7954 26.0976
33.842 25.9004
33.8887 25.9399
33.9353 25.8785
33.982 25.759
34.0286 25.5915
34.0753 25.6098
34.1219 25.4826
34.1687 25.4386
34.2152 25.3833
34.262 25.2121
34.3086 25.1646
34.3554 25.0701
34.402 25.0241
34.4488 24.8411
34.4954 24.8334
34.5422 24.738
34.5889 24.6503
34.6357 24.5828
34.6825 24.4666
34.7292 24.4154
34.776 24.314
34.8227 24.2915
34.8695 24.2869
34.9162 24.1815
34.9631 24.1241
35.0098 24.1058
35.0566 24.0313
35.1033 23.8858
35.1502 23.9393
35.1969 23.813
35.2438 23.9045
35.2906 23.6941
35.3375 23.6058
35.3842 23.6445
35.4311 23.665
35.4779 23.6536
35.5248 23.6053
35.5716 23.4088
35.6185 23.3489
35.6653 23.2586
35.7123 23.1994
35.759 23.0184
35.806 22.9173
35.8528 22.927
35.8998 22.914
35.9468 22.6452
35.9936 22.6893
36.0406 22.7047
36.0874 22.6683
36.1345 22.5441
36.1813 22.4614
36.2283 22.4181
36.2752 22.211
36.3222 22.3221
36.3691 22.1938
36.4161 22.1058
36.463 22.0861
36.5101 22.0422
36.557 21.9392
36.6041 21.8556
36.651 21.8689
36.6981 21.7831
36.745 21.6869
36.7921 21.6358
36.839 21.5073
36.8861 21.5295
36.9331 21.427
36.9802 21.3108
37.0272 21.2546
37.0743 21.1257
37.1213 21.0816
37.1684 21.1159
37.2154 21.0024
37.2626 20.9028
37.3098 20.9507
37.3568 20.784
37.404 20.7908
37.451 20.659
37.4982 20.6095
37.5452 20.5197
37.5924 20.3516
37.6395 20.4774
37.6867 20.4196
37.7337 20.2809
37.781 20.1865
37.8281 20.138
37.8753 20.0262
37.9224 20.0269
37.9697 19.9552
38.0168 19.8526
38.064 19.83
38.1111 19.7808
38.1584 19.6698
38.2056 19.5859
38.2529 19.5793
38.3 19.4405
38.3473 19.5192
38.3945 19.3684
38.4418 19.3186
38.489 19.3584
38.5363 19.1945
38.5837 19.1884
38.6309 19.0757
38.6782 18.9982
38.7254 18.9493
38.7728 18.9458
38.82 18.8277
38.8674 18.8067
38.9146 18.7522
38.9621 18.6617
39.0093 18.565
39.0567 18.6222
39.104 18.4876
39.1514 18.4394
39.1987 18.4069
39.2461 18.3333
39.2934 18.2487
39.3409 18.1551
39.3882 18.1087
39.4356 18.0738
39.483 18.0155
39.5304 17.9888
39.5778 17.9825
39.6253 17.8211
39.6726 17.8523
39.7201 17.8059
39.7675 17.7107
39.815 17.6253
39.8624 17.5804
39.9099 17.5202
39.9575 17.4781
40.0049 17.3617
40.0525 17.3436
40.0999 17.2899
40.1474 17.2828
40.1949 17.2671
40.2425 17.1116
40.2899 17.139
40.3375 17.0287
40.385 16.986
40.4326 16.9047
40.48 16.8966
40.5277 16.8411
40.5752 16.7383
40.6228 16.6712
40.6703 16.6488
40.718 16.5937
40.7655 16.5776
40.8132 16.4916
40.8607 16.5123
40.9084 16.4257
40.9559 16.3363
41.0036 16.3119
41.0512 16.2441
41.0989 16.1654
41.1465 16.2026
41.1942 16.0781
41.242 15.952
41.2896 15.9316
41.3373 15.9053
41.3849 15.8845
41.4327 15.7881
41.4803 15.7322
41.5281 15.6924
41.5758 15.6545
41.6236 15.5787
41.6712 15.557
41.7191 15.4404
41.7667 15.3975
41.8146 15.3904
41.8622 15.3366
41.9101 15.3219
41.9578 15.1641
42.0057 15.1526
42.0534 15.1407
42.1013 15.0868
42.149 15.0427
42.1969 14.9835
42.2446 14.8674
42.2925 14.967
42.3403 14.8508
42.3882 14.8103
42.436 14.8047
42.4839 14.6259
42.5319 14.6597
42.5797 14.5818
42.6277 14.4948
42.6755 14.5073
42.7235 14.4154
42.7713 14.4277
42.8193 14.3808
42.8671 14.2656
42.9152 14.2592
42.963 14.2228
43.0111 14.1361
43.0589 14.077
43.107 14.0634
43.1549 13.9927
43.2029 13.9363
43.2508 13.9308
43.2989 13.8567
43.3468 13.7688
43.3949 13.8087
43.4429 13.6993
43.491 13.7102
43.5389 13.5802
43.5871 13.5782
43.635 13.5346
43.6832 13.4921
43.7312 13.4507
43.7793 13.379
43.8273 13.3193
43.8755 13.2992
43.9237 13.248
43.9717 13.1874
44.0199 13.1323
44.068 13.0917
44.1162 13.0365
44.1642 13.0649
44.2125 13.0499
44.2606 12.9633
44.3088 12.9054
44.3569 12.8487
44.4052 12.8099
44.4533 12.7436
44.5016 12.6836
44.5497 12.6604
44.598 12.6124
44.6461 12.5612
44.6945 12.4844
44.7426 12.4835
44.791 12.3956
44.8391 12.4249
44.8875 12.3805
44.9357 12.2901
44.984 12.2752
45.0322 12.262
45.0806 12.1678
45.1288 12.1087
45.1773 12.1317
45.2257 12.0473
45.2739 11.9949
45.3224 11.9545
45.3706 11.9694
45.4191 11.8519
45.4673 11.8561
45.5158 11.7946
45.5641 11.735
45.6126 11.7381
45.6609 11.6871
45.7094 11.6564
45.7577 11.6284
45.8063 11.4768
45.8546 11.5084
45.9031 11.4808
45.9515 11.4097
46.0001 11.398
46.0484 11.3522
46.097 11.2916
46.1454 11.2777
46.194 11.2485
46.2424 11.1966
46.291 11.1216
46.3395 11.1113
46.3881 11.0581
46.4365 11.0766
46.4852 10.9922
46.5337 10.9276
46.5823 10.9162
46.631 10.8609
46.6795 10.8371
46.7282 10.7739
46.7767 10.7425
46.8254 10.7128
46.8739 10.6371
46.9226 10.6088
46.9712 10.6048
47.0199 10.5448
47.0685 10.525
47.1173 10.4496
47.1658 10.4056
47.2146 10.4059
47.2632 10.3437
47.312 10.3307
47.3606 10.2651
47.4095 10.2057
47.4581 10.1596
47.5069 10.1491
47.5556 10.109
47.6044 10.0761
47.6531 10.0296
47.702 10.0175
47.7507 9.93835
47.7996 9.90961
47.8483 9.91745
47.8972 9.86761
47.9461 9.83578
47.9948 9.77049
48.0438 9.80465
48.0925 9.71907
48.1415 9.65689
48.1902 9.63453
48.2392 9.66015
48.288 9.56869
48.337 9.56513
48.3858 9.54313
48.4348 9.50539
48.4837 9.44254
48.5327 9.44032
48.5815 9.35416
48.6306 9.36111
48.6795 9.27599
48.7285 9.28293
48.7774 9.26224
48.8265 9.22817
48.8754 9.17312
48.9245 9.14208
48.9734 9.07644
49.0226 9.11956
49.0715 9.04172
49.1206 8.95949
49.1696 8.93813
49.2188 8.95977
49.2679 8.88008
49.3169 8.85038
49.3661 8.81185
49.4151 8.76041
49.4643 8.75691
49.5134 8.73666
49.5626 8.69673
49.6117 8.65511
49.6609 8.61451
49.71 8.54177
49.7592 8.52977
49.8083 8.49139
49.8576 8.52091
49.9067 8.4901
49.956 8.43289
50.0052 8.40651
50.0545 8.37517
50.1036 8.35374
50.153 8.30539
50.2022 8.25336
50.2515 8.2458
50.3007 8.19707
50.3501 8.16236
50.3993 8.13427
50.4487 8.11509
50.498 8.09449
50.5474 8.05268
50.5966 7.98925
50.6461 7.94728
50.6955 7.90525
50.7448 7.93052
50.7943 7.92327
50.8436 7.87616
50.8931 7.80537
50.9424 7.80938
50.9919 7.75646
51.0413 7.77564
51.0908 7.72187
51.1402 7.69061
51.1897 7.6465
51.2391 7.64061
51.2887 7.58733
51.3381 7.5574
51.3877 7.52178
51.4371 7.44431
51.4867 7.45406
51.5362 7.4532
51.5858 7.44711
51.6353 7.37641
51.6849 7.32234
51.7344 7.33019
51.7841 7.32929
51.8336 7.25913
51.8833 7.22631
51.9328 7.19328
51.9826 7.1741
52.0323 7.12935
52.0818 7.08295
52.1316 7.05376
52.1812 7.05228
52.231 7.01467
52.2806 6.95407
52.3304 6.92044
52.38 6.90258
52.4298 6.8881
52.4794 6.87926
52.5293 6.80742
52.5789 6.81591
52.6288 6.8092
52.6785 6.7401
52.7284 6.73305
52.7781 6.6963
52.828 6.68478
52.8777 6.62839
52.9276 6.62211
52.9774 6.58672
53.0273 6.55791
53.0771 6.5355
53.1271 6.49882
53.1769 6.43041
53.2269 6.46249
53.2767 6.42826
53.3267 6.39552
53.3765 6.34638
53.4266 6.35806
53.4766 6.32646
53.5265 6.27466
53.5765 6.25966
53.6264 6.22935
53.6765 6.19954
53.7264 6.12504
53.7765 6.1672
53.8265 6.1245
53.8766 6.10718
53.9266 6.0685
53.9767 6.06906
54.0267 6.0063
54.0769 5.98662
54.1269 5.96938
54.1771 5.95863
54.2271 5.86832
54.2773 5.85171
54.3274 5.86623
54.3776 5.80088
54.4277 5.77991
54.478 5.7275
54.528 5.74853
54.5783 5.67642
54.6285 5.67069
54.6788 5.62072
54.7289 5.55278
54.7792 5.50646
54.8296 5.5041
54.8798 5.40631
54.9301 5.36704
54.9803 5.32821
55.0307 5.35651
55.0809 5.31462
55.1314 5.28988
55.1816 5.18464
55.232 5.10171
55.2823 5.11936
55.3328 5.08862
55.383 4.98566
55.4335 4.95956
55.4838 4.91686
55.5344 4.89004
55.5847 4.79094
55.6352 4.80503
55.6856 4.76824
55.7361 4.72777