File: XRD/Ni3Fe_FD0820.xy
TT I
1.27165 7.12184
1.31627 6.68096
1.36089 6.93682
1.40551 6.41025
1.45013 6.14853
1.49476 5.86884
1.53938 5.54589
1.584 5.59361
1.62863 5.43941
1.67325 4.8047
1.71787 5.04877
1.7625 5.06707
1.80712 4.69105
1.85174 4.64556
1.89636 4.47425
1.94099 4.64204
1.98562 4.69056
2.03025 4.98576
2.07487 4.67387
2.11949 4.76132
2.16411 4.94384
2.20874 8.08696
2.25338 10.7917
2.298 5.7427
2.34263 5.07765
2.38725 6.29332
2.43188 5.86375
2.4765 7.12398
2.52115 7.43649
2.56577 7.02912
2.6104 8.28982
2.65503 8.29964
2.69965 8.52334
2.7443 8.5036
2.78893 8.17676
2.83356 8.64517
2.87818 8.8291
2.92281 8.44121
2.96744 9.7542
3.01209 10.4347
3.05672 11.0802
3.10135 12.3321
3.14599 13.323
3.19062 14.3015
3.23527 14.9102
3.2799 15.5599
3.32454 16.4619
3.36917 17.1488
3.4138 19.1393
3.45844 19.4131
3.50309 20.4169
3.54773 21.3365
3.59237 23.2607
3.637 47.2127
3.68164 35.5757
3.7263 25.1098
3.77094 25.462
3.81558 26.8859
3.86022 26.9266
3.90486 28.0583
3.9495 29.3036
3.99416 30.5698
4.0388 31.8567
4.08344 33.0099
4.12809 33.9072
4.17273 35.3326
4.21738 38.9005
4.26204 114.351
4.30669 101.194
4.35133 43.9533
4.39598 43.0885
4.44063 47.8416
4.4853 52.7937
4.52995 57.0983
4.5746 57.7258
4.61925 52.9949
4.6639 55.1122
4.70855 58.1526
4.75322 61.2842
4.79788 68.761
4.84253 68.5091
4.88719 75.3576
4.93184 76.6426
4.97652 80.6875
5.02118 86.5231
5.06583 94.1861
5.11049 105.88
5.15515 156.169
5.19981 400.98
5.24449 2871.92
5.28916 12384.1
5.33382 2463.54
5.37848 192.43
5.42315 129.708
5.46783 120.015
5.5125 112.661
5.55716 101.586
5.60183 97.2563
5.6465 95.9962
5.69117 93.626
5.73586 92.3351
5.78053 98.5715
5.8252 98.5044
5.86988 101.21
5.91455 94.919
5.95924 104.011
6.00392 240.598
6.0486 964.485
6.09328 4578.61
6.13795 3025.69
6.18263 206.752
6.22733 89.1442
6.27201 79.4616
6.3167 83.1326
6.36138 73.3998
6.40606 69.4908
6.45075 69.6494
6.49545 65.0073
6.54014 63.1708
6.58483 62.0791
6.62952 62.4396
6.67421 71.9421
6.71892 86.7332
6.76361 61.2519
6.8083 59.2343
6.853 59.8484
6.89769 56.4567
6.94239 55.4095
6.98711 55.3446
7.03181 55.1171
7.07651 54.3437
7.12121 54.3175
7.16591 55.9173
7.21063 55.2358
7.25533 59.5421
7.30004 95.2098
7.34475 66.2627
7.38945 54.2665
7.43416 53.2685
7.47889 53.1238
7.5236 53.8348
7.56831 54.1945
7.61303 54.9534
7.65774 55.4803
7.70247 56.7212
7.74719 56.0739
7.79191 55.9227
7.83663 56.3936
7.88135 57.3252
7.92607 58.0601
7.97081 59.3295
8.01553 60.45
8.06026 62.5707
8.10498 63.4745
8.14971 70.3454
8.19446 70.6572
8.23919 68.7882
8.28392 71.0989
8.32865 73.768
8.37339 77.8353
8.41812 83.0385
8.46288 101.531
8.50761 177.481
8.55235 382.601
8.59709 1224.71
8.64183 2221.59
8.68658 837.415
8.73134 147.092
8.77609 96.5463
8.82083 91.8121
8.86558 92.4111
8.91033 91.6404
8.9551 88.7838
8.99985 84.4377
9.04461 83.8556
9.08936 83.7022
9.13412 82.4412
9.17888 81.6502
9.22365 81.3103
9.26841 81.3517
9.31318 84.4257
9.35794 86.1958
9.4027 85.5507
9.44749 85.0739
9.49226 84.42
9.53703 85.2331
9.5818 89.2023
9.62657 94.4457
9.67134 94.981
9.71614 92.1535
9.76091 94.8426
9.80569 99.1304
9.85047 101.099
9.89525 111.195
9.94005 126.661
9.98484 190.455
10.0296 344.333
10.0744 838.296
10.1192 1828.03
10.164 1504.85
10.2088 349.002
10.2536 120.451
10.2984 108.32
10.3432 107.261
10.388 104.792
10.4328 121.538
10.4776 162.539
10.5224 296.038
10.5672 539.032
10.612 491.708
10.6568 184.275
10.7017 93.7813
10.7465 85.4673
10.7913 82.3083
10.8361 80.3015
10.8809 78.3529
10.9257 77.3505
10.9706 77.447
11.0154 74.7943
11.0602 72.2325
11.105 70.981
11.1499 71.3245
11.1947 73.2613
11.2395 69.5484
11.2844 67.7302
11.3292 66.4781
11.374 65.2686
11.4189 64.9398
11.4637 64.2449
11.5086 63.9686
11.5534 64.6275
11.5983 63.6999
11.6431 62.711
11.688 61.9884
11.7328 62.2055
11.7777 62.0249
11.8225 62.1997
11.8674 61.8034
11.9122 62.3453
11.9571 62.4945
12.002 63.8256
12.0468 68.1791
12.0917 78.0525
12.1366 103.538
12.1814 160.81
12.2263 216.162
12.2712 163.037
12.3161 86.6991
12.3609 65.8889
12.4058 63.4129
12.4507 63.9131
12.4956 64.1363
12.5405 64.5673
12.5853 64.6607
12.6302 67.3031
12.6751 69.6136
12.72 67.177
12.7649 66.9897
12.8098 67.7704
12.8547 69.451
12.8996 70.8629
12.9445 72.648
12.9894 74.05
13.0343 75.4572
13.0792 80.0953
13.1242 92.0069
13.1691 111.476
13.214 149.472
13.2589 249.071
13.3038 393.347
13.3487 412.577
13.3937 233.797
13.4386 117.561
13.4835 106.083
13.5285 120.066
13.5734 161.8
13.6183 258.988
13.6633 366.792
13.7082 327.91
13.7531 169.634
13.7981 93.3029
13.843 80.8356
13.888 78.9716
13.9329 76.7148
13.9779 75.2162
14.0228 73.5549
14.0678 72.2576
14.1127 71.9281
14.1577 71.3181
14.2027 70.6856
14.2476 69.563
14.2926 69.0628
14.3376 69.5916
14.3825 69.0182
14.4275 68.3656
14.4725 67.9817
14.5175 68.2211
14.5624 68.272
14.6074 69.0494
14.6524 69.6957
14.6974 70.271
14.7424 73.4717
14.7874 79.2648
14.8324 88.6394
14.8774 111.866
14.9224 160.217
14.9674 218.619
15.0124 219.656
15.0574 140.142
15.1024 85.5317
15.1474 71.3264
15.1924 69.5052
15.2374 68.9731
15.2824 68.0016
15.3274 66.6611
15.3725 66.2002
15.4175 65.6762
15.4625 65.5271
15.5076 65.1213
15.5526 65.2477
15.5976 65.4539
15.6426 67.7203
15.6877 72.3922
15.7327 79.7222
15.7778 95.5532
15.8228 130.082
15.8679 177.803
15.9129 196.899
15.958 146.714
16.003 88.8243
16.0481 65.766
16.0931 62.2575
16.1382 60.6523
16.1833 59.7243
16.2283 58.3161
16.2734 57.4396
16.3185 57.3553
16.3636 56.9633
16.4086 56.1002
16.4537 55.5102
16.4988 54.9729
16.5439 54.8273
16.589 54.4453
16.6341 54.0735
16.6792 53.7
16.7243 54.2061
16.7694 54.1297
16.8145 54.0296
16.8596 54.2999
16.9047 54.9736
16.9498 55.123
16.9949 54.9044
17.04 55.5363
17.0851 56.6443
17.1302 58.1538
17.1754 61.3286
17.2205 66.9462
17.2656 75.269
17.3108 83.8297
17.3559 80.6207
17.401 68.5887
17.4462 60.5361
17.4913 58.7121
17.5365 58.4773
17.5815 58.6892
17.6268 59.078
17.6718 59.5841
17.7171 59.9782
17.7622 60.8573
17.8074 62.0239
17.8525 64.9275
17.8977 67.7699
17.9428 73.2112
17.9881 83.0298
18.0331 102.063
18.0784 125.894
18.1237 141.724
18.1688 126.82
18.214 98.7409
18.2591 84.8801
18.3044 91.1572
18.3495 102.166
18.3948 105.201
18.4399 91.9268
18.4852 73.9574
18.5303 64.153
18.5756 61.3157
18.6207 60.4206
18.666 59.6233
18.7112 58.9823
18.7565 58.3364
18.8016 57.8556
18.8469 57.5944
18.892 56.9696
18.9374 56.5578
18.9825 56.3034
19.0278 56.1686
19.073 56.3539
19.1183 56.6302
19.1635 57.0601
19.2088 58.7052
19.254 61.8243
19.2993 66.7927
19.3447 72.6168
19.3898 75.6257
19.4352 69.8308
19.4804 60.8616
19.5257 55.3792
19.5709 53.4395
19.6163 53.2371
19.6615 53.2774
19.7068 52.8576
19.752 52.8743
19.7974 53.2604
19.8426 53.6112
19.888 54.3662
19.9332 55.7345
19.9786 58.6958
20.0238 62.7778
20.0692 67.928
20.1144 69.7007
20.1598 67.0039
20.205 62.2018
20.2504 61.8614
20.2957 63.9942
20.3411 65.4199
20.3863 62.5846
20.4318 56.8442
20.477 52.4465
20.5224 50.5663
20.5677 50.1025
20.6131 49.7273
20.6586 49.0732
20.7038 49.0156
20.7493 48.5564
20.7945 48.5064
20.84 48.2483
20.8853 48.3181
20.9307 47.9895
20.976 48.2965
21.0215 48.0309
21.0668 48.501
21.1122 48.8972
21.1575 49.7592
21.203 50.4644
21.2483 51.1625
21.2938 50.9057
21.3391 49.3931
21.3846 48.2463
21.4299 47.9727
21.4754 47.7929
21.5207 47.9906
21.5662 48.5678
21.6116 48.9342
21.6571 49.3948
21.7024 50.5615
21.7479 52.3702
21.7933 55.387
21.8388 59.1243
21.8843 62.8981
21.9297 64.0733
21.9752 61.7468
22.0206 57.9945
22.0661 55.8629
22.1115 55.7545
22.157 55.1743
22.2024 53.1981
22.248 50.5024
22.2933 49.0577
22.3389 48.4006
22.3843 48.2352
22.4299 48.0423
22.4753 48.2211
22.5208 47.9454
22.5662 48.039
22.6118 48.3126
22.6572 48.4914
22.7028 48.7373
22.7483 49.2207
22.7939 50.0992
22.8393 51.8347
22.8849 53.9029
22.9303 56.194
22.9759 57.402
23.0214 56.3744
23.067 53.4218
23.1126 50.3363
23.1581 48.6765
23.2037 48.2584
23.2492 48.3581
23.2948 48.4229
23.3403 48.7666
23.3859 49.4244
23.4314 50.5413
23.477 52.5534
23.5225 54.9226
23.5682 56.9627
23.6137 57.4617
23.6593 54.4659
23.7048 50.2911
23.7505 47.2747
23.796 45.9163
23.8417 45.5502
23.8872 45.0009
23.9329 44.728
23.9784 44.3433
24.0241 44.1692
24.0697 43.894
24.1154 43.4111
24.1609 43.3401
24.2066 43.1101
24.2522 43.2853
24.2979 43.0755
24.3434 42.7361
24.3892 42.6906
24.4349 42.7158
24.4805 42.5359
24.5262 42.8115
24.5718 42.5943
24.6175 42.4089
24.6631 42.2557
24.7089 42.039
24.7545 42.0058
24.8002 41.7678
24.8458 41.7959
24.8916 41.4596
24.9372 41.8521
24.983 42.0885
25.0286 42.4932
25.0744 42.8855
25.12 43.4037
25.1658 44.0826
25.2114 44.2643
25.2572 44.3137
25.3029 44.4007
25.3487 44.5172
25.3943 44.0821
25.4402 42.7971
25.4858 41.7405
25.5316 40.8556
25.5773 40.3882
25.6231 40.4202
25.669 40.0386
25.7147 40.0829
25.7605 39.9561
25.8062 40.0927
25.8521 40.1065
25.8977 40.1548
25.9436 40.2909
25.9893 40.6045
26.0352 41.1136
26.0809 41.2202
26.1268 41.3648
26.1725 40.8411
26.2184 40.0846
26.2641 39.8055
26.31 39.6089
26.3557 39.8502
26.4017 39.735
26.4474 40.0478
26.4933 40.407
26.5391 40.8836
26.585 41.4724
26.6308 41.7907
26.6767 41.8944
26.7225 41.436
26.7684 40.8824
26.8142 40.4306
26.8601 39.9252
26.9059 39.6708
26.9519 39.0552
26.9979 38.7737
27.0437 38.4724
27.0896 38.3642
27.1354 38.2716
27.1814 38.2565
27.2272 38.2044
27.2732 38.1147
27.3191 37.9313
27.3651 38.0471
27.4109 38.039
27.4569 38.074
27.5027 38.1597
27.5488 38.2177
27.5946 37.9611
27.6407 37.8262
27.6865 37.5562
27.7326 37.4495
27.7784 37.5079
27.8245 37.3912
27.8703 37.4735
27.9164 37.8418
27.9623 38.1812
28.0084 38.3238
28.0543 38.8537
28.1003 38.8006
28.1462 38.3982
28.1923 37.9478
28.2384 37.4238
28.2843 37.2163
28.3304 36.6181
28.3764 36.2299
28.4225 35.9777
28.4684 35.7411
28.5145 35.5808
28.5605 35.5354
28.6066 35.3104
28.6526 35.1974
28.6987 35.2524
28.7447 35.0972
28.7908 35.0232
28.8368 35.0808
28.8829 35.0819
28.9289 34.8672
28.9751 34.8586
29.0211 34.578
29.0673 34.2214
29.1133 34.2141
29.1595 34.0597
29.2055 33.9549
29.2517 34.0314
29.2977 33.9693
29.3439 33.8787
29.3899 33.8964
29.4361 33.7522
29.4824 33.5958
29.5284 33.3605
29.5746 33.0217
29.6207 32.7673
29.6669 32.6886
29.713 32.6079
29.7593 32.5235
29.8053 32.5341
29.8516 32.4533
29.8977 32.379
29.9439 32.198
29.99 32.1082
30.0363 32.266
30.0824 32.1304
30.1287 31.9808
30.1748 31.99
30.2211 32.1762
30.2673 31.9867
30.3136 32.0118
30.3597 31.8642
30.406 31.84
30.4522 31.7194
30.4985 31.6775
30.5447 31.7779
30.591 31.8744
30.6372 31.9493
30.6835 31.93
30.7297 31.9056
30.7761 31.8124
30.8224 31.6413
30.8686 31.487
30.915 31.1762
30.9612 31.1173
31.0076 30.9712
31.0538 30.8582
31.1002 30.7897
31.1464 30.6348
31.1928 30.6681
31.2391 30.671
31.2855 30.4958
31.3317 30.4253
31.3781 30.4959
31.4244 30.5645
31.4708 30.5275
31.5171 30.5237
31.5636 30.4291
31.6098 30.1599
31.6563 29.981
31.7026 29.8811
31.7491 29.7885
31.7953 29.9053
31.8418 29.9156
31.8881 29.8649
31.9346 29.7965
31.9809 29.7803
32.0275 29.6234
32.074 29.4325
32.1203 29.2818
32.1668 29.2452
32.2132 28.9973
32.2597 28.979
32.306 28.8986
32.3526 28.6173
32.399 28.6428
32.4455 28.4834
32.4919 28.4615
32.5385 28.3242
32.5848 28.2732
32.6314 28.1663
32.6778 28.1534
32.7244 28.0217
32.7708 27.8226
32.8174 27.8221
32.8638 27.8105
32.9104 27.8161
32.9569 27.7533
33.0035 27.5936
33.0499 27.5769
33.0966 27.5206
33.143 27.6737
33.1897 27.3487
33.2361 27.2915
33.2828 27.2396
33.3293 27.1152
33.3759 27.075
33.4226 26.9753
33.4691 26.8425
33.5158 26.6842
33.5623 26.5813
33.609 26.3897
33.6555 26.4274
33.7022 26.227
33.7487 26.2318
33.7954 26.157
33.842 26.1125
33.8887 25.9894
33.9353 25.9722
33.982 25.8496
34.0286 25.7964
34.0753 25.6239
34.1219 25.6774
34.1687 25.5802
34.2152 25.5385
34.262 25.4241
34.3086 25.2449
34.3554 25.3323
34.402 25.0671
34.4488 25.0146
34.4954 24.9382
34.5422 24.8563
34.5889 24.825
34.6357 24.7118
34.6825 24.6506
34.7292 24.5925
34.776 24.462
34.8227 24.4063
34.8695 24.4237
34.9162 24.2577
34.9631 24.2688
35.0098 24.3025
35.0566 24.0523
35.1033 24.0304
35.1502 23.9996
35.1969 23.9685
35.2438 23.8877
35.2906 23.8256
35.3375 23.7531
35.3842 23.6858
35.4311 23.7311
35.4779 23.6855
35.5248 23.5924
35.5716 23.5481
35.6185 23.4399
35.6653 23.3248
35.7123 23.2955
35.759 23.3093
35.806 23.0527
35.8528 22.9755
35.8998 22.9746
35.9468 22.9117
35.9936 22.8479
36.0406 22.7855
36.0874 22.7499
36.1345 22.6955
36.1813 22.558
36.2283 22.4726
36.2752 22.442
36.3222 22.3902
36.3691 22.2963
36.4161 22.2331
36.463 22.2335
36.5101 22.1593
36.557 22.1127
36.6041 21.9565
36.651 21.9158
36.6981 21.828
36.745 21.7578
36.7921 21.7905
36.839 21.6696
36.8861 21.609
36.9331 21.5289
36.9802 21.4357
37.0272 21.3888
37.0743 21.2663
37.1213 21.2159
37.1684 21.1986
37.2154 21.0848
37.2626 21.0621
37.3098 20.9442
37.3568 20.8765
37.404 20.9525
37.451 20.764
37.4982 20.6529
37.5452 20.5667
37.5924 20.5561
37.6395 20.6227
37.6867 20.5504
37.7337 20.3895
37.781 20.2926
37.8281 20.2649
37.8753 20.1283
37.9224 20.1608
37.9697 20.0146
38.0168 19.9148
38.064 19.9632
38.1111 19.8548
38.1584 19.7782
38.2056 19.7713
38.2529 19.6521
38.3 19.6463
38.3473 19.5887
38.3945 19.407
38.4418 19.4269
38.489 19.346
38.5363 19.3703
38.5837 19.165
38.6309 19.227
38.6782 19.0754
38.7254 19.0042
38.7728 18.9742
38.82 18.8645
38.8674 18.9469
38.9146 18.8315
38.9621 18.7583
39.0093 18.754
39.0567 18.6265
39.104 18.5855
39.1514 18.4659
39.1987 18.4769
39.2461 18.3954
39.2934 18.3549
39.3409 18.2735
39.3882 18.2521
39.4356 18.131
39.483 18.1628
39.5304 18.0057
39.5778 18.0207
39.6253 17.9541
39.6726 17.9036
39.7201 17.8557
39.7675 17.8558
39.815 17.726
39.8624 17.6276
39.9099 17.7024
39.9575 17.5733
40.0049 17.5763
40.0525 17.3874
40.0999 17.3962
40.1474 17.311
40.1949 17.3049
40.2425 17.2019
40.2899 17.171
40.3375 17.1247
40.385 17.019
40.4326 17.0136
40.48 16.9387
40.5277 16.941
40.5752 16.8139
40.6228 16.6932
40.6703 16.776
40.718 16.6842
40.7655 16.6183
40.8132 16.6083
40.8607 16.5293
40.9084 16.4637
40.9559 16.3729
41.0036 16.3569
41.0512 16.3614
41.0989 16.257
41.1465 16.224
41.1942 16.1091
41.242 16.0848
41.2896 16.0103
41.3373 15.968
41.3849 15.9171
41.4327 15.8846
41.4803 15.7637
41.5281 15.7491
41.5758 15.7591
41.6236 15.6292
41.6712 15.6229
41.7191 15.5239
41.7667 15.502
41.8146 15.4881
41.8622 15.4004
41.9101 15.3662
41.9578 15.2354
42.0057 15.2989
42.0534 15.1619
42.1013 15.1838
42.149 15.112
42.1969 15.0446
42.2446 14.99
42.2925 14.971
42.3403 14.8595
42.3882 14.8406
42.436 14.8369
42.4839 14.7428
42.5319 14.6767
42.5797 14.6888
42.6277 14.6289
42.6755 14.5974
42.7235 14.4028
42.7713 14.5055
42.8193 14.3915
42.8671 14.3752
42.9152 14.3558
42.963 14.2941
43.0111 14.1946
43.0589 14.1827
43.107 14.1395
43.1549 14.0722
43.2029 13.9992
43.2508 13.9275
43.2989 13.9205
43.3468 13.8858
43.3949 13.8645
43.4429 13.7786
43.491 13.7237
43.5389 13.6781
43.5871 13.666
43.635 13.5896
43.6832 13.558
43.7312 13.5026
43.7793 13.4628
43.8273 13.3931
43.8755 13.2908
43.9237 13.3469
43.9717 13.3563
44.0199 13.1898
44.068 13.206
44.1162 13.0988
44.1642 13.081
44.2125 13.0009
44.2606 12.9696
44.3088 12.9401
44.3569 12.9274
44.4052 12.8503
44.4533 12.7935
44.5016 12.751
44.5497 12.6784
44.598 12.7067
44.6461 12.6029
44.6945 12.6045
44.7426 12.5501
44.791 12.4723
44.8391 12.4695
44.8875 12.4045
44.9357 12.3774
44.984 12.3454
45.0322 12.2617
45.0806 12.2352
45.1288 12.2189
45.1773 12.1345
45.2257 12.0983
45.2739 12.041
45.3224 12.0444
45.3706 12.0115
45.4191 11.9596
45.4673 11.9129
45.5158 11.8421
45.5641 11.7685
45.6126 11.7801
45.6609 11.6989
45.7094 11.6508
45.7577 11.6213
45.8063 11.5643
45.8546 11.5875
45.9031 11.5345
45.9515 11.5154
46.0001 11.4633
46.0484 11.3903
46.097 11.3597
46.1454 11.3565
46.194 11.3066
46.2424 11.2244
46.291 11.201
46.3395 11.1392
46.3881 11.064
46.4365 11.0541
46.4852 11.0689
46.5337 10.9758
46.5823 10.9101
46.631 10.9306
46.6795 10.8813
46.7282 10.8755
46.7767 10.8086
46.8254 10.7434
46.8739 10.7542
46.9226 10.6667
46.9712 10.6269
47.0199 10.6335
47.0685 10.5609
47.1173 10.5262
47.1658 10.4924
47.2146 10.4727
47.2632 10.3805
47.312 10.3719
47.3606 10.3458
47.4095 10.2798
47.4581 10.2145
47.5069 10.2189
47.5556 10.137
47.6044 10.1307
47.6531 10.0478
47.702 10.0054
47.7507 10.0039
47.7996 9.97024
47.8483 9.9395
47.8972 9.96211
47.9461 9.86458
47.9948 9.84099
48.0438 9.7991
48.0925 9.75496
48.1415 9.73144
48.1902 9.6361
48.2392 9.65649
48.288 9.63965
48.337 9.62579
48.3858 9.53865
48.4348 9.52004
48.4837 9.47444
48.5327 9.44181
48.5815 9.4321
48.6306 9.4047
48.6795 9.34676
48.7285 9.32545
48.7774 9.30537
48.8265 9.23555
48.8754 9.24527
48.9245 9.16865
48.9734 9.1563
49.0226 9.12541
49.0715 9.1022
49.1206 9.04785
49.1696 8.99974
49.2188 8.95937
49.2679 8.95741
49.3169 8.89958
49.3661 8.85054
49.4151 8.84429
49.4643 8.80291
49.5134 8.74672
49.5626 8.6901
49.6117 8.71379
49.6609 8.66579
49.71 8.58991
49.7592 8.64167
49.8083 8.53654
49.8576 8.55416
49.9067 8.51104
49.956 8.47706
50.0052 8.44386
50.0545 8.43356
50.1036 8.36152
50.153 8.32198
50.2022 8.29757
50.2515 8.31024
50.3007 8.237
50.3501 8.17095
50.3993 8.17924
50.4487 8.16734
50.498 8.10627
50.5474 8.13568
50.5966 8.02077
50.6461 8.04708
50.6955 8.01116
50.7448 7.9749
50.7943 7.94377
50.8436 7.90936
50.8931 7.88392
50.9424 7.85378
50.9919 7.81498
51.0413 7.75138
51.0908 7.74275
51.1402 7.69729
51.1897 7.67962
51.2391 7.66502
51.2887 7.58657
51.3381 7.56883
51.3877 7.55216
51.4371 7.51982
51.4867 7.49153
51.5362 7.48609
51.5858 7.44346
51.6353 7.39808
51.6849 7.37698
51.7344 7.37419
51.7841 7.34843
51.8336 7.30764
51.8833 7.24708
51.9328 7.21384
51.9826 7.20115
52.0323 7.16386
52.0818 7.10761
52.1316 7.12116
52.1812 7.08754
52.231 7.04277
52.2806 7.00677
52.3304 6.9453
52.38 6.94585
52.4298 6.93595
52.4794 6.9114
52.5293 6.83808
52.5789 6.85616
52.6288 6.84408
52.6785 6.75306
52.7284 6.75489
52.7781 6.72248
52.828 6.7324
52.8777 6.67866
52.9276 6.64294
52.9774 6.6285
53.0273 6.59806
53.0771 6.5464
53.1271 6.55821
53.1769 6.51464
53.2269 6.47575
53.2767 6.46001
53.3267 6.42672
53.3765 6.4237
53.4266 6.34877
53.4766 6.33368
53.5265 6.29727
53.5765 6.31167
53.6264 6.31284
53.6765 6.26698
53.7264 6.24375
53.7765 6.20062
53.8265 6.16077
53.8766 6.12018
53.9266 6.08594
53.9767 6.0692
54.0267 6.04987
54.0769 6.02074
54.1269 6.00356
54.1771 5.95156
54.2271 5.93595
54.2773 5.88727
54.3274 5.86277
54.3776 5.84327
54.4277 5.83856
54.478 5.79286
54.528 5.72355
54.5783 5.70977
54.6285 5.65492
54.6788 5.62556
54.7289 5.57872
54.7792 5.56257
54.8296 5.47739
54.8798 5.4428
54.9301 5.42393
54.9803 5.35105
55.0307 5.35748
55.0809 5.32143
55.1314 5.24297
55.1816 5.23544
55.232 5.18206
55.2823 5.19917
55.3328 5.07647
55.383 5.04695
55.4335 5.0213
55.4838 4.98664
55.5344 4.93158
55.5847 4.82882
55.6352 4.82455
55.6856 4.84601
55.7361 4.74906