File: XRD/Ni3Fe_FD0631.xy
TT I
1.27165 7.63039
1.31627 6.45432
1.36089 6.95006
1.40551 5.76077
1.45013 5.84778
1.49476 5.72045
1.53938 6.16722
1.584 5.69654
1.62863 4.76394
1.67325 4.84298
1.71787 4.95284
1.7625 4.96408
1.80712 4.66948
1.85174 4.53674
1.89636 4.94547
1.94099 5.06087
1.98562 4.6148
2.03025 4.91899
2.07487 4.32514
2.11949 4.61658
2.16411 4.87476
2.20874 14.9871
2.25338 24.7327
2.298 6.99021
2.34263 5.20765
2.38725 5.70973
2.43188 5.40047
2.4765 6.08121
2.52115 6.39855
2.56577 7.29351
2.6104 7.45405
2.65503 7.78499
2.69965 7.44663
2.7443 7.87436
2.78893 8.01533
2.83356 8.19539
2.87818 8.45566
2.92281 8.88163
2.96744 9.25581
3.01209 10.3365
3.05672 11.4396
3.10135 11.6429
3.14599 13.0775
3.19062 14.0825
3.23527 15.0294
3.2799 16.0446
3.32454 16.5042
3.36917 17.6959
3.4138 19.241
3.45844 19.9528
3.50309 20.9997
3.54773 22.28
3.59237 24.3939
3.637 100.683
3.68164 63.6482
3.7263 26.8137
3.77094 26.2525
3.81558 26.9233
3.86022 27.7653
3.90486 29.0918
3.9495 30.1266
3.99416 31.1162
4.0388 32.3118
4.08344 33.4563
4.12809 34.8864
4.17273 37.5812
4.21738 43.9007
4.26204 271.875
4.30669 239.968
4.35133 49.6835
4.39598 44.6153
4.44063 55.5253
4.4853 67.8902
4.52995 50.2446
4.5746 51.2736
4.61925 53.271
4.6639 55.5383
4.70855 58.1231
4.75322 61.0662
4.79788 63.7489
4.84253 67.1708
4.88719 71.3974
4.93184 75.0114
4.97652 80.4454
5.02118 87.0288
5.06583 94.5832
5.11049 105.433
5.15515 177.914
5.19981 342.848
5.24449 2736.15
5.28916 12484.7
5.33382 3004.66
5.37848 195.764
5.42315 130.442
5.46783 113.301
5.5125 106.208
5.55716 102.479
5.60183 98.7082
5.6465 96.9506
5.69117 94.5824
5.73586 92.5339
5.78053 91.6072
5.8252 90.8473
5.86988 91.2814
5.91455 94.0068
5.95924 101.0
6.00392 198.333
6.0486 946.966
6.09328 4395.03
6.13795 3561.45
6.18263 260.613
6.22733 94.9318
6.27201 83.9818
6.3167 105.825
6.36138 82.3031
6.40606 69.2097
6.45075 67.6969
6.49545 65.7387
6.54014 64.1319
6.58483 63.3946
6.62952 63.2459
6.67421 98.3254
6.71892 155.894
6.76361 70.2196
6.8083 58.8846
6.853 58.0711
6.89769 57.1491
6.94239 56.5722
6.98711 56.0806
7.03181 55.8022
7.07651 55.4019
7.12121 55.4672
7.16591 55.4394
7.21063 56.1276
7.25533 72.7794
7.30004 196.947
7.34475 97.1094
7.38945 57.2901
7.43416 55.1245
7.47889 54.8152
7.5236 55.1255
7.56831 56.0367
7.61303 57.4507
7.65774 57.9567
7.70247 56.2103
7.74719 56.5871
7.79191 57.0199
7.83663 56.8775
7.88135 58.3641
7.92607 59.0728
7.97081 60.0973
8.01553 61.16
8.06026 62.1518
8.10498 63.9651
8.14971 74.3863
8.19446 72.9326
8.23919 69.777
8.28392 71.9806
8.32865 73.9737
8.37339 78.2596
8.41812 85.2969
8.46288 116.249
8.50761 158.569
8.55235 373.547
8.59709 1137.58
8.64183 2175.66
8.68658 1019.44
8.73134 174.063
8.77609 100.181
8.82083 93.1853
8.86558 90.0125
8.91033 90.2396
8.9551 92.2814
8.99985 85.7388
9.04461 83.1907
9.08936 82.5784
9.13412 81.8236
9.17888 82.4444
9.22365 82.9559
9.26841 81.9499
9.31318 82.4046
9.35794 82.9009
9.4027 82.8976
9.44749 83.8396
9.49226 84.6734
9.53703 85.4765
9.5818 87.3467
9.62657 92.2445
9.67134 99.9952
9.71614 94.1706
9.76091 93.9157
9.80569 96.3459
9.85047 99.7295
9.89525 125.895
9.94005 138.615
9.98484 170.288
10.0296 329.993
10.0744 789.769
10.1192 1708.45
10.164 1632.09
10.2088 429.502
10.2536 129.976
10.2984 114.458
10.3432 116.727
10.388 105.002
10.4328 116.082
10.4776 155.981
10.5224 272.307
10.5672 506.058
10.612 514.96
10.6568 215.716
10.7017 98.9905
10.7465 86.6593
10.7913 83.3404
10.8361 81.4876
10.8809 79.1447
10.9257 78.8882
10.9706 79.5863
11.0154 74.9411
11.0602 73.092
11.105 72.1781
11.1499 77.1344
11.1947 85.5362
11.2395 75.6435
11.2844 71.2913
11.3292 67.7285
11.374 66.4256
11.4189 65.9375
11.4637 65.3497
11.5086 66.0819
11.5534 69.4599
11.5983 66.0311
11.6431 64.0432
11.688 63.2294
11.7328 63.2494
11.7777 62.9268
11.8225 62.6954
11.8674 62.4149
11.9122 63.0023
11.9571 63.065
12.002 63.7985
12.0468 67.2733
12.0917 78.1995
12.1366 101.72
12.1814 149.837
12.2263 206.897
12.2712 173.949
12.3161 101.105
12.3609 72.0304
12.4058 64.8341
12.4507 64.5281
12.4956 64.4856
12.5405 64.7159
12.5853 65.8352
12.6302 74.4026
12.6751 80.8523
12.72 70.6119
12.7649 68.0606
12.8098 68.6384
12.8547 69.7195
12.8996 71.0579
12.9445 72.1976
12.9894 74.1923
13.0343 75.6182
13.0792 78.9977
13.1242 86.9708
13.1691 110.205
13.214 145.761
13.2589 232.221
13.3038 362.327
13.3487 427.216
13.3937 274.759
13.4386 128.239
13.4835 105.002
13.5285 118.712
13.5734 155.993
13.6183 242.002
13.6633 343.027
13.7082 344.49
13.7531 196.547
13.7981 101.121
13.843 82.5177
13.888 80.1084
13.9329 77.3301
13.9779 76.0358
14.0228 74.5638
14.0678 73.1414
14.1127 72.8379
14.1577 72.5017
14.2027 71.6267
14.2476 70.4744
14.2926 70.5622
14.3376 72.0198
14.3825 70.8102
14.4275 68.9346
14.4725 68.6231
14.5175 68.8873
14.5624 69.1874
14.6074 71.4331
14.6524 72.1257
14.6974 70.6472
14.7424 71.7478
14.7874 77.8734
14.8324 87.7175
14.8774 108.588
14.9224 150.244
14.9674 202.081
15.0124 216.799
15.0574 151.633
15.1024 93.0906
15.1474 72.8012
15.1924 70.7436
15.2374 71.7109
15.2824 70.9919
15.3274 68.5175
15.3725 67.0537
15.4175 66.5089
15.4625 66.2068
15.5076 66.535
15.5526 66.3075
15.5976 65.9367
15.6426 66.6437
15.6877 71.621
15.7327 79.0951
15.7778 93.763
15.8228 123.888
15.8679 166.239
15.9129 193.925
15.958 159.087
16.003 100.454
16.0481 69.1384
16.0931 65.6245
16.1382 63.3777
16.1833 60.9622
16.2283 59.2323
16.2734 58.64
16.3185 59.146
16.3636 60.0949
16.4086 58.0644
16.4537 56.4356
16.4988 55.8505
16.5439 55.6752
16.589 55.3583
16.6341 54.9221
16.6792 54.7114
16.7243 55.0662
16.7694 55.3332
16.8145 54.9797
16.8596 55.5768
16.9047 57.2048
16.9498 57.4269
16.9949 56.1289
17.04 55.9356
17.0851 57.0431
17.1302 58.6606
17.1754 61.6039
17.2205 66.5428
17.2656 73.8382
17.3108 82.0507
17.3559 83.1514
17.401 72.5371
17.4462 62.8318
17.4913 59.4377
17.5365 59.288
17.5815 59.4707
17.6268 59.6642
17.6718 60.4592
17.7171 60.9204
17.7622 61.6597
17.8074 61.8583
17.8525 63.9574
17.8977 67.898
17.9428 73.3037
17.9881 81.8194
18.0331 98.5163
18.0784 120.109
18.1237 138.884
18.1688 131.994
18.214 105.816
18.2591 87.6755
18.3044 90.2109
18.3495 99.7224
18.3948 105.759
18.4399 98.0097
18.4852 79.0368
18.5303 66.7644
18.5756 62.7092
18.6207 61.5429
18.666 60.5875
18.7112 59.8794
18.7565 59.1965
18.8016 58.7447
18.8469 58.1557
18.892 57.9605
18.9374 57.2178
18.9825 57.387
19.0278 57.283
19.073 57.0199
19.1183 57.8304
19.1635 58.2842
19.2088 59.7458
19.254 61.9547
19.2993 66.3637
19.3447 72.584
19.3898 76.7462
19.4352 72.8835
19.4804 64.2133
19.5257 57.2594
19.5709 54.5732
19.6163 54.1657
19.6615 53.9212
19.7068 53.4434
19.752 53.2647
19.7974 53.67
19.8426 54.6255
19.888 54.9506
19.9332 56.2403
19.9786 58.6665
20.0238 62.024
20.0692 66.9551
20.1144 69.7694
20.1598 68.4349
20.205 63.6751
20.2504 62.3949
20.2957 63.8196
20.3411 65.8522
20.3863 64.7652
20.4318 59.1185
20.477 54.1094
20.5224 52.1426
20.5677 51.4366
20.6131 50.4736
20.6586 49.8205
20.7038 49.8679
20.7493 49.3144
20.7945 49.2969
20.84 49.0125
20.8853 48.8697
20.9307 48.6064
20.976 48.9277
21.0215 48.8901
21.0668 49.0536
21.1122 49.5528
21.1575 50.257
21.203 51.1159
21.2483 51.4625
21.2938 51.3616
21.3391 50.331
21.3846 49.3258
21.4299 48.6685
21.4754 48.5774
21.5207 48.6728
21.5662 48.8487
21.6116 49.2481
21.6571 49.9809
21.7024 50.8962
21.7479 52.603
21.7933 55.2708
21.8388 58.7466
21.8843 62.4672
21.9297 64.8209
21.9752 63.4418
22.0206 60.0151
22.0661 56.9675
22.1115 56.3473
22.157 56.1501
22.2024 54.6132
22.248 51.7199
22.2933 50.37
22.3389 49.3815
22.3843 49.2356
22.4299 49.2009
22.4753 49.1758
22.5208 48.7509
22.5662 48.5465
22.6118 48.925
22.6572 48.8786
22.7028 49.5023
22.7483 49.7626
22.7939 50.4502
22.8393 51.7481
22.8849 54.0446
22.9303 56.2243
22.9759 57.8842
23.0214 57.6264
23.067 55.0635
23.1126 51.638
23.1581 49.5827
23.2037 49.0222
23.2492 49.1137
23.2948 48.9506
23.3403 49.3771
23.3859 49.8192
23.4314 50.6829
23.477 52.7133
23.5225 54.8892
23.5682 56.8984
23.6137 58.1578
23.6593 56.2285
23.7048 51.9185
23.7505 48.7364
23.796 46.8933
23.8417 46.1932
23.8872 45.7442
23.9329 45.5805
23.9784 45.1575
24.0241 44.8296
24.0697 44.5941
24.1154 44.4378
24.1609 44.11
24.2066 44.0259
24.2522 43.8632
24.2979 43.5576
24.3434 43.6819
24.3892 43.4089
24.4349 43.1695
24.4805 43.2079
24.5262 43.1932
24.5718 43.074
24.6175 43.0414
24.6631 43.0156
24.7089 42.7096
24.7545 42.5592
24.8002 42.2835
24.8458 42.4757
24.8916 42.2599
24.9372 42.3035
24.983 42.5332
25.0286 42.9417
25.0744 43.4359
25.12 43.8892
25.1658 44.4085
25.2114 44.8463
25.2572 44.8661
25.3029 45.0344
25.3487 45.0442
25.3943 44.7723
25.4402 43.8859
25.4858 42.8458
25.5316 41.7353
25.5773 41.0311
25.6231 41.0266
25.669 40.6825
25.7147 40.715
25.7605 40.4986
25.8062 40.6044
25.8521 40.7854
25.8977 40.7649
25.9436 41.0158
25.9893 41.1421
26.0352 41.4925
26.0809 41.5084
26.1268 41.8613
26.1725 41.4154
26.2184 40.9333
26.2641 40.4362
26.31 40.3472
26.3557 40.2581
26.4017 40.3994
26.4474 40.3328
26.4933 40.9865
26.5391 41.357
26.585 41.8995
26.6308 42.0502
26.6767 42.3321
26.7225 42.2571
26.7684 41.6571
26.8142 41.0979
26.8601 40.6675
26.9059 40.2797
26.9519 39.6786
26.9979 39.4282
27.0437 38.9506
27.0896 38.8022
27.1354 38.7308
27.1814 38.7661
27.2272 38.5749
27.2732 38.6869
27.3191 38.5295
27.3651 38.6382
27.4109 38.5923
27.4569 38.6368
27.5027 38.6263
27.5488 38.7161
27.5946 38.4884
27.6407 38.2523
27.6865 38.3078
27.7326 38.016
27.7784 37.9655
27.8245 37.8602
27.8703 38.1977
27.9164 38.2972
27.9623 38.5396
28.0084 38.9283
28.0543 39.2427
28.1003 39.2223
28.1462 39.0688
28.1923 38.5704
28.2384 38.2593
28.2843 37.8769
28.3304 37.4084
28.3764 37.0598
28.4225 36.6693
28.4684 36.4639
28.5145 36.1174
28.5605 36.1738
28.6066 35.6948
28.6526 35.865
28.6987 35.7787
28.7447 35.6033
28.7908 35.5198
28.8368 35.6323
28.8829 35.4931
28.9289 35.6655
28.9751 35.3913
29.0211 35.1833
29.0673 34.8214
29.1133 34.7555
29.1595 34.5003
29.2055 34.5939
29.2517 34.4548
29.2977 34.438
29.3439 34.4143
29.3899 34.4382
29.4361 34.222
29.4824 34.115
29.5284 33.9594
29.5746 33.4591
29.6207 33.2851
29.6669 33.2091
29.713 33.1438
29.7593 33.0441
29.8053 33.1112
29.8516 32.9319
29.8977 32.8944
29.9439 32.882
29.99 32.7585
30.0363 32.6247
30.0824 32.6229
30.1287 32.4963
30.1748 32.6373
30.2211 32.5539
30.2673 32.5096
30.3136 32.558
30.3597 32.3934
30.406 32.392
30.4522 32.1884
30.4985 32.0601
30.5447 32.3743
30.591 32.2721
30.6372 32.2739
30.6835 32.3922
30.7297 32.2911
30.7761 32.3011
30.8224 32.1324
30.8686 32.0604
30.915 31.6712
30.9612 31.6226
31.0076 31.4039
31.0538 31.4015
31.1002 31.1915
31.1464 31.0534
31.1928 31.0775
31.2391 31.161
31.2855 31.0405
31.3317 30.9518
31.3781 31.0621
31.4244 31.0799
31.4708 31.0402
31.5171 31.0142
31.5636 30.9044
31.6098 30.7298
31.6563 30.4951
31.7026 30.4459
31.7491 30.2871
31.7953 30.2672
31.8418 30.3384
31.8881 30.1572
31.9346 30.1629
31.9809 30.1713
32.0275 30.0038
32.074 29.9334
32.1203 29.8013
32.1668 29.5429
32.2132 29.514
32.2597 29.4904
32.306 29.2478
32.3526 29.1943
32.399 29.07
32.4455 28.8956
32.4919 28.7802
32.5385 28.7462
32.5848 28.6613
32.6314 28.6291
32.6778 28.5273
32.7244 28.4181
32.7708 28.361
32.8174 28.2542
32.8638 28.1721
32.9104 28.1461
32.9569 28.0932
33.0035 28.0264
33.0499 28.0648
33.0966 27.9587
33.143 27.9002
33.1897 27.7617
33.2361 27.745
33.2828 27.6459
33.3293 27.5401
33.3759 27.5107
33.4226 27.3775
33.4691 27.2206
33.5158 27.1502
33.5623 27.0129
33.609 26.8721
33.6555 26.8118
33.7022 26.7441
33.7487 26.6586
33.7954 26.5809
33.842 26.4725
33.8887 26.4293
33.9353 26.3377
33.982 26.2411
34.0286 26.2071
34.0753 26.1265
34.1219 25.96
34.1687 25.9661
34.2152 25.9187
34.262 25.8538
34.3086 25.6756
34.3554 25.722
34.402 25.4982
34.4488 25.4735
34.4954 25.3805
34.5422 25.2728
34.5889 25.1519
34.6357 25.0523
34.6825 24.9403
34.7292 25.0192
34.776 24.9029
34.8227 24.8217
34.8695 24.7603
34.9162 24.7352
34.9631 24.5853
35.0098 24.6134
35.0566 24.4798
35.1033 24.4359
35.1502 24.4639
35.1969 24.3283
35.2438 24.3404
35.2906 24.1842
35.3375 24.0635
35.3842 24.1064
35.4311 24.0916
35.4779 24.1047
35.5248 24.0359
35.5716 23.8105
35.6185 23.8413
35.6653 23.7133
35.7123 23.6568
35.759 23.5416
35.806 23.4977
35.8528 23.3347
35.8998 23.3465
35.9468 23.1871
35.9936 23.1349
36.0406 23.1122
36.0874 23.1598
36.1345 23.0048
36.1813 22.9439
36.2283 22.8464
36.2752 22.7264
36.3222 22.7923
36.3691 22.7722
36.4161 22.5533
36.463 22.5429
36.5101 22.4895
36.557 22.5222
36.6041 22.3049
36.651 22.2643
36.6981 22.2039
36.745 22.1001
36.7921 22.0919
36.839 21.9836
36.8861 21.988
36.9331 21.8935
36.9802 21.7297
37.0272 21.7377
37.0743 21.5645
37.1213 21.5183
37.1684 21.564
37.2154 21.5127
37.2626 21.447
37.3098 21.308
37.3568 21.2636
37.404 21.2428
37.451 21.0327
37.4982 20.9795
37.5452 20.8971
37.5924 20.9
37.6395 20.9293
37.6867 20.7904
37.7337 20.6898
37.781 20.6293
37.8281 20.5968
37.8753 20.5013
37.9224 20.447
37.9697 20.338
38.0168 20.2518
38.064 20.2808
38.1111 20.1833
38.1584 20.1092
38.2056 20.0659
38.2529 19.9439
38.3 19.8955
38.3473 19.8868
38.3945 19.7815
38.4418 19.7207
38.489 19.6509
38.5363 19.7012
38.5837 19.5645
38.6309 19.5064
38.6782 19.5087
38.7254 19.3589
38.7728 19.3376
38.82 19.2053
38.8674 19.1568
38.9146 19.1671
38.9621 19.0461
39.0093 19.0089
39.0567 18.9964
39.104 18.8874
39.1514 18.8516
39.1987 18.792
39.2461 18.7806
39.2934 18.6528
39.3409 18.5333
39.3882 18.4811
39.4356 18.5016
39.483 18.4353
39.5304 18.3303
39.5778 18.355
39.6253 18.2439
39.6726 18.152
39.7201 18.1943
39.7675 18.0866
39.815 18.0389
39.8624 17.8973
39.9099 17.9391
39.9575 17.8276
40.0049 17.7593
40.0525 17.7648
40.0999 17.6459
40.1474 17.6298
40.1949 17.4999
40.2425 17.4881
40.2899 17.4716
40.3375 17.4472
40.385 17.3025
40.4326 17.2867
40.48 17.2056
40.5277 17.194
40.5752 17.1531
40.6228 17.0393
40.6703 16.9893
40.718 16.9203
40.7655 16.9182
40.8132 16.8373
40.8607 16.7706
40.9084 16.7756
40.9559 16.7066
41.0036 16.6658
41.0512 16.6223
41.0989 16.5649
41.1465 16.4115
41.1942 16.4543
41.242 16.3288
41.2896 16.284
41.3373 16.1992
41.3849 16.1736
41.4327 16.1536
41.4803 16.0521
41.5281 16.0418
41.5758 16.0116
41.6236 15.9491
41.6712 15.9488
41.7191 15.8713
41.7667 15.7566
41.8146 15.7376
41.8622 15.7219
41.9101 15.6451
41.9578 15.5347
42.0057 15.4991
42.0534 15.3914
42.1013 15.4313
42.149 15.3926
42.1969 15.3413
42.2446 15.2541
42.2925 15.1882
42.3403 15.1122
42.3882 15.1137
42.436 15.0423
42.4839 14.9878
42.5319 14.971
42.5797 14.9156
42.6277 14.8425
42.6755 14.781
42.7235 14.7045
42.7713 14.7016
42.8193 14.6668
42.8671 14.5832
42.9152 14.5282
42.963 14.4616
43.0111 14.4716
43.0589 14.3972
43.107 14.3951
43.1549 14.3063
43.2029 14.2414
43.2508 14.2245
43.2989 14.1376
43.3468 14.079
43.3949 14.0656
43.4429 13.9586
43.491 13.8896
43.5389 13.9642
43.5871 13.8398
43.635 13.7801
43.6832 13.755
43.7312 13.7537
43.7793 13.6559
43.8273 13.6505
43.8755 13.552
43.9237 13.5107
43.9717 13.5085
44.0199 13.4069
44.068 13.3856
44.1162 13.3563
44.1642 13.3196
44.2125 13.3134
44.2606 13.1876
44.3088 13.0984
44.3569 13.1126
44.4052 13.0865
44.4533 13.0585
44.5016 12.9832
44.5497 12.9194
44.598 12.8823
44.6461 12.8465
44.6945 12.8177
44.7426 12.7754
44.791 12.6653
44.8391 12.6548
44.8875 12.5439
44.9357 12.5956
44.984 12.5164
45.0322 12.4845
45.0806 12.4427
45.1288 12.3718
45.1773 12.3497
45.2257 12.31
45.2739 12.276
45.3224 12.2132
45.3706 12.1775
45.4191 12.1094
45.4673 12.1204
45.5158 12.0365
45.5641 11.9893
45.6126 12.023
45.6609 11.9314
45.7094 11.8663
45.7577 11.8456
45.8063 11.7936
45.8546 11.7695
45.9031 11.7201
45.9515 11.6842
46.0001 11.6427
46.0484 11.5664
46.097 11.5451
46.1454 11.5078
46.194 11.4959
46.2424 11.4187
46.291 11.3584
46.3395 11.3169
46.3881 11.2734
46.4365 11.2682
46.4852 11.216
46.5337 11.1856
46.5823 11.1316
46.631 11.1069
46.6795 11.0766
46.7282 11.0213
46.7767 10.9384
46.8254 10.8793
46.8739 10.8685
46.9226 10.8539
46.9712 10.7967
47.0199 10.7442
47.0685 10.7434
47.1173 10.6597
47.1658 10.6666
47.2146 10.6345
47.2632 10.5601
47.312 10.5492
47.3606 10.4965
47.4095 10.4777
47.4581 10.422
47.5069 10.3472
47.5556 10.3435
47.6044 10.3048
47.6531 10.245
47.702 10.1979
47.7507 10.2042
47.7996 10.1318
47.8483 10.1239
47.8972 10.0721
47.9461 10.032
47.9948 9.99722
48.0438 9.94442
48.0925 9.97375
48.1415 9.91323
48.1902 9.85956
48.2392 9.84219
48.288 9.83111
48.337 9.77392
48.3858 9.71459
48.4348 9.69955
48.4837 9.66818
48.5327 9.61288
48.5815 9.60379
48.6306 9.58281
48.6795 9.49972
48.7285 9.46062
48.7774 9.44384
48.8265 9.40966
48.8754 9.3511
48.9245 9.32089
48.9734 9.3157
49.0226 9.28015
49.0715 9.24841
49.1206 9.15481
49.1696 9.16287
49.2188 9.09473
49.2679 9.06796
49.3169 9.04543
49.3661 9.00622
49.4151 8.96949
49.4643 8.94716
49.5134 8.9127
49.5626 8.86161
49.6117 8.85124
49.6609 8.81191
49.71 8.74417
49.7592 8.73941
49.8083 8.71158
49.8576 8.67878
49.9067 8.63671
49.956 8.61669
50.0052 8.56575
50.0545 8.55041
50.1036 8.51803
50.153 8.48805
50.2022 8.47967
50.2515 8.41722
50.3007 8.34228
50.3501 8.30782
50.3993 8.34623
50.4487 8.26935
50.498 8.27519
50.5474 8.22451
50.5966 8.20494
50.6461 8.16427
50.6955 8.11184
50.7448 8.09761
50.7943 8.03452
50.8436 8.03035
50.8931 8.00256
50.9424 7.95493
50.9919 7.93539
51.0413 7.91143
51.0908 7.89116
51.1402 7.85563
51.1897 7.82505
51.2391 7.79584
51.2887 7.75238
51.3381 7.72061
51.3877 7.68164
51.4371 7.62153
51.4867 7.5982
51.5362 7.61065
51.5858 7.51613
51.6353 7.54209
51.6849 7.50577
51.7344 7.50346
51.7841 7.42929
51.8336 7.39561
51.8833 7.4014
51.9328 7.29975
51.9826 7.26668
52.0323 7.29815
52.0818 7.23733
52.1316 7.20091
52.1812 7.18583
52.231 7.17557
52.2806 7.18316
52.3304 7.08584
52.38 7.08323
52.4298 7.06284
52.4794 7.02105
52.5293 6.99179
52.5789 6.94063
52.6288 6.95501
52.6785 6.89017
52.7284 6.86085
52.7781 6.85724
52.828 6.80465
52.8777 6.7862
52.9276 6.73818
52.9774 6.7327
53.0273 6.74477
53.0771 6.66271
53.1271 6.68782
53.1769 6.60166
53.2269 6.61026
53.2767 6.56557
53.3267 6.51198
53.3765 6.54396
53.4266 6.4644
53.4766 6.42168
53.5265 6.42099
53.5765 6.41327
53.6264 6.34854
53.6765 6.33235
53.7264 6.30835
53.7765 6.2525
53.8265 6.23019
53.8766 6.18093
53.9266 6.17978
53.9767 6.15075
54.0267 6.15646
54.0769 6.10135
54.1269 6.05369
54.1771 6.06789
54.2271 6.06323
54.2773 5.98909
54.3274 5.96157
54.3776 5.91506
54.4277 5.89385
54.478 5.84668
54.528 5.8625
54.5783 5.82058
54.6285 5.72332
54.6788 5.72511
54.7289 5.70916
54.7792 5.59852
54.8296 5.59026
54.8798 5.54833
54.9301 5.51522
54.9803 5.49272
55.0307 5.44755
55.0809 5.4094
55.1314 5.4317
55.1816 5.3254
55.232 5.23602
55.2823 5.28166
55.3328 5.17505
55.383 5.12882
55.4335 5.11212
55.4838 5.01823
55.5344 5.02804
55.5847 4.93062
55.6352 4.93227
55.6856 4.89186
55.7361 4.90711