File: XRD/Ni3Fe_FD0015.xy
TT I
1.27165 36.2647
1.31627 35.7915
1.36089 35.5498
1.40551 32.8478
1.45013 31.9588
1.49476 30.931
1.53938 29.8918
1.584 28.4075
1.62863 28.0703
1.67325 27.5731
1.71787 26.8812
1.7625 26.5363
1.80712 25.5934
1.85174 25.657
1.89636 25.3646
1.94099 25.0801
1.98562 25.9384
2.03025 25.5537
2.07487 25.3705
2.11949 26.131
2.16411 25.629
2.20874 26.2286
2.25338 26.728
2.298 26.8345
2.34263 26.6855
2.38725 26.1556
2.43188 25.6334
2.4765 26.0849
2.52115 26.0253
2.56577 27.5455
2.6104 27.6259
2.65503 28.695
2.69965 30.0114
2.7443 30.9832
2.78893 33.4686
2.83356 36.245
2.87818 40.5211
2.92281 44.2277
2.96744 49.5532
3.01209 57.0336
3.05672 66.0553
3.10135 76.4618
3.14599 83.1099
3.19062 84.4904
3.23527 79.6957
3.2799 70.0335
3.32454 58.6585
3.36917 50.5276
3.4138 44.3432
3.45844 40.6181
3.50309 39.6374
3.54773 38.5585
3.59237 39.6748
3.637 40.2527
3.68164 40.8077
3.7263 41.2788
3.77094 40.813
3.81558 40.6807
3.86022 40.7548
3.90486 41.8712
3.9495 42.4081
3.99416 43.9887
4.0388 46.766
4.08344 49.7247
4.12809 53.597
4.17273 59.4468
4.21738 66.2899
4.26204 73.3502
4.30669 78.8286
4.35133 79.2601
4.39598 75.4243
4.44063 70.4419
4.4853 66.3887
4.52995 62.1707
4.5746 58.0628
4.61925 55.4955
4.6639 52.8094
4.70855 52.3104
4.75322 53.4672
4.79788 55.7291
4.84253 58.2317
4.88719 62.8585
4.93184 68.0889
4.97652 76.5554
5.02118 90.0664
5.06583 113.352
5.11049 135.195
5.15515 173.906
5.19981 258.46
5.24449 508.515
5.28916 1052.76
5.33382 2814.94
5.37848 3993.75
5.42315 1376.99
5.46783 404.443
5.5125 224.473
5.55716 160.807
5.60183 127.925
5.6465 112.988
5.69117 105.833
5.73586 99.8989
5.78053 95.9899
5.8252 95.3254
5.86988 99.7936
5.91455 109.219
5.95924 125.295
6.00392 163.134
6.0486 250.276
6.09328 421.073
6.13795 732.396
6.18263 1274.98
6.22733 853.111
6.27201 346.146
6.3167 177.023
6.36138 113.531
6.40606 85.984
6.45075 73.3276
6.49545 65.4216
6.54014 59.6251
6.58483 56.6812
6.62952 54.8893
6.67421 54.0062
6.71892 53.8125
6.76361 53.4441
6.8083 52.1026
6.853 51.2849
6.89769 49.7523
6.94239 48.7859
6.98711 47.5598
7.03181 47.529
7.07651 48.2059
7.12121 49.0319
7.16591 50.8065
7.21063 52.8793
7.25533 56.3328
7.30004 63.0593
7.34475 69.0613
7.38945 70.6344
7.43416 66.2686
7.47889 61.6916
7.5236 62.9105
7.56831 94.9789
7.61303 164.909
7.65774 92.0795
7.70247 50.2484
7.74719 43.5443
7.79191 41.0741
7.83663 39.6048
7.88135 38.8846
7.92607 39.2541
7.97081 39.469
8.01553 39.5673
8.06026 40.2247
8.10498 40.8136
8.14971 41.6467
8.19446 42.9203
8.23919 44.6878
8.28392 46.197
8.32865 47.9116
8.37339 51.3849
8.41812 55.9276
8.46288 62.5558
8.50761 73.5343
8.55235 96.1674
8.59709 147.443
8.64183 203.395
8.68658 330.225
8.73134 674.993
8.77609 726.928
8.82083 334.572
8.86558 152.882
8.91033 100.565
8.9551 79.5999
8.99985 70.5001
9.04461 65.0548
9.08936 61.3944
9.13412 58.8087
9.17888 59.5793
9.22365 65.7324
9.26841 110.799
9.31318 248.611
9.35794 183.805
9.4027 75.3437
9.44749 56.7084
9.49226 52.3707
9.53703 50.5424
9.5818 50.4037
9.62657 50.3286
9.67134 50.9912
9.71614 52.4211
9.76091 53.4329
9.80569 55.0848
9.85047 57.3269
9.89525 60.7738
9.94005 65.4507
9.98484 74.3375
10.0296 90.8861
10.0744 126.989
10.1192 172.666
10.164 220.351
10.2088 412.413
10.2536 777.045
10.2984 667.415
10.3432 301.477
10.388 145.319
10.4328 99.2429
10.4776 83.9467
10.5224 83.264
10.5672 89.4087
10.612 95.8413
10.6568 134.223
10.7017 246.918
10.7465 291.836
10.7913 174.78
10.8361 83.7362
10.8809 57.2825
10.9257 49.168
10.9706 45.8675
11.0154 44.2022
11.0602 42.6786
11.105 41.967
11.1499 41.3073
11.1947 40.9118
11.2395 40.5738
11.2844 40.5469
11.3292 40.1464
11.374 39.8497
11.4189 39.4154
11.4637 38.8076
11.5086 37.9546
11.5534 37.656
11.5983 37.4999
11.6431 37.6396
11.688 37.4482
11.7328 37.2576
11.7777 37.0101
11.8225 37.1634
11.8674 37.5006
11.9122 39.5771
11.9571 44.6279
12.002 68.0853
12.0468 95.2719
12.0917 70.1927
12.1366 48.2875
12.1814 46.3884
12.2263 48.3649
12.2712 52.8316
12.3161 65.5791
12.3609 89.776
12.4058 96.6328
12.4507 72.3131
12.4956 54.0207
12.5405 45.8682
12.5853 42.1382
12.6302 40.37
12.6751 39.7729
12.72 39.7532
12.7649 39.9929
12.8098 39.9673
12.8547 39.6647
12.8996 39.6555
12.9445 39.2457
12.9894 39.9951
13.0343 40.1861
13.0792 41.7305
13.1242 44.7188
13.1691 54.5702
13.214 61.9611
13.2589 62.0943
13.3038 66.4302
13.3487 71.3376
13.3937 86.4423
13.4386 128.432
13.4835 207.124
13.5285 219.749
13.5734 146.207
13.6183 98.4917
13.6633 83.5796
13.7082 79.8336
13.7531 91.427
13.7981 137.881
13.843 209.95
13.888 189.502
13.9329 107.713
13.9779 67.357
14.0228 52.7622
14.0678 46.5311
14.1127 44.7648
14.1577 46.3424
14.2027 60.6218
14.2476 86.3326
14.2926 78.5085
14.3376 50.6139
14.3825 40.7245
14.4275 38.4941
14.4725 37.3348
14.5175 36.9382
14.5624 36.5551
14.6074 36.5328
14.6524 36.5427
14.6974 36.8162
14.7424 37.2546
14.7874 37.6358
14.8324 39.2223
14.8774 41.2718
14.9224 45.5292
14.9674 48.3169
15.0124 50.3147
15.0574 56.4055
15.1024 73.0441
15.1474 108.665
15.1924 133.417
15.2374 106.251
15.2824 70.5823
15.3274 51.9516
15.3725 44.4628
15.4175 41.005
15.4625 39.2035
15.5076 38.3646
15.5526 37.9883
15.5976 37.488
15.6426 37.4634
15.6877 37.5198
15.7327 38.4283
15.7778 40.0137
15.8228 43.1921
15.8679 46.4484
15.9129 47.465
15.958 51.6524
16.003 61.4626
16.0481 86.7518
16.0931 122.769
16.1382 130.142
16.1833 99.6459
16.2283 66.3435
16.2734 47.7205
16.3185 40.3963
16.3636 37.0278
16.4086 34.8829
16.4537 34.0233
16.4988 33.1155
16.5439 32.6779
16.589 32.2591
16.6341 31.6999
16.6792 31.3422
16.7243 31.1958
16.7694 31.178
16.8145 31.0704
16.8596 31.0583
16.9047 31.2545
16.9498 32.0171
16.9949 34.6743
17.04 38.904
17.0851 39.286
17.1302 34.9692
17.1754 32.769
17.2205 32.8881
17.2656 33.1407
17.3108 33.8897
17.3559 34.1866
17.401 35.0605
17.4462 38.1503
17.4913 44.1162
17.5365 51.4831
17.5815 50.618
17.6268 42.8121
17.6718 37.1567
17.7171 34.785
17.7622 34.57
17.8074 35.4111
17.8525 38.5663
17.8977 42.0443
17.9428 40.661
17.9881 38.314
18.0331 39.5129
18.0784 41.3024
18.1237 42.2965
18.1688 43.9194
18.214 48.3431
18.2591 59.0664
18.3044 82.0009
18.3495 104.751
18.3948 98.7642
18.4399 73.4395
18.4852 58.3994
18.5303 57.7037
18.5756 66.951
18.6207 77.5973
18.666 71.7807
18.7112 57.3193
18.7565 45.0728
18.8016 38.7639
18.8469 35.988
18.892 34.7335
18.9374 33.7652
18.9825 33.4476
19.0278 32.8619
19.073 32.6947
19.1183 32.4675
19.1635 32.4664
19.2088 32.7575
19.254 33.2473
19.2993 34.0561
19.3447 35.1535
19.3898 38.1409
19.4352 44.5261
19.4804 48.4373
19.5257 46.4814
19.5709 45.691
19.6163 49.426
19.6615 49.2731
19.7068 42.8624
19.752 37.0815
19.7974 34.0839
19.8426 32.7671
19.888 31.5464
19.9332 31.2844
19.9786 31.4865
20.0238 31.6958
20.0692 31.9571
20.1144 31.9434
20.1598 32.47
20.205 33.5638
20.2504 35.9296
20.2957 40.4385
20.3411 46.1042
20.3863 48.2135
20.4318 43.4585
20.477 39.746
20.5224 39.788
20.5677 43.772
20.6131 45.597
20.6586 41.8412
20.7038 35.7396
20.7493 32.3074
20.7945 31.1583
20.84 31.2685
20.8853 32.9247
20.9307 33.9475
20.976 32.4633
21.0215 29.6643
21.0668 28.7585
21.1122 28.2929
21.1575 28.0586
21.203 28.1133
21.2483 28.0184
21.2938 28.1569
21.3391 28.0785
21.3846 28.2692
21.4299 29.0081
21.4754 30.4525
21.5207 32.2617
21.5662 32.6035
21.6116 31.4862
21.6571 30.1751
21.7024 29.2357
21.7479 29.1394
21.7933 29.4925
21.8388 29.9197
21.8843 30.4746
21.9297 30.6945
21.9752 31.2622
22.0206 32.6835
22.0661 34.9449
22.1115 38.8661
22.157 45.0924
22.2024 50.4297
22.248 49.5006
22.2933 45.3676
22.3389 41.7897
22.3843 40.5781
22.4299 39.839
22.4753 37.252
22.5208 33.9605
22.5662 31.5694
22.6118 30.5276
22.6572 29.7553
22.7028 29.4048
22.7483 29.2251
22.7939 29.2629
22.8393 29.7567
22.8849 30.652
22.9303 31.875
22.9759 31.9125
23.0214 31.0723
23.067 30.8823
23.1126 31.5449
23.1581 33.3796
23.2037 37.2751
23.2492 42.2382
23.2948 43.7674
23.3403 40.2688
23.3859 35.3664
23.4314 32.8645
23.477 32.3793
23.5225 33.3716
23.5682 34.4668
23.6137 34.4833
23.6593 33.0755
23.7048 32.5283
23.7505 33.3015
23.796 35.8223
23.8417 40.687
23.8872 45.3797
23.9329 45.1477
23.9784 39.4582
24.0241 33.8427
24.0697 30.8234
24.1154 29.4986
24.1609 28.8852
24.2066 28.5097
24.2522 28.002
24.2979 27.1825
24.3434 26.8015
24.3892 26.4436
24.4349 26.182
24.4805 26.0167
24.5262 26.0174
24.5718 25.7732
24.6175 25.7967
24.6631 26.052
24.7089 26.1064
24.7545 26.8388
24.8002 27.6351
24.8458 27.808
24.8916 27.0765
24.9372 26.4608
24.983 26.1833
25.0286 25.8781
25.0744 25.7489
25.12 25.6081
25.1658 25.7289
25.2114 25.9343
25.2572 26.1595
25.3029 26.5669
25.3487 27.3766
25.3943 28.316
25.4402 29.2648
25.4858 30.3429
25.5316 30.5551
25.5773 30.4769
25.6231 31.3907
25.669 32.65
25.7147 32.4758
25.7605 30.1795
25.8062 28.0876
25.8521 26.8093
25.8977 26.4287
25.9436 26.6553
25.9893 26.619
26.0352 26.4753
26.0809 25.6229
26.1268 25.3123
26.1725 25.2453
26.2184 25.2963
26.2641 25.6504
26.31 26.0904
26.3557 27.0736
26.4017 28.2947
26.4474 29.0762
26.4933 28.5622
26.5391 27.4972
26.585 26.5342
26.6308 26.0568
26.6767 25.6081
26.7225 25.8356
26.7684 25.9646
26.8142 26.2918
26.8601 26.7847
26.9059 28.088
26.9519 29.756
26.9979 31.4
27.0437 31.4545
27.0896 30.8578
27.1354 30.1852
27.1814 29.0386
27.2272 27.6413
27.2732 26.442
27.3191 25.3384
27.3651 24.7873
27.4109 24.4808
27.4569 24.4698
27.5027 24.2428
27.5488 24.3412
27.5946 24.311
27.6407 24.262
27.6865 24.5043
27.7326 24.3946
27.7784 24.6187
27.8245 24.9558
27.8703 25.5277
27.9164 25.8614
27.9623 25.5902
28.0084 25.0832
28.0543 24.8743
28.1003 24.9153
28.1462 25.3854
28.1923 25.9536
28.2384 25.9963
28.2843 26.0233
28.3304 26.6697
28.3764 28.0923
28.4225 29.1214
28.4684 29.2345
28.5145 28.2856
28.5605 27.542
28.6066 27.1281
28.6526 26.6387
28.6987 25.6698
28.7447 24.6126
28.7908 23.8276
28.8368 23.2877
28.8829 22.9514
28.9289 22.6444
28.9751 22.5434
29.0211 22.4358
29.0673 22.3625
29.1133 22.3957
29.1595 22.6042
29.2055 22.9224
29.2517 23.235
29.2977 23.3801
29.3439 23.0922
29.3899 22.568
29.4361 22.0804
29.4824 21.8663
29.5284 21.8668
29.5746 21.8422
29.6207 21.6915
29.6669 22.0305
29.713 22.3406
29.7593 22.7292
29.8053 22.8899
29.8516 22.6693
29.8977 22.0714
29.9439 21.5438
29.99 21.3463
30.0363 21.0078
30.0824 21.113
30.1287 21.0061
30.1748 21.1463
30.2211 21.4286
30.2673 21.4282
30.3136 21.2627
30.3597 20.9578
30.406 20.932
30.4522 20.8401
30.4985 20.8706
30.5447 21.2645
30.591 21.5055
30.6372 21.4615
30.6835 21.3108
30.7297 21.0867
30.7761 20.9786
30.8224 20.8283
30.8686 20.9164
30.915 21.0607
30.9612 21.4083
31.0076 21.7761
31.0538 22.5028
31.1002 23.1154
31.1464 23.2802
31.1928 22.9468
31.2391 22.7178
31.2855 22.2282
31.3317 21.6543
31.3781 21.1125
31.4244 20.8123
31.4708 20.5505
31.5171 20.3978
31.5636 20.4321
31.6098 20.4355
31.6563 20.4055
31.7026 20.6882
31.7491 20.8264
31.7953 21.0499
31.8418 21.43
31.8881 21.7628
31.9346 21.6554
31.9809 21.2597
32.0275 20.7232
32.074 20.4666
32.1203 20.3689
32.1668 20.4069
32.2132 20.4917
32.2597 20.6034
32.306 20.9044
32.3526 21.0899
32.399 21.1528
32.4455 20.9479
32.4919 20.604
32.5385 20.2731
32.5848 19.923
32.6314 19.6295
32.6778 19.3686
32.7244 19.1599
32.7708 18.9389
32.8174 18.8221
32.8638 18.64
32.9104 18.7201
32.9569 18.7899
33.0035 18.5787
33.0499 18.736
33.0966 18.838
33.143 18.8195
33.1897 18.7242
33.2361 18.4492
33.2828 18.4843
33.3293 18.2973
33.3759 18.3861
33.4226 18.3992
33.4691 18.5182
33.5158 18.7691
33.5623 19.0308
33.609 19.1456
33.6555 19.2534
33.7022 19.1989
33.7487 19.1674
33.7954 18.9475
33.842 18.4688
33.8887 18.0774
33.9353 18.0138
33.982 17.8317
34.0286 17.7903
34.0753 17.7344
34.1219 17.5907
34.1687 17.5905
34.2152 17.566
34.262 17.6149
34.3086 17.5941
34.3554 17.7419
34.402 17.5453
34.4488 17.3224
34.4954 17.1648
34.5422 17.1206
34.5889 17.001
34.6357 16.9624
34.6825 17.0302
34.7292 17.1066
34.776 17.0517
34.8227 16.9542
34.8695 16.904
34.9162 16.7643
34.9631 16.6257
35.0098 16.5205
35.0566 16.3985
35.1033 16.331
35.1502 16.2516
35.1969 16.2927
35.2438 16.2727
35.2906 16.2719
35.3375 16.3104
35.3842 16.3132
35.4311 16.3048
35.4779 16.2815
35.5248 16.2897
35.5716 16.3036
35.6185 16.244
35.6653 16.2533
35.7123 16.3194
35.759 16.55
35.806 16.6001
35.8528 16.7072
35.8998 16.9501
35.9468 16.8962
35.9936 16.8402
36.0406 16.5365
36.0874 16.4769
36.1345 16.2438
36.1813 16.0378
36.2283 15.9004
36.2752 15.7094
36.3222 15.7594
36.3691 15.6169
36.4161 15.537
36.463 15.5508
36.5101 15.6128
36.557 15.6729
36.6041 15.6708
36.651 15.7245
36.6981 15.5725
36.745 15.5726
36.7921 15.3802
36.839 15.2391
36.8861 15.2126
36.9331 15.3193
36.9802 15.254
37.0272 15.3772
37.0743 15.3011
37.1213 15.3055
37.1684 15.1713
37.2154 15.1062
37.2626 14.924
37.3098 14.7893
37.3568 14.6499
37.404 14.6941
37.451 14.6274
37.4982 14.6338
37.5452 14.4261
37.5924 14.4625
37.6395 14.4542
37.6867 14.3382
37.7337 14.3201
37.781 14.3146
37.8281 14.242
37.8753 14.1597
37.9224 14.161
37.9697 14.0265
38.0168 14.0261
38.064 14.0584
38.1111 14.0948
38.1584 14.0033
38.2056 13.9916
38.2529 13.9363
38.3 13.845
38.3473 13.8018
38.3945 13.6783
38.4418 13.6135
38.489 13.5904
38.5363 13.4979
38.5837 13.5203
38.6309 13.4966
38.6782 13.4492
38.7254 13.524
38.7728 13.5158
38.82 13.4256
38.8674 13.4235
38.9146 13.3367
38.9621 13.2453
39.0093 13.2666
39.0567 13.2257
39.104 13.229
39.1514 13.2552
39.1987 13.2868
39.2461 13.213
39.2934 13.0781
39.3409 12.9691
39.3882 12.8525
39.4356 12.7994
39.483 12.7757
39.5304 12.7562
39.5778 12.6688
39.6253 12.6077
39.6726 12.595
39.7201 12.5109
39.7675 12.5443
39.815 12.548
39.8624 12.5327
39.9099 12.4539
39.9575 12.409
40.0049 12.3335
40.0525 12.3256
40.0999 12.3322
40.1474 12.3177
40.1949 12.3317
40.2425 12.2374
40.2899 12.3178
40.3375 12.3049
40.385 12.2697
40.4326 12.2577
40.48 12.1411
40.5277 12.0788
40.5752 12.0269
40.6228 11.9755
40.6703 11.9521
40.718 11.9168
40.7655 11.9175
40.8132 11.8971
40.8607 11.8652
40.9084 11.8808
40.9559 11.7773
41.0036 11.7391
41.0512 11.7147
41.0989 11.6517
41.1465 11.6788
41.1942 11.6812
41.242 11.6588
41.2896 11.6981
41.3373 11.553
41.3849 11.5209
41.4327 11.4843
41.4803 11.374
41.5281 11.33
41.5758 11.2714
41.6236 11.2053
41.6712 11.2034
41.7191 11.1653
41.7667 11.1358
41.8146 11.1032
41.8622 11.0844
41.9101 10.9812
41.9578 10.9928
42.0057 11.0037
42.0534 10.9532
42.1013 10.9821
42.149 10.8761
42.1969 10.8877
42.2446 10.8876
42.2925 10.917
42.3403 10.8483
42.3882 10.8325
42.436 10.7259
42.4839 10.6278
42.5319 10.6055
42.5797 10.5002
42.6277 10.477
42.6755 10.4787
42.7235 10.4655
42.7713 10.429
42.8193 10.328
42.8671 10.3431
42.9152 10.2881
42.963 10.2449
43.0111 10.2378
43.0589 10.1636
43.107 10.1663
43.1549 10.128
43.2029 10.0899
43.2508 10.0876
43.2989 9.99192
43.3468 9.98975
43.3949 9.92969
43.4429 9.89191
43.491 9.9119
43.5389 9.8411
43.5871 9.79739
43.635 9.75943
43.6832 9.70882
43.7312 9.67117
43.7793 9.67433
43.8273 9.62197
43.8755 9.56262
43.9237 9.58462
43.9717 9.57933
44.0199 9.58256
44.068 9.51599
44.1162 9.49753
44.1642 9.52317
44.2125 9.45564
44.2606 9.42597
44.3088 9.39079
44.3569 9.35223
44.4052 9.31311
44.4533 9.27778
44.5016 9.23881
44.5497 9.20016
44.598 9.15453
44.6461 9.11604
44.6945 9.15171
44.7426 9.08761
44.791 9.10313
44.8391 9.09467
44.8875 9.01479
44.9357 9.00459
44.984 8.98858
45.0322 8.94486
45.0806 8.89732
45.1288 8.90583
45.1773 8.86652
45.2257 8.81717
45.2739 8.79213
45.3224 8.72118
45.3706 8.71789
45.4191 8.66719
45.4673 8.68839
45.5158 8.63188
45.5641 8.57146
45.6126 8.59876
45.6609 8.52269
45.7094 8.50903
45.7577 8.47036
45.8063 8.42103
45.8546 8.42532
45.9031 8.35133
45.9515 8.36245
46.0001 8.34773
46.0484 8.3277
46.097 8.33329
46.1454 8.3226
46.194 8.26229
46.2424 8.21284
46.291 8.17375
46.3395 8.12847
46.3881 8.11674
46.4365 8.0771
46.4852 8.06588
46.5337 8.04096
46.5823 8.03358
46.631 7.97412
46.6795 7.93149
46.7282 7.92739
46.7767 7.89629
46.8254 7.8828
46.8739 7.81287
46.9226 7.83568
46.9712 7.78853
47.0199 7.76151
47.0685 7.74209
47.1173 7.67561
47.1658 7.68551
47.2146 7.63937
47.2632 7.55668
47.312 7.57843
47.3606 7.54553
47.4095 7.50506
47.4581 7.48045
47.5069 7.48078
47.5556 7.44207
47.6044 7.40891
47.6531 7.37247
47.702 7.36086
47.7507 7.34023
47.7996 7.28716
47.8483 7.26873
47.8972 7.29032
47.9461 7.25881
47.9948 7.22945
48.0438 7.18421
48.0925 7.19795
48.1415 7.1285
48.1902 7.12863
48.2392 7.08318
48.288 7.07217
48.337 7.03829
48.3858 7.00974
48.4348 6.96477
48.4837 6.95725
48.5327 6.95176
48.5815 6.90492
48.6306 6.85588
48.6795 6.87905
48.7285 6.81135
48.7774 6.82476
48.8265 6.79819
48.8754 6.77604
48.9245 6.74095
48.9734 6.73031
49.0226 6.69013
49.0715 6.67867
49.1206 6.59519
49.1696 6.63312
49.2188 6.57336
49.2679 6.57077
49.3169 6.55317
49.3661 6.53745
49.4151 6.47331
49.4643 6.48083
49.5134 6.46326
49.5626 6.43127
49.6117 6.42641
49.6609 6.42243
49.71 6.33492
49.7592 6.36132
49.8083 6.31034
49.8576 6.30791
49.9067 6.26705
49.956 6.26778
50.0052 6.23293
50.0545 6.22837
50.1036 6.20306
50.153 6.17068
50.2022 6.15208
50.2515 6.16061
50.3007 6.08653
50.3501 6.0637
50.3993 6.04942
50.4487 6.02369
50.498 6.02557
50.5474 6.01591
50.5966 5.95426
50.6461 5.96257
50.6955 5.96068
50.7448 5.89408
50.7943 5.8887
50.8436 5.84758
50.8931 5.82757
50.9424 5.82874
50.9919 5.77926
51.0413 5.80073
51.0908 5.74468
51.1402 5.70336
51.1897 5.68764
51.2391 5.67151
51.2887 5.67623
51.3381 5.6311
51.3877 5.66646
51.4371 5.6204
51.4867 5.58242
51.5362 5.58528
51.5858 5.52173
51.6353 5.4771
51.6849 5.45752
51.7344 5.46142
51.7841 5.44436
51.8336 5.43088
51.8833 5.41766
51.9328 5.37355
51.9826 5.36876
52.0323 5.33229
52.0818 5.28444
52.1316 5.28589
52.1812 5.27388
52.231 5.25104
52.2806 5.23001
52.3304 5.26099
52.38 5.1973
52.4298 5.17916
52.4794 5.14494
52.5293 5.1367
52.5789 5.12544
52.6288 5.1126
52.6785 5.04751
52.7284 5.04233
52.7781 5.01262
52.828 5.01616
52.8777 4.95331
52.9276 4.97146
52.9774 4.95101
53.0273 4.91508
53.0771 4.92379
53.1271 4.89536
53.1769 4.84728
53.2269 4.8782
53.2767 4.83336
53.3267 4.81889
53.3765 4.82194
53.4266 4.81199
53.4766 4.78387
53.5265 4.73133
53.5765 4.72114
53.6264 4.71736
53.6765 4.66864
53.7264 4.63145
53.7765 4.6152
53.8265 4.59436
53.8766 4.59384
53.9266 4.55478
53.9767 4.54871
54.0267 4.50818
54.0769 4.49848
54.1269 4.44171
54.1771 4.45103
54.2271 4.42446
54.2773 4.35216
54.3274 4.39927
54.3776 4.33046
54.4277 4.35525
54.478 4.24016
54.528 4.27212
54.5783 4.22873
54.6285 4.21286
54.6788 4.11449
54.7289 4.13324
54.7792 4.10374
54.8296 4.06976
54.8798 4.0476
54.9301 3.98698
54.9803 3.95313
55.0307 3.95117
55.0809 3.91602
55.1314 3.89929
55.1816 3.82533
55.232 3.76782
55.2823 3.75715
55.3328 3.76151
55.383 3.72756
55.4335 3.62181
55.4838 3.60311
55.5344 3.59052
55.5847 3.59533
55.6352 3.55929
55.6856 3.56387
55.7361 3.51664