File: XRD/Ni3Fe_FD0381.xy
TT I
1.27165 7.35598
1.31627 6.84989
1.36089 6.89973
1.40551 5.62533
1.45013 6.30513
1.49476 5.86105
1.53938 6.27795
1.584 5.59003
1.62863 5.49481
1.67325 5.1807
1.71787 5.20003
1.7625 5.4009
1.80712 4.73453
1.85174 4.64063
1.89636 4.9507
1.94099 4.92504
1.98562 4.21798
2.03025 4.86539
2.07487 4.82967
2.11949 4.80402
2.16411 5.16374
2.20874 13.2643
2.25338 21.0186
2.298 5.94453
2.34263 5.33705
2.38725 5.72496
2.43188 5.41081
2.4765 6.26739
2.52115 5.85206
2.56577 6.93074
2.6104 7.39357
2.65503 6.71158
2.69965 7.19034
2.7443 7.14235
2.78893 7.53897
2.83356 8.17642
2.87818 8.57706
2.92281 9.01993
2.96744 9.09749
3.01209 10.3564
3.05672 11.1137
3.10135 12.2318
3.14599 12.7004
3.19062 13.7789
3.23527 14.9637
3.2799 15.7529
3.32454 17.0909
3.36917 18.2369
3.4138 18.7298
3.45844 20.0331
3.50309 21.0408
3.54773 22.0723
3.59237 24.344
3.637 85.3729
3.68164 54.946
3.7263 26.6364
3.77094 26.643
3.81558 27.3057
3.86022 27.891
3.90486 29.2534
3.9495 30.2231
3.99416 31.3169
4.0388 32.7277
4.08344 33.6723
4.12809 35.508
4.17273 37.8128
4.21738 44.1835
4.26204 226.631
4.30669 197.672
4.35133 48.6286
4.39598 45.5651
4.44063 53.5036
4.4853 64.1035
4.52995 52.4135
4.5746 52.9539
4.61925 54.4346
4.6639 57.0989
4.70855 59.5077
4.75322 62.3818
4.79788 65.5587
4.84253 69.0708
4.88719 73.9275
4.93184 77.214
4.97652 83.6289
5.02118 90.1059
5.06583 98.9854
5.11049 112.116
5.15515 182.784
5.19981 470.605
5.24449 3275.4
5.28916 11287.6
5.33382 3543.35
5.37848 226.55
5.42315 139.228
5.46783 120.284
5.5125 111.141
5.55716 106.01
5.60183 102.076
5.6465 99.8978
5.69117 97.5635
5.73586 95.3462
5.78053 95.8309
5.8252 95.5971
5.86988 96.2074
5.91455 99.164
5.95924 110.018
6.00392 257.171
6.0486 1143.47
6.09328 3984.55
6.13795 3533.75
6.18263 308.461
6.22733 101.056
6.27201 86.7321
6.3167 101.733
6.36138 82.1567
6.40606 71.2675
6.45075 69.1063
6.49545 66.9458
6.54014 65.5518
6.58483 63.9802
6.62952 64.3404
6.67421 91.4045
6.71892 135.121
6.76361 69.0872
6.8083 60.2547
6.853 58.6283
6.89769 58.3459
6.94239 57.7387
6.98711 57.163
7.03181 57.0139
7.07651 56.7036
7.12121 56.5713
7.16591 56.8732
7.21063 56.7847
7.25533 69.9777
7.30004 165.47
7.34475 88.9005
7.38945 57.9432
7.43416 55.7853
7.47889 55.3747
7.5236 56.1823
7.56831 56.7815
7.61303 57.8468
7.65774 58.3889
7.70247 57.6815
7.74719 57.4004
7.79191 57.906
7.83663 58.2042
7.88135 59.0798
7.92607 60.2094
7.97081 61.2522
8.01553 62.5244
8.06026 63.7562
8.10498 65.6023
8.14971 74.7447
8.19446 73.4938
8.23919 71.5733
8.28392 73.8581
8.32865 75.9871
8.37339 80.6844
8.41812 88.0032
8.46288 116.366
8.50761 187.237
8.55235 448.968
8.59709 1167.34
8.64183 2065.37
8.68658 1169.86
8.73134 197.086
8.77609 104.85
8.82083 96.5919
8.86558 93.045
8.91033 92.5417
8.9551 93.5753
8.99985 87.5596
9.04461 85.7857
9.08936 85.3356
9.13412 84.4086
9.17888 84.2048
9.22365 84.5904
9.26841 84.0247
9.31318 85.3353
9.35794 85.2199
9.4027 85.8459
9.44749 86.2771
9.49226 86.6838
9.53703 87.8953
9.5818 90.0564
9.62657 94.4359
9.67134 100.473
9.71614 95.7176
9.76091 96.977
9.80569 99.609
9.85047 102.679
9.89525 125.15
9.94005 139.113
9.98484 198.764
10.0296 396.478
10.0744 827.836
10.1192 1609.96
10.164 1717.16
10.2088 511.486
10.2536 142.54
10.2984 116.942
10.3432 116.99
10.388 108.479
10.4328 126.728
10.4776 175.638
10.5224 288.745
10.5672 479.851
10.612 518.598
10.6568 231.745
10.7017 102.175
10.7465 89.2285
10.7913 85.7764
10.8361 83.4411
10.8809 81.1569
10.9257 80.474
10.9706 80.9994
11.0154 77.0779
11.0602 74.7831
11.105 73.7972
11.1499 77.1671
11.1947 83.7289
11.2395 75.7527
11.2844 71.8205
11.3292 68.7857
11.374 67.6426
11.4189 67.3498
11.4637 66.7378
11.5086 67.0032
11.5534 69.5472
11.5983 66.9033
11.6431 65.0046
11.688 64.5681
11.7328 64.6788
11.7777 64.4535
11.8225 64.19
11.8674 63.9056
11.9122 64.6241
11.9571 64.9719
12.002 65.3672
12.0468 70.6074
12.0917 83.6947
12.1366 106.437
12.1814 149.877
12.2263 197.885
12.2712 178.233
12.3161 106.426
12.3609 72.8233
12.4058 66.4161
12.4507 66.1008
12.4956 65.9521
12.5405 66.3625
12.5853 67.5294
12.6302 74.0218
12.6751 79.2308
12.72 71.3711
12.7649 69.51
12.8098 70.244
12.8547 71.4895
12.8996 73.1575
12.9445 74.2192
12.9894 75.9579
13.0343 77.9671
13.0792 81.6523
13.1242 92.6025
13.1691 120.449
13.214 159.632
13.2589 240.059
13.3038 350.724
13.3487 421.738
13.3937 296.484
13.4386 141.737
13.4835 112.683
13.5285 129.961
13.5734 165.683
13.6183 241.306
13.6633 327.749
13.7082 346.771
13.7531 212.379
13.7981 107.195
13.843 84.8314
13.888 81.778
13.9329 79.4377
13.9779 77.97
14.0228 76.2358
14.0678 75.0696
14.1127 74.4995
14.1577 74.2108
14.2027 73.4678
14.2476 72.4197
14.2926 72.4783
14.3376 73.2166
14.3825 72.1925
14.4275 70.6706
14.4725 70.3284
14.5175 70.5207
14.5624 70.8892
14.6074 73.1016
14.6524 73.2654
14.6974 72.5334
14.7424 74.3794
14.7874 82.5938
14.8324 94.6222
14.8774 115.4
14.9224 152.354
14.9674 197.324
15.0124 216.974
15.0574 163.634
15.1024 99.1455
15.1474 75.5659
15.1924 72.5026
15.2374 72.6892
15.2824 71.8091
15.3274 69.8941
15.3725 68.6217
15.4175 68.0354
15.4625 67.594
15.5076 67.9616
15.5526 67.917
15.5976 67.674
15.6426 69.0631
15.6877 75.7271
15.7327 84.7106
15.7778 99.1389
15.8228 126.305
15.8679 163.904
15.9129 188.877
15.958 167.021
16.003 106.951
16.0481 72.1362
16.0931 66.5386
16.1382 64.4911
16.1833 62.2268
16.2283 60.5578
16.2734 60.012
16.3185 60.1499
16.3636 60.5346
16.4086 59.1839
16.4537 57.7439
16.4988 56.9966
16.5439 56.9636
16.589 56.5043
16.6341 56.2241
16.6792 55.9353
16.7243 56.3606
16.7694 56.4798
16.8145 56.2469
16.8596 56.6429
16.9047 58.0178
16.9498 58.4581
16.9949 57.3753
17.04 57.4203
17.0851 58.7879
17.1302 60.694
17.1754 63.6005
17.2205 68.2837
17.2656 74.5713
17.3108 81.744
17.3559 83.5351
17.401 74.334
17.4462 64.8191
17.4913 61.0483
17.5365 60.9111
17.5815 60.7359
17.6268 61.178
17.6718 61.9723
17.7171 62.3745
17.7622 62.921
17.8074 63.8331
17.8525 66.4206
17.8977 71.1731
17.9428 77.1457
17.9881 85.5278
18.0331 100.882
18.0784 118.819
18.1237 136.159
18.1688 136.109
18.214 112.427
18.2591 91.2181
18.3044 91.7275
18.3495 99.0572
18.3948 105.478
18.4399 99.6418
18.4852 82.5729
18.5303 69.0466
18.5756 64.2493
18.6207 63.0168
18.666 62.1829
18.7112 61.3125
18.7565 60.7171
18.8016 60.4232
18.8469 59.6619
18.892 59.3888
18.9374 58.8563
18.9825 58.5691
19.0278 58.5319
19.073 58.6452
19.1183 59.3723
19.1635 60.1362
19.2088 61.4434
19.254 63.6607
19.2993 67.5509
19.3447 72.5214
19.3898 76.5802
19.4352 74.8628
19.4804 66.5489
19.5257 59.2776
19.5709 55.7897
19.6163 55.457
19.6615 55.1082
19.7068 54.7048
19.752 54.7652
19.7974 55.0276
19.8426 55.883
19.888 56.972
19.9332 57.9361
19.9786 60.467
20.0238 63.5977
20.0692 67.5968
20.1144 70.4762
20.1598 70.7177
20.205 66.5395
20.2504 64.0355
20.2957 64.464
20.3411 66.2289
20.3863 65.8692
20.4318 60.937
20.477 55.8056
20.5224 53.077
20.5677 52.5227
20.6131 51.6264
20.6586 51.0515
20.7038 50.9095
20.7493 50.4372
20.7945 50.5026
20.84 50.1884
20.8853 49.9709
20.9307 50.0054
20.976 50.155
21.0215 50.0218
21.0668 50.4156
21.1122 50.9802
21.1575 51.4659
21.203 51.8667
21.2483 52.3439
21.2938 52.8513
21.3391 51.6052
21.3846 50.4782
21.4299 50.0304
21.4754 49.6467
21.5207 49.8604
21.5662 50.215
21.6116 50.6398
21.6571 51.6281
21.7024 52.5262
21.7479 54.1975
21.7933 56.7384
21.8388 59.8385
21.8843 63.267
21.9297 65.2615
21.9752 65.4154
22.0206 62.1324
22.0661 58.4939
22.1115 57.1956
22.157 57.3107
22.2024 56.3369
22.248 53.4056
22.2933 51.6047
22.3389 50.5203
22.3843 50.4439
22.4299 50.3743
22.4753 50.1416
22.5208 50.0953
22.5662 49.8007
22.6118 50.0979
22.6572 50.2905
22.7028 50.8554
22.7483 51.2915
22.7939 51.9975
22.8393 53.3142
22.8849 55.2933
22.9303 56.8895
22.9759 58.501
23.0214 58.6597
23.067 56.4651
23.1126 53.1033
23.1581 50.9906
23.2037 50.1859
23.2492 50.2999
23.2948 50.3504
23.3403 50.6288
23.3859 51.3669
23.4314 52.1492
23.477 53.7883
23.5225 55.7201
23.5682 57.5294
23.6137 58.719
23.6593 57.2612
23.7048 53.7741
23.7505 50.1987
23.796 48.2166
23.8417 47.3783
23.8872 46.7877
23.9329 46.4254
23.9784 46.1799
24.0241 45.9841
24.0697 45.7834
24.1154 45.3234
24.1609 45.1412
24.2066 44.9596
24.2522 44.9909
24.2979 44.7645
24.3434 44.6198
24.3892 44.3971
24.4349 44.1808
24.4805 44.0876
24.5262 44.338
24.5718 44.0654
24.6175 44.1
24.6631 44.0033
24.7089 43.8954
24.7545 43.6821
24.8002 43.3191
24.8458 43.464
24.8916 43.2663
24.9372 43.378
24.983 43.8107
25.0286 44.0432
25.0744 44.4527
25.12 44.8987
25.1658 45.316
25.2114 45.9349
25.2572 46.0541
25.3029 45.7914
25.3487 45.8317
25.3943 45.7064
25.4402 44.9119
25.4858 43.9618
25.5316 42.7323
25.5773 42.0391
25.6231 42.0157
25.669 41.5372
25.7147 41.7093
25.7605 41.5776
25.8062 41.562
25.8521 41.7364
25.8977 41.7186
25.9436 41.993
25.9893 41.9634
26.0352 42.534
26.0809 42.5688
26.1268 42.7647
26.1725 42.701
26.2184 42.0162
26.2641 41.6648
26.31 41.4179
26.3557 41.3286
26.4017 41.2419
26.4474 41.5756
26.4933 41.7178
26.5391 42.1367
26.585 42.6483
26.6308 43.0393
26.6767 43.1895
26.7225 43.2293
26.7684 42.6515
26.8142 41.9439
26.8601 41.5815
26.9059 41.2275
26.9519 40.6028
26.9979 40.413
27.0437 39.8706
27.0896 39.8333
27.1354 39.8113
27.1814 39.6241
27.2272 39.6098
27.2732 39.5907
27.3191 39.4693
27.3651 39.5236
27.4109 39.4857
27.4569 39.5388
27.5027 39.5104
27.5488 39.6501
27.5946 39.4432
27.6407 39.3206
27.6865 39.1906
27.7326 38.9391
27.7784 39.0471
27.8245 38.9277
27.8703 39.0346
27.9164 39.2186
27.9623 39.5379
28.0084 39.6599
28.0543 39.9662
28.1003 40.0283
28.1462 39.9074
28.1923 39.4467
28.2384 38.9442
28.2843 38.6361
28.3304 38.3184
28.3764 37.8461
28.4225 37.5048
28.4684 37.3257
28.5145 37.0519
28.5605 36.9006
28.6066 36.6941
28.6526 36.6057
28.6987 36.6294
28.7447 36.3464
28.7908 36.492
28.8368 36.4218
28.8829 36.3198
28.9289 36.3035
28.9751 36.2501
29.0211 35.9391
29.0673 35.7681
29.1133 35.615
29.1595 35.3644
29.2055 35.3336
29.2517 35.3488
29.2977 35.2025
29.3439 35.0886
29.3899 35.1551
29.4361 35.2088
29.4824 34.8363
29.5284 34.742
29.5746 34.4765
29.6207 34.0513
29.6669 33.926
29.713 33.9279
29.7593 33.7419
29.8053 33.7818
29.8516 33.7351
29.8977 33.7811
29.9439 33.5301
29.99 33.5316
30.0363 33.2813
30.0824 33.4771
30.1287 33.363
30.1748 33.3675
30.2211 33.268
30.2673 33.1133
30.3136 33.4104
30.3597 33.1577
30.406 33.0716
30.4522 33.0145
30.4985 32.9585
30.5447 33.0716
30.591 33.0873
30.6372 33.0231
30.6835 33.0393
30.7297 33.1314
30.7761 33.0174
30.8224 32.9025
30.8686 32.7621
30.915 32.4513
30.9612 32.3481
31.0076 32.1862
31.0538 32.0327
31.1002 31.9938
31.1464 31.7439
31.1928 31.7787
31.2391 31.7841
31.2855 31.7537
31.3317 31.7605
31.3781 31.686
31.4244 31.7746
31.4708 31.7213
31.5171 31.7218
31.5636 31.6482
31.6098 31.3763
31.6563 31.1599
31.7026 31.0702
31.7491 30.967
31.7953 31.0016
31.8418 30.9319
31.8881 30.8905
31.9346 30.9435
31.9809 30.8949
32.0275 30.7826
32.074 30.7191
32.1203 30.4569
32.1668 30.4571
32.2132 30.2447
32.2597 30.1425
32.306 30.1031
32.3526 29.7616
32.399 29.8016
32.4455 29.5696
32.4919 29.5129
32.5385 29.4344
32.5848 29.2605
32.6314 29.3529
32.6778 29.2003
32.7244 29.0625
32.7708 28.9295
32.8174 28.964
32.8638 28.7328
32.9104 28.8053
32.9569 28.95
33.0035 28.6113
33.0499 28.6744
33.0966 28.5962
33.143 28.5841
33.1897 28.452
33.2361 28.3281
33.2828 28.4398
33.3293 28.1637
33.3759 28.1131
33.4226 27.9639
33.4691 27.8052
33.5158 27.8042
33.5623 27.6465
33.609 27.4776
33.6555 27.5067
33.7022 27.3401
33.7487 27.2185
33.7954 27.2786
33.842 27.1192
33.8887 26.9423
33.9353 27.0326
33.982 26.8613
34.0286 26.7165
34.0753 26.7805
34.1219 26.5243
34.1687 26.5446
34.2152 26.5419
34.262 26.2864
34.3086 26.271
34.3554 26.168
34.402 26.1216
34.4488 25.9977
34.4954 25.8887
34.5422 25.8564
34.5889 25.7787
34.6357 25.6781
34.6825 25.5719
34.7292 25.5178
34.776 25.4284
34.8227 25.3757
34.8695 25.2865
34.9162 25.2162
34.9631 25.1516
35.0098 25.1204
35.0566 24.9819
35.1033 24.9672
35.1502 25.0064
35.1969 24.8178
35.2438 24.7643
35.2906 24.7649
35.3375 24.7441
35.3842 24.623
35.4311 24.6048
35.4779 24.4965
35.5248 24.5686
35.5716 24.3974
35.6185 24.3058
35.6653 24.3093
35.7123 24.2032
35.759 24.1623
35.806 24.0768
35.8528 23.885
35.8998 23.8494
35.9468 23.7119
35.9936 23.7546
36.0406 23.6813
36.0874 23.616
36.1345 23.516
36.1813 23.4603
36.2283 23.3313
36.2752 23.2425
36.3222 23.2609
36.3691 23.1899
36.4161 23.0219
36.463 23.0567
36.5101 23.0382
36.557 22.9177
36.6041 22.7246
36.651 22.7419
36.6981 22.6947
36.745 22.6981
36.7921 22.559
36.839 22.5306
36.8861 22.3749
36.9331 22.3033
36.9802 22.2274
37.0272 22.1656
37.0743 22.0296
37.1213 22.022
37.1684 22.0543
37.2154 21.8103
37.2626 21.8625
37.3098 21.6908
37.3568 21.668
37.404 21.7419
37.451 21.5107
37.4982 21.5251
37.5452 21.364
37.5924 21.307
37.6395 21.4145
37.6867 21.2616
37.7337 21.1641
37.781 21.0434
37.8281 21.041
37.8753 20.9672
37.9224 20.8931
37.9697 20.8479
38.0168 20.6956
38.064 20.7196
38.1111 20.6121
38.1584 20.5567
38.2056 20.5098
38.2529 20.4279
38.3 20.3723
38.3473 20.4007
38.3945 20.264
38.4418 20.1376
38.489 20.1246
38.5363 20.0417
38.5837 19.9729
38.6309 19.8962
38.6782 19.8754
38.7254 19.8067
38.7728 19.6892
38.82 19.6351
38.8674 19.5745
38.9146 19.5753
38.9621 19.4546
39.0093 19.5268
39.0567 19.3796
39.104 19.3123
39.1514 19.139
39.1987 19.176
39.2461 19.1329
39.2934 19.0707
39.3409 18.9944
39.3882 18.8894
39.4356 18.8523
39.483 18.7766
39.5304 18.7722
39.5778 18.7279
39.6253 18.6394
39.6726 18.5763
39.7201 18.5445
39.7675 18.4583
39.815 18.4101
39.8624 18.2584
39.9099 18.316
39.9575 18.1784
40.0049 18.2247
40.0525 18.1505
40.0999 18.0822
40.1474 18.0372
40.1949 17.9043
40.2425 17.9138
40.2899 17.7691
40.3375 17.7698
40.385 17.6807
40.4326 17.6628
40.48 17.6069
40.5277 17.564
40.5752 17.4854
40.6228 17.419
40.6703 17.3472
40.718 17.3151
40.7655 17.273
40.8132 17.1794
40.8607 17.2192
40.9084 17.089
40.9559 17.0372
41.0036 16.9919
41.0512 16.9411
41.0989 16.9016
41.1465 16.8387
41.1942 16.7715
41.242 16.6939
41.2896 16.6365
41.3373 16.5683
41.3849 16.5389
41.4327 16.4587
41.4803 16.427
41.5281 16.3652
41.5758 16.32
41.6236 16.2488
41.6712 16.1927
41.7191 16.2013
41.7667 16.0861
41.8146 16.07
41.8622 15.9408
41.9101 15.941
41.9578 15.8205
42.0057 15.8573
42.0534 15.793
42.1013 15.7254
42.149 15.6766
42.1969 15.6154
42.2446 15.5766
42.2925 15.5599
42.3403 15.461
42.3882 15.4392
42.436 15.4052
42.4839 15.2864
42.5319 15.2533
42.5797 15.2232
42.6277 15.1564
42.6755 15.1366
42.7235 15.0257
42.7713 15.0403
42.8193 14.916
42.8671 14.8692
42.9152 14.8339
42.963 14.8084
43.0111 14.7406
43.0589 14.7317
43.107 14.6652
43.1549 14.586
43.2029 14.5454
43.2508 14.555
43.2989 14.4782
43.3468 14.3791
43.3949 14.3721
43.4429 14.3198
43.491 14.2721
43.5389 14.2189
43.5871 14.189
43.635 14.1168
43.6832 14.1068
43.7312 14.0211
43.7793 13.9225
43.8273 13.9476
43.8755 13.8805
43.9237 13.8046
43.9717 13.7812
44.0199 13.7137
44.068 13.6629
44.1162 13.5965
44.1642 13.5984
44.2125 13.5335
44.2606 13.4995
44.3088 13.4469
44.3569 13.3586
44.4052 13.3605
44.4533 13.2977
44.5016 13.2201
44.5497 13.2082
44.598 13.1507
44.6461 13.117
44.6945 13.0511
44.7426 13.0022
44.791 12.9369
44.8391 12.9309
44.8875 12.8437
44.9357 12.8929
44.984 12.7957
45.0322 12.7266
45.0806 12.6558
45.1288 12.6644
45.1773 12.6103
45.2257 12.5756
45.2739 12.5383
45.3224 12.4625
45.3706 12.3926
45.4191 12.4136
45.4673 12.3679
45.5158 12.3625
45.5641 12.2644
45.6126 12.1835
45.6609 12.1743
45.7094 12.153
45.7577 12.1087
45.8063 12.0115
45.8546 12.0098
45.9031 11.9501
45.9515 11.895
46.0001 11.8741
46.0484 11.822
46.097 11.7942
46.1454 11.7415
46.194 11.6751
46.2424 11.6408
46.291 11.6252
46.3395 11.5591
46.3881 11.5195
46.4365 11.5163
46.4852 11.5124
46.5337 11.3941
46.5823 11.3747
46.631 11.2721
46.6795 11.3174
46.7282 11.2178
46.7767 11.1723
46.8254 11.141
46.8739 11.1266
46.9226 11.0902
46.9712 11.0092
47.0199 11.004
47.0685 10.9106
47.1173 10.9085
47.1658 10.8923
47.2146 10.8295
47.2632 10.7847
47.312 10.764
47.3606 10.6939
47.4095 10.6729
47.4581 10.6325
47.5069 10.6039
47.5556 10.5284
47.6044 10.5121
47.6531 10.4463
47.702 10.4268
47.7507 10.4088
47.7996 10.3736
47.8483 10.3187
47.8972 10.2712
47.9461 10.2257
47.9948 10.162
48.0438 10.1627
48.0925 10.13
48.1415 10.1184
48.1902 10.0453
48.2392 10.0626
48.288 10.0049
48.337 9.97471
48.3858 9.91478
48.4348 9.94201
48.4837 9.86112
48.5327 9.80279
48.5815 9.77985
48.6306 9.76707
48.6795 9.67834
48.7285 9.6651
48.7774 9.63038
48.8265 9.63833
48.8754 9.54946
48.9245 9.54299
48.9734 9.46494
49.0226 9.47753
49.0715 9.39873
49.1206 9.39234
49.1696 9.33575
49.2188 9.33713
49.2679 9.2354
49.3169 9.2006
49.3661 9.17129
49.4151 9.15447
49.4643 9.13876
49.5134 9.09644
49.5626 9.08798
49.6117 9.05284
49.6609 9.01716
49.71 8.96616
49.7592 8.93972
49.8083 8.89689
49.8576 8.86562
49.9067 8.79745
49.956 8.81833
50.0052 8.76278
50.0545 8.72058
50.1036 8.69596
50.153 8.67466
50.2022 8.64637
50.2515 8.60156
50.3007 8.516
50.3501 8.55644
50.3993 8.52115
50.4487 8.45436
50.498 8.43841
50.5474 8.39529
50.5966 8.35677
50.6461 8.36221
50.6955 8.31319
50.7448 8.28162
50.7943 8.24159
50.8436 8.21886
50.8931 8.21362
50.9424 8.12791
50.9919 8.10856
51.0413 8.08735
51.0908 8.05182
51.1402 8.06437
51.1897 7.96088
51.2391 7.92836
51.2887 7.89629
51.3381 7.87002
51.3877 7.84197
51.4371 7.81349
51.4867 7.79414
51.5362 7.73162
51.5858 7.70121
51.6353 7.6878
51.6849 7.66065
51.7344 7.63701
51.7841 7.61838
51.8336 7.5272
51.8833 7.52146
51.9328 7.50863
51.9826 7.44214
52.0323 7.43844
52.0818 7.41133
52.1316 7.3587
52.1812 7.36715
52.231 7.31747
52.2806 7.26858
52.3304 7.28743
52.38 7.236
52.4298 7.1621
52.4794 7.15656
52.5293 7.1495
52.5789 7.08394
52.6288 7.06929
52.6785 7.0108
52.7284 6.98882
52.7781 7.00033
52.828 6.96083
52.8777 6.90539
52.9276 6.89805
52.9774 6.86665
53.0273 6.81066
53.0771 6.79905
53.1271 6.79936
53.1769 6.76246
53.2269 6.74847
53.2767 6.69712
53.3267 6.68482
53.3765 6.66187
53.4266 6.6593
53.4766 6.57084
53.5265 6.5302
53.5765 6.5171
53.6264 6.50932
53.6765 6.47248
53.7264 6.45011
53.7765 6.42084
53.8265 6.34648
53.8766 6.38724
53.9266 6.33146
53.9767 6.33203
54.0267 6.28541
54.0769 6.24882
54.1269 6.24656
54.1771 6.15259
54.2271 6.12506
54.2773 6.10865
54.3274 6.05919
54.3776 6.05417
54.4277 6.01639
54.478 5.98982
54.528 5.96214
54.5783 5.88592
54.6285 5.88368
54.6788 5.78495
54.7289 5.80064
54.7792 5.7392
54.8296 5.63044
54.8798 5.65394
54.9301 5.66369
54.9803 5.6002
55.0307 5.58113
55.0809 5.56583
55.1314 5.54725
55.1816 5.39478
55.232 5.37114
55.2823 5.33107
55.3328 5.26749
55.383 5.25088
55.4335 5.17653
55.4838 5.1061
55.5344 5.08901
55.5847 5.03875
55.6352 4.98568
55.6856 4.9713
55.7361 4.95152