File: XRD/Ni3Fe_FD0290.xy
TT I
1.27165 7.66911
1.31627 6.70924
1.36089 7.2324
1.40551 6.58545
1.45013 6.2354
1.49476 6.62327
1.53938 5.80827
1.584 5.78345
1.62863 5.35025
1.67325 5.13483
1.71787 5.08313
1.7625 5.47026
1.80712 4.70193
1.85174 5.47656
1.89636 4.78088
1.94099 5.18096
1.98562 4.89635
2.03025 4.77458
2.07487 4.71186
2.11949 4.85869
2.16411 4.76335
2.20874 16.6324
2.25338 28.2317
2.298 5.6833
2.34263 4.83157
2.38725 5.35381
2.43188 5.26997
2.4765 6.62789
2.52115 5.75799
2.56577 6.56719
2.6104 6.73156
2.65503 6.47817
2.69965 6.84383
2.7443 7.07404
2.78893 7.81284
2.83356 7.93326
2.87818 8.41653
2.92281 8.60367
2.96744 9.07919
3.01209 9.96453
3.05672 11.3626
3.10135 12.5874
3.14599 12.8279
3.19062 13.9515
3.23527 15.003
3.2799 16.0683
3.32454 17.3713
3.36917 18.1903
3.4138 19.4861
3.45844 19.8344
3.50309 21.529
3.54773 22.6316
3.59237 25.2235
3.637 112.902
3.68164 70.3365
3.7263 27.4369
3.77094 27.0764
3.81558 27.5834
3.86022 28.3244
3.90486 29.7681
3.9495 30.6356
3.99416 31.9926
4.0388 33.3728
4.08344 35.0603
4.12809 35.7086
4.17273 38.8436
4.21738 45.4372
4.26204 305.023
4.30669 273.587
4.35133 52.6626
4.39598 46.5018
4.44063 56.8946
4.4853 72.1052
4.52995 53.9354
4.5746 53.4183
4.61925 55.0228
4.6639 57.3893
4.70855 59.8002
4.75322 63.0309
4.79788 66.5304
4.84253 69.3556
4.88719 74.2148
4.93184 78.0751
4.97652 83.9648
5.02118 91.5524
5.06583 100.02
5.11049 115.234
5.15515 209.839
5.19981 506.254
5.24449 3128.1
5.28916 10836.4
5.33382 4207.06
5.37848 257.711
5.42315 146.814
5.46783 124.912
5.5125 113.37
5.55716 107.85
5.60183 103.706
5.6465 101.866
5.69117 99.0442
5.73586 96.7918
5.78053 97.5204
5.8252 96.8391
5.86988 98.3437
5.91455 101.242
5.95924 112.752
6.00392 260.871
6.0486 1076.89
6.09328 3684.25
6.13795 3797.59
6.18263 372.298
6.22733 107.351
6.27201 90.124
6.3167 115.323
6.36138 87.1817
6.40606 72.3802
6.45075 70.71
6.49545 68.2631
6.54014 66.6304
6.58483 65.6416
6.62952 65.7551
6.67421 103.476
6.71892 172.579
6.76361 73.84
6.8083 61.5222
6.853 59.9238
6.89769 59.4694
6.94239 58.6211
6.98711 58.0802
7.03181 57.875
7.07651 57.2994
7.12121 57.5965
7.16591 57.9671
7.21063 58.1317
7.25533 75.5127
7.30004 218.341
7.34475 105.409
7.38945 59.3147
7.43416 57.2436
7.47889 56.7175
7.5236 56.6816
7.56831 57.7369
7.61303 59.8482
7.65774 60.3115
7.70247 58.4821
7.74719 58.5919
7.79191 58.95
7.83663 58.9787
7.88135 59.9629
7.92607 60.5963
7.97081 61.8187
8.01553 63.2186
8.06026 64.8732
8.10498 66.2094
8.14971 78.3299
8.19446 76.2555
8.23919 72.3054
8.28392 74.5148
8.32865 76.9861
8.37339 81.6683
8.41812 89.7611
8.46288 127.329
8.50761 192.766
8.55235 445.018
8.59709 1013.7
8.64183 2055.48
8.68658 1261.56
8.73134 222.863
8.77609 108.567
8.82083 98.0234
8.86558 94.26
8.91033 94.5211
8.9551 97.4154
8.99985 88.9718
9.04461 86.7595
9.08936 86.1685
9.13412 84.8484
9.17888 85.1551
9.22365 86.2246
9.26841 85.1883
9.31318 86.3654
9.35794 86.0582
9.4027 86.0371
9.44749 86.6819
9.49226 87.6523
9.53703 88.7569
9.5818 90.7655
9.62657 96.7299
9.67134 104.794
9.71614 98.1741
9.76091 97.4661
9.80569 100.544
9.85047 104.462
9.89525 133.833
9.94005 151.716
9.98484 200.584
10.0296 391.16
10.0744 724.477
10.1192 1509.66
10.164 1778.95
10.2088 607.116
10.2536 152.001
10.2984 121.961
10.3432 123.253
10.388 110.679
10.4328 127.305
10.4776 174.98
10.5224 258.412
10.5672 455.864
10.612 554.731
10.6568 256.827
10.7017 107.14
10.7465 91.4397
10.7913 86.8931
10.8361 84.8329
10.8809 82.2164
10.9257 82.3164
10.9706 83.3814
11.0154 78.2725
11.0602 75.9469
11.105 74.8731
11.1499 80.3569
11.1947 90.4152
11.2395 79.0684
11.2844 74.1737
11.3292 70.0753
11.374 69.0284
11.4189 68.2608
11.4637 67.1971
11.5086 68.1993
11.5534 72.2035
11.5983 68.7359
11.6431 66.2101
11.688 65.2194
11.7328 65.3533
11.7777 65.6148
11.8225 65.0687
11.8674 64.715
11.9122 65.2957
11.9571 65.3296
12.002 66.3469
12.0468 71.4915
12.0917 84.899
12.1366 102.701
12.1814 137.756
12.2263 195.295
12.2712 191.015
12.3161 114.649
12.3609 76.7431
12.4058 67.8332
12.4507 67.0379
12.4956 67.1535
12.5405 67.3995
12.5853 68.303
12.6302 77.9699
12.6751 85.5497
12.72 74.076
12.7649 70.6424
12.8098 71.0875
12.8547 72.1501
12.8996 73.7853
12.9445 74.8157
12.9894 76.8017
13.0343 78.377
13.0792 82.1094
13.1242 93.448
13.1691 122.864
13.214 155.882
13.2589 215.412
13.3038 327.471
13.3487 438.195
13.3937 322.546
13.4386 149.405
13.4835 115.007
13.5285 131.336
13.5734 158.472
13.6183 217.455
13.6633 315.013
13.7082 365.812
13.7531 235.04
13.7981 113.127
13.843 86.5294
13.888 83.1544
13.9329 80.3987
13.9779 78.9145
14.0228 77.3334
14.0678 75.5683
14.1127 75.4851
14.1577 75.7104
14.2027 74.4795
14.2476 73.2421
14.2926 73.7135
14.3376 75.0744
14.3825 73.16
14.4275 71.3626
14.4725 71.1854
14.5175 71.3242
14.5624 71.6132
14.6074 74.2827
14.6524 75.1349
14.6974 73.38
14.7424 75.2434
14.7874 83.1048
14.8324 94.8413
14.8774 110.575
14.9224 139.493
14.9674 190.045
15.0124 225.413
15.0574 174.929
15.1024 104.198
15.1474 76.7401
15.1924 73.6486
15.2374 74.6072
15.2824 73.7248
15.3274 71.3711
15.3725 69.6092
15.4175 68.863
15.4625 68.6646
15.5076 68.9547
15.5526 68.9003
15.5976 68.4295
15.6426 69.6965
15.6877 76.2845
15.7327 85.078
15.7778 96.6904
15.8228 117.064
15.8679 153.703
15.9129 192.156
15.958 177.163
16.003 115.88
16.0481 74.7389
16.0931 68.7015
16.1382 66.0912
16.1833 63.323
16.2283 61.3101
16.2734 60.9799
16.3185 61.358
16.3636 62.4069
16.4086 60.7314
16.4537 58.4703
16.4988 57.6489
16.5439 57.6311
16.589 57.3628
16.6341 57.2045
16.6792 56.8067
16.7243 57.0489
16.7694 57.3122
16.8145 56.925
16.8596 57.2766
16.9047 59.5069
16.9498 59.8255
16.9949 58.1024
17.04 58.2265
17.0851 59.5321
17.1302 61.4363
17.1754 63.9553
17.2205 67.5628
17.2656 72.9056
17.3108 81.8438
17.3559 86.1314
17.401 77.3493
17.4462 66.3004
17.4913 61.798
17.5365 61.3643
17.5815 61.5416
17.6268 61.7339
17.6718 62.829
17.7171 63.3148
17.7622 63.5237
17.8074 64.1869
17.8525 67.0154
17.8977 71.8303
17.9428 77.8044
17.9881 83.8643
18.0331 95.3091
18.0784 113.443
18.1237 137.491
18.1688 143.407
18.214 117.742
18.2591 92.2331
18.3044 89.1047
18.3495 97.3867
18.3948 107.926
18.4399 104.427
18.4852 85.4456
18.5303 70.4516
18.5756 64.9791
18.6207 63.9269
18.666 63.0362
18.7112 62.2035
18.7565 61.4935
18.8016 60.9845
18.8469 60.5642
18.892 60.0333
18.9374 59.4682
18.9825 59.1801
19.0278 59.2185
19.073 59.4146
19.1183 60.0147
19.1635 61.2142
19.2088 62.346
19.254 63.7141
19.2993 66.3386
19.3447 72.2697
19.3898 78.1853
19.4352 77.1782
19.4804 68.7276
19.5257 60.3974
19.5709 56.7056
19.6163 56.0984
19.6615 55.8561
19.7068 55.4669
19.752 55.3727
19.7974 55.6025
19.8426 56.8926
19.888 57.6188
19.9332 58.4229
19.9786 60.0463
20.0238 62.5513
20.0692 67.2479
20.1144 71.6182
20.1598 72.5381
20.205 67.565
20.2504 63.7201
20.2957 64.3669
20.3411 66.9857
20.3863 67.5168
20.4318 62.8178
20.477 57.1078
20.5224 54.2757
20.5677 53.3254
20.6131 52.3676
20.6586 51.771
20.7038 51.7089
20.7493 51.0641
20.7945 51.0266
20.84 50.8665
20.8853 50.76
20.9307 50.5214
20.976 50.4868
21.0215 50.5894
21.0668 50.9595
21.1122 51.2644
21.1575 51.7533
21.203 52.1783
21.2483 53.1109
21.2938 53.5835
21.3391 52.4346
21.3846 51.1624
21.4299 50.3732
21.4754 50.1902
21.5207 50.3791
21.5662 50.5164
21.6116 51.0643
21.6571 52.1796
21.7024 52.8774
21.7479 54.4246
21.7933 56.2348
21.8388 59.0708
21.8843 62.9157
21.9297 66.7126
21.9752 66.9832
22.0206 63.3473
22.0661 58.9177
22.1115 57.5384
22.157 58.0823
22.2024 57.2234
22.248 54.4497
22.2933 52.3879
22.3389 51.2862
22.3843 51.0707
22.4299 50.9674
22.4753 50.9126
22.5208 50.7083
22.5662 50.3783
22.6118 50.5034
22.6572 50.8673
22.7028 51.3221
22.7483 51.6982
22.7939 52.1382
22.8393 53.2101
22.8849 54.7753
22.9303 56.7163
22.9759 58.9753
23.0214 60.0259
23.067 58.1411
23.1126 54.2683
23.1581 51.7457
23.2037 50.8912
23.2492 50.7739
23.2948 50.8959
23.3403 51.2099
23.3859 51.5705
23.4314 52.3351
23.477 53.6442
23.5225 55.1641
23.5682 57.5688
23.6137 59.5972
23.6593 58.9164
23.7048 55.2741
23.7505 51.0332
23.796 48.9094
23.8417 48.0051
23.8872 47.3855
23.9329 47.2027
23.9784 46.7473
24.0241 46.473
24.0697 46.2325
24.1154 46.0367
24.1609 45.8302
24.2066 45.6184
24.2522 45.403
24.2979 45.1741
24.3434 45.0659
24.3892 44.9133
24.4349 44.8114
24.4805 44.5406
24.5262 44.6922
24.5718 44.4723
24.6175 44.7579
24.6631 44.5913
24.7089 44.238
24.7545 44.1257
24.8002 43.854
24.8458 43.8962
24.8916 43.8563
24.9372 43.8364
24.983 44.0715
25.0286 44.2682
25.0744 44.878
25.12 45.1793
25.1658 45.6613
25.2114 46.1169
25.2572 46.2586
25.3029 46.3234
25.3487 46.3647
25.3943 46.4443
25.4402 45.6305
25.4858 44.6769
25.5316 43.4484
25.5773 42.6829
25.6231 42.4321
25.669 42.1578
25.7147 42.1932
25.7605 42.1618
25.8062 42.122
25.8521 42.2125
25.8977 42.138
25.9436 42.1462
25.9893 42.296
26.0352 42.8872
26.0809 42.9494
26.1268 43.4076
26.1725 43.1106
26.2184 42.5465
26.2641 41.9581
26.31 41.7649
26.3557 41.7701
26.4017 41.7062
26.4474 42.0152
26.4933 42.1599
26.5391 42.5814
26.585 42.9118
26.6308 43.3569
26.6767 43.643
26.7225 43.5993
26.7684 43.2547
26.8142 42.4488
26.8601 42.1568
26.9059 41.7011
26.9519 41.1676
26.9979 40.8888
27.0437 40.4373
27.0896 40.2987
27.1354 40.2388
27.1814 40.2073
27.2272 39.9686
27.2732 40.0268
27.3191 39.8517
27.3651 39.8782
27.4109 39.8854
27.4569 39.9952
27.5027 39.9982
27.5488 39.9543
27.5946 39.9129
27.6407 39.7881
27.6865 39.5714
27.7326 39.3073
27.7784 39.3102
27.8245 39.177
27.8703 39.3803
27.9164 39.6666
27.9623 39.5838
28.0084 39.8711
28.0543 40.3553
28.1003 40.4135
28.1462 40.3477
28.1923 39.9283
28.2384 39.4765
28.2843 39.2647
28.3304 38.7931
28.3764 38.3112
28.4225 37.9118
28.4684 37.6814
28.5145 37.3503
28.5605 37.1487
28.6066 36.9841
28.6526 36.9052
28.6987 37.0583
28.7447 36.8125
28.7908 36.7216
28.8368 36.7782
28.8829 36.8194
28.9289 36.7753
28.9751 36.5419
29.0211 36.3736
29.0673 36.0813
29.1133 35.8924
29.1595 35.7753
29.2055 35.5985
29.2517 35.6392
29.2977 35.4979
29.3439 35.4041
29.3899 35.5388
29.4361 35.5195
29.4824 35.4174
29.5284 35.1213
29.5746 34.8649
29.6207 34.3562
29.6669 34.4649
29.713 34.2752
29.7593 34.1143
29.8053 34.2621
29.8516 34.1514
29.8977 34.1427
29.9439 33.8818
29.99 33.8042
30.0363 33.7502
30.0824 33.7619
30.1287 33.6252
30.1748 33.644
30.2211 33.6519
30.2673 33.5811
30.3136 33.6063
30.3597 33.5773
30.406 33.4984
30.4522 33.2895
30.4985 33.2752
30.5447 33.3671
30.591 33.2447
30.6372 33.3848
30.6835 33.3379
30.7297 33.4295
30.7761 33.427
30.8224 33.2044
30.8686 33.0387
30.915 32.9536
30.9612 32.8004
31.0076 32.5587
31.0538 32.3693
31.1002 32.3193
31.1464 32.227
31.1928 32.1704
31.2391 32.1708
31.2855 32.0511
31.3317 32.0326
31.3781 32.0235
31.4244 31.9845
31.4708 31.9495
31.5171 31.9647
31.5636 31.9239
31.6098 31.75
31.6563 31.6367
31.7026 31.4075
31.7491 31.349
31.7953 31.4104
31.8418 31.1925
31.8881 31.2796
31.9346 31.1316
31.9809 31.1307
32.0275 31.1054
32.074 31.0016
32.1203 30.7137
32.1668 30.7388
32.2132 30.466
32.2597 30.3992
32.306 30.3436
32.3526 30.0372
32.399 30.0738
32.4455 29.8741
32.4919 29.8168
32.5385 29.7461
32.5848 29.6235
32.6314 29.5672
32.6778 29.5373
32.7244 29.3798
32.7708 29.2879
32.8174 29.2447
32.8638 29.0426
32.9104 29.1654
32.9569 29.1351
33.0035 28.935
33.0499 28.8766
33.0966 28.9009
33.143 28.8473
33.1897 28.7571
33.2361 28.6337
33.2828 28.7164
33.3293 28.4148
33.3759 28.5239
33.4226 28.324
33.4691 28.1803
33.5158 28.1927
33.5623 28.0007
33.609 27.8375
33.6555 27.6824
33.7022 27.6611
33.7487 27.4904
33.7954 27.5379
33.842 27.4305
33.8887 27.3175
33.9353 27.3176
33.982 27.1254
34.0286 27.0816
34.0753 27.0306
34.1219 26.9144
34.1687 26.871
34.2152 26.7785
34.262 26.5977
34.3086 26.5581
34.3554 26.5289
34.402 26.3783
34.4488 26.2836
34.4954 26.2763
34.5422 26.114
34.5889 26.0694
34.6357 25.9518
34.6825 25.8863
34.7292 25.8053
34.776 25.7281
34.8227 25.5836
34.8695 25.6357
34.9162 25.5567
34.9631 25.4196
35.0098 25.4518
35.0566 25.2551
35.1033 25.2701
35.1502 25.2452
35.1969 25.1249
35.2438 25.12
35.2906 25.0252
35.3375 24.9492
35.3842 24.9333
35.4311 24.8635
35.4779 24.8521
35.5248 24.7823
35.5716 24.6866
35.6185 24.6585
35.6653 24.553
35.7123 24.3895
35.759 24.3289
35.806 24.2407
35.8528 24.1366
35.8998 24.2141
35.9468 23.9713
35.9936 23.9776
36.0406 23.9118
36.0874 23.9373
36.1345 23.7915
36.1813 23.7012
36.2283 23.55
36.2752 23.4887
36.3222 23.5001
36.3691 23.5147
36.4161 23.2762
36.463 23.3541
36.5101 23.2894
36.557 23.2292
36.6041 22.9931
36.651 23.0392
36.6981 23.0021
36.745 22.8876
36.7921 22.848
36.839 22.7782
36.8861 22.5948
36.9331 22.5708
36.9802 22.5414
37.0272 22.4424
37.0743 22.2782
37.1213 22.3136
37.1684 22.2352
37.2154 22.1371
37.2626 22.0234
37.3098 22.1059
37.3568 22.0379
37.404 21.9008
37.451 21.8358
37.4982 21.749
37.5452 21.7024
37.5924 21.553
37.6395 21.7179
37.6867 21.4413
37.7337 21.4018
37.781 21.3764
37.8281 21.2897
37.8753 21.1807
37.9224 21.1355
37.9697 21.0287
38.0168 20.9871
38.064 20.8794
38.1111 20.9023
38.1584 20.8434
38.2056 20.8063
38.2529 20.6931
38.3 20.611
38.3473 20.5941
38.3945 20.4842
38.4418 20.401
38.489 20.3846
38.5363 20.3045
38.5837 20.2087
38.6309 20.1229
38.6782 20.1183
38.7254 20.0357
38.7728 19.9334
38.82 19.9154
38.8674 19.8543
38.9146 19.8231
38.9621 19.7057
39.0093 19.6844
39.0567 19.5897
39.104 19.4835
39.1514 19.4065
39.1987 19.3713
39.2461 19.4386
39.2934 19.3003
39.3409 19.2411
39.3882 19.1597
39.4356 19.1105
39.483 18.9791
39.5304 18.9704
39.5778 18.9761
39.6253 18.8276
39.6726 18.7825
39.7201 18.8481
39.7675 18.675
39.815 18.6432
39.8624 18.5786
39.9099 18.5388
39.9575 18.4247
40.0049 18.3886
40.0525 18.2812
40.0999 18.2668
40.1474 18.2901
40.1949 18.085
40.2425 18.1171
40.2899 18.0723
40.3375 18.0201
40.385 17.95
40.4326 17.8247
40.48 17.8032
40.5277 17.8079
40.5752 17.7357
40.6228 17.6489
40.6703 17.5772
40.718 17.5204
40.7655 17.5273
40.8132 17.4036
40.8607 17.4379
40.9084 17.3543
40.9559 17.2152
41.0036 17.2493
41.0512 17.1519
41.0989 17.0919
41.1465 17.017
41.1942 16.9788
41.242 16.8676
41.2896 16.8665
41.3373 16.8173
41.3849 16.7647
41.4327 16.6546
41.4803 16.5764
41.5281 16.6132
41.5758 16.4866
41.6236 16.3953
41.6712 16.4022
41.7191 16.3729
41.7667 16.3085
41.8146 16.2574
41.8622 16.174
41.9101 16.1652
41.9578 16.015
42.0057 16.0204
42.0534 15.9476
42.1013 15.922
42.149 15.8696
42.1969 15.8514
42.2446 15.7617
42.2925 15.7273
42.3403 15.6326
42.3882 15.5714
42.436 15.5627
42.4839 15.5021
42.5319 15.4294
42.5797 15.3986
42.6277 15.3104
42.6755 15.3159
42.7235 15.2622
42.7713 15.1624
42.8193 15.1395
42.8671 15.0264
42.9152 15.066
42.963 14.9838
43.0111 14.934
43.0589 14.8509
43.107 14.8531
43.1549 14.7728
43.2029 14.7
43.2508 14.6489
43.2989 14.5737
43.3468 14.5869
43.3949 14.5028
43.4429 14.4699
43.491 14.4433
43.5389 14.3719
43.5871 14.3332
43.635 14.2692
43.6832 14.2332
43.7312 14.1526
43.7793 14.1439
43.8273 14.0505
43.8755 14.0208
43.9237 13.9375
43.9717 13.9623
44.0199 13.8534
44.068 13.8949
44.1162 13.8271
44.1642 13.7874
44.2125 13.7138
44.2606 13.6389
44.3088 13.622
44.3569 13.5434
44.4052 13.5307
44.4533 13.4329
44.5016 13.4094
44.5497 13.3945
44.598 13.3349
44.6461 13.2806
44.6945 13.2216
44.7426 13.118
44.791 13.1182
44.8391 13.0834
44.8875 13.0227
44.9357 13.0481
44.984 12.9392
45.0322 12.8772
45.0806 12.8461
45.1288 12.8301
45.1773 12.716
45.2257 12.7243
45.2739 12.683
45.3224 12.6401
45.3706 12.643
45.4191 12.5308
45.4673 12.5184
45.5158 12.4972
45.5641 12.4083
45.6126 12.3836
45.6609 12.3256
45.7094 12.2438
45.7577 12.2296
45.8063 12.1315
45.8546 12.1515
45.9031 12.0785
45.9515 12.0976
46.0001 11.9983
46.0484 11.9688
46.097 11.9539
46.1454 11.9303
46.194 11.8538
46.2424 11.8232
46.291 11.7532
46.3395 11.6695
46.3881 11.6298
46.4365 11.653
46.4852 11.576
46.5337 11.5485
46.5823 11.54
46.631 11.4295
46.6795 11.4271
46.7282 11.3961
46.7767 11.3293
46.8254 11.2586
46.8739 11.2057
46.9226 11.2142
46.9712 11.1678
47.0199 11.158
47.0685 11.0864
47.1173 11.0587
47.1658 10.9869
47.2146 10.9369
47.2632 10.8787
47.312 10.8986
47.3606 10.8396
47.4095 10.813
47.4581 10.7411
47.5069 10.7309
47.5556 10.6636
47.6044 10.6211
47.6531 10.6031
47.702 10.5496
47.7507 10.512
47.7996 10.4629
47.8483 10.4339
47.8972 10.3826
47.9461 10.3489
47.9948 10.336
48.0438 10.3029
48.0925 10.2534
48.1415 10.2226
48.1902 10.1705
48.2392 10.1682
48.288 10.1609
48.337 10.0943
48.3858 10.0312
48.4348 9.98982
48.4837 10.0062
48.5327 9.92959
48.5815 9.8906
48.6306 9.88337
48.6795 9.8166
48.7285 9.77674
48.7774 9.76635
48.8265 9.72531
48.8754 9.66194
48.9245 9.67885
48.9734 9.58522
49.0226 9.56709
49.0715 9.48214
49.1206 9.50759
49.1696 9.46614
49.2188 9.4398
49.2679 9.39886
49.3169 9.33676
49.3661 9.31284
49.4151 9.2865
49.4643 9.25672
49.5134 9.18824
49.5626 9.16162
49.6117 9.13778
49.6609 9.11408
49.71 9.04967
49.7592 8.99008
49.8083 9.00655
49.8576 8.97332
49.9067 8.92424
49.956 8.8986
50.0052 8.86324
50.0545 8.8422
50.1036 8.80029
50.153 8.76415
50.2022 8.73875
50.2515 8.72174
50.3007 8.64949
50.3501 8.61156
50.3993 8.57099
50.4487 8.55664
50.498 8.55228
50.5474 8.51954
50.5966 8.47224
50.6461 8.4561
50.6955 8.39547
50.7448 8.36736
50.7943 8.3155
50.8436 8.31612
50.8931 8.27574
50.9424 8.25828
50.9919 8.18451
51.0413 8.17908
51.0908 8.10379
51.1402 8.09458
51.1897 8.07054
51.2391 8.03158
51.2887 7.99666
51.3381 7.9827
51.3877 7.98863
51.4371 7.90593
51.4867 7.89358
51.5362 7.85347
51.5858 7.82808
51.6353 7.74874
51.6849 7.76783
51.7344 7.72772
51.7841 7.71869
51.8336 7.67067
51.8833 7.58152
51.9328 7.6002
51.9826 7.54406
52.0323 7.5276
52.0818 7.46291
52.1316 7.47032
52.1812 7.45756
52.231 7.39418
52.2806 7.33961
52.3304 7.34275
52.38 7.31652
52.4298 7.27286
52.4794 7.21807
52.5293 7.21364
52.5789 7.17668
52.6288 7.15753
52.6785 7.14544
52.7284 7.09706
52.7781 7.05731
52.828 7.05543
52.8777 6.95855
52.9276 6.98227
52.9774 6.91548
53.0273 6.93336
53.0771 6.84587
53.1271 6.84094
53.1769 6.84682
53.2269 6.80394
53.2767 6.81768
53.3267 6.76808
53.3765 6.75886
53.4266 6.70044
53.4766 6.65854
53.5265 6.63123
53.5765 6.61036
53.6264 6.57081
53.6765 6.56257
53.7264 6.51182
53.7765 6.48326
53.8265 6.43501
53.8766 6.37579
53.9266 6.39152
53.9767 6.38341
54.0267 6.34997
54.0769 6.30268
54.1269 6.29577
54.1771 6.31025
54.2271 6.21486
54.2773 6.15683
54.3274 6.19787
54.3776 6.13938
54.4277 6.1156
54.478 6.05733
54.528 6.01144
54.5783 5.99778
54.6285 5.92626
54.6788 5.88683
54.7289 5.85874
54.7792 5.83206
54.8296 5.73626
54.8798 5.68117
54.9301 5.62537
54.9803 5.65112
55.0307 5.63018
55.0809 5.592
55.1314 5.54959
55.1816 5.45627
55.232 5.43064
55.2823 5.38247
55.3328 5.28762
55.383 5.2419
55.4335 5.23083
55.4838 5.15419
55.5344 5.14138
55.5847 5.16006
55.6352 5.05006
55.6856 5.00201
55.7361 4.98722