File: XRD/Ni3Fe_FD0310.xy
TT I
1.27165 7.50243
1.31627 6.5307
1.36089 7.0042
1.40551 6.00639
1.45013 6.63236
1.49476 6.67427
1.53938 5.76006
1.584 5.54334
1.62863 5.19525
1.67325 5.15587
1.71787 5.9325
1.7625 4.74947
1.80712 5.116
1.85174 4.53302
1.89636 4.71897
1.94099 5.44567
1.98562 5.14377
2.03025 4.79997
2.07487 4.46639
2.11949 4.81546
2.16411 4.63381
2.20874 19.302
2.25338 34.0821
2.298 6.03213
2.34263 4.88266
2.38725 5.16365
2.43188 5.10259
2.4765 6.21446
2.52115 5.81325
2.56577 6.21953
2.6104 6.7649
2.65503 6.00949
2.69965 7.55744
2.7443 7.1288
2.78893 7.72909
2.83356 8.24187
2.87818 8.49869
2.92281 8.94701
2.96744 9.73958
3.01209 10.5807
3.05672 11.252
3.10135 12.39
3.14599 12.9192
3.19062 14.2441
3.23527 15.2126
3.2799 15.7732
3.32454 17.4036
3.36917 18.0416
3.4138 18.9818
3.45844 20.4589
3.50309 21.4221
3.54773 22.6334
3.59237 25.5546
3.637 135.063
3.68164 82.7701
3.7263 27.5495
3.77094 26.7127
3.81558 27.8327
3.86022 28.3132
3.90486 29.9985
3.9495 30.7197
3.99416 31.9599
4.0388 33.451
4.08344 34.5869
4.12809 36.058
4.17273 38.8319
4.21738 46.9906
4.26204 369.404
4.30669 334.723
4.35133 54.3743
4.39598 46.9155
4.44063 59.78
4.4853 78.8244
4.52995 53.3369
4.5746 52.7527
4.61925 54.0064
4.6639 56.8237
4.70855 59.7187
4.75322 63.1435
4.79788 65.2437
4.84253 68.5278
4.88719 73.1062
4.93184 76.8736
4.97652 82.9549
5.02118 89.6342
5.06583 98.3676
5.11049 112.718
5.15515 219.669
5.19981 478.657
5.24449 2832.0
5.28916 10992.8
5.33382 4214.13
5.37848 254.445
5.42315 144.633
5.46783 121.338
5.5125 111.415
5.55716 106.252
5.60183 102.914
5.6465 100.608
5.69117 97.6672
5.73586 95.7166
5.78053 95.6039
5.8252 95.606
5.86988 96.372
5.91455 99.0742
5.95924 109.445
6.00392 246.962
6.0486 992.601
6.09328 3588.75
6.13795 3917.91
6.18263 363.746
6.22733 105.844
6.27201 90.5949
6.3167 123.093
6.36138 89.7162
6.40606 72.3788
6.45075 70.1495
6.49545 67.9717
6.54014 66.2275
6.58483 65.5248
6.62952 65.9357
6.67421 112.343
6.71892 201.031
6.76361 77.6837
6.8083 61.6464
6.853 59.6636
6.89769 59.1857
6.94239 58.6157
6.98711 58.1631
7.03181 57.5579
7.07651 57.8066
7.12121 57.5251
7.16591 58.2532
7.21063 58.3431
7.25533 78.6636
7.30004 258.39
7.34475 119.229
7.38945 60.0024
7.43416 56.9531
7.47889 56.5685
7.5236 56.9671
7.56831 57.6721
7.61303 60.4731
7.65774 60.8774
7.70247 58.0709
7.74719 58.2552
7.79191 58.7119
7.83663 58.7747
7.88135 59.6808
7.92607 60.8518
7.97081 61.9314
8.01553 62.638
8.06026 64.4313
8.10498 66.1436
8.14971 80.2002
8.19446 78.3948
8.23919 71.9323
8.28392 73.9205
8.32865 76.1845
8.37339 80.3042
8.41812 89.2913
8.46288 133.56
8.50761 187.274
8.55235 412.422
8.59709 946.341
8.64183 2028.06
8.68658 1295.55
8.73134 227.345
8.77609 107.683
8.82083 97.3888
8.86558 93.2939
8.91033 94.2316
8.9551 98.2505
8.99985 88.8629
9.04461 86.0437
9.08936 85.1624
9.13412 84.2544
9.17888 84.2885
9.22365 85.7947
9.26841 84.5541
9.31318 85.2295
9.35794 85.2957
9.4027 85.4995
9.44749 86.1183
9.49226 86.6508
9.53703 87.6568
9.5818 89.7593
9.62657 96.4274
9.67134 107.003
9.71614 97.5286
9.76091 96.3373
9.80569 99.2216
9.85047 102.762
9.89525 138.389
9.94005 158.783
9.98484 194.33
10.0296 361.8
10.0744 681.694
10.1192 1442.06
10.164 1842.12
10.2088 598.045
10.2536 151.749
10.2984 123.04
10.3432 126.491
10.388 110.239
10.4328 125.066
10.4776 167.592
10.5224 248.41
10.5672 438.977
10.612 549.15
10.6568 259.705
10.7017 105.941
10.7465 90.6848
10.7913 86.6484
10.8361 84.1499
10.8809 81.7416
10.9257 81.9909
10.9706 83.763
11.0154 77.8139
11.0602 75.2653
11.105 74.5753
11.1499 81.7695
11.1947 95.43
11.2395 81.1483
11.2844 74.763
11.3292 69.9876
11.374 68.4467
11.4189 67.9315
11.4637 67.4496
11.5086 67.9384
11.5534 73.4989
11.5983 69.1572
11.6431 65.8586
11.688 65.205
11.7328 65.1456
11.7777 65.0957
11.8225 64.6303
11.8674 64.3865
11.9122 64.9328
11.9571 64.9795
12.002 65.6992
12.0468 70.6192
12.0917 82.8627
12.1366 100.935
12.1814 134.39
12.2263 194.177
12.2712 189.729
12.3161 118.798
12.3609 78.0193
12.4058 67.7657
12.4507 66.8806
12.4956 66.7991
12.5405 66.8648
12.5853 67.9838
12.6302 79.9793
12.6751 89.8285
12.72 75.0862
12.7649 70.2695
12.8098 70.5194
12.8547 71.8375
12.8996 73.0303
12.9445 74.1335
12.9894 75.8217
13.0343 77.8231
13.0792 80.9846
13.1242 91.7374
13.1691 119.01
13.214 149.967
13.2589 206.021
13.3038 315.743
13.3487 444.315
13.3937 329.864
13.4386 150.091
13.4835 113.231
13.5285 126.716
13.5734 152.821
13.6183 208.726
13.6633 308.856
13.7082 374.448
13.7531 237.37
13.7981 112.45
13.843 85.5318
13.888 82.6818
13.9329 79.3074
13.9779 78.2664
14.0228 76.5847
14.0678 75.2817
14.1127 74.868
14.1577 75.6132
14.2027 73.9771
14.2476 72.5442
14.2926 73.0958
14.3376 75.0457
14.3825 73.1699
14.4275 71.1578
14.4725 70.641
14.5175 70.9829
14.5624 71.0726
14.6074 74.5885
14.6524 75.3541
14.6974 72.7412
14.7424 73.9946
14.7874 81.9872
14.8324 92.4172
14.8774 107.294
14.9224 134.434
14.9674 183.22
15.0124 228.153
15.0574 177.483
15.1024 105.341
15.1474 76.6637
15.1924 73.5584
15.2374 74.8459
15.2824 74.3261
15.3274 71.1907
15.3725 69.0897
15.4175 68.51
15.4625 68.2151
15.5076 68.8045
15.5526 68.8104
15.5976 67.8778
15.6426 68.8886
15.6877 75.1194
15.7327 83.3608
15.7778 93.6757
15.8228 113.791
15.8679 150.314
15.9129 193.572
15.958 183.148
16.003 116.819
16.0481 74.8482
16.0931 68.9125
16.1382 66.5963
16.1833 63.1803
16.2283 61.1321
16.2734 60.7109
16.3185 61.3733
16.3636 63.1641
16.4086 61.0035
16.4537 58.624
16.4988 57.6563
16.5439 57.5334
16.589 57.0474
16.6341 56.8235
16.6792 56.4843
16.7243 56.9616
16.7694 57.1014
16.8145 57.0859
16.8596 57.212
16.9047 59.8917
16.9498 60.2845
16.9949 58.1836
17.04 57.7436
17.0851 58.9539
17.1302 60.9647
17.1754 63.3641
17.2205 66.5692
17.2656 71.8318
17.3108 81.0545
17.3559 85.3918
17.401 77.2056
17.4462 66.1778
17.4913 61.3327
17.5365 61.0244
17.5815 61.1873
17.6268 61.3639
17.6718 62.5522
17.7171 63.2568
17.7622 63.2339
17.8074 63.6222
17.8525 66.18
17.8977 70.9471
17.9428 76.2138
17.9881 82.0136
18.0331 92.9477
18.0784 110.762
18.1237 136.875
18.1688 144.357
18.214 118.46
18.2591 91.3548
18.3044 88.0657
18.3495 95.6687
18.3948 107.736
18.4399 106.275
18.4852 86.4165
18.5303 70.4098
18.5756 64.8767
18.6207 63.7187
18.666 62.7362
18.7112 61.9066
18.7565 61.0415
18.8016 60.6088
18.8469 60.0161
18.892 59.5824
18.9374 59.2435
18.9825 59.0701
19.0278 58.9599
19.073 59.1924
19.1183 59.7755
19.1635 60.7929
19.2088 61.7819
19.254 63.0457
19.2993 65.5224
19.3447 71.4884
19.3898 77.9824
19.4352 77.8604
19.4804 69.247
19.5257 60.4429
19.5709 56.3958
19.6163 55.6329
19.6615 55.4251
19.7068 55.215
19.752 55.3635
19.7974 55.4812
19.8426 56.2505
19.888 57.1399
19.9332 57.9221
19.9786 59.4622
20.0238 61.728
20.0692 66.3417
20.1144 71.2022
20.1598 72.269
20.205 66.9482
20.2504 63.4811
20.2957 63.4924
20.3411 66.552
20.3863 67.9575
20.4318 62.8973
20.477 57.0373
20.5224 54.3091
20.5677 53.2406
20.6131 52.1974
20.6586 51.5565
20.7038 51.3728
20.7493 50.8107
20.7945 50.6729
20.84 50.559
20.8853 50.3048
20.9307 50.2201
20.976 50.4563
21.0215 50.2664
21.0668 50.7328
21.1122 50.9556
21.1575 51.4195
21.203 51.9346
21.2483 52.7922
21.2938 53.541
21.3391 52.4481
21.3846 51.0064
21.4299 50.1924
21.4754 49.833
21.5207 50.2637
21.5662 50.4072
21.6116 50.8288
21.6571 51.6723
21.7024 52.3298
21.7479 53.8167
21.7933 55.6148
21.8388 58.4191
21.8843 62.0916
21.9297 66.0528
21.9752 67.0888
22.0206 63.1305
22.0661 58.4872
22.1115 57.3875
22.157 58.0157
22.2024 57.0846
22.248 54.3816
22.2933 52.2415
22.3389 51.0535
22.3843 50.9238
22.4299 50.8787
22.4753 50.7638
22.5208 50.3607
22.5662 50.0115
22.6118 50.342
22.6572 50.4274
22.7028 50.9822
22.7483 51.4271
22.7939 51.7369
22.8393 52.9729
22.8849 54.3394
22.9303 56.1829
22.9759 58.8995
23.0214 60.0273
23.067 58.1951
23.1126 54.2073
23.1581 51.3797
23.2037 50.5394
23.2492 50.5276
23.2948 50.4972
23.3403 50.7973
23.3859 51.0826
23.4314 51.8669
23.477 53.0274
23.5225 54.7576
23.5682 57.0381
23.6137 59.7161
23.6593 59.0813
23.7048 55.2572
23.7505 51.0757
23.796 48.6665
23.8417 47.784
23.8872 47.2121
23.9329 46.9124
23.9784 46.4538
24.0241 46.2691
24.0697 46.0262
24.1154 45.7367
24.1609 45.4758
24.2066 45.5251
24.2522 45.2557
24.2979 44.9389
24.3434 44.7131
24.3892 44.5112
24.4349 44.5859
24.4805 44.2767
24.5262 44.3498
24.5718 44.3921
24.6175 44.4935
24.6631 44.314
24.7089 44.0387
24.7545 43.9797
24.8002 43.6253
24.8458 43.7182
24.8916 43.5489
24.9372 43.5669
24.983 43.9666
25.0286 44.0835
25.0744 44.302
25.12 44.7519
25.1658 45.4396
25.2114 45.9717
25.2572 46.0814
25.3029 46.0099
25.3487 46.2482
25.3943 46.4136
25.4402 45.6512
25.4858 44.5727
25.5316 43.1999
25.5773 42.4164
25.6231 42.3338
25.669 42.0212
25.7147 42.0385
25.7605 41.8067
25.8062 41.9891
25.8521 42.1528
25.8977 41.9806
25.9436 42.125
25.9893 42.0723
26.0352 42.5794
26.0809 42.6193
26.1268 43.0894
26.1725 42.9404
26.2184 42.5375
26.2641 41.7996
26.31 41.583
26.3557 41.467
26.4017 41.577
26.4474 41.7011
26.4933 41.9115
26.5391 42.3114
26.585 42.5541
26.6308 43.1722
26.6767 43.3019
26.7225 43.4989
26.7684 43.0735
26.8142 42.3869
26.8601 42.0063
26.9059 41.4666
26.9519 41.0952
26.9979 40.6583
27.0437 40.2444
27.0896 39.95
27.1354 40.0803
27.1814 39.9439
27.2272 39.7915
27.2732 39.9111
27.3191 39.6105
27.3651 39.7233
27.4109 39.5361
27.4569 39.7505
27.5027 39.6739
27.5488 39.9345
27.5946 39.6482
27.6407 39.6828
27.6865 39.4286
27.7326 39.1078
27.7784 39.2483
27.8245 39.0916
27.8703 39.2468
27.9164 39.3558
27.9623 39.4895
28.0084 39.7958
28.0543 40.2177
28.1003 40.3321
28.1462 40.1044
28.1923 39.8465
28.2384 39.2478
28.2843 39.0975
28.3304 38.6352
28.3764 38.3076
28.4225 37.7056
28.4684 37.5264
28.5145 37.2176
28.5605 37.1417
28.6066 36.847
28.6526 36.9431
28.6987 36.8714
28.7447 36.7032
28.7908 36.573
28.8368 36.6357
28.8829 36.6107
28.9289 36.4328
28.9751 36.4211
29.0211 36.1446
29.0673 35.8757
29.1133 35.7082
29.1595 35.6861
29.2055 35.4939
29.2517 35.5653
29.2977 35.2856
29.3439 35.385
29.3899 35.3517
29.4361 35.3379
29.4824 35.2478
29.5284 34.992
29.5746 34.6701
29.6207 34.3477
29.6669 34.2145
29.713 34.1043
29.7593 34.0222
29.8053 33.9765
29.8516 34.0305
29.8977 33.8741
29.9439 33.6973
29.99 33.6576
30.0363 33.5977
30.0824 33.6429
30.1287 33.4194
30.1748 33.6107
30.2211 33.5762
30.2673 33.4576
30.3136 33.4773
30.3597 33.4108
30.406 33.2795
30.4522 33.1497
30.4985 33.0744
30.5447 33.1452
30.591 33.0577
30.6372 33.23
30.6835 33.1467
30.7297 33.2795
30.7761 33.2791
30.8224 33.1243
30.8686 32.9663
30.915 32.7855
30.9612 32.6575
31.0076 32.422
31.0538 32.2984
31.1002 32.2412
31.1464 31.9818
31.1928 32.0464
31.2391 32.0276
31.2855 31.9907
31.3317 31.853
31.3781 31.9456
31.4244 31.8872
31.4708 31.8292
31.5171 31.8337
31.5636 31.8441
31.6098 31.5819
31.6563 31.3962
31.7026 31.2773
31.7491 31.0595
31.7953 31.1739
31.8418 31.1394
31.8881 31.0923
31.9346 31.0984
31.9809 31.1191
32.0275 30.99
32.074 30.8858
32.1203 30.7102
32.1668 30.5966
32.2132 30.4833
32.2597 30.2455
32.306 30.1518
32.3526 29.9948
32.399 29.8977
32.4455 29.8681
32.4919 29.6791
32.5385 29.6572
32.5848 29.5235
32.6314 29.4959
32.6778 29.4166
32.7244 29.2031
32.7708 29.2454
32.8174 29.0694
32.8638 29.0228
32.9104 28.996
32.9569 28.9941
33.0035 28.8333
33.0499 28.7364
33.0966 28.7124
33.143 28.6846
33.1897 28.5894
33.2361 28.5659
33.2828 28.549
33.3293 28.3025
33.3759 28.2776
33.4226 28.2522
33.4691 28.0974
33.5158 27.9885
33.5623 27.9389
33.609 27.7237
33.6555 27.5779
33.7022 27.538
33.7487 27.511
33.7954 27.4807
33.842 27.255
33.8887 27.2826
33.9353 27.19
33.982 27.1293
34.0286 27.017
34.0753 26.8733
34.1219 26.8406
34.1687 26.7654
34.2152 26.7196
34.262 26.4813
34.3086 26.4574
34.3554 26.4603
34.402 26.4042
34.4488 26.1925
34.4954 26.1309
34.5422 26.0636
34.5889 25.9265
34.6357 25.7885
34.6825 25.8
34.7292 25.7679
34.776 25.5995
34.8227 25.5886
34.8695 25.5102
34.9162 25.5091
34.9631 25.2903
35.0098 25.3342
35.0566 25.1488
35.1033 25.1087
35.1502 25.0986
35.1969 25.0764
35.2438 25.0299
35.2906 24.915
35.3375 24.8738
35.3842 24.7486
35.4311 24.7838
35.4779 24.7272
35.5248 24.7256
35.5716 24.6606
35.6185 24.53
35.6653 24.4184
35.7123 24.3438
35.759 24.2443
35.806 24.1911
35.8528 24.0981
35.8998 24.0872
35.9468 23.928
35.9936 23.9143
36.0406 23.7677
36.0874 23.7763
36.1345 23.706
36.1813 23.6071
36.2283 23.4744
36.2752 23.4907
36.3222 23.4226
36.3691 23.3365
36.4161 23.2194
36.463 23.24
36.5101 23.2077
36.557 23.1137
36.6041 22.9685
36.651 22.9335
36.6981 22.8402
36.745 22.8044
36.7921 22.8233
36.839 22.7125
36.8861 22.5984
36.9331 22.4361
36.9802 22.4712
37.0272 22.3754
37.0743 22.2005
37.1213 22.1849
37.1684 22.1421
37.2154 22.1456
37.2626 21.97
37.3098 22.0024
37.3568 21.9209
37.404 21.8031
37.451 21.7465
37.4982 21.6708
37.5452 21.5625
37.5924 21.5383
37.6395 21.5887
37.6867 21.3779
37.7337 21.2906
37.781 21.2973
37.8281 21.2188
37.8753 21.0532
37.9224 21.0114
37.9697 20.9762
38.0168 20.9014
38.064 20.8191
38.1111 20.7803
38.1584 20.6823
38.2056 20.701
38.2529 20.5863
38.3 20.513
38.3473 20.4689
38.3945 20.3693
38.4418 20.3295
38.489 20.3269
38.5363 20.1654
38.5837 20.1202
38.6309 20.1664
38.6782 19.968
38.7254 19.9721
38.7728 19.8856
38.82 19.7666
38.8674 19.7792
38.9146 19.7088
38.9621 19.6477
39.0093 19.6205
39.0567 19.5712
39.104 19.4843
39.1514 19.4572
39.1987 19.3212
39.2461 19.2765
39.2934 19.2551
39.3409 19.1541
39.3882 19.0407
39.4356 19.0217
39.483 18.9764
39.5304 18.884
39.5778 18.8871
39.6253 18.7124
39.6726 18.7128
39.7201 18.6448
39.7675 18.5838
39.815 18.5668
39.8624 18.5098
39.9099 18.4153
39.9575 18.3883
40.0049 18.3277
40.0525 18.1871
40.0999 18.2286
40.1474 18.1236
40.1949 18.0104
40.2425 17.9967
40.2899 17.9954
40.3375 17.8997
40.385 17.8687
40.4326 17.7654
40.48 17.7485
40.5277 17.7272
40.5752 17.5898
40.6228 17.5427
40.6703 17.4513
40.718 17.4887
40.7655 17.3895
40.8132 17.3334
40.8607 17.2899
40.9084 17.2879
40.9559 17.1434
41.0036 17.2075
41.0512 17.1323
41.0989 17.0482
41.1465 16.9434
41.1942 16.9153
41.242 16.8529
41.2896 16.7872
41.3373 16.6966
41.3849 16.7433
41.4327 16.6545
41.4803 16.5402
41.5281 16.5331
41.5758 16.4746
41.6236 16.3663
41.6712 16.3103
41.7191 16.2744
41.7667 16.2303
41.8146 16.1951
41.8622 16.0885
41.9101 16.1029
41.9578 16.0042
42.0057 16.0041
42.0534 15.9434
42.1013 15.9034
42.149 15.818
42.1969 15.7407
42.2446 15.6968
42.2925 15.714
42.3403 15.5828
42.3882 15.5704
42.436 15.5585
42.4839 15.456
42.5319 15.4571
42.5797 15.3405
42.6277 15.3596
42.6755 15.301
42.7235 15.1232
42.7713 15.1378
42.8193 15.1027
42.8671 15.0495
42.9152 14.9985
42.963 14.9191
43.0111 14.8613
43.0589 14.8393
43.107 14.7812
43.1549 14.738
43.2029 14.6489
43.2508 14.6223
43.2989 14.574
43.3468 14.5181
43.3949 14.445
43.4429 14.4398
43.491 14.3697
43.5389 14.3445
43.5871 14.2642
43.635 14.2087
43.6832 14.184
43.7312 14.1646
43.7793 14.1024
43.8273 14.0362
43.8755 13.9488
43.9237 13.9096
43.9717 13.9234
44.0199 13.8635
44.068 13.8004
44.1162 13.7173
44.1642 13.7459
44.2125 13.6881
44.2606 13.6568
44.3088 13.5442
44.3569 13.5202
44.4052 13.4875
44.4533 13.4234
44.5016 13.3472
44.5497 13.361
44.598 13.2292
44.6461 13.1936
44.6945 13.1767
44.7426 13.1496
44.791 12.9974
44.8391 13.0917
44.8875 12.9844
44.9357 12.9526
44.984 12.9229
45.0322 12.8495
45.0806 12.8225
45.1288 12.7545
45.1773 12.7212
45.2257 12.6611
45.2739 12.6628
45.3224 12.5974
45.3706 12.5763
45.4191 12.4613
45.4673 12.4549
45.5158 12.3848
45.5641 12.3601
45.6126 12.3113
45.6609 12.2869
45.7094 12.2161
45.7577 12.227
45.8063 12.1542
45.8546 12.0901
45.9031 12.013
45.9515 12.0185
46.0001 11.9871
46.0484 11.9065
46.097 11.8951
46.1454 11.8494
46.194 11.8441
46.2424 11.7978
46.291 11.7008
46.3395 11.676
46.3881 11.6537
46.4365 11.6181
46.4852 11.5584
46.5337 11.5167
46.5823 11.4859
46.631 11.4144
46.6795 11.3726
46.7282 11.3779
46.7767 11.3211
46.8254 11.239
46.8739 11.2128
46.9226 11.1813
46.9712 11.1121
47.0199 11.0833
47.0685 11.0295
47.1173 11.0109
47.1658 10.973
47.2146 10.9272
47.2632 10.9081
47.312 10.8823
47.3606 10.7692
47.4095 10.7462
47.4581 10.7077
47.5069 10.6915
47.5556 10.6436
47.6044 10.6125
47.6531 10.5715
47.702 10.4882
47.7507 10.4629
47.7996 10.4086
47.8483 10.4191
47.8972 10.4164
47.9461 10.3616
47.9948 10.3012
48.0438 10.2641
48.0925 10.2833
48.1415 10.1727
48.1902 10.1321
48.2392 10.1109
48.288 10.085
48.337 10.0222
48.3858 10.0099
48.4348 10.0019
48.4837 9.9287
48.5327 9.94716
48.5815 9.85867
48.6306 9.8338
48.6795 9.79267
48.7285 9.75837
48.7774 9.70851
48.8265 9.68303
48.8754 9.66406
48.9245 9.59971
48.9734 9.60644
49.0226 9.53581
49.0715 9.49027
49.1206 9.4598
49.1696 9.41225
49.2188 9.39343
49.2679 9.35645
49.3169 9.32219
49.3661 9.26361
49.4151 9.2611
49.4643 9.26239
49.5134 9.21816
49.5626 9.09576
49.6117 9.11106
49.6609 9.06427
49.71 9.05605
49.7592 9.02172
49.8083 8.94671
49.8576 8.91259
49.9067 8.90244
49.956 8.88396
50.0052 8.82944
50.0545 8.82569
50.1036 8.75099
50.153 8.75324
50.2022 8.6891
50.2515 8.67111
50.3007 8.61132
50.3501 8.60952
50.3993 8.52386
50.4487 8.56112
50.498 8.47822
50.5474 8.48458
50.5966 8.41574
50.6461 8.3905
50.6955 8.36029
50.7448 8.3491
50.7943 8.28061
50.8436 8.28794
50.8931 8.23273
50.9424 8.22702
50.9919 8.18634
51.0413 8.14714
51.0908 8.12396
51.1402 8.11507
51.1897 8.05334
51.2391 8.00966
51.2887 7.9865
51.3381 7.93704
51.3877 7.93412
51.4371 7.85976
51.4867 7.80494
51.5362 7.8212
51.5858 7.8009
51.6353 7.74766
51.6849 7.70859
51.7344 7.70281
51.7841 7.64703
51.8336 7.65549
51.8833 7.58403
51.9328 7.56178
51.9826 7.509
52.0323 7.49364
52.0818 7.46353
52.1316 7.42578
52.1812 7.40586
52.231 7.38794
52.2806 7.33902
52.3304 7.34418
52.38 7.29326
52.4298 7.24222
52.4794 7.23012
52.5293 7.22059
52.5789 7.18865
52.6288 7.13734
52.6785 7.09547
52.7284 7.10862
52.7781 7.07252
52.828 7.02269
52.8777 6.98193
52.9276 6.95876
52.9774 6.9449
53.0273 6.88357
53.0771 6.83275
53.1271 6.8631
53.1769 6.80508
53.2269 6.79043
53.2767 6.75047
53.3267 6.73168
53.3765 6.68101
53.4266 6.66945
53.4766 6.63673
53.5265 6.58407
53.5765 6.59388
53.6264 6.56553
53.6765 6.50541
53.7264 6.50511
53.7765 6.44683
53.8265 6.48376
53.8766 6.40867
53.9266 6.39609
53.9767 6.39981
54.0267 6.33941
54.0769 6.24251
54.1269 6.27726
54.1771 6.26549
54.2271 6.19973
54.2773 6.13947
54.3274 6.10427
54.3776 6.06368
54.4277 6.05369
54.478 6.0246
54.528 6.02214
54.5783 5.94734
54.6285 5.88182
54.6788 5.89662
54.7289 5.82414
54.7792 5.80371
54.8296 5.69527
54.8798 5.67912
54.9301 5.64808
54.9803 5.65386
55.0307 5.60142
55.0809 5.55608
55.1314 5.53671
55.1816 5.47708
55.232 5.43325
55.2823 5.36659
55.3328 5.30046
55.383 5.24286
55.4335 5.23411
55.4838 5.17584
55.5344 5.12426
55.5847 5.05302
55.6352 5.04393
55.6856 4.99979
55.7361 4.99312