File: XRD/Ni3Fe_FD0549.xy
TT I
1.27165 7.18945
1.31627 6.9838
1.36089 6.84025
1.40551 6.16961
1.45013 6.54145
1.49476 5.95953
1.53938 6.43665
1.584 4.94141
1.62863 5.33344
1.67325 4.98493
1.71787 5.3815
1.7625 4.87054
1.80712 4.41114
1.85174 4.86234
1.89636 4.85483
1.94099 4.55054
1.98562 4.6978
2.03025 4.67869
2.07487 4.25181
2.11949 5.29902
2.16411 5.17306
2.20874 13.4599
2.25338 20.4487
2.298 5.50484
2.34263 5.07784
2.38725 6.19531
2.43188 5.657
2.4765 6.08214
2.52115 6.90949
2.56577 7.08336
2.6104 7.72394
2.65503 7.98927
2.69965 8.26345
2.7443 7.56369
2.78893 8.2337
2.83356 7.94181
2.87818 8.63033
2.92281 8.57616
2.96744 9.02544
3.01209 10.3565
3.05672 11.0928
3.10135 12.1185
3.14599 12.8675
3.19062 14.2949
3.23527 14.9412
3.2799 15.8399
3.32454 17.0008
3.36917 17.8575
3.4138 19.0627
3.45844 19.4108
3.50309 21.1819
3.54773 22.0479
3.59237 23.9061
3.637 85.264
3.68164 54.917
3.7263 25.823
3.77094 26.3464
3.81558 26.9066
3.86022 27.5426
3.90486 29.2514
3.9495 30.2774
3.99416 30.921
4.0388 32.1869
4.08344 33.7744
4.12809 34.9246
4.17273 37.1789
4.21738 42.3454
4.26204 224.646
4.30669 192.632
4.35133 48.2142
4.39598 44.6656
4.44063 53.1768
4.4853 63.7016
4.52995 50.367
4.5746 51.4563
4.61925 53.3347
4.6639 55.944
4.70855 58.2097
4.75322 61.6232
4.79788 64.4169
4.84253 67.7961
4.88719 71.5288
4.93184 75.8975
4.97652 81.925
5.02118 88.1752
5.06583 95.8252
5.11049 108.224
5.15515 174.333
5.19981 388.421
5.24449 3039.4
5.28916 12243.7
5.33382 3117.45
5.37848 196.861
5.42315 130.569
5.46783 114.495
5.5125 106.857
5.55716 103.179
5.60183 99.0788
5.6465 97.3041
5.69117 95.2328
5.73586 92.8295
5.78053 92.4814
5.8252 92.3292
5.86988 93.1571
5.91455 96.3249
5.95924 105.515
6.00392 227.233
6.0486 1041.04
6.09328 4409.98
6.13795 3356.58
6.18263 264.704
6.22733 94.8418
6.27201 83.4941
6.3167 99.3011
6.36138 80.0555
6.40606 69.0402
6.45075 67.5525
6.49545 65.7058
6.54014 64.1985
6.58483 63.0176
6.62952 63.0358
6.67421 91.0781
6.71892 134.098
6.76361 67.6006
6.8083 58.8689
6.853 57.7509
6.89769 57.0884
6.94239 56.7713
6.98711 56.4582
7.03181 55.8298
7.07651 55.3498
7.12121 55.5655
7.16591 55.4659
7.21063 55.6844
7.25533 68.7081
7.30004 164.662
7.34475 87.9769
7.38945 56.6846
7.43416 54.8632
7.47889 54.8567
7.5236 55.2237
7.56831 55.5369
7.61303 57.0957
7.65774 57.4048
7.70247 56.4225
7.74719 56.4655
7.79191 56.7181
7.83663 57.0919
7.88135 58.2479
7.92607 59.0617
7.97081 60.0464
8.01553 61.2545
8.06026 62.422
8.10498 64.3255
8.14971 73.0313
8.19446 71.9166
8.23919 69.6668
8.28392 72.3806
8.32865 74.7482
8.37339 79.2405
8.41812 86.0881
8.46288 112.957
8.50761 172.11
8.55235 414.915
8.59709 1213.19
8.64183 2211.13
8.68658 952.686
8.73134 167.863
8.77609 100.045
8.82083 93.0967
8.86558 90.0985
8.91033 90.0305
8.9551 91.2912
8.99985 86.0348
9.04461 84.1146
9.08936 83.2823
9.13412 82.7248
9.17888 82.7274
9.22365 83.4408
9.26841 82.2955
9.31318 83.0838
9.35794 83.2501
9.4027 83.6173
9.44749 84.4505
9.49226 84.9974
9.53703 86.3315
9.5818 87.6576
9.62657 92.0216
9.67134 98.5415
9.71614 93.8867
9.76091 94.6171
9.80569 97.0822
9.85047 100.519
9.89525 122.77
9.94005 135.812
9.98484 185.541
10.0296 361.401
10.0744 825.517
10.1192 1707.54
10.164 1591.18
10.2088 395.375
10.2536 126.017
10.2984 113.167
10.3432 114.325
10.388 105.368
10.4328 120.873
10.4776 166.109
10.5224 289.571
10.5672 513.381
10.612 504.118
10.6568 193.294
10.7017 95.6123
10.7465 86.8331
10.7913 83.4826
10.8361 81.4621
10.8809 79.5007
10.9257 78.7155
10.9706 78.8857
11.0154 75.1159
11.0602 73.2487
11.105 72.1026
11.1499 76.0122
11.1947 81.8856
11.2395 74.0681
11.2844 70.639
11.3292 67.6041
11.374 66.5823
11.4189 65.8865
11.4637 65.2945
11.5086 65.4965
11.5534 67.9532
11.5983 65.6364
11.6431 64.0502
11.688 63.2926
11.7328 63.39
11.7777 63.1405
11.8225 62.7721
11.8674 62.8919
11.9122 63.1386
11.9571 63.396
12.002 63.9603
12.0468 68.6886
12.0917 80.4231
12.1366 104.712
12.1814 153.346
12.2263 205.561
12.2712 165.872
12.3161 94.0454
12.3609 70.3025
12.4058 64.735
12.4507 64.8425
12.4956 64.649
12.5405 64.8029
12.5853 65.7112
12.6302 72.8957
12.6751 77.8846
12.72 70.2689
12.7649 68.159
12.8098 68.7683
12.8547 69.8861
12.8996 71.3674
12.9445 72.6951
12.9894 74.8191
13.0343 76.2444
13.0792 79.7541
13.1242 89.5327
13.1691 115.064
13.214 153.476
13.2589 243.333
13.3038 373.096
13.3487 431.463
13.3937 262.016
13.4386 122.714
13.4835 107.129
13.5285 123.457
13.5734 162.855
13.6183 250.948
13.6633 350.868
13.7082 344.249
13.7531 185.167
13.7981 97.2838
13.843 82.1205
13.888 80.0839
13.9329 77.5446
13.9779 76.1853
14.0228 75.0219
14.0678 73.6331
14.1127 72.8727
14.1577 72.7691
14.2027 71.7801
14.2476 70.8578
14.2926 71.0594
14.3376 71.9841
14.3825 70.4469
14.4275 69.1541
14.4725 69.1406
14.5175 69.2265
14.5624 69.5698
14.6074 71.6142
14.6524 71.9402
14.6974 70.882
14.7424 72.6936
14.7874 80.3915
14.8324 90.809
14.8774 112.718
14.9224 155.539
14.9674 209.73
15.0124 220.109
15.0574 148.914
15.1024 89.7092
15.1474 72.5129
15.1924 70.9021
15.2374 71.458
15.2824 70.4787
15.3274 68.4375
15.3725 67.2448
15.4175 66.8686
15.4625 66.3766
15.5076 66.5751
15.5526 66.7148
15.5976 66.2716
15.6426 67.6032
15.6877 73.4163
15.7327 81.097
15.7778 96.8981
15.8228 128.249
15.8679 171.886
15.9129 195.212
15.958 154.959
16.003 95.53
16.0481 67.5907
16.0931 64.8093
16.1382 62.7849
16.1833 61.005
16.2283 59.3567
16.2734 58.7032
16.3185 58.992
16.3636 59.4367
16.4086 57.8593
16.4537 56.5885
16.4988 55.9841
16.5439 55.9119
16.589 55.3876
16.6341 55.2472
16.6792 54.9478
16.7243 55.1533
16.7694 55.2806
16.8145 55.2557
16.8596 55.5842
16.9047 56.9491
16.9498 57.0731
16.9949 56.0561
17.04 56.2394
17.0851 57.7696
17.1302 59.0689
17.1754 62.3071
17.2205 67.2949
17.2656 74.8765
17.3108 83.0151
17.3559 82.2537
17.401 71.4891
17.4462 62.1004
17.4913 59.6854
17.5365 59.6834
17.5815 59.5797
17.6268 59.9118
17.6718 60.8324
17.7171 61.1471
17.7622 61.8638
17.8074 62.3833
17.8525 64.9081
17.8977 69.0466
17.9428 74.7566
17.9881 84.0107
18.0331 101.072
18.0784 122.646
18.1237 141.437
18.1688 132.093
18.214 103.147
18.2591 86.4591
18.3044 91.0616
18.3495 101.181
18.3948 107.087
18.4399 96.4646
18.4852 77.484
18.5303 66.3029
18.5756 62.3709
18.6207 61.7148
18.666 61.0079
18.7112 59.9061
18.7565 59.2976
18.8016 58.9205
18.8469 58.3447
18.892 58.1756
18.9374 57.6337
18.9825 57.5105
19.0278 57.2751
19.073 57.4401
19.1183 57.9207
19.1635 58.7149
19.2088 60.0579
19.254 62.4996
19.2993 66.9786
19.3447 73.0688
19.3898 76.8416
19.4352 72.4027
19.4804 63.1937
19.5257 56.8804
19.5709 54.553
19.6163 54.1798
19.6615 53.9577
19.7068 53.7121
19.752 53.6343
19.7974 53.9097
19.8426 55.0831
19.888 55.4346
19.9332 56.8177
19.9786 59.1587
20.0238 63.0921
20.0692 67.9013
20.1144 70.4932
20.1598 68.4185
20.205 63.7626
20.2504 62.3571
20.2957 64.2029
20.3411 66.1581
20.3863 64.6653
20.4318 58.4653
20.477 53.8301
20.5224 51.8029
20.5677 51.3006
20.6131 50.6416
20.6586 50.1195
20.7038 49.7766
20.7493 49.4479
20.7945 49.1831
20.84 49.125
20.8853 49.1504
20.9307 48.9062
20.976 49.0898
21.0215 49.0772
21.0668 49.3353
21.1122 49.8423
21.1575 50.3251
21.203 51.2027
21.2483 51.8155
21.2938 51.7468
21.3391 50.2683
21.3846 49.3199
21.4299 48.7792
21.4754 48.8531
21.5207 48.9793
21.5662 49.2374
21.6116 49.5881
21.6571 50.2662
21.7024 51.3657
21.7479 53.1102
21.7933 55.8653
21.8388 59.3815
21.8843 63.244
21.9297 65.1271
21.9752 63.3866
22.0206 59.7799
22.0661 56.7832
22.1115 56.3534
22.157 56.3331
22.2024 54.5289
22.248 51.6924
22.2933 50.1306
22.3389 49.46
22.3843 49.3612
22.4299 49.2864
22.4753 49.2894
22.5208 48.8889
22.5662 48.6543
22.6118 49.1697
22.6572 49.3318
22.7028 49.5001
22.7483 50.1971
22.7939 50.8228
22.8393 52.4545
22.8849 54.4627
22.9303 56.5463
22.9759 58.4289
23.0214 57.7199
23.067 54.6932
23.1126 51.3531
23.1581 49.4796
23.2037 49.0374
23.2492 49.1411
23.2948 49.2614
23.3403 49.5573
23.3859 50.1526
23.4314 51.2798
23.477 52.9955
23.5225 55.2118
23.5682 57.44
23.6137 58.3793
23.6593 55.83
23.7048 51.7367
23.7505 48.3515
23.796 46.848
23.8417 46.2095
23.8872 45.9578
23.9329 45.5459
23.9784 45.1796
24.0241 44.8659
24.0697 44.7563
24.1154 44.4748
24.1609 44.2361
24.2066 44.131
24.2522 43.849
24.2979 43.6906
24.3434 43.5306
24.3892 43.4526
24.4349 43.4243
24.4805 43.3361
24.5262 43.41
24.5718 43.21
24.6175 43.2447
24.6631 43.0275
24.7089 42.6059
24.7545 42.6148
24.8002 42.7424
24.8458 42.5087
24.8916 42.5492
24.9372 42.6174
24.983 42.8697
25.0286 43.2887
25.0744 43.7686
25.12 44.163
25.1658 44.7169
25.2114 44.9669
25.2572 45.0926
25.3029 45.0023
25.3487 45.2622
25.3943 44.8937
25.4402 43.7065
25.4858 42.6442
25.5316 41.6675
25.5773 41.2049
25.6231 41.2587
25.669 40.8526
25.7147 40.8568
25.7605 40.7936
25.8062 40.7848
25.8521 40.9456
25.8977 40.8798
25.9436 41.1535
25.9893 41.3318
26.0352 41.8096
26.0809 41.9941
26.1268 41.8634
26.1725 41.6518
26.2184 40.991
26.2641 40.5348
26.31 40.4722
26.3557 40.4282
26.4017 40.3333
26.4474 40.7691
26.4933 41.0133
26.5391 41.6096
26.585 41.9924
26.6308 42.4442
26.6767 42.4979
26.7225 42.3271
26.7684 41.687
26.8142 41.1107
26.8601 40.6996
26.9059 40.274
26.9519 39.8754
26.9979 39.4426
27.0437 39.1376
27.0896 38.9917
27.1354 39.0606
27.1814 39.0208
27.2272 38.9079
27.2732 38.9863
27.3191 38.7584
27.3651 38.7289
27.4109 38.7019
27.4569 38.8585
27.5027 38.7122
27.5488 38.9369
27.5946 38.7234
27.6407 38.4562
27.6865 38.4707
27.7326 38.1646
27.7784 38.1994
27.8245 38.0904
27.8703 38.3724
27.9164 38.5808
27.9623 38.6286
28.0084 39.0524
28.0543 39.3628
28.1003 39.2899
28.1462 39.082
28.1923 38.5976
28.2384 38.2692
28.2843 37.9411
28.3304 37.4739
28.3764 37.0125
28.4225 36.644
28.4684 36.5083
28.5145 36.2092
28.5605 36.1497
28.6066 35.8893
28.6526 35.8711
28.6987 35.8829
28.7447 35.7971
28.7908 35.7642
28.8368 35.6488
28.8829 35.6754
28.9289 35.6875
28.9751 35.4459
29.0211 35.1428
29.0673 34.9946
29.1133 34.8859
29.1595 34.6634
29.2055 34.6273
29.2517 34.5654
29.2977 34.4749
29.3439 34.4754
29.3899 34.4418
29.4361 34.4191
29.4824 34.1825
29.5284 33.9706
29.5746 33.5998
29.6207 33.4838
29.6669 33.3499
29.713 33.2684
29.7593 33.0572
29.8053 33.0457
29.8516 32.9936
29.8977 32.9449
29.9439 32.9089
29.99 32.7882
30.0363 32.622
30.0824 32.7825
30.1287 32.605
30.1748 32.7546
30.2211 32.7207
30.2673 32.5616
30.3136 32.6429
30.3597 32.5144
30.406 32.4092
30.4522 32.4439
30.4985 32.2589
30.5447 32.3958
30.591 32.3535
30.6372 32.3641
30.6835 32.3844
30.7297 32.4089
30.7761 32.3672
30.8224 32.169
30.8686 32.0385
30.915 31.7877
30.9612 31.6946
31.0076 31.6283
31.0538 31.3717
31.1002 31.3904
31.1464 31.1474
31.1928 31.1382
31.2391 31.1141
31.2855 31.1532
31.3317 31.0339
31.3781 31.1047
31.4244 31.1324
31.4708 30.9568
31.5171 31.0445
31.5636 30.9857
31.6098 30.7649
31.6563 30.6034
31.7026 30.4613
31.7491 30.3662
31.7953 30.4202
31.8418 30.3685
31.8881 30.4332
31.9346 30.279
31.9809 30.28
32.0275 30.1834
32.074 30.0325
32.1203 29.8499
32.1668 29.7828
32.2132 29.5714
32.2597 29.5264
32.306 29.4325
32.3526 29.1605
32.399 29.0834
32.4455 28.8881
32.4919 28.9866
32.5385 28.8733
32.5848 28.6855
32.6314 28.6518
32.6778 28.6498
32.7244 28.4262
32.7708 28.4356
32.8174 28.337
32.8638 28.2387
32.9104 28.3497
32.9569 28.1988
33.0035 28.0148
33.0499 28.0192
33.0966 27.9582
33.143 28.0251
33.1897 27.9203
33.2361 27.7722
33.2828 27.7115
33.3293 27.5959
33.3759 27.5656
33.4226 27.5519
33.4691 27.2898
33.5158 27.2691
33.5623 27.1031
33.609 26.9462
33.6555 26.8968
33.7022 26.9044
33.7487 26.7197
33.7954 26.6289
33.842 26.5132
33.8887 26.5174
33.9353 26.4527
33.982 26.3318
34.0286 26.2465
34.0753 26.1695
34.1219 26.0698
34.1687 26.0145
34.2152 26.0412
34.262 25.7077
34.3086 25.7483
34.3554 25.7126
34.402 25.6555
34.4488 25.4346
34.4954 25.4259
34.5422 25.3637
34.5889 25.2664
34.6357 25.1575
34.6825 25.1365
34.7292 25.0802
34.776 24.904
34.8227 24.8231
34.8695 24.7472
34.9162 24.8084
34.9631 24.6292
35.0098 24.638
35.0566 24.5224
35.1033 24.4102
35.1502 24.3854
35.1969 24.3292
35.2438 24.3389
35.2906 24.2755
35.3375 24.2408
35.3842 24.1552
35.4311 24.1573
35.4779 24.1267
35.5248 24.0769
35.5716 23.8997
35.6185 23.8784
35.6653 23.8293
35.7123 23.68
35.759 23.5994
35.806 23.5173
35.8528 23.4577
35.8998 23.3705
35.9468 23.2645
35.9936 23.2116
36.0406 23.1918
36.0874 23.2277
36.1345 23.0653
36.1813 22.9566
36.2283 22.8804
36.2752 22.7977
36.3222 22.9004
36.3691 22.7378
36.4161 22.5994
36.463 22.586
36.5101 22.4971
36.557 22.4794
36.6041 22.3304
36.651 22.2968
36.6981 22.3211
36.745 22.2435
36.7921 22.0759
36.839 21.976
36.8861 21.9433
36.9331 21.9324
36.9802 21.8274
37.0272 21.7282
37.0743 21.7116
37.1213 21.6846
37.1684 21.5448
37.2154 21.4665
37.2626 21.434
37.3098 21.3924
37.3568 21.2854
37.404 21.2308
37.451 21.0931
37.4982 21.0492
37.5452 20.9904
37.5924 20.9961
37.6395 20.9151
37.6867 20.9086
37.7337 20.7259
37.781 20.7124
37.8281 20.7015
37.8753 20.4953
37.9224 20.5083
37.9697 20.4761
38.0168 20.4002
38.064 20.2715
38.1111 20.2686
38.1584 20.1358
38.2056 20.0614
38.2529 20.0776
38.3 19.9484
38.3473 19.9362
38.3945 19.8285
38.4418 19.8162
38.489 19.7707
38.5363 19.6853
38.5837 19.5448
38.6309 19.5231
38.6782 19.4186
38.7254 19.3933
38.7728 19.3345
38.82 19.2626
38.8674 19.2928
38.9146 19.1942
38.9621 19.1395
39.0093 19.1
39.0567 18.99
39.104 18.9461
39.1514 18.809
39.1987 18.7792
39.2461 18.7662
39.2934 18.6948
39.3409 18.6345
39.3882 18.524
39.4356 18.4955
39.483 18.4294
39.5304 18.3845
39.5778 18.3455
39.6253 18.2732
39.6726 18.2139
39.7201 18.2194
39.7675 18.167
39.815 18.0769
39.8624 17.9701
39.9099 18.013
39.9575 17.814
40.0049 17.8476
40.0525 17.752
40.0999 17.6964
40.1474 17.6564
40.1949 17.6049
40.2425 17.5167
40.2899 17.4438
40.3375 17.4774
40.385 17.3114
40.4326 17.3012
40.48 17.2783
40.5277 17.2497
40.5752 17.1925
40.6228 17.1157
40.6703 17.0445
40.718 17.0083
40.7655 16.9393
40.8132 16.895
40.8607 16.8674
40.9084 16.8336
40.9559 16.7193
41.0036 16.617
41.0512 16.6553
41.0989 16.5483
41.1465 16.5022
41.1942 16.4946
41.242 16.3806
41.2896 16.3105
41.3373 16.265
41.3849 16.2089
41.4327 16.1208
41.4803 16.1034
41.5281 16.0473
41.5758 15.9811
41.6236 15.9113
41.6712 15.8884
41.7191 15.8525
41.7667 15.7962
41.8146 15.8362
41.8622 15.7314
41.9101 15.6439
41.9578 15.5089
42.0057 15.5241
42.0534 15.4818
42.1013 15.444
42.149 15.3869
42.1969 15.3828
42.2446 15.2414
42.2925 15.2262
42.3403 15.1375
42.3882 15.1487
42.436 15.0669
42.4839 14.9708
42.5319 14.9123
42.5797 14.9228
42.6277 14.8711
42.6755 14.8821
42.7235 14.7655
42.7713 14.7136
42.8193 14.698
42.8671 14.6452
42.9152 14.5506
42.963 14.5662
43.0111 14.4571
43.0589 14.4159
43.107 14.3714
43.1549 14.3609
43.2029 14.2439
43.2508 14.2488
43.2989 14.1688
43.3468 14.123
43.3949 14.0734
43.4429 13.9642
43.491 13.9492
43.5389 13.9403
43.5871 13.8823
43.635 13.8113
43.6832 13.8266
43.7312 13.7167
43.7793 13.6736
43.8273 13.6304
43.8755 13.6041
43.9237 13.5026
43.9717 13.5037
44.0199 13.5043
44.068 13.4087
44.1162 13.3374
44.1642 13.3253
44.2125 13.2747
44.2606 13.2688
44.3088 13.2148
44.3569 13.112
44.4052 13.1072
44.4533 13.0546
44.5016 13.0079
44.5497 12.9754
44.598 12.8979
44.6461 12.8808
44.6945 12.8211
44.7426 12.7894
44.791 12.6902
44.8391 12.6865
44.8875 12.6521
44.9357 12.5886
44.984 12.5025
45.0322 12.4969
45.0806 12.4554
45.1288 12.4101
45.1773 12.3718
45.2257 12.2811
45.2739 12.3469
45.3224 12.2383
45.3706 12.1907
45.4191 12.1626
45.4673 12.1587
45.5158 12.0805
45.5641 11.999
45.6126 11.9709
45.6609 11.9243
45.7094 11.8799
45.7577 11.8405
45.8063 11.8004
45.8546 11.8187
45.9031 11.7324
45.9515 11.6959
46.0001 11.6721
46.0484 11.6419
46.097 11.5615
46.1454 11.5301
46.194 11.4364
46.2424 11.4459
46.291 11.3735
46.3395 11.3816
46.3881 11.2905
46.4365 11.2845
46.4852 11.2467
46.5337 11.1869
46.5823 11.1712
46.631 11.091
46.6795 11.0524
46.7282 11.0456
46.7767 11.0006
46.8254 10.9421
46.8739 10.9206
46.9226 10.8842
46.9712 10.8066
47.0199 10.7723
47.0685 10.6977
47.1173 10.719
47.1658 10.669
47.2146 10.6212
47.2632 10.5591
47.312 10.5248
47.3606 10.5146
47.4095 10.4483
47.4581 10.4456
47.5069 10.3607
47.5556 10.3505
47.6044 10.297
47.6531 10.2835
47.702 10.2203
47.7507 10.1702
47.7996 10.146
47.8483 10.1607
47.8972 10.101
47.9461 10.0313
47.9948 10.0028
48.0438 10.028
48.0925 9.9562
48.1415 9.87863
48.1902 9.86108
48.2392 9.86338
48.288 9.81775
48.337 9.74648
48.3858 9.68671
48.4348 9.67362
48.4837 9.6617
48.5327 9.67068
48.5815 9.6062
48.6306 9.58452
48.6795 9.53174
48.7285 9.48647
48.7774 9.46879
48.8265 9.43994
48.8754 9.36701
48.9245 9.33823
48.9734 9.29833
49.0226 9.30355
49.0715 9.27014
49.1206 9.17913
49.1696 9.1747
49.2188 9.12917
49.2679 9.08807
49.3169 9.03166
49.3661 9.02196
49.4151 8.97256
49.4643 8.97676
49.5134 8.92779
49.5626 8.86001
49.6117 8.87663
49.6609 8.80829
49.71 8.76649
49.7592 8.76392
49.8083 8.72549
49.8576 8.70949
49.9067 8.6482
49.956 8.61959
50.0052 8.59426
50.0545 8.54384
50.1036 8.52629
50.153 8.4909
50.2022 8.46473
50.2515 8.39597
50.3007 8.38979
50.3501 8.36155
50.3993 8.31396
50.4487 8.29527
50.498 8.28717
50.5474 8.24338
50.5966 8.17696
50.6461 8.19822
50.6955 8.16011
50.7448 8.13664
50.7943 8.08198
50.8436 8.02428
50.8931 8.01744
50.9424 7.97891
50.9919 7.94115
51.0413 7.92183
51.0908 7.89677
51.1402 7.87972
51.1897 7.84079
51.2391 7.8103
51.2887 7.71421
51.3381 7.75355
51.3877 7.70841
51.4371 7.65776
51.4867 7.62529
51.5362 7.55723
51.5858 7.56811
51.6353 7.53299
51.6849 7.52927
51.7344 7.51638
51.7841 7.46587
51.8336 7.4168
51.8833 7.37935
51.9328 7.32673
51.9826 7.29585
52.0323 7.2728
52.0818 7.27841
52.1316 7.22035
52.1812 7.19954
52.231 7.14394
52.2806 7.17101
52.3304 7.12722
52.38 7.07728
52.4298 7.05716
52.4794 7.0316
52.5293 7.02274
52.5789 6.97949
52.6288 6.90163
52.6785 6.90682
52.7284 6.87427
52.7781 6.84111
52.828 6.82841
52.8777 6.81623
52.9276 6.77294
52.9774 6.74933
53.0273 6.7737
53.0771 6.69968
53.1271 6.67598
53.1769 6.63916
53.2269 6.59015
53.2767 6.58708
53.3267 6.51493
53.3765 6.54458
53.4266 6.51133
53.4766 6.49025
53.5265 6.41222
53.5765 6.41728
53.6264 6.39848
53.6765 6.38671
53.7264 6.33891
53.7765 6.35216
53.8265 6.23896
53.8766 6.25209
53.9266 6.22663
53.9767 6.19674
54.0267 6.12881
54.0769 6.11451
54.1269 6.07368
54.1771 6.07481
54.2271 6.05376
54.2773 6.0227
54.3274 5.98945
54.3776 5.92188
54.4277 5.91399
54.478 5.88871
54.528 5.82221
54.5783 5.81011
54.6285 5.77915
54.6788 5.72559
54.7289 5.69516
54.7792 5.6468
54.8296 5.61029
54.8798 5.57729
54.9301 5.50589
54.9803 5.51208
55.0307 5.47111
55.0809 5.39685
55.1314 5.44195
55.1816 5.3281
55.232 5.28286
55.2823 5.28342
55.3328 5.19717
55.383 5.12391
55.4335 5.1369
55.4838 5.04444
55.5344 4.99519
55.5847 4.9482
55.6352 4.97656
55.6856 4.90616
55.7361 4.87873