File: XRD/Ni3Fe_FD0228.xy
TT I
1.27165 7.88606
1.31627 7.56061
1.36089 7.4387
1.40551 6.00829
1.45013 6.21378
1.49476 6.72115
1.53938 6.54216
1.584 5.47927
1.62863 6.13585
1.67325 5.36659
1.71787 5.58224
1.7625 5.33709
1.80712 5.28153
1.85174 5.26324
1.89636 5.2084
1.94099 5.48132
1.98562 4.85327
2.03025 4.53728
2.07487 5.34277
2.11949 4.6722
2.16411 4.42523
2.20874 4.43966
2.25338 4.52585
2.298 4.8668
2.34263 4.29103
2.38725 4.99523
2.43188 4.10044
2.4765 4.95171
2.52115 4.65132
2.56577 5.75112
2.6104 5.65938
2.65503 6.16923
2.69965 6.09908
2.7443 7.23049
2.78893 7.16094
2.83356 7.2882
2.87818 8.22552
2.92281 8.1452
2.96744 9.23466
3.01209 10.4669
3.05672 11.0167
3.10135 12.5082
3.14599 12.9331
3.19062 13.682
3.23527 14.8902
3.2799 15.9222
3.32454 16.6962
3.36917 17.7986
3.4138 19.297
3.45844 19.7301
3.50309 21.1173
3.54773 21.6769
3.59237 22.5276
3.637 23.0606
3.68164 24.0676
3.7263 25.1564
3.77094 26.4049
3.81558 27.2431
3.86022 27.784
3.90486 28.9331
3.9495 29.8805
3.99416 31.4548
4.0388 32.4165
4.08344 33.9475
4.12809 35.0938
4.17273 36.3884
4.21738 38.0876
4.26204 38.6803
4.30669 40.7657
4.35133 42.8772
4.39598 44.3042
4.44063 46.4673
4.4853 48.3481
4.52995 52.1258
4.5746 53.9216
4.61925 55.6912
4.6639 58.0045
4.70855 61.0366
4.75322 64.7002
4.79788 68.5453
4.84253 71.7483
4.88719 77.1131
4.93184 81.3526
4.97652 88.4186
5.02118 96.3556
5.06583 106.815
5.11049 123.96
5.15515 169.412
5.19981 885.518
5.24449 3968.31
5.28916 10617.5
5.33382 4123.75
5.37848 277.447
5.42315 153.653
5.46783 128.77
5.5125 118.151
5.55716 112.354
5.60183 106.817
5.6465 104.033
5.69117 103.222
5.73586 101.174
5.78053 101.461
5.8252 102.115
5.86988 104.74
5.91455 110.69
5.95924 133.054
6.00392 448.125
6.0486 1414.65
6.09328 3634.22
6.13795 3671.5
6.18263 360.474
6.22733 109.949
6.27201 89.3427
6.3167 81.2816
6.36138 76.0701
6.40606 72.7168
6.45075 70.8365
6.49545 68.5365
6.54014 66.2808
6.58483 65.3157
6.62952 64.4542
6.67421 62.4823
6.71892 61.2402
6.76361 60.5408
6.8083 60.0625
6.853 59.3019
6.89769 58.3462
6.94239 58.0758
6.98711 57.2032
7.03181 57.161
7.07651 57.2832
7.12121 56.302
7.16591 56.6345
7.21063 55.9704
7.25533 55.7513
7.30004 55.3793
7.34475 55.8047
7.38945 55.9366
7.43416 55.526
7.47889 56.0716
7.5236 56.1141
7.56831 57.198
7.61303 57.1037
7.65774 56.9557
7.70247 58.0635
7.74719 58.2817
7.79191 59.2153
7.83663 59.2589
7.88135 60.5531
7.92607 61.3357
7.97081 62.4979
8.01553 63.5335
8.06026 65.1711
8.10498 66.848
8.14971 68.8209
8.19446 70.4172
8.23919 73.0704
8.28392 76.5046
8.32865 79.2617
8.37339 84.3539
8.41812 90.3822
8.46288 110.893
8.50761 290.747
8.55235 585.868
8.59709 1065.16
8.64183 1975.12
8.68658 1208.31
8.73134 216.496
8.77609 110.293
8.82083 100.273
8.86558 96.0186
8.91033 93.507
8.9551 90.3654
8.99985 89.5422
9.04461 88.4646
9.08936 87.7643
9.13412 87.1992
9.17888 86.6431
9.22365 86.7877
9.26841 86.7247
9.31318 88.0743
9.35794 88.0921
9.4027 88.3478
9.44749 88.8404
9.49226 89.7177
9.53703 90.8888
9.5818 93.2351
9.62657 94.5076
9.67134 95.2687
9.71614 97.5068
9.76091 100.646
9.80569 103.273
9.85047 106.695
9.89525 112.676
9.94005 136.934
9.98484 303.086
10.0296 517.366
10.0744 802.533
10.1192 1450.59
10.164 1687.53
10.2088 551.22
10.2536 148.285
10.2984 117.646
10.3432 112.835
10.388 115.225
10.4328 158.903
10.4776 211.461
10.5224 281.239
10.5672 444.321
10.612 531.724
10.6568 250.441
10.7017 108.058
10.7465 92.4163
10.7913 88.072
10.8361 85.2767
10.8809 82.8443
10.9257 80.6086
10.9706 79.2848
11.0154 77.9482
11.0602 76.2888
11.105 74.6581
11.1499 73.1783
11.1947 72.0815
11.2395 70.9455
11.2844 70.9656
11.3292 69.6701
11.374 68.8471
11.4189 68.5322
11.4637 67.8023
11.5086 67.0381
11.5534 66.6885
11.5983 66.2246
11.6431 66.3691
11.688 65.7817
11.7328 65.6732
11.7777 65.2658
11.8225 65.3354
11.8674 65.3174
11.9122 66.0108
11.9571 66.2529
12.002 68.536
12.0468 79.9131
12.0917 94.4189
12.1366 108.985
12.1814 141.357
12.2263 193.541
12.2712 185.268
12.3161 104.169
12.3609 70.1301
12.4058 67.1699
12.4507 67.273
12.4956 67.3835
12.5405 67.3166
12.5853 68.0968
12.6302 68.4687
12.6751 68.9081
12.72 69.7795
12.7649 70.809
12.8098 71.7259
12.8547 73.0803
12.8996 74.8899
12.9445 76.188
12.9894 78.6575
13.0343 80.6215
13.0792 86.6256
13.1242 110.976
13.1691 146.986
13.214 174.28
13.2589 229.083
13.3038 322.038
13.3487 421.225
13.3937 310.635
13.4386 151.154
13.4835 133.734
13.5285 153.015
13.5734 174.239
13.6183 225.964
13.6633 309.53
13.7082 357.49
13.7531 229.726
13.7981 112.355
13.843 87.4036
13.888 84.1562
13.9329 81.373
13.9779 80.1015
14.0228 78.3989
14.0678 76.9627
14.1127 76.2811
14.1577 75.3712
14.2027 74.6313
14.2476 74.1034
14.2926 73.375
14.3376 73.2815
14.3825 72.6347
14.4275 72.3446
14.4725 72.1673
14.5175 72.5582
14.5624 72.4406
14.6074 73.0478
14.6524 73.7133
14.6974 74.6355
14.7424 81.1284
14.7874 95.4277
14.8324 106.842
14.8774 119.609
14.9224 145.126
14.9674 187.466
15.0124 221.946
15.0574 170.87
15.1024 102.199
15.1474 77.0696
15.1924 73.8724
15.2374 72.3026
15.2824 71.3381
15.3274 70.5313
15.3725 70.1964
15.4175 69.9502
15.4625 69.3815
15.5076 69.2846
15.5526 69.3077
15.5976 69.9313
15.6426 75.1916
15.6877 85.899
15.7327 94.6592
15.7778 103.293
15.8228 122.255
15.8679 152.264
15.9129 189.736
15.958 175.494
16.003 111.795
16.0481 73.0764
16.0931 66.0128
16.1382 63.8142
16.1833 63.2032
16.2283 61.7173
16.2734 60.9379
16.3185 60.1744
16.3636 59.7172
16.4086 58.8037
16.4537 58.5468
16.4988 58.0924
16.5439 57.9555
16.589 57.7133
16.6341 57.3979
16.6792 57.1137
16.7243 57.3049
16.7694 57.1019
16.8145 56.9421
16.8596 57.4545
16.9047 57.4627
16.9498 57.7253
16.9949 57.9464
17.04 59.0958
17.0851 61.7879
17.1302 63.8796
17.1754 65.9098
17.2205 68.9539
17.2656 73.8219
17.3108 82.2077
17.3559 86.005
17.401 77.2942
17.4462 66.9575
17.4913 62.75
17.5365 61.9644
17.5815 62.2122
17.6268 62.4524
17.6718 63.1343
17.7171 63.4427
17.7622 64.591
17.8074 66.6474
17.8525 72.1924
17.8977 78.3295
17.9428 83.0415
17.9881 88.3711
18.0331 99.1675
18.0784 115.066
18.1237 139.172
18.1688 145.204
18.214 118.369
18.2591 93.7046
18.3044 90.2471
18.3495 97.1366
18.3948 107.142
18.4399 102.718
18.4852 83.9378
18.5303 70.3087
18.5756 65.5967
18.6207 64.3609
18.666 63.608
18.7112 62.6247
18.7565 62.1117
18.8016 61.7136
18.8469 61.1383
18.892 60.7023
18.9374 60.2249
18.9825 59.9324
19.0278 59.59
19.073 60.5323
19.1183 61.4964
19.1635 62.0408
19.2088 62.9789
19.254 64.6571
19.2993 67.4375
19.3447 71.2303
19.3898 76.0811
19.4352 76.0676
19.4804 68.4701
19.5257 60.521
19.5709 56.9982
19.6163 56.7133
19.6615 56.547
19.7068 56.1364
19.752 56.1251
19.7974 56.9018
19.8426 58.216
19.888 58.7697
19.9332 59.5212
19.9786 61.3786
20.0238 64.0155
20.0692 68.4278
20.1144 72.5815
20.1598 73.0072
20.205 67.8971
20.2504 64.4359
20.2957 64.3973
20.3411 66.7256
20.3863 67.2848
20.4318 62.4036
20.477 56.5988
20.5224 53.8634
20.5677 52.8633
20.6131 52.5771
20.6586 52.2219
20.7038 51.8674
20.7493 51.4787
20.7945 51.3367
20.84 51.2867
20.8853 51.2159
20.9307 50.9874
20.976 51.5149
21.0215 51.1402
21.0668 51.5795
21.1122 51.8523
21.1575 51.8673
21.203 52.518
21.2483 53.3774
21.2938 53.7373
21.3391 52.801
21.3846 51.5296
21.4299 51.0492
21.4754 50.9589
21.5207 51.0215
21.5662 51.7598
21.6116 52.6594
21.6571 53.5385
21.7024 54.094
21.7479 55.5891
21.7933 57.5408
21.8388 60.2188
21.8843 63.4509
21.9297 66.7481
21.9752 66.9517
22.0206 63.1682
22.0661 58.7739
22.1115 57.6054
22.157 58.3718
22.2024 57.7329
22.248 54.7562
22.2933 52.5554
22.3389 51.3695
22.3843 51.1605
22.4299 50.9529
22.4753 50.9253
22.5208 50.8959
22.5662 50.8482
22.6118 51.5349
22.6572 51.8709
22.7028 52.4883
22.7483 52.5963
22.7939 53.1339
22.8393 54.2601
22.8849 55.5464
22.9303 57.0821
22.9759 59.135
23.0214 59.9193
23.067 58.0209
23.1126 54.4669
23.1581 52.0164
23.2037 51.4314
23.2492 51.9109
23.2948 52.0801
23.3403 52.1838
23.3859 52.5089
23.4314 53.2392
23.477 54.1394
23.5225 55.6362
23.5682 57.7706
23.6137 59.75
23.6593 58.9437
23.7048 55.2229
23.7505 51.2597
23.796 49.144
23.8417 48.3165
23.8872 47.7268
23.9329 47.3799
23.9784 47.0245
24.0241 46.7806
24.0697 46.5875
24.1154 46.2208
24.1609 46.0764
24.2066 45.733
24.2522 45.7387
24.2979 45.5457
24.3434 45.3823
24.3892 45.0445
24.4349 45.0112
24.4805 45.0621
24.5262 45.1676
24.5718 44.8116
24.6175 44.8324
24.6631 44.8577
24.7089 44.6101
24.7545 44.368
24.8002 44.338
24.8458 44.3305
24.8916 44.0287
24.9372 44.3826
24.983 44.93
25.0286 44.9521
25.0744 45.3169
25.12 45.6231
25.1658 46.2145
25.2114 46.4935
25.2572 46.6474
25.3029 46.4514
25.3487 46.6246
25.3943 46.7043
25.4402 45.961
25.4858 44.7884
25.5316 43.5071
25.5773 43.0177
25.6231 42.8146
25.669 42.509
25.7147 42.4431
25.7605 42.4632
25.8062 42.4632
25.8521 42.4601
25.8977 42.4503
25.9436 42.6646
25.9893 42.5706
26.0352 43.0501
26.0809 43.2793
26.1268 43.6027
26.1725 43.4487
26.2184 43.1598
26.2641 42.5741
26.31 42.12
26.3557 42.2342
26.4017 42.0606
26.4474 42.3652
26.4933 42.6292
26.5391 42.944
26.585 43.2141
26.6308 43.601
26.6767 43.9605
26.7225 44.011
26.7684 43.5479
26.8142 42.7192
26.8601 42.3113
26.9059 41.948
26.9519 41.4078
26.9979 41.1303
27.0437 40.7781
27.0896 40.6503
27.1354 40.6642
27.1814 40.4996
27.2272 40.4195
27.2732 40.4443
27.3191 40.1918
27.3651 40.3465
27.4109 40.2246
27.4569 40.1779
27.5027 40.2003
27.5488 40.3288
27.5946 40.22
27.6407 40.1924
27.6865 40.0055
27.7326 39.7894
27.7784 39.6555
27.8245 39.7382
27.8703 39.7039
27.9164 39.9822
27.9623 40.0906
28.0084 40.2043
28.0543 40.6996
28.1003 40.6424
28.1462 40.5992
28.1923 40.2092
28.2384 39.5559
28.2843 39.4845
28.3304 39.0217
28.3764 38.539
28.4225 38.1521
28.4684 37.9939
28.5145 37.6499
28.5605 37.3362
28.6066 37.2666
28.6526 37.2626
28.6987 37.3072
28.7447 37.0881
28.7908 37.0581
28.8368 37.0035
28.8829 36.9189
28.9289 36.8371
28.9751 36.8003
29.0211 36.5972
29.0673 36.3753
29.1133 36.1048
29.1595 35.9407
29.2055 35.956
29.2517 35.9636
29.2977 35.7651
29.3439 35.7308
29.3899 35.8147
29.4361 35.7327
29.4824 35.5649
29.5284 35.435
29.5746 34.9018
29.6207 34.8385
29.6669 34.5697
29.713 34.4965
29.7593 34.4407
29.8053 34.3924
29.8516 34.3235
29.8977 34.2956
29.9439 34.176
29.99 34.0506
30.0363 33.9926
30.0824 33.913
30.1287 33.9335
30.1748 33.9009
30.2211 33.8955
30.2673 33.7248
30.3136 33.8953
30.3597 33.8049
30.406 33.7768
30.4522 33.7218
30.4985 33.5877
30.5447 33.6579
30.591 33.5005
30.6372 33.5383
30.6835 33.5823
30.7297 33.6169
30.7761 33.6436
30.8224 33.4839
30.8686 33.3119
30.915 33.024
30.9612 33.0056
31.0076 32.8181
31.0538 32.6735
31.1002 32.5507
31.1464 32.4702
31.1928 32.3615
31.2391 32.4811
31.2855 32.3333
31.3317 32.2419
31.3781 32.3298
31.4244 32.2063
31.4708 32.2034
31.5171 32.2811
31.5636 32.1938
31.6098 32.0425
31.6563 31.8003
31.7026 31.6707
31.7491 31.4751
31.7953 31.6143
31.8418 31.4719
31.8881 31.4266
31.9346 31.47
31.9809 31.4266
32.0275 31.2552
32.074 31.2383
32.1203 30.989
32.1668 30.9343
32.2132 30.6945
32.2597 30.6077
32.306 30.5694
32.3526 30.4472
32.399 30.2719
32.4455 30.099
32.4919 29.9926
32.5385 30.0468
32.5848 29.7408
32.6314 29.8349
32.6778 29.7725
32.7244 29.5595
32.7708 29.4926
32.8174 29.4953
32.8638 29.3979
32.9104 29.3581
32.9569 29.3013
33.0035 29.1912
33.0499 29.1192
33.0966 29.0004
33.143 29.054
33.1897 28.9852
33.2361 28.8209
33.2828 28.8169
33.3293 28.6714
33.3759 28.633
33.4226 28.5474
33.4691 28.3868
33.5158 28.2057
33.5623 28.141
33.609 28.009
33.6555 28.0114
33.7022 27.8002
33.7487 27.7445
33.7954 27.7051
33.842 27.6102
33.8887 27.4778
33.9353 27.5227
33.982 27.3617
34.0286 27.3718
34.0753 27.2408
34.1219 27.1589
34.1687 27.0719
34.2152 26.9376
34.262 26.8691
34.3086 26.708
34.3554 26.6807
34.402 26.6097
34.4488 26.5091
34.4954 26.483
34.5422 26.3414
34.5889 26.2088
34.6357 26.0829
34.6825 26.0726
34.7292 25.9462
34.776 25.9151
34.8227 25.8355
34.8695 25.7456
34.9162 25.7182
34.9631 25.5659
35.0098 25.6589
35.0566 25.5011
35.1033 25.39
35.1502 25.4361
35.1969 25.2859
35.2438 25.2825
35.2906 25.2001
35.3375 25.1729
35.3842 24.9435
35.4311 25.1238
35.4779 25.0217
35.5248 25.0279
35.5716 24.928
35.6185 24.7822
35.6653 24.6498
35.7123 24.6057
35.759 24.5013
35.806 24.4198
35.8528 24.3435
35.8998 24.2457
35.9468 24.09
35.9936 24.1067
36.0406 24.0728
36.0874 23.9317
36.1345 23.9724
36.1813 23.8667
36.2283 23.7637
36.2752 23.6292
36.3222 23.7471
36.3691 23.5481
36.4161 23.4516
36.463 23.43
36.5101 23.473
36.557 23.3857
36.6041 23.1621
36.651 23.1954
36.6981 23.1059
36.745 23.0221
36.7921 23.001
36.839 22.8659
36.8861 22.7715
36.9331 22.7729
36.9802 22.6329
37.0272 22.5757
37.0743 22.4526
37.1213 22.498
37.1684 22.4277
37.2154 22.2738
37.2626 22.1878
37.3098 22.1983
37.3568 22.1032
37.404 22.0501
37.451 21.9013
37.4982 21.9272
37.5452 21.7144
37.5924 21.8237
37.6395 21.8027
37.6867 21.6246
37.7337 21.4929
37.781 21.5315
37.8281 21.4263
37.8753 21.3362
37.9224 21.2972
37.9697 21.1825
38.0168 21.1204
38.064 21.0115
38.1111 21.0692
38.1584 20.9658
38.2056 20.8118
38.2529 20.8472
38.3 20.7055
38.3473 20.6999
38.3945 20.5783
38.4418 20.5686
38.489 20.5107
38.5363 20.4122
38.5837 20.3609
38.6309 20.2726
38.6782 20.2562
38.7254 20.1355
38.7728 20.0837
38.82 20.0075
38.8674 19.9921
38.9146 19.9208
38.9621 19.8294
39.0093 19.7789
39.0567 19.7592
39.104 19.6601
39.1514 19.5693
39.1987 19.5318
39.2461 19.4552
39.2934 19.4405
39.3409 19.3318
39.3882 19.2509
39.4356 19.2824
39.483 19.2028
39.5304 19.088
39.5778 19.0428
39.6253 19.031
39.6726 18.9247
39.7201 18.8805
39.7675 18.7932
39.815 18.7791
39.8624 18.6113
39.9099 18.6802
39.9575 18.5141
40.0049 18.5483
40.0525 18.4535
40.0999 18.4196
40.1474 18.4384
40.1949 18.2568
40.2425 18.1805
40.2899 18.0994
40.3375 18.1017
40.385 18.0281
40.4326 18.0061
40.48 17.8976
40.5277 17.9166
40.5752 17.779
40.6228 17.6983
40.6703 17.6952
40.718 17.6996
40.7655 17.6011
40.8132 17.5331
40.8607 17.5263
40.9084 17.422
40.9559 17.4125
41.0036 17.3128
41.0512 17.2844
41.0989 17.2732
41.1465 17.158
41.1942 17.0892
41.242 16.9812
41.2896 16.9335
41.3373 16.8901
41.3849 16.852
41.4327 16.8035
41.4803 16.779
41.5281 16.6269
41.5758 16.5919
41.6236 16.5659
41.6712 16.4469
41.7191 16.4323
41.7667 16.4082
41.8146 16.3087
41.8622 16.2961
41.9101 16.2468
41.9578 16.0858
42.0057 16.115
42.0534 16.0685
42.1013 16.0521
42.149 15.9142
42.1969 15.8855
42.2446 15.8355
42.2925 15.8319
42.3403 15.7703
42.3882 15.7666
42.436 15.6382
42.4839 15.5778
42.5319 15.5332
42.5797 15.5235
42.6277 15.3972
42.6755 15.3499
42.7235 15.3087
42.7713 15.3188
42.8193 15.2271
42.8671 15.2142
42.9152 15.1021
42.963 15.0143
43.0111 15.0122
43.0589 15.0115
43.107 14.9506
43.1549 14.8738
43.2029 14.7706
43.2508 14.7967
43.2989 14.7364
43.3468 14.653
43.3949 14.6214
43.4429 14.5752
43.491 14.4995
43.5389 14.4654
43.5871 14.4178
43.635 14.3704
43.6832 14.351
43.7312 14.2674
43.7793 14.1983
43.8273 14.1495
43.8755 14.069
43.9237 14.0979
43.9717 14.0153
44.0199 13.9552
44.068 13.9121
44.1162 13.8373
44.1642 13.8293
44.2125 13.7958
44.2606 13.7373
44.3088 13.681
44.3569 13.6354
44.4052 13.5986
44.4533 13.4918
44.5016 13.4691
44.5497 13.434
44.598 13.4029
44.6461 13.367
44.6945 13.3116
44.7426 13.2309
44.791 13.1595
44.8391 13.1434
44.8875 13.0846
44.9357 13.0581
44.984 13.0036
45.0322 12.9452
45.0806 12.9173
45.1288 12.8848
45.1773 12.811
45.2257 12.7608
45.2739 12.734
45.3224 12.6797
45.3706 12.6451
45.4191 12.568
45.4673 12.5805
45.5158 12.5401
45.5641 12.4531
45.6126 12.435
45.6609 12.4246
45.7094 12.3171
45.7577 12.2925
45.8063 12.2211
45.8546 12.2245
45.9031 12.1425
45.9515 12.0748
46.0001 12.048
46.0484 12.0159
46.097 12.0372
46.1454 11.9438
46.194 11.9582
46.2424 11.8662
46.291 11.8546
46.3395 11.7235
46.3881 11.7062
46.4365 11.7045
46.4852 11.6707
46.5337 11.6077
46.5823 11.5696
46.631 11.5105
46.6795 11.4974
46.7282 11.4296
46.7767 11.4199
46.8254 11.3379
46.8739 11.3193
46.9226 11.2459
46.9712 11.1886
47.0199 11.1898
47.0685 11.1512
47.1173 11.1224
47.1658 11.0741
47.2146 11.0553
47.2632 10.9529
47.312 10.8987
47.3606 10.8724
47.4095 10.8182
47.4581 10.8189
47.5069 10.7478
47.5556 10.6908
47.6044 10.6806
47.6531 10.6598
47.702 10.5928
47.7507 10.597
47.7996 10.5177
47.8483 10.5217
47.8972 10.4505
47.9461 10.4132
47.9948 10.3333
48.0438 10.3513
48.0925 10.3305
48.1415 10.2487
48.1902 10.1996
48.2392 10.2088
48.288 10.1708
48.337 10.1273
48.3858 10.0873
48.4348 10.049
48.4837 10.016
48.5327 9.97824
48.5815 9.97456
48.6306 9.94664
48.6795 9.88138
48.7285 9.81833
48.7774 9.78702
48.8265 9.77343
48.8754 9.70349
48.9245 9.69794
48.9734 9.65075
49.0226 9.64376
49.0715 9.6063
49.1206 9.50301
49.1696 9.49455
49.2188 9.46448
49.2679 9.43036
49.3169 9.37061
49.3661 9.33292
49.4151 9.25137
49.4643 9.30558
49.5134 9.22098
49.5626 9.1904
49.6117 9.15132
49.6609 9.20705
49.71 9.11968
49.7592 9.0471
49.8083 8.99141
49.8576 9.00664
49.9067 8.95667
49.956 8.96518
50.0052 8.93023
50.0545 8.83936
50.1036 8.83156
50.153 8.8252
50.2022 8.76788
50.2515 8.71504
50.3007 8.66672
50.3501 8.64757
50.3993 8.64708
50.4487 8.55518
50.498 8.5849
50.5474 8.51784
50.5966 8.50646
50.6461 8.50844
50.6955 8.45631
50.7448 8.3875
50.7943 8.36764
50.8436 8.31607
50.8931 8.31623
50.9424 8.25361
50.9919 8.21338
51.0413 8.17773
51.0908 8.19569
51.1402 8.14983
51.1897 8.09731
51.2391 8.09572
51.2887 8.02299
51.3381 7.97283
51.3877 7.98461
51.4371 7.93165
51.4867 7.89699
51.5362 7.88749
51.5858 7.80488
51.6353 7.80086
51.6849 7.78007
51.7344 7.72927
51.7841 7.7439
51.8336 7.67605
51.8833 7.64388
51.9328 7.58559
51.9826 7.5669
52.0323 7.56412
52.0818 7.55946
52.1316 7.48393
52.1812 7.47559
52.231 7.44825
52.2806 7.37372
52.3304 7.36427
52.38 7.32905
52.4298 7.26408
52.4794 7.24562
52.5293 7.21152
52.5789 7.20585
52.6288 7.22243
52.6785 7.12929
52.7284 7.10047
52.7781 7.10398
52.828 7.05865
52.8777 7.02558
52.9276 6.9773
52.9774 6.97949
53.0273 6.96022
53.0771 6.92134
53.1271 6.91196
53.1769 6.83113
53.2269 6.82969
53.2767 6.81762
53.3267 6.78639
53.3765 6.72587
53.4266 6.72783
53.4766 6.65919
53.5265 6.64324
53.5765 6.63094
53.6264 6.58118
53.6765 6.56143
53.7264 6.50676
53.7765 6.56258
53.8265 6.48021
53.8766 6.45763
53.9266 6.43839
53.9767 6.37148
54.0267 6.36453
54.0769 6.31876
54.1269 6.31324
54.1771 6.27641
54.2271 6.22312
54.2773 6.17968
54.3274 6.16935
54.3776 6.1197
54.4277 6.13106
54.478 6.01818
54.528 6.01511
54.5783 5.95794
54.6285 5.91506
54.6788 5.88938
54.7289 5.86695
54.7792 5.84663
54.8296 5.74671
54.8798 5.68779
54.9301 5.72394
54.9803 5.66327
55.0307 5.64669
55.0809 5.56022
55.1314 5.54028
55.1816 5.49422
55.232 5.38127
55.2823 5.42392
55.3328 5.256
55.383 5.27298
55.4335 5.22359
55.4838 5.17444
55.5344 5.09207
55.5847 5.01356
55.6352 5.0539
55.6856 5.01512
55.7361 4.97655