File: XRD/Ni3Fe_FD0556.xy
TT I
1.27165 7.54562
1.31627 7.42489
1.36089 6.58061
1.40551 6.32772
1.45013 6.18983
1.49476 6.12665
1.53938 6.39121
1.584 4.93029
1.62863 5.7333
1.67325 5.61354
1.71787 5.29415
1.7625 5.06457
1.80712 5.05154
1.85174 4.73793
1.89636 5.13768
1.94099 5.09372
1.98562 4.39514
2.03025 4.12015
2.07487 4.62259
2.11949 5.25499
2.16411 5.01676
2.20874 11.1807
2.25338 17.6861
2.298 6.26204
2.34263 4.99136
2.38725 5.90304
2.43188 5.36268
2.4765 6.8298
2.52115 7.05226
2.56577 6.89307
2.6104 7.62299
2.65503 8.42463
2.69965 7.43154
2.7443 7.94972
2.78893 8.52369
2.83356 8.23572
2.87818 8.37302
2.92281 8.70533
2.96744 9.44108
3.01209 10.5529
3.05672 11.2274
3.10135 12.1162
3.14599 12.9285
3.19062 14.2451
3.23527 14.331
3.2799 15.8523
3.32454 16.7782
3.36917 17.6058
3.4138 18.6813
3.45844 19.8317
3.50309 20.9819
3.54773 21.7818
3.59237 23.769
3.637 74.4582
3.68164 49.2361
3.7263 26.2944
3.77094 26.0001
3.81558 26.7292
3.86022 27.6348
3.90486 29.081
3.9495 29.586
3.99416 31.032
4.0388 32.2373
4.08344 33.5225
4.12809 34.7518
4.17273 36.7733
4.21738 41.7017
4.26204 193.214
4.30669 166.356
4.35133 46.7101
4.39598 44.1957
4.44063 51.8204
4.4853 60.4558
4.52995 50.2649
4.5746 52.005
4.61925 53.8389
4.6639 55.7501
4.70855 58.6102
4.75322 61.3479
4.79788 64.4325
4.84253 68.2892
4.88719 72.1249
4.93184 75.6983
4.97652 81.4662
5.02118 88.3916
5.06583 96.4919
5.11049 107.992
5.15515 168.165
5.19981 414.881
5.24449 3112.27
5.28916 12236.5
5.33382 3048.36
5.37848 195.949
5.42315 130.214
5.46783 114.953
5.5125 107.062
5.55716 102.692
5.60183 99.13
5.6465 97.3746
5.69117 94.9754
5.73586 92.7419
5.78053 92.9478
5.8252 92.4636
5.86988 93.1314
5.91455 96.2062
5.95924 106.854
6.00392 242.267
6.0486 1079.92
6.09328 4411.51
6.13795 3452.51
6.18263 254.908
6.22733 94.5845
6.27201 82.9466
6.3167 95.266
6.36138 78.5012
6.40606 69.382
6.45075 67.4265
6.49545 65.6769
6.54014 64.2136
6.58483 63.1574
6.62952 62.5738
6.67421 85.7006
6.71892 121.698
6.76361 66.209
6.8083 58.7216
6.853 57.684
6.89769 56.9668
6.94239 56.7792
6.98711 55.972
7.03181 55.6499
7.07651 55.3805
7.12121 55.446
7.16591 55.0872
7.21063 55.2128
7.25533 67.0362
7.30004 146.339
7.34475 82.1071
7.38945 56.3019
7.43416 54.6715
7.47889 54.6382
7.5236 54.8892
7.56831 55.6557
7.61303 56.7136
7.65774 57.1093
7.70247 56.1095
7.74719 56.5605
7.79191 56.97
7.83663 57.1251
7.88135 58.1952
7.92607 59.0344
7.97081 59.9906
8.01553 61.2388
8.06026 62.4591
8.10498 64.086
8.14971 71.9231
8.19446 71.2807
8.23919 69.6817
8.28392 72.4669
8.32865 74.8167
8.37339 78.9282
8.41812 85.5457
8.46288 110.857
8.50761 180.958
8.55235 428.042
8.59709 1219.05
8.64183 2217.03
8.68658 949.297
8.73134 166.057
8.77609 99.8293
8.82083 92.7854
8.86558 90.0401
8.91033 89.9346
8.9551 90.7878
8.99985 85.7774
9.04461 83.8381
9.08936 83.4815
9.13412 82.2498
9.17888 82.5999
9.22365 83.2819
9.26841 82.979
9.31318 83.2546
9.35794 83.3208
9.4027 83.7438
9.44749 84.3536
9.49226 85.2652
9.53703 86.6121
9.5818 87.8535
9.62657 91.3868
9.67134 97.1361
9.71614 93.9983
9.76091 94.4476
9.80569 97.4405
9.85047 100.59
9.89525 119.691
9.94005 134.046
9.98484 194.788
10.0296 373.818
10.0744 844.896
10.1192 1710.47
10.164 1559.64
10.2088 385.259
10.2536 126.021
10.2984 112.675
10.3432 112.988
10.388 105.349
10.4328 123.632
10.4776 168.495
10.5224 290.991
10.5672 515.504
10.612 499.721
10.6568 193.498
10.7017 95.6988
10.7465 87.0618
10.7913 83.9101
10.8361 81.5521
10.8809 79.1299
10.9257 78.2795
10.9706 78.3924
11.0154 74.9815
11.0602 72.9169
11.105 72.0068
11.1499 74.9724
11.1947 79.7654
11.2395 73.208
11.2844 70.1385
11.3292 67.42
11.374 66.3821
11.4189 65.9935
11.4637 65.2708
11.5086 65.5061
11.5534 67.5208
11.5983 65.3924
11.6431 63.9175
11.688 63.2397
11.7328 63.3233
11.7777 63.2359
11.8225 62.5877
11.8674 62.6964
11.9122 63.3501
11.9571 63.4899
12.002 64.2106
12.0468 69.5489
12.0917 81.3108
12.1366 105.758
12.1814 155.058
12.2263 202.972
12.2712 162.208
12.3161 92.5255
12.3609 69.7537
12.4058 64.8357
12.4507 64.6475
12.4956 64.5969
12.5405 64.6774
12.5853 65.8176
12.6302 71.4035
12.6751 75.5577
12.72 69.6603
12.7649 68.1169
12.8098 68.8789
12.8547 69.9929
12.8996 71.5321
12.9445 72.9201
12.9894 74.6672
13.0343 76.261
13.0792 79.9874
13.1242 91.3546
13.1691 116.515
13.214 156.362
13.2589 247.177
13.3038 373.926
13.3487 428.287
13.3937 258.637
13.4386 122.423
13.4835 108.772
13.5285 125.355
13.5734 165.415
13.6183 253.144
13.6633 348.579
13.7082 340.785
13.7531 182.13
13.7981 96.8924
13.843 82.2896
13.888 79.9284
13.9329 77.2851
13.9779 76.2753
14.0228 74.7209
14.0678 73.4575
14.1127 73.0372
14.1577 72.6087
14.2027 71.7325
14.2476 70.6882
14.2926 70.8366
14.3376 71.4868
14.3825 70.6154
14.4275 69.2692
14.4725 69.3278
14.5175 69.4804
14.5624 69.5882
14.6074 71.1162
14.6524 71.6855
14.6974 71.0486
14.7424 73.1567
14.7874 81.2291
14.8324 91.6109
14.8774 114.548
14.9224 156.729
14.9674 208.92
15.0124 219.362
15.0574 146.08
15.1024 88.9946
15.1474 72.4105
15.1924 70.7457
15.2374 70.9507
15.2824 70.1319
15.3274 68.416
15.3725 67.3426
15.4175 66.9879
15.4625 66.2789
15.5076 66.7556
15.5526 66.7362
15.5976 66.2482
15.6426 67.935
15.6877 74.169
15.7327 82.0494
15.7778 97.9871
15.8228 129.993
15.8679 172.422
15.9129 195.21
15.958 154.638
16.003 95.0685
16.0481 67.5657
16.0931 64.1789
16.1382 62.5005
16.1833 60.9737
16.2283 59.5443
16.2734 58.7469
16.3185 58.8423
16.3636 59.0103
16.4086 57.6374
16.4537 56.366
16.4988 55.7757
16.5439 55.8082
16.589 55.5356
16.6341 55.2736
16.6792 54.7608
16.7243 55.3195
16.7694 55.3449
16.8145 55.1656
16.8596 55.5496
16.9047 56.6498
16.9498 56.9921
16.9949 56.054
17.04 56.282
17.0851 57.7296
17.1302 59.4804
17.1754 62.5641
17.2205 67.5742
17.2656 74.9259
17.3108 82.3582
17.3559 81.7527
17.401 71.1694
17.4462 62.3491
17.4913 59.6059
17.5365 59.5553
17.5815 59.7376
17.6268 59.9114
17.6718 60.9663
17.7171 61.3807
17.7622 62.0001
17.8074 62.581
17.8525 65.4706
17.8977 69.7107
17.9428 75.3543
17.9881 84.6192
18.0331 101.974
18.0784 123.125
18.1237 141.554
18.1688 132.797
18.214 103.409
18.2591 87.1967
18.3044 91.8653
18.3495 101.132
18.3948 106.699
18.4399 95.5856
18.4852 77.3943
18.5303 66.2121
18.5756 62.6638
18.6207 61.6855
18.666 60.6047
18.7112 59.9776
18.7565 59.3147
18.8016 59.0411
18.8469 58.5194
18.892 58.0523
18.9374 57.5308
18.9825 57.3873
19.0278 57.3303
19.073 57.3588
19.1183 57.8495
19.1635 58.6411
19.2088 60.2008
19.254 62.6173
19.2993 67.4047
19.3447 73.1434
19.3898 76.5903
19.4352 72.5193
19.4804 63.3596
19.5257 56.8638
19.5709 54.5573
19.6163 54.3599
19.6615 54.1207
19.7068 53.8815
19.752 53.5413
19.7974 54.106
19.8426 54.9055
19.888 55.5445
19.9332 57.0339
19.9786 59.659
20.0238 63.2279
20.0692 67.8068
20.1144 70.6374
20.1598 68.4363
20.205 63.8856
20.2504 62.7583
20.2957 64.4262
20.3411 66.0812
20.3863 64.3946
20.4318 58.2768
20.477 53.7713
20.5224 51.7567
20.5677 51.1936
20.6131 50.3153
20.6586 50.0192
20.7038 49.8427
20.7493 49.6378
20.7945 49.1642
20.84 49.1051
20.8853 48.9635
20.9307 48.9404
20.976 49.0075
21.0215 49.0458
21.0668 49.4366
21.1122 49.8902
21.1575 50.7032
21.203 51.0342
21.2483 51.7089
21.2938 51.7296
21.3391 50.3612
21.3846 49.2643
21.4299 48.7693
21.4754 48.8001
21.5207 48.8001
21.5662 49.2668
21.6116 49.8148
21.6571 50.3673
21.7024 51.5381
21.7479 53.2372
21.7933 56.2023
21.8388 59.5729
21.8843 63.3403
21.9297 65.2613
21.9752 63.6257
22.0206 59.7882
22.0661 56.7642
22.1115 56.3346
22.157 56.2912
22.2024 54.5623
22.248 51.7325
22.2933 50.088
22.3389 49.4035
22.3843 49.4468
22.4299 49.1603
22.4753 49.2099
22.5208 48.8193
22.5662 48.794
22.6118 49.0949
22.6572 49.2283
22.7028 49.6819
22.7483 50.1787
22.7939 51.0486
22.8393 52.4757
22.8849 54.5872
22.9303 56.5399
22.9759 58.3853
23.0214 57.6664
23.067 54.5981
23.1126 51.2738
23.1581 49.5691
23.2037 49.1578
23.2492 49.2898
23.2948 49.2677
23.3403 49.5222
23.3859 50.1832
23.4314 51.2778
23.477 53.2587
23.5225 55.4743
23.5682 57.3748
23.6137 58.3523
23.6593 55.889
23.7048 52.0012
23.7505 48.4157
23.796 46.9993
23.8417 46.2851
23.8872 45.835
23.9329 45.5174
23.9784 45.1308
24.0241 44.9802
24.0697 44.8048
24.1154 44.4312
24.1609 44.2045
24.2066 44.1239
24.2522 43.9554
24.2979 43.6109
24.3434 43.5672
24.3892 43.3361
24.4349 43.4604
24.4805 43.1547
24.5262 43.3635
24.5718 43.1688
24.6175 43.2389
24.6631 43.1615
24.7089 42.7723
24.7545 42.7017
24.8002 42.5846
24.8458 42.5935
24.8916 42.4312
24.9372 42.5227
24.983 42.9162
25.0286 43.1893
25.0744 43.6771
25.12 44.0214
25.1658 44.6648
25.2114 44.9978
25.2572 45.0598
25.3029 45.1654
25.3487 45.1059
25.3943 44.8394
25.4402 43.8544
25.4858 42.6612
25.5316 41.6853
25.5773 41.334
25.6231 41.1837
25.669 40.857
25.7147 40.9683
25.7605 40.5988
25.8062 40.766
25.8521 40.943
25.8977 40.8945
25.9436 41.1375
25.9893 41.1952
26.0352 41.7174
26.0809 41.8299
26.1268 42.0283
26.1725 41.5975
26.2184 41.0858
26.2641 40.6584
26.31 40.4038
26.3557 40.5
26.4017 40.4268
26.4474 40.742
26.4933 41.0309
26.5391 41.6343
26.585 41.9197
26.6308 42.3542
26.6767 42.4253
26.7225 42.2397
26.7684 41.7244
26.8142 41.1397
26.8601 40.6728
26.9059 40.2901
26.9519 39.7288
26.9979 39.4607
27.0437 39.2517
27.0896 39.0181
27.1354 38.9689
27.1814 38.9508
27.2272 38.7465
27.2732 38.7459
27.3191 38.6862
27.3651 38.7699
27.4109 38.6695
27.4569 38.742
27.5027 38.7236
27.5488 38.8174
27.5946 38.6492
27.6407 38.5662
27.6865 38.4468
27.7326 38.1211
27.7784 38.1489
27.8245 37.9653
27.8703 38.2514
27.9164 38.6506
27.9623 38.6718
28.0084 38.9235
28.0543 39.3668
28.1003 39.2687
28.1462 38.9981
28.1923 38.6029
28.2384 38.0968
28.2843 37.8643
28.3304 37.4115
28.3764 36.9317
28.4225 36.535
28.4684 36.4748
28.5145 36.1751
28.5605 36.0447
28.6066 35.9465
28.6526 35.7438
28.6987 35.8792
28.7447 35.7448
28.7908 35.7423
28.8368 35.6501
28.8829 35.8017
28.9289 35.5816
28.9751 35.3461
29.0211 35.1767
29.0673 34.8595
29.1133 34.7821
29.1595 34.5842
29.2055 34.6129
29.2517 34.6298
29.2977 34.6131
29.3439 34.5303
29.3899 34.5148
29.4361 34.4879
29.4824 34.2044
29.5284 33.939
29.5746 33.6697
29.6207 33.2877
29.6669 33.1968
29.713 33.0796
29.7593 32.9904
29.8053 33.0506
29.8516 33.0419
29.8977 33.0381
29.9439 32.7576
29.99 32.84
30.0363 32.6655
30.0824 32.6663
30.1287 32.6627
30.1748 32.5834
30.2211 32.5771
30.2673 32.5104
30.3136 32.569
30.3597 32.3573
30.406 32.2889
30.4522 32.2767
30.4985 32.2566
30.5447 32.3601
30.591 32.3597
30.6372 32.3865
30.6835 32.324
30.7297 32.4325
30.7761 32.3582
30.8224 32.2084
30.8686 32.0687
30.915 31.8586
30.9612 31.7214
31.0076 31.4693
31.0538 31.4017
31.1002 31.3264
31.1464 31.2483
31.1928 31.0491
31.2391 31.1244
31.2855 31.0307
31.3317 30.9577
31.3781 31.1999
31.4244 31.1407
31.4708 31.1414
31.5171 31.0041
31.5636 31.0604
31.6098 30.7577
31.6563 30.4711
31.7026 30.4306
31.7491 30.3089
31.7953 30.3102
31.8418 30.2715
31.8881 30.3794
31.9346 30.3136
31.9809 30.2124
32.0275 30.0931
32.074 29.9356
32.1203 29.7903
32.1668 29.7533
32.2132 29.5985
32.2597 29.4655
32.306 29.3848
32.3526 29.1641
32.399 29.0812
32.4455 28.9777
32.4919 28.8465
32.5385 28.8541
32.5848 28.76
32.6314 28.7068
32.6778 28.6539
32.7244 28.536
32.7708 28.3125
32.8174 28.3932
32.8638 28.2169
32.9104 28.2747
32.9569 28.2293
33.0035 28.0392
33.0499 28.0616
33.0966 27.9985
33.143 27.9656
33.1897 27.9352
33.2361 27.863
33.2828 27.7182
33.3293 27.5738
33.3759 27.7311
33.4226 27.4577
33.4691 27.3314
33.5158 27.1974
33.5623 27.0741
33.609 26.8473
33.6555 26.8119
33.7022 26.8067
33.7487 26.7093
33.7954 26.6306
33.842 26.4966
33.8887 26.554
33.9353 26.4321
33.982 26.3302
34.0286 26.1529
34.0753 26.122
34.1219 26.0024
34.1687 25.9726
34.2152 25.939
34.262 25.8043
34.3086 25.7481
34.3554 25.6347
34.402 25.5024
34.4488 25.3731
34.4954 25.4629
34.5422 25.3507
34.5889 25.1451
34.6357 25.0949
34.6825 25.1838
34.7292 24.9652
34.776 24.9365
34.8227 24.8858
34.8695 24.8566
34.9162 24.7451
34.9631 24.6454
35.0098 24.6853
35.0566 24.4767
35.1033 24.4528
35.1502 24.4537
35.1969 24.3758
35.2438 24.3443
35.2906 24.2025
35.3375 24.1451
35.3842 24.1306
35.4311 24.1341
35.4779 24.1106
35.5248 24.0444
35.5716 24.0136
35.6185 23.841
35.6653 23.7001
35.7123 23.7052
35.759 23.6583
35.806 23.5334
35.8528 23.3687
35.8998 23.3113
35.9468 23.2373
35.9936 23.2659
36.0406 23.1904
36.0874 23.0547
36.1345 23.0476
36.1813 23.0344
36.2283 22.8304
36.2752 22.8554
36.3222 22.7988
36.3691 22.6982
36.4161 22.6142
36.463 22.5956
36.5101 22.5606
36.557 22.4899
36.6041 22.3404
36.651 22.3861
36.6981 22.3125
36.745 22.177
36.7921 22.122
36.839 22.0274
36.8861 21.9544
36.9331 21.8554
36.9802 21.8474
37.0272 21.7646
37.0743 21.6934
37.1213 21.5952
37.1684 21.4852
37.2154 21.503
37.2626 21.4167
37.3098 21.3632
37.3568 21.2878
37.404 21.2719
37.451 21.0869
37.4982 21.1188
37.5452 20.9712
37.5924 20.9384
37.6395 20.9896
37.6867 20.8388
37.7337 20.7822
37.781 20.5973
37.8281 20.5999
37.8753 20.5283
37.9224 20.3993
37.9697 20.3843
38.0168 20.3071
38.064 20.2307
38.1111 20.2265
38.1584 20.1413
38.2056 20.0371
38.2529 20.064
38.3 19.9858
38.3473 19.9266
38.3945 19.7904
38.4418 19.7991
38.489 19.7292
38.5363 19.6383
38.5837 19.5695
38.6309 19.5187
38.6782 19.4432
38.7254 19.3615
38.7728 19.3939
38.82 19.2879
38.8674 19.2174
38.9146 19.1571
38.9621 19.0709
39.0093 19.0945
39.0567 19.0198
39.104 18.9295
39.1514 18.8035
39.1987 18.8157
39.2461 18.7547
39.2934 18.7177
39.3409 18.6137
39.3882 18.4936
39.4356 18.4746
39.483 18.4188
39.5304 18.438
39.5778 18.4125
39.6253 18.2387
39.6726 18.2506
39.7201 18.2155
39.7675 18.1248
39.815 18.0335
39.8624 17.9894
39.9099 17.9283
39.9575 17.8456
40.0049 17.7863
40.0525 17.7668
40.0999 17.7265
40.1474 17.7272
40.1949 17.5374
40.2425 17.4781
40.2899 17.5084
40.3375 17.4391
40.385 17.3948
40.4326 17.284
40.48 17.2216
40.5277 17.2631
40.5752 17.1871
40.6228 17.0958
40.6703 17.0725
40.718 17.0274
40.7655 16.9353
40.8132 16.9177
40.8607 16.8776
40.9084 16.7697
40.9559 16.6566
41.0036 16.7751
41.0512 16.5678
41.0989 16.5629
41.1465 16.4568
41.1942 16.4676
41.242 16.3483
41.2896 16.3463
41.3373 16.2352
41.3849 16.2552
41.4327 16.1773
41.4803 16.0956
41.5281 16.0659
41.5758 15.9555
41.6236 15.9612
41.6712 15.8571
41.7191 15.8746
41.7667 15.8357
41.8146 15.8086
41.8622 15.7366
41.9101 15.6125
41.9578 15.5377
42.0057 15.4533
42.0534 15.4936
42.1013 15.4367
42.149 15.3635
42.1969 15.336
42.2446 15.2429
42.2925 15.2278
42.3403 15.2077
42.3882 15.1904
42.436 15.0969
42.4839 15.0311
42.5319 14.9742
42.5797 14.9055
42.6277 14.8614
42.6755 14.8008
42.7235 14.7307
42.7713 14.7124
42.8193 14.6639
42.8671 14.645
42.9152 14.5839
42.963 14.5427
43.0111 14.4575
43.0589 14.4317
43.107 14.3468
43.1549 14.3136
43.2029 14.2158
43.2508 14.2523
43.2989 14.1792
43.3468 14.0847
43.3949 14.0616
43.4429 14.0569
43.491 13.9305
43.5389 13.8817
43.5871 13.8397
43.635 13.7928
43.6832 13.79
43.7312 13.7444
43.7793 13.695
43.8273 13.6294
43.8755 13.5875
43.9237 13.5407
43.9717 13.5108
44.0199 13.4614
44.068 13.3962
44.1162 13.332
44.1642 13.3172
44.2125 13.3086
44.2606 13.241
44.3088 13.1605
44.3569 13.1571
44.4052 13.1178
44.4533 13.0408
44.5016 12.9627
44.5497 12.9507
44.598 12.9349
44.6461 12.86
44.6945 12.8082
44.7426 12.7722
44.791 12.6734
44.8391 12.7073
44.8875 12.6679
44.9357 12.5536
44.984 12.5356
45.0322 12.4818
45.0806 12.4445
45.1288 12.4351
45.1773 12.3633
45.2257 12.3481
45.2739 12.2914
45.3224 12.2551
45.3706 12.2243
45.4191 12.1315
45.4673 12.1513
45.5158 12.0548
45.5641 12.009
45.6126 11.9599
45.6609 11.921
45.7094 11.901
45.7577 11.8265
45.8063 11.7927
45.8546 11.7671
45.9031 11.72
45.9515 11.7567
46.0001 11.6312
46.0484 11.5986
46.097 11.596
46.1454 11.5343
46.194 11.5388
46.2424 11.4612
46.291 11.3978
46.3395 11.3704
46.3881 11.3019
46.4365 11.2652
46.4852 11.2158
46.5337 11.2278
46.5823 11.1787
46.631 11.088
46.6795 11.0304
46.7282 11.0648
46.7767 10.9785
46.8254 10.9396
46.8739 10.8974
46.9226 10.8627
46.9712 10.822
47.0199 10.7669
47.0685 10.7524
47.1173 10.6417
47.1658 10.6365
47.2146 10.6317
47.2632 10.5661
47.312 10.524
47.3606 10.5257
47.4095 10.4689
47.4581 10.4368
47.5069 10.387
47.5556 10.3176
47.6044 10.2883
47.6531 10.2786
47.702 10.2148
47.7507 10.1844
47.7996 10.1245
47.8483 10.1318
47.8972 10.0999
47.9461 10.0779
47.9948 9.99621
48.0438 9.9834
48.0925 9.95943
48.1415 9.9067
48.1902 9.8144
48.2392 9.84134
48.288 9.79254
48.337 9.74941
48.3858 9.7186
48.4348 9.66274
48.4837 9.666
48.5327 9.6289
48.5815 9.58732
48.6306 9.57078
48.6795 9.51449
48.7285 9.51515
48.7774 9.42692
48.8265 9.4206
48.8754 9.40177
48.9245 9.34288
48.9734 9.28483
49.0226 9.27582
49.0715 9.26406
49.1206 9.19537
49.1696 9.15502
49.2188 9.15555
49.2679 9.1124
49.3169 9.05138
49.3661 9.03106
49.4151 9.01158
49.4643 8.99342
49.5134 8.93905
49.5626 8.86882
49.6117 8.83997
49.6609 8.82666
49.71 8.78705
49.7592 8.75764
49.8083 8.6671
49.8576 8.67871
49.9067 8.62833
49.956 8.59635
50.0052 8.58913
50.0545 8.55293
50.1036 8.50973
50.153 8.48725
50.2022 8.46418
50.2515 8.39555
50.3007 8.38015
50.3501 8.35063
50.3993 8.34486
50.4487 8.29249
50.498 8.26003
50.5474 8.2304
50.5966 8.21175
50.6461 8.14639
50.6955 8.12626
50.7448 8.10845
50.7943 8.05582
50.8436 8.06152
50.8931 8.02966
50.9424 7.98237
50.9919 7.90882
51.0413 7.93205
51.0908 7.89228
51.1402 7.86567
51.1897 7.83709
51.2391 7.76394
51.2887 7.75579
51.3381 7.72925
51.3877 7.71398
51.4371 7.65006
51.4867 7.63189
51.5362 7.60562
51.5858 7.56634
51.6353 7.5219
51.6849 7.48971
51.7344 7.44519
51.7841 7.46459
51.8336 7.3978
51.8833 7.38824
51.9328 7.32252
51.9826 7.32716
52.0323 7.32647
52.0818 7.27234
52.1316 7.21753
52.1812 7.21984
52.231 7.16704
52.2806 7.14579
52.3304 7.10914
52.38 7.08734
52.4298 7.06643
52.4794 6.99712
52.5293 6.9797
52.5789 6.97475
52.6288 6.93847
52.6785 6.90633
52.7284 6.86528
52.7781 6.82292
52.828 6.82862
52.8777 6.8
52.9276 6.78111
52.9774 6.72721
53.0273 6.7298
53.0771 6.6581
53.1271 6.69363
53.1769 6.61896
53.2269 6.56667
53.2767 6.55895
53.3267 6.51436
53.3765 6.51847
53.4266 6.46264
53.4766 6.4585
53.5265 6.42438
53.5765 6.42659
53.6264 6.40868
53.6765 6.36278
53.7264 6.32529
53.7765 6.27487
53.8265 6.27907
53.8766 6.23951
53.9266 6.19863
53.9767 6.15221
54.0267 6.14105
54.0769 6.1907
54.1269 6.07057
54.1771 6.01864
54.2271 6.01775
54.2773 5.99435
54.3274 5.99727
54.3776 5.89783
54.4277 5.89683
54.478 5.9321
54.528 5.81439
54.5783 5.76054
54.6285 5.7651
54.6788 5.66724
54.7289 5.69139
54.7792 5.66686
54.8296 5.55324
54.8798 5.56828
54.9301 5.50346
54.9803 5.42882
55.0307 5.4877
55.0809 5.40104
55.1314 5.38895
55.1816 5.28527
55.232 5.27982
55.2823 5.25757
55.3328 5.1502
55.383 5.15397
55.4335 5.07889
55.4838 5.06608
55.5344 4.97082
55.5847 4.98838
55.6352 4.91236
55.6856 4.86992
55.7361 4.836