File: XRD/Ni3Fe_FD0143.xy
TT I
1.27165 7.75939
1.31627 6.84905
1.36089 7.06461
1.40551 6.22698
1.45013 6.92251
1.49476 6.72289
1.53938 6.77565
1.584 5.34059
1.62863 5.58783
1.67325 5.16994
1.71787 5.24838
1.7625 5.24224
1.80712 5.1268
1.85174 5.12174
1.89636 4.84593
1.94099 5.45323
1.98562 4.76511
2.03025 4.94042
2.07487 4.63233
2.11949 5.39533
2.16411 4.68742
2.20874 4.12112
2.25338 4.239
2.298 3.80472
2.34263 4.7115
2.38725 4.10732
2.43188 3.54314
2.4765 4.35344
2.52115 4.51542
2.56577 4.93531
2.6104 5.12779
2.65503 4.94767
2.69965 5.30397
2.7443 6.32904
2.78893 6.59769
2.83356 7.49572
2.87818 7.50467
2.92281 8.55066
2.96744 9.43526
3.01209 10.7527
3.05672 11.3316
3.10135 12.0158
3.14599 12.9078
3.19062 14.4597
3.23527 14.848
3.2799 15.9865
3.32454 17.1005
3.36917 18.1279
3.4138 18.4549
3.45844 19.2603
3.50309 20.302
3.54773 20.636
3.59237 21.6122
3.637 22.1608
3.68164 22.768
3.7263 24.422
3.77094 24.7286
3.81558 25.4526
3.86022 25.987
3.90486 27.8357
3.9495 28.477
3.99416 29.349
4.0388 30.5883
4.08344 31.9534
4.12809 32.2595
4.17273 33.9081
4.21738 35.5063
4.26204 36.856
4.30669 37.5179
4.35133 39.4233
4.39598 40.7205
4.44063 43.0422
4.4853 44.3875
4.52995 47.071
4.5746 48.9604
4.61925 50.7861
4.6639 53.4428
4.70855 56.2629
4.75322 59.054
4.79788 62.3962
4.84253 65.6794
4.88719 69.8709
4.93184 74.6789
4.97652 82.2368
5.02118 90.1748
5.06583 101.002
5.11049 116.923
5.15515 155.776
5.19981 554.021
5.24449 3756.72
5.28916 8123.46
5.33382 6403.28
5.37848 467.625
5.42315 164.233
5.46783 127.45
5.5125 113.584
5.55716 107.666
5.60183 101.35
5.6465 98.4639
5.69117 97.3706
5.73586 95.2433
5.78053 95.1342
5.8252 95.6696
5.86988 98.4085
5.91455 105.168
5.95924 124.206
6.00392 289.908
6.0486 1382.65
6.09328 2657.18
6.13795 4050.74
6.18263 728.934
6.22733 123.822
6.27201 89.6428
6.3167 77.9852
6.36138 72.6569
6.40606 68.3299
6.45075 66.1817
6.49545 64.1131
6.54014 61.8227
6.58483 60.5229
6.62952 59.5969
6.67421 57.7519
6.71892 56.9535
6.76361 56.4017
6.8083 55.2591
6.853 54.729
6.89769 54.2109
6.94239 53.8614
6.98711 53.4819
7.03181 52.7613
7.07651 52.5053
7.12121 52.0433
7.16591 51.8093
7.21063 51.7073
7.25533 51.612
7.30004 51.427
7.34475 51.7699
7.38945 52.4689
7.43416 51.3247
7.47889 51.8249
7.5236 55.7853
7.56831 63.9126
7.61303 54.9875
7.65774 52.9565
7.70247 53.4141
7.74719 53.8888
7.79191 54.5937
7.83663 55.0076
7.88135 55.8968
7.92607 56.5787
7.97081 57.8881
8.01553 58.405
8.06026 60.1864
8.10498 61.6347
8.14971 63.5161
8.19446 64.6427
8.23919 67.7985
8.28392 70.4338
8.32865 73.1348
8.37339 77.6118
8.41812 83.0864
8.46288 95.4316
8.50761 172.373
8.55235 602.193
8.59709 871.874
8.64183 1448.5
8.68658 1646.33
8.73134 424.468
8.77609 116.633
8.82083 96.7677
8.86558 90.8895
8.91033 87.1656
8.9551 84.7716
8.99985 83.7872
9.04461 82.5628
9.08936 81.5662
9.13412 81.1461
9.17888 81.1484
9.22365 86.9992
9.26841 98.201
9.31318 86.6366
9.35794 82.3345
9.4027 81.7209
9.44749 82.8144
9.49226 82.8625
9.53703 84.1546
9.5818 85.2713
9.62657 86.3248
9.67134 88.2608
9.71614 90.4853
9.76091 92.3475
9.80569 94.824
9.85047 97.9533
9.89525 103.338
9.94005 113.485
9.98484 184.479
10.0296 546.098
10.0744 728.83
10.1192 1004.58
10.164 1632.53
10.2088 1006.18
10.2536 220.698
10.2984 116.33
10.3432 107.794
10.388 104.109
10.4328 120.257
10.4776 215.352
10.5224 259.758
10.5672 324.542
10.612 487.1
10.6568 386.028
10.7017 136.084
10.7465 90.3093
10.7913 83.4362
10.8361 80.3449
10.8809 77.4063
10.9257 75.0894
10.9706 74.2611
11.0154 72.1524
11.0602 70.8793
11.105 69.6016
11.1499 68.438
11.1947 67.166
11.2395 66.0979
11.2844 65.6626
11.3292 65.2948
11.374 64.2731
11.4189 63.691
11.4637 62.9984
11.5086 62.5905
11.5534 62.1853
11.5983 61.7448
11.6431 61.6742
11.688 61.1081
11.7328 61.4585
11.7777 60.9404
11.8225 60.6977
11.8674 60.5823
11.9122 62.0004
11.9571 66.0131
12.002 65.3047
12.0468 67.3626
12.0917 90.0739
12.1366 107.129
12.1814 116.232
12.2263 147.428
12.2712 191.148
12.3161 140.089
12.3609 75.3321
12.4058 63.8299
12.4507 63.0734
12.4956 62.7206
12.5405 62.5865
12.5853 63.2654
12.6302 63.3747
12.6751 64.1293
12.72 64.8655
12.7649 65.8514
12.8098 66.7462
12.8547 67.9448
12.8996 69.118
12.9445 70.9179
12.9894 72.7344
13.0343 74.6819
13.0792 78.7017
13.1242 85.9943
13.1691 132.686
13.214 187.153
13.2589 201.813
13.3038 240.139
13.3487 343.452
13.3937 382.749
13.4386 215.121
13.4835 120.215
13.5285 154.002
13.5734 181.52
13.6183 189.798
13.6633 232.647
13.7082 327.643
13.7531 309.037
13.7981 155.537
13.843 88.1809
13.888 80.4682
13.9329 77.3127
13.9779 75.3309
14.0228 74.1221
14.0678 72.4935
14.1127 72.4064
14.1577 73.9736
14.2027 72.3502
14.2476 70.2076
14.2926 68.9503
14.3376 68.6857
14.3825 68.331
14.4275 67.8623
14.4725 67.977
14.5175 68.0784
14.5624 68.0207
14.6074 68.222
14.6524 68.6785
14.6974 69.3527
14.7424 71.0683
14.7874 80.074
14.8324 106.764
14.8774 120.732
14.9224 125.433
14.9674 145.334
15.0124 188.408
15.0574 203.722
15.1024 140.955
15.1474 82.5705
15.1924 70.9517
15.2374 68.5307
15.2824 67.6167
15.3274 66.7338
15.3725 66.0479
15.4175 65.6905
15.4625 65.2083
15.5076 64.7844
15.5526 65.1829
15.5976 65.3174
15.6426 66.172
15.6877 73.1733
15.7327 94.8347
15.7778 107.206
15.8228 109.221
15.8679 122.194
15.9129 151.362
15.958 184.723
16.003 154.206
16.0481 89.8209
16.0931 66.5538
16.1382 61.5562
16.1833 60.107
16.2283 58.4484
16.2734 57.9117
16.3185 56.852
16.3636 56.3714
16.4086 55.5855
16.4537 55.3253
16.4988 54.707
16.5439 54.6083
16.589 54.3341
16.6341 53.9729
16.6792 53.6163
16.7243 53.8882
16.7694 53.7225
16.8145 53.8913
16.8596 53.7849
16.9047 54.3548
16.9498 54.7858
16.9949 54.8542
17.04 54.7924
17.0851 56.4379
17.1302 60.6047
17.1754 63.9753
17.2205 64.9046
17.2656 66.2435
17.3108 71.6824
17.3559 78.5696
17.401 80.2866
17.4462 70.9923
17.4913 61.1754
17.5365 58.6056
17.5815 58.7472
17.6268 59.0211
17.6718 59.575
17.7171 59.8574
17.7622 61.0362
17.8074 61.652
17.8525 63.4156
17.8977 71.5068
17.9428 83.5809
17.9881 88.3346
18.0331 90.233
18.0784 96.7647
18.1237 113.117
18.1688 139.49
18.214 142.507
18.2591 111.383
18.3044 88.2309
18.3495 85.6384
18.3948 94.1635
18.4399 102.826
18.4852 95.4846
18.5303 76.7711
18.5756 65.1397
18.6207 61.7767
18.666 60.4974
18.7112 59.7982
18.7565 58.8455
18.8016 58.6783
18.8469 57.8341
18.892 57.4964
18.9374 57.1055
18.9825 56.5764
19.0278 56.3256
19.073 56.4368
19.1183 56.941
19.1635 59.2346
19.2088 61.5356
19.254 62.3428
19.2993 62.7382
19.3447 64.6719
19.3898 68.6805
19.4352 73.553
19.4804 72.5736
19.5257 64.1061
19.5709 56.2942
19.6163 54.0585
19.6615 53.4402
19.7068 53.2114
19.752 53.005
19.7974 53.2727
19.8426 54.4712
19.888 56.7216
19.9332 57.971
19.9786 58.3118
20.0238 58.7878
20.0692 61.44
20.1144 66.3144
20.1598 71.8728
20.205 70.6342
20.2504 65.1501
20.2957 60.829
20.3411 61.1898
20.3863 64.2321
20.4318 64.3561
20.477 59.1147
20.5224 53.0608
20.5677 50.791
20.6131 50.1479
20.6586 49.5467
20.7038 49.3966
20.7493 48.9655
20.7945 49.0016
20.84 48.8228
20.8853 48.5944
20.9307 48.3531
20.976 48.5558
21.0215 48.6641
21.0668 49.3094
21.1122 49.2504
21.1575 49.2966
21.203 49.5555
21.2483 49.8049
21.2938 51.1094
21.3391 51.0939
21.3846 50.4171
21.4299 48.9085
21.4754 48.2743
21.5207 48.6174
21.5662 48.6693
21.6116 49.1763
21.6571 51.0907
21.7024 52.8781
21.7479 53.9009
21.7933 54.0865
21.8388 55.3787
21.8843 57.9651
21.9297 61.7003
21.9752 65.3644
22.0206 65.3916
22.0661 60.4622
22.1115 56.1509
22.157 55.3632
22.2024 56.2471
22.248 55.0274
22.2933 52.4519
22.3389 49.9296
22.3843 49.0832
22.4299 48.7213
22.4753 48.6804
22.5208 48.5609
22.5662 48.5806
22.6118 48.6789
22.6572 48.8174
22.7028 49.9738
22.7483 51.0785
22.7939 51.6717
22.8393 51.7562
22.8849 52.316
22.9303 53.249
22.9759 54.6986
23.0214 56.8543
23.067 58.1011
23.1126 56.0695
23.1581 52.3669
23.2037 49.8103
23.2492 48.9185
23.2948 49.5012
23.3403 50.7398
23.3859 51.5505
23.4314 51.6572
23.477 51.6968
23.5225 52.1022
23.5682 53.1405
23.6137 55.5352
23.6593 57.4128
23.7048 57.2253
23.7505 53.4502
23.796 49.1415
23.8417 46.8167
23.8872 45.8545
23.9329 45.5199
23.9784 45.1285
24.0241 44.7936
24.0697 44.5275
24.1154 44.0351
24.1609 44.1183
24.2066 43.7394
24.2522 43.7568
24.2979 43.5807
24.3434 43.3849
24.3892 43.2754
24.4349 43.0277
24.4805 42.9067
24.5262 43.0419
24.5718 42.6812
24.6175 42.8183
24.6631 42.89
24.7089 42.7818
24.7545 42.6228
24.8002 42.3433
24.8458 42.3931
24.8916 42.3135
24.9372 42.5
24.983 42.6111
25.0286 42.9123
25.0744 43.3173
25.12 43.6629
25.1658 44.0695
25.2114 44.5137
25.2572 44.7822
25.3029 44.7631
25.3487 44.5899
25.3943 44.5593
25.4402 44.7896
25.4858 44.4143
25.5316 43.0148
25.5773 41.5793
25.6231 41.1129
25.669 40.7707
25.7147 40.6717
25.7605 40.5939
25.8062 40.8905
25.8521 40.9606
25.8977 40.7709
25.9436 40.9113
25.9893 40.7846
26.0352 41.0225
26.0809 41.055
26.1268 41.4791
26.1725 41.8398
26.2184 41.8476
26.2641 41.3454
26.31 40.8903
26.3557 40.819
26.4017 40.6375
26.4474 40.8077
26.4933 40.7178
26.5391 41.1077
26.585 41.2983
26.6308 41.5348
26.6767 41.8721
26.7225 42.5655
26.7684 42.4464
26.8142 42.0601
26.8601 41.234
26.9059 40.7051
26.9519 40.3682
26.9979 40.0145
27.0437 39.3103
27.0896 38.8196
27.1354 39.0685
27.1814 38.7815
27.2272 38.7119
27.2732 38.8587
27.3191 38.5632
27.3651 38.6387
27.4109 38.4174
27.4569 38.5334
27.5027 38.4332
27.5488 38.6469
27.5946 38.6041
27.6407 38.6983
27.6865 38.6573
27.7326 38.3846
27.7784 38.3974
27.8245 38.2941
27.8703 38.2836
27.9164 38.3427
27.9623 38.315
28.0084 38.6075
28.0543 38.8232
28.1003 38.9817
28.1462 39.3588
28.1923 39.3315
28.2384 38.7417
28.2843 38.2865
28.3304 37.853
28.3764 37.545
28.4225 36.9977
28.4684 36.5753
28.5145 36.1856
28.5605 36.0045
28.6066 35.8464
28.6526 35.9279
28.6987 35.7889
28.7447 35.6001
28.7908 35.4526
28.8368 35.4483
28.8829 35.2537
28.9289 35.3629
28.9751 35.287
29.0211 35.2316
29.0673 35.0007
29.1133 34.9087
29.1595 34.6315
29.2055 34.4389
29.2517 34.4446
29.2977 34.2729
29.3439 34.1728
29.3899 34.1873
29.4361 34.2361
29.4824 34.1379
29.5284 34.0456
29.5746 33.9209
29.6207 33.4884
29.6669 33.2414
29.713 33.0956
29.7593 32.8509
29.8053 33.0405
29.8516 32.8902
29.8977 32.7852
29.9439 32.7429
29.99 32.7319
30.0363 32.7095
30.0824 32.5806
30.1287 32.5487
30.1748 32.4563
30.2211 32.3598
30.2673 32.2678
30.3136 32.5572
30.3597 32.451
30.406 32.4229
30.4522 32.2724
30.4985 32.2758
30.5447 32.2411
30.591 32.1206
30.6372 32.248
30.6835 32.1725
30.7297 32.2224
30.7761 32.3225
30.8224 32.3274
30.8686 32.29
30.915 32.0879
30.9612 31.8198
31.0076 31.5669
31.0538 31.4284
31.1002 31.3352
31.1464 31.157
31.1928 31.1581
31.2391 31.1132
31.2855 30.9791
31.3317 30.953
31.3781 31.0136
31.4244 30.7886
31.4708 30.7857
31.5171 30.9181
31.5636 31.0388
31.6098 30.9144
31.6563 30.7692
31.7026 30.5411
31.7491 30.4319
31.7953 30.3267
31.8418 30.2487
31.8881 30.2423
31.9346 30.106
31.9809 30.1699
32.0275 30.0772
32.074 30.1049
32.1203 29.958
32.1668 29.8175
32.2132 29.6162
32.2597 29.4806
32.306 29.4834
32.3526 29.2228
32.399 29.1025
32.4455 28.9979
32.4919 28.8964
32.5385 28.7826
32.5848 28.6547
32.6314 28.5913
32.6778 28.5137
32.7244 28.3932
32.7708 28.2943
32.8174 28.2679
32.8638 28.2478
32.9104 28.2449
32.9569 28.0722
33.0035 28.011
33.0499 27.9201
33.0966 27.9176
33.143 27.8663
33.1897 27.7545
33.2361 27.7523
33.2828 27.6478
33.3293 27.6539
33.3759 27.5545
33.4226 27.3912
33.4691 27.3357
33.5158 27.233
33.5623 27.1195
33.609 26.9339
33.6555 26.7496
33.7022 26.7026
33.7487 26.5725
33.7954 26.4993
33.842 26.4725
33.8887 26.4773
33.9353 26.3108
33.982 26.2827
34.0286 26.1574
34.0753 26.0262
34.1219 26.0037
34.1687 25.956
34.2152 25.8725
34.262 25.6802
34.3086 25.6159
34.3554 25.6022
34.402 25.5155
34.4488 25.4781
34.4954 25.3749
34.5422 25.2982
34.5889 25.1639
34.6357 25.0491
34.6825 24.9767
34.7292 24.9251
34.776 24.8279
34.8227 24.8037
34.8695 24.7258
34.9162 24.673
34.9631 24.6031
35.0098 24.5715
35.0566 24.4461
35.1033 24.4213
35.1502 24.3312
35.1969 24.2804
35.2438 24.1656
35.2906 24.1973
35.3375 24.1443
35.3842 23.9953
35.4311 24.0238
35.4779 23.9895
35.5248 23.9698
35.5716 23.9182
35.6185 23.8648
35.6653 23.7922
35.7123 23.7422
35.759 23.5757
35.806 23.5089
35.8528 23.41
35.8998 23.3295
35.9468 23.2417
35.9936 23.2336
36.0406 23.0868
36.0874 23.0911
36.1345 23.0372
36.1813 22.9331
36.2283 22.7957
36.2752 22.7483
36.3222 22.8096
36.3691 22.6659
36.4161 22.5596
36.463 22.5184
36.5101 22.5698
36.557 22.4358
36.6041 22.2721
36.651 22.3103
36.6981 22.2243
36.745 22.1386
36.7921 22.171
36.839 21.9769
36.8861 21.9448
36.9331 21.8471
36.9802 21.8303
37.0272 21.6851
37.0743 21.5884
37.1213 21.5878
37.1684 21.5147
37.2154 21.4315
37.2626 21.3463
37.3098 21.2658
37.3568 21.2304
37.404 21.2218
37.451 21.0647
37.4982 21.0121
37.5452 20.9902
37.5924 20.8848
37.6395 20.9279
37.6867 20.773
37.7337 20.7201
37.781 20.6001
37.8281 20.5657
37.8753 20.4742
37.9224 20.4392
37.9697 20.3707
38.0168 20.3097
38.064 20.2416
38.1111 20.234
38.1584 20.0989
38.2056 19.9942
38.2529 19.9107
38.3 19.9111
38.3473 19.8767
38.3945 19.7856
38.4418 19.7544
38.489 19.6949
38.5363 19.6062
38.5837 19.4521
38.6309 19.485
38.6782 19.4017
38.7254 19.3258
38.7728 19.2632
38.82 19.1941
38.8674 19.2147
38.9146 19.1638
38.9621 19.035
39.0093 19.0582
39.0567 18.9505
39.104 18.8131
39.1514 18.774
39.1987 18.7661
39.2461 18.7026
39.2934 18.6026
39.3409 18.5609
39.3882 18.5021
39.4356 18.4144
39.483 18.3406
39.5304 18.3052
39.5778 18.2839
39.6253 18.209
39.6726 18.174
39.7201 18.1143
39.7675 18.1195
39.815 18.0543
39.8624 17.944
39.9099 17.911
39.9575 17.7914
40.0049 17.7746
40.0525 17.735
40.0999 17.7043
40.1474 17.6374
40.1949 17.5379
40.2425 17.4692
40.2899 17.4505
40.3375 17.3341
40.385 17.263
40.4326 17.2466
40.48 17.2188
40.5277 17.1091
40.5752 17.1352
40.6228 17.0292
40.6703 16.9558
40.718 16.9234
40.7655 16.9117
40.8132 16.8415
40.8607 16.8702
40.9084 16.7877
40.9559 16.7433
41.0036 16.5994
41.0512 16.632
41.0989 16.5312
41.1465 16.4384
41.1942 16.3967
41.242 16.4154
41.2896 16.2669
41.3373 16.21
41.3849 16.2072
41.4327 16.099
41.4803 15.9899
41.5281 16.0081
41.5758 15.9687
41.6236 15.8919
41.6712 15.8407
41.7191 15.7653
41.7667 15.7772
41.8146 15.744
41.8622 15.6155
41.9101 15.6025
41.9578 15.5127
42.0057 15.4957
42.0534 15.4638
42.1013 15.3396
42.149 15.3409
42.1969 15.3033
42.2446 15.2517
42.2925 15.1676
42.3403 15.1013
42.3882 15.0668
42.436 15.0414
42.4839 15.0011
42.5319 14.9265
42.5797 14.8783
42.6277 14.801
42.6755 14.7642
42.7235 14.7465
42.7713 14.6489
42.8193 14.5927
42.8671 14.5757
42.9152 14.5205
42.963 14.4904
43.0111 14.4129
43.0589 14.3595
43.107 14.2925
43.1549 14.3202
43.2029 14.2095
43.2508 14.1481
43.2989 14.0984
43.3468 14.069
43.3949 14.0098
43.4429 14.0095
43.491 13.925
43.5389 13.9278
43.5871 13.8338
43.635 13.7856
43.6832 13.7328
43.7312 13.7099
43.7793 13.6279
43.8273 13.5639
43.8755 13.5334
43.9237 13.4996
43.9717 13.4477
44.0199 13.4295
44.068 13.4189
44.1162 13.3539
44.1642 13.3591
44.2125 13.2298
44.2606 13.1983
44.3088 13.0963
44.3569 13.0985
44.4052 13.1112
44.4533 12.9663
44.5016 12.9466
44.5497 12.9199
44.598 12.8532
44.6461 12.8046
44.6945 12.7225
44.7426 12.739
44.791 12.6681
44.8391 12.6392
44.8875 12.6342
44.9357 12.5801
44.984 12.5013
45.0322 12.4613
45.0806 12.3967
45.1288 12.3996
45.1773 12.288
45.2257 12.2584
45.2739 12.2948
45.3224 12.208
45.3706 12.1924
45.4191 12.112
45.4673 12.0741
45.5158 12.0042
45.5641 12.0306
45.6126 11.9197
45.6609 11.885
45.7094 11.8156
45.7577 11.8191
45.8063 11.7215
45.8546 11.7471
45.9031 11.686
45.9515 11.6746
46.0001 11.5827
46.0484 11.5593
46.097 11.5262
46.1454 11.5096
46.194 11.4317
46.2424 11.3792
46.291 11.391
46.3395 11.3516
46.3881 11.2191
46.4365 11.2626
46.4852 11.1977
46.5337 11.176
46.5823 11.102
46.631 11.0885
46.6795 10.9901
46.7282 10.99
46.7767 10.9499
46.8254 10.8772
46.8739 10.858
46.9226 10.8221
46.9712 10.7866
47.0199 10.7299
47.0685 10.7031
47.1173 10.6239
47.1658 10.6215
47.2146 10.5845
47.2632 10.535
47.312 10.5298
47.3606 10.4202
47.4095 10.3984
47.4581 10.3872
47.5069 10.3813
47.5556 10.2886
47.6044 10.2381
47.6531 10.2272
47.702 10.1666
47.7507 10.1725
47.7996 10.1374
47.8483 10.0943
47.8972 10.0681
47.9461 10.0417
47.9948 9.97327
48.0438 9.90262
48.0925 9.92546
48.1415 9.86923
48.1902 9.81898
48.2392 9.81918
48.288 9.74364
48.337 9.73475
48.3858 9.67833
48.4348 9.65317
48.4837 9.64086
48.5327 9.60022
48.5815 9.57719
48.6306 9.53444
48.6795 9.49792
48.7285 9.46152
48.7774 9.43405
48.8265 9.41038
48.8754 9.3812
48.9245 9.35792
48.9734 9.29835
49.0226 9.24583
49.0715 9.205
49.1206 9.1955
49.1696 9.15026
49.2188 9.12249
49.2679 9.06861
49.3169 9.01998
49.3661 8.96973
49.4151 8.96926
49.4643 8.94061
49.5134 8.91128
49.5626 8.8402
49.6117 8.82717
49.6609 8.83129
49.71 8.76727
49.7592 8.71553
49.8083 8.65755
49.8576 8.66556
49.9067 8.65959
49.956 8.61024
50.0052 8.56015
50.0545 8.54274
50.1036 8.49226
50.153 8.47451
50.2022 8.43435
50.2515 8.38432
50.3007 8.38046
50.3501 8.32972
50.3993 8.28814
50.4487 8.27868
50.498 8.2488
50.5474 8.19438
50.5966 8.16206
50.6461 8.1353
50.6955 8.10635
50.7448 8.08117
50.7943 8.08743
50.8436 8.04954
50.8931 7.97518
50.9424 7.95289
50.9919 7.96413
51.0413 7.94041
51.0908 7.86293
51.1402 7.83354
51.1897 7.81519
51.2391 7.77922
51.2887 7.73744
51.3381 7.71411
51.3877 7.70503
51.4371 7.6145
51.4867 7.62947
51.5362 7.62827
51.5858 7.55798
51.6353 7.48009
51.6849 7.48359
51.7344 7.44104
51.7841 7.45867
51.8336 7.39231
51.8833 7.33546
51.9328 7.2865
51.9826 7.28349
52.0323 7.29783
52.0818 7.26472
52.1316 7.18958
52.1812 7.18812
52.231 7.14981
52.2806 7.11442
52.3304 7.10536
52.38 7.07608
52.4298 7.05967
52.4794 6.96884
52.5293 6.94949
52.5789 6.97582
52.6288 6.92219
52.6785 6.8823
52.7284 6.85204
52.7781 6.81906
52.828 6.79401
52.8777 6.77745
52.9276 6.70236
52.9774 6.7363
53.0273 6.71958
53.0771 6.63871
53.1271 6.62928
53.1769 6.5931
53.2269 6.6147
53.2767 6.54883
53.3267 6.53118
53.3765 6.47966
53.4266 6.49194
53.4766 6.4198
53.5265 6.38703
53.5765 6.36907
53.6264 6.3597
53.6765 6.30263
53.7264 6.26282
53.7765 6.26422
53.8265 6.19216
53.8766 6.22046
53.9266 6.1933
53.9767 6.16345
54.0267 6.15054
54.0769 6.05869
54.1269 6.05311
54.1771 5.99187
54.2271 6.01593
54.2773 5.91592
54.3274 5.96615
54.3776 5.90202
54.4277 5.84559
54.478 5.83884
54.528 5.78529
54.5783 5.73711
54.6285 5.73164
54.6788 5.65177
54.7289 5.5918
54.7792 5.53435
54.8296 5.49406
54.8798 5.47715
54.9301 5.43366
54.9803 5.40588
55.0307 5.41743
55.0809 5.30008
55.1314 5.28493
55.1816 5.1808
55.232 5.19644
55.2823 5.08799
55.3328 5.03654
55.383 5.02475
55.4335 4.96024
55.4838 4.93791
55.5344 4.8977
55.5847 4.7983
55.6352 4.81534
55.6856 4.77258
55.7361 4.75474