File: XRD/Ni3Fe_FD0697.xy
TT I
1.27165 7.9017
1.31627 6.56486
1.36089 7.39694
1.40551 5.53012
1.45013 6.59152
1.49476 5.98495
1.53938 6.13746
1.584 5.15265
1.62863 5.08948
1.67325 4.97377
1.71787 4.85484
1.7625 4.59654
1.80712 4.62649
1.85174 4.84231
1.89636 4.55703
1.94099 5.09486
1.98562 4.40452
2.03025 4.25652
2.07487 4.375
2.11949 5.16777
2.16411 4.3167
2.20874 9.03627
2.25338 12.6723
2.298 5.74069
2.34263 5.2542
2.38725 6.17375
2.43188 5.92375
2.4765 6.46762
2.52115 6.94594
2.56577 7.38569
2.6104 8.06125
2.65503 7.95498
2.69965 7.69764
2.7443 8.01067
2.78893 8.46477
2.83356 8.62912
2.87818 8.96456
2.92281 8.6029
2.96744 9.37804
3.01209 9.94965
3.05672 11.1148
3.10135 12.0614
3.14599 12.4607
3.19062 14.1283
3.23527 15.3371
3.2799 16.1109
3.32454 16.9388
3.36917 17.5615
3.4138 18.9948
3.45844 19.6342
3.50309 20.7115
3.54773 21.758
3.59237 23.3326
3.637 54.8601
3.68164 39.0418
3.7263 25.0169
3.77094 26.018
3.81558 26.7595
3.86022 26.9341
3.90486 28.4159
3.9495 29.4589
3.99416 30.5869
4.0388 31.6066
4.08344 32.7922
4.12809 34.4208
4.17273 36.1988
4.21738 39.8306
4.26204 134.374
4.30669 116.218
4.35133 44.702
4.39598 43.5611
4.44063 49.6556
4.4853 55.1355
4.52995 54.8835
4.5746 55.3543
4.61925 53.6243
4.6639 55.5389
4.70855 58.2803
4.75322 61.6867
4.79788 67.2884
4.84253 68.3779
4.88719 74.1116
4.93184 76.4446
4.97652 81.4192
5.02118 87.6488
5.06583 95.6381
5.11049 107.292
5.15515 158.228
5.19981 431.103
5.24449 3028.61
5.28916 12612.5
5.33382 2634.12
5.37848 192.964
5.42315 130.922
5.46783 117.939
5.5125 110.623
5.55716 102.552
5.60183 98.2582
5.6465 96.1653
5.69117 94.3827
5.73586 92.9932
5.78053 96.5079
5.8252 96.2557
5.86988 98.872
5.91455 95.8933
5.95924 105.881
6.00392 251.333
6.0486 1034.17
6.09328 4571.71
6.13795 3142.91
6.18263 216.726
6.22733 90.9869
6.27201 80.9
6.3167 86.3983
6.36138 75.1979
6.40606 69.4768
6.45075 69.0285
6.49545 65.0862
6.54014 63.1928
6.58483 62.9789
6.62952 62.8631
6.67421 75.7554
6.71892 97.0103
6.76361 62.8046
6.8083 59.038
6.853 58.9596
6.89769 56.9016
6.94239 55.9662
6.98711 55.7124
7.03181 55.7822
7.07651 54.9831
7.12121 54.5877
7.16591 55.9651
7.21063 55.2886
7.25533 61.8163
7.30004 108.044
7.34475 69.9927
7.38945 54.7874
7.43416 53.7083
7.47889 53.9303
7.5236 54.0935
7.56831 54.6699
7.61303 55.8176
7.65774 56.1675
7.70247 56.6167
7.74719 56.1248
7.79191 56.5579
7.83663 56.5785
7.88135 57.3835
7.92607 58.7181
7.97081 59.6908
8.01553 60.8102
8.06026 62.6115
8.10498 64.0174
8.14971 70.8249
8.19446 70.4503
8.23919 69.3208
8.28392 71.7794
8.32865 74.4596
8.37339 78.848
8.41812 84.162
8.46288 105.041
8.50761 187.118
8.55235 410.133
8.59709 1248.77
8.64183 2206.76
8.68658 853.728
8.73134 152.59
8.77609 98.3104
8.82083 92.1576
8.86558 91.9596
8.91033 91.3901
8.9551 89.5966
8.99985 85.088
9.04461 83.3908
9.08936 83.9409
9.13412 82.6483
9.17888 81.9533
9.22365 82.7125
9.26841 82.1142
9.31318 84.3823
9.35794 85.3304
9.4027 84.9492
9.44749 85.1107
9.49226 84.8595
9.53703 85.4547
9.5818 88.8835
9.62657 93.282
9.67134 95.3141
9.71614 92.9813
9.76091 94.6658
9.80569 98.9818
9.85047 101.193
9.89525 113.579
9.94005 129.853
9.98484 199.319
10.0296 365.55
10.0744 854.373
10.1192 1797.31
10.164 1555.02
10.2088 358.327
10.2536 122.221
10.2984 110.141
10.3432 108.986
10.388 105.812
10.4328 124.255
10.4776 166.388
10.5224 292.54
10.5672 512.633
10.612 491.523
10.6568 193.388
10.7017 94.5016
10.7465 86.0407
10.7913 82.8626
10.8361 81.2037
10.8809 78.4869
10.9257 77.7013
10.9706 78.0276
11.0154 74.9156
11.0602 72.777
11.105 71.3057
11.1499 72.5782
11.1947 75.4554
11.2395 70.7934
11.2844 68.7182
11.3292 66.6161
11.374 65.956
11.4189 65.2849
11.4637 64.8258
11.5086 64.6432
11.5534 65.812
11.5983 64.3222
11.6431 63.3944
11.688 62.9156
11.7328 62.7394
11.7777 62.6515
11.8225 62.5232
11.8674 62.3609
11.9122 62.8463
11.9571 63.1297
12.002 64.4537
12.0468 69.5697
12.0917 79.6884
12.1366 105.598
12.1814 155.584
12.2263 204.248
12.2712 156.312
12.3161 87.4659
12.3609 67.2887
12.4058 63.9032
12.4507 64.1455
12.4956 64.2522
12.5405 64.656
12.5853 65.2676
12.6302 68.8801
12.6751 71.2421
12.72 68.3345
12.7649 67.8811
12.8098 68.3764
12.8547 69.7416
12.8996 71.001
12.9445 72.6707
12.9894 74.5973
13.0343 76.5109
13.0792 80.3441
13.1242 93.5153
13.1691 114.133
13.214 153.096
13.2589 249.266
13.3038 380.874
13.3487 416.116
13.3937 249.841
13.4386 120.547
13.4835 108.409
13.5285 123.11
13.5734 164.727
13.6183 258.72
13.6633 357.874
13.7082 327.312
13.7531 171.982
13.7981 93.6611
13.843 81.4265
13.888 79.6413
13.9329 77.2439
13.9779 75.5896
14.0228 74.3621
14.0678 72.8475
14.1127 72.4294
14.1577 71.6346
14.2027 71.2891
14.2476 70.6058
14.2926 69.9549
14.3376 70.2217
14.3825 69.74
14.4275 68.9249
14.4725 68.6481
14.5175 68.754
14.5624 68.8479
14.6074 70.1905
14.6524 70.7184
14.6974 70.7072
14.7424 74.1758
14.7874 80.501
14.8324 90.397
14.8774 114.391
14.9224 159.722
14.9674 212.184
15.0124 215.893
15.0574 139.308
15.1024 86.6829
15.1474 71.8607
15.1924 69.9342
15.2374 69.6275
15.2824 68.8708
15.3274 67.5372
15.3725 66.7654
15.4175 66.4449
15.4625 65.6229
15.5076 65.8892
15.5526 66.0158
15.5976 65.932
15.6426 68.3958
15.6877 73.5672
15.7327 80.9143
15.7778 97.0296
15.8228 130.258
15.8679 174.624
15.9129 195.111
15.958 149.63
16.003 91.4405
16.0481 66.4271
16.0931 63.2243
16.1382 61.3708
16.1833 60.1284
16.2283 58.7493
16.2734 58.1159
16.3185 57.6049
16.3636 57.8572
16.4086 56.7349
16.4537 55.7861
16.4988 55.314
16.5439 55.3314
16.589 54.9841
16.6341 54.6719
16.6792 54.2255
16.7243 54.7462
16.7694 54.5148
16.8145 54.5938
16.8596 54.9608
16.9047 55.6959
16.9498 55.8281
16.9949 55.3088
17.04 56.0772
17.0851 57.2234
17.1302 58.6918
17.1754 61.9175
17.2205 67.4836
17.2656 75.0939
17.3108 83.276
17.3559 81.3254
17.401 69.8219
17.4462 61.3547
17.4913 59.0539
17.5365 59.0176
17.5815 59.0796
17.6268 59.5331
17.6718 60.2578
17.7171 60.6696
17.7622 61.217
17.8074 62.4427
17.8525 65.1951
17.8977 68.6644
17.9428 74.3701
17.9881 84.0277
18.0331 102.46
18.0784 125.607
18.1237 142.392
18.1688 130.447
18.214 101.018
18.2591 85.7876
18.3044 91.3314
18.3495 101.001
18.3948 106.033
18.4399 94.2078
18.4852 75.1004
18.5303 65.1824
18.5756 61.7384
18.6207 61.0127
18.666 60.1904
18.7112 59.6111
18.7565 58.8525
18.8016 58.7854
18.8469 57.9414
18.892 57.857
18.9374 57.2405
18.9825 56.7543
19.0278 56.8447
19.073 57.0347
19.1183 57.2974
19.1635 57.8462
19.2088 59.4256
19.254 62.4628
19.2993 67.2003
19.3447 73.1046
19.3898 76.2813
19.4352 71.1494
19.4804 62.2869
19.5257 56.2097
19.5709 53.8621
19.6163 53.8102
19.6615 53.798
19.7068 53.2602
19.752 53.351
19.7974 53.736
19.8426 54.408
19.888 55.1101
19.9332 56.4686
19.9786 59.247
20.0238 62.9147
20.0692 67.5047
20.1144 69.6755
20.1598 67.6111
20.205 63.0979
20.2504 62.2488
20.2957 64.144
20.3411 65.5342
20.3863 63.2716
20.4318 57.5843
20.477 53.1174
20.5224 50.9612
20.5677 50.5025
20.6131 50.0156
20.6586 49.6867
20.7038 49.4253
20.7493 48.9385
20.7945 48.7705
20.84 48.8625
20.8853 48.6775
20.9307 48.6497
20.976 48.7553
21.0215 48.6173
21.0668 48.8721
21.1122 49.445
21.1575 50.1746
21.203 50.7911
21.2483 51.5127
21.2938 51.4788
21.3391 49.7718
21.3846 48.6653
21.4299 48.3902
21.4754 48.3412
21.5207 48.406
21.5662 48.968
21.6116 49.4676
21.6571 49.888
21.7024 51.0451
21.7479 52.9811
21.7933 55.78
21.8388 59.542
21.8843 63.2513
21.9297 64.9089
21.9752 62.7033
22.0206 58.6043
22.0661 56.233
22.1115 55.9647
22.157 55.7381
22.2024 53.9236
22.248 51.0777
22.2933 49.6753
22.3389 48.8907
22.3843 48.8039
22.4299 48.4404
22.4753 48.6856
22.5208 48.4233
22.5662 48.5653
22.6118 48.7215
22.6572 48.9906
22.7028 49.3079
22.7483 49.7723
22.7939 50.5604
22.8393 52.1791
22.8849 54.4737
22.9303 56.3873
22.9759 58.1268
23.0214 57.1248
23.067 53.9609
23.1126 50.6927
23.1581 49.0135
23.2037 48.7906
23.2492 48.985
23.2948 48.7741
23.3403 49.0903
23.3859 49.7228
23.4314 51.0024
23.477 52.898
23.5225 55.2134
23.5682 57.1145
23.6137 57.9008
23.6593 54.8588
23.7048 50.9758
23.7505 47.8416
23.796 46.3617
23.8417 45.9043
23.8872 45.3759
23.9329 45.2508
23.9784 44.9443
24.0241 44.5138
24.0697 44.3264
24.1154 44.0496
24.1609 43.863
24.2066 43.6239
24.2522 43.5687
24.2979 43.47
24.3434 43.2694
24.3892 43.1256
24.4349 43.0982
24.4805 42.9452
24.5262 42.926
24.5718 42.962
24.6175 42.8371
24.6631 42.6917
24.7089 42.3448
24.7545 42.2047
24.8002 42.2698
24.8458 42.0886
24.8916 42.0732
24.9372 42.3381
24.983 42.5948
25.0286 42.8654
25.0744 43.3613
25.12 43.7679
25.1658 44.4189
25.2114 44.6151
25.2572 44.6755
25.3029 44.7886
25.3487 44.9504
25.3943 44.4838
25.4402 43.2263
25.4858 42.0847
25.5316 41.4064
25.5773 40.867
25.6231 40.7652
25.669 40.4489
25.7147 40.3537
25.7605 40.2261
25.8062 40.3006
25.8521 40.6427
25.8977 40.4892
25.9436 40.7183
25.9893 40.9635
26.0352 41.3496
26.0809 41.5024
26.1268 41.6471
26.1725 41.2361
26.2184 40.7054
26.2641 40.2913
26.31 40.1029
26.3557 39.955
26.4017 39.9713
26.4474 40.4146
26.4933 40.7401
26.5391 41.3037
26.585 41.6502
26.6308 42.0587
26.6767 42.1726
26.7225 41.8487
26.7684 41.3407
26.8142 40.7324
26.8601 40.3235
26.9059 39.8522
26.9519 39.3674
26.9979 39.1242
27.0437 38.7506
27.0896 38.6759
27.1354 38.6153
27.1814 38.567
27.2272 38.2773
27.2732 38.5174
27.3191 38.2565
27.3651 38.4547
27.4109 38.2658
27.4569 38.4601
27.5027 38.5112
27.5488 38.5041
27.5946 38.2402
27.6407 38.0339
27.6865 38.0407
27.7326 37.7543
27.7784 37.7174
27.8245 37.8701
27.8703 38.0391
27.9164 38.2629
27.9623 38.4749
28.0084 38.7232
28.0543 39.114
28.1003 38.8945
28.1462 38.7517
28.1923 38.4155
28.2384 37.7732
28.2843 37.4988
28.3304 37.0205
28.3764 36.6189
28.4225 36.3703
28.4684 36.163
28.5145 35.9119
28.5605 35.8037
28.6066 35.7251
28.6526 35.5385
28.6987 35.5797
28.7447 35.4402
28.7908 35.4287
28.8368 35.3655
28.8829 35.4149
28.9289 35.371
28.9751 35.0737
29.0211 34.8588
29.0673 34.6175
29.1133 34.4986
29.1595 34.3772
29.2055 34.1996
29.2517 34.2818
29.2977 34.2575
29.3439 34.214
29.3899 34.1437
29.4361 34.1069
29.4824 33.8608
29.5284 33.6495
29.5746 33.251
29.6207 33.1266
29.6669 33.0873
29.713 32.9195
29.7593 32.9285
29.8053 32.8723
29.8516 32.7223
29.8977 32.769
29.9439 32.4463
29.99 32.4437
30.0363 32.4292
30.0824 32.4107
30.1287 32.3409
30.1748 32.3671
30.2211 32.3069
30.2673 32.2301
30.3136 32.339
30.3597 32.1636
30.406 32.0817
30.4522 31.8807
30.4985 31.9705
30.5447 32.1716
30.591 32.1026
30.6372 32.1944
30.6835 32.181
30.7297 32.1609
30.7761 32.066
30.8224 31.916
30.8686 31.774
30.915 31.5712
30.9612 31.5074
31.0076 31.2047
31.0538 31.1379
31.1002 31.0406
31.1464 30.9645
31.1928 30.8311
31.2391 30.985
31.2855 30.8698
31.3317 30.8056
31.3781 30.9095
31.4244 30.7741
31.4708 30.7028
31.5171 30.7326
31.5636 30.7373
31.6098 30.4259
31.6563 30.3045
31.7026 30.1567
31.7491 30.0668
31.7953 30.1169
31.8418 30.0626
31.8881 30.1238
31.9346 30.0876
31.9809 29.9874
32.0275 29.7951
32.074 29.6974
32.1203 29.589
32.1668 29.4175
32.2132 29.3402
32.2597 29.2108
32.306 29.1147
32.3526 28.8703
32.399 28.8237
32.4455 28.7242
32.4919 28.5766
32.5385 28.6337
32.5848 28.4051
32.6314 28.4591
32.6778 28.3269
32.7244 28.2611
32.7708 28.0535
32.8174 28.0743
32.8638 27.9484
32.9104 28.0019
32.9569 27.9305
33.0035 27.7893
33.0499 27.8167
33.0966 27.7696
33.143 27.7431
33.1897 27.5617
33.2361 27.6484
33.2828 27.5572
33.3293 27.2953
33.3759 27.2784
33.4226 27.2051
33.4691 27.0998
33.5158 26.9316
33.5623 26.7867
33.609 26.6738
33.6555 26.6825
33.7022 26.568
33.7487 26.5075
33.7954 26.4122
33.842 26.3381
33.8887 26.2483
33.9353 26.2195
33.982 26.1071
34.0286 26.0605
34.0753 25.9239
34.1219 25.8102
34.1687 25.7404
34.2152 25.7283
34.262 25.5736
34.3086 25.4816
34.3554 25.4895
34.402 25.2922
34.4488 25.2425
34.4954 25.1863
34.5422 25.1167
34.5889 24.9799
34.6357 24.8704
34.6825 24.8401
34.7292 24.7792
34.776 24.6552
34.8227 24.6695
34.8695 24.5824
34.9162 24.4983
34.9631 24.4119
35.0098 24.4814
35.0566 24.2675
35.1033 24.2417
35.1502 24.1389
35.1969 24.1277
35.2438 24.0781
35.2906 24.0637
35.3375 23.9631
35.3842 23.9281
35.4311 23.9616
35.4779 23.8577
35.5248 23.8052
35.5716 23.6839
35.6185 23.6344
35.6653 23.5041
35.7123 23.4584
35.759 23.4064
35.806 23.2497
35.8528 23.2593
35.8998 23.1666
35.9468 23.0661
35.9936 23.0772
36.0406 22.968
36.0874 22.9196
36.1345 22.8808
36.1813 22.789
36.2283 22.678
36.2752 22.5825
36.3222 22.6281
36.3691 22.591
36.4161 22.434
36.463 22.4657
36.5101 22.3018
36.557 22.2989
36.6041 22.1208
36.651 22.1571
36.6981 22.0673
36.745 21.9389
36.7921 21.8434
36.839 21.8203
36.8861 21.7328
36.9331 21.7268
36.9802 21.6044
37.0272 21.5543
37.0743 21.3939
37.1213 21.3786
37.1684 21.322
37.2154 21.3036
37.2626 21.1654
37.3098 21.198
37.3568 21.114
37.404 21.0295
37.451 20.9454
37.4982 20.8547
37.5452 20.7926
37.5924 20.7779
37.6395 20.7896
37.6867 20.6892
37.7337 20.5822
37.781 20.4914
37.8281 20.3689
37.8753 20.2926
37.9224 20.2317
37.9697 20.222
38.0168 20.1614
38.064 20.0623
38.1111 20.0915
38.1584 19.9725
38.2056 19.874
38.2529 19.8988
38.3 19.7509
38.3473 19.7837
38.3945 19.6255
38.4418 19.623
38.489 19.5371
38.5363 19.496
38.5837 19.3925
38.6309 19.4349
38.6782 19.2691
38.7254 19.2194
38.7728 19.1639
38.82 19.1268
38.8674 19.0804
38.9146 19.0495
38.9621 18.8851
39.0093 18.9125
39.0567 18.8424
39.104 18.757
39.1514 18.7229
39.1987 18.6614
39.2461 18.5874
39.2934 18.5253
39.3409 18.4249
39.3882 18.3372
39.4356 18.3089
39.483 18.2534
39.5304 18.2405
39.5778 18.133
39.6253 18.0554
39.6726 18.0512
39.7201 18.0097
39.7675 17.9841
39.815 17.8707
39.8624 17.8125
39.9099 17.8134
39.9575 17.6149
40.0049 17.6697
40.0525 17.4894
40.0999 17.5301
40.1474 17.5531
40.1949 17.4075
40.2425 17.3654
40.2899 17.3563
40.3375 17.2309
40.385 17.2003
40.4326 17.1618
40.48 17.0836
40.5277 17.0457
40.5752 16.9513
40.6228 16.8649
40.6703 16.8938
40.718 16.7623
40.7655 16.7767
40.8132 16.7046
40.8607 16.6823
40.9084 16.6313
40.9559 16.565
41.0036 16.5554
41.0512 16.4788
41.0989 16.4535
41.1465 16.3504
41.1942 16.3516
41.242 16.2148
41.2896 16.1802
41.3373 16.0824
41.3849 16.1082
41.4327 16.001
41.4803 15.968
41.5281 15.8872
41.5758 15.8932
41.6236 15.7534
41.6712 15.7281
41.7191 15.6989
41.7667 15.673
41.8146 15.6457
41.8622 15.562
41.9101 15.5106
41.9578 15.4339
42.0057 15.3633
42.0534 15.2993
42.1013 15.2982
42.149 15.2837
42.1969 15.1747
42.2446 15.1464
42.2925 15.1017
42.3403 15.0275
42.3882 14.9947
42.436 14.9277
42.4839 14.8937
42.5319 14.8402
42.5797 14.8086
42.6277 14.7215
42.6755 14.6614
42.7235 14.6481
42.7713 14.6066
42.8193 14.5466
42.8671 14.4882
42.9152 14.4493
42.963 14.3576
43.0111 14.3652
43.0589 14.3039
43.107 14.2998
43.1549 14.1661
43.2029 14.1478
43.2508 14.1184
43.2989 14.0427
43.3468 13.9394
43.3949 13.9269
43.4429 13.9444
43.491 13.7993
43.5389 13.7709
43.5871 13.7672
43.635 13.7309
43.6832 13.6538
43.7312 13.6149
43.7793 13.5483
43.8273 13.5215
43.8755 13.4802
43.9237 13.4326
43.9717 13.3925
44.0199 13.3218
44.068 13.3058
44.1162 13.1756
44.1642 13.2297
44.2125 13.1746
44.2606 13.1076
44.3088 13.0786
44.3569 12.9516
44.4052 13.0076
44.4533 12.9041
44.5016 12.8164
44.5497 12.818
44.598 12.7663
44.6461 12.758
44.6945 12.7066
44.7426 12.6498
44.791 12.5457
44.8391 12.5672
44.8875 12.4859
44.9357 12.4572
44.984 12.4076
45.0322 12.381
45.0806 12.3278
45.1288 12.305
45.1773 12.2461
45.2257 12.2028
45.2739 12.2005
45.3224 12.1461
45.3706 12.0809
45.4191 12.0468
45.4673 12.0329
45.5158 11.9542
45.5641 11.9189
45.6126 11.902
45.6609 11.8531
45.7094 11.7798
45.7577 11.7274
45.8063 11.6826
45.8546 11.6449
45.9031 11.5709
45.9515 11.5782
46.0001 11.5149
46.0484 11.467
46.097 11.4341
46.1454 11.4297
46.194 11.3879
46.2424 11.3149
46.291 11.2811
46.3395 11.2797
46.3881 11.1886
46.4365 11.1668
46.4852 11.1543
46.5337 11.1001
46.5823 11.0618
46.631 11.0019
46.6795 10.9683
46.7282 10.9336
46.7767 10.8918
46.8254 10.8666
46.8739 10.7584
46.9226 10.7627
46.9712 10.7082
47.0199 10.6582
47.0685 10.6238
47.1173 10.5946
47.1658 10.5469
47.2146 10.4977
47.2632 10.465
47.312 10.483
47.3606 10.3914
47.4095 10.3601
47.4581 10.3455
47.5069 10.3098
47.5556 10.257
47.6044 10.1898
47.6531 10.2149
47.702 10.1175
47.7507 10.0891
47.7996 10.0669
47.8483 10.0389
47.8972 9.98842
47.9461 9.97359
47.9948 9.93419
48.0438 9.88835
48.0925 9.88912
48.1415 9.84031
48.1902 9.76175
48.2392 9.77091
48.288 9.72622
48.337 9.66877
48.3858 9.65799
48.4348 9.61318
48.4837 9.59175
48.5327 9.56457
48.5815 9.51335
48.6306 9.45677
48.6795 9.4243
48.7285 9.36932
48.7774 9.35646
48.8265 9.37461
48.8754 9.2885
48.9245 9.24219
48.9734 9.24467
49.0226 9.20455
49.0715 9.12281
49.1206 9.11713
49.1696 9.09093
49.2188 9.04363
49.2679 9.00186
49.3169 8.94778
49.3661 8.93709
49.4151 8.87986
49.4643 8.87325
49.5134 8.88566
49.5626 8.79851
49.6117 8.76033
49.6609 8.79288
49.71 8.67843
49.7592 8.64949
49.8083 8.62523
49.8576 8.64356
49.9067 8.53658
49.956 8.57118
50.0052 8.50216
50.0545 8.46152
50.1036 8.45603
50.153 8.39457
50.2022 8.366
50.2515 8.38357
50.3007 8.29906
50.3501 8.25646
50.3993 8.28297
50.4487 8.21199
50.498 8.15101
50.5474 8.14657
50.5966 8.1322
50.6461 8.08583
50.6955 8.0597
50.7448 8.03053
50.7943 8.02536
50.8436 7.97948
50.8931 7.94262
50.9424 7.92121
50.9919 7.90071
51.0413 7.85776
51.0908 7.80855
51.1402 7.79346
51.1897 7.77235
51.2391 7.70746
51.2887 7.67276
51.3381 7.66526
51.3877 7.61301
51.4371 7.56642
51.4867 7.58434
51.5362 7.56194
51.5858 7.50974
51.6353 7.48009
51.6849 7.43073
51.7344 7.409
51.7841 7.39501
51.8336 7.2748
51.8833 7.31214
51.9328 7.27073
51.9826 7.23966
52.0323 7.20366
52.0818 7.21187
52.1316 7.18553
52.1812 7.19799
52.231 7.10977
52.2806 7.08369
52.3304 7.02437
52.38 6.99791
52.4298 7.00903
52.4794 6.94168
52.5293 6.91162
52.5789 6.90461
52.6288 6.88007
52.6785 6.83936
52.7284 6.79986
52.7781 6.78918
52.828 6.83793
52.8777 6.74566
52.9276 6.69596
52.9774 6.65942
53.0273 6.70216
53.0771 6.59203
53.1271 6.60731
53.1769 6.55262
53.2269 6.56055
53.2767 6.50636
53.3267 6.43286
53.3765 6.43081
53.4266 6.41387
53.4766 6.38638
53.5265 6.35195
53.5765 6.36123
53.6264 6.31325
53.6765 6.29921
53.7264 6.24031
53.7765 6.2566
53.8265 6.21519
53.8766 6.16388
53.9266 6.11401
53.9767 6.12979
54.0267 6.06722
54.0769 6.08378
54.1269 6.08558
54.1771 6.00156
54.2271 5.99024
54.2773 5.92361
54.3274 5.91977
54.3776 5.8719
54.4277 5.90101
54.478 5.80572
54.528 5.77211
54.5783 5.74965
54.6285 5.67167
54.6788 5.66858
54.7289 5.65538
54.7792 5.55596
54.8296 5.48052
54.8798 5.48831
54.9301 5.50714
54.9803 5.44269
55.0307 5.44959
55.0809 5.37653
55.1314 5.34106
55.1816 5.27483
55.232 5.18673
55.2823 5.20414
55.3328 5.15959
55.383 5.08285
55.4335 5.05987
55.4838 5.02499
55.5344 5.00795
55.5847 4.9037
55.6352 4.90355
55.6856 4.87011
55.7361 4.80857