File: XRD/Ni3Fe_FD0801.xy
TT I
1.27165 6.98895
1.31627 7.05794
1.36089 6.16673
1.40551 5.68977
1.45013 6.1005
1.49476 6.13904
1.53938 5.58389
1.584 5.23003
1.62863 5.45296
1.67325 4.98769
1.71787 4.93134
1.7625 4.71022
1.80712 5.09951
1.85174 4.63026
1.89636 4.47636
1.94099 4.34597
1.98562 5.00493
2.03025 4.01869
2.07487 4.42547
2.11949 4.80174
2.16411 4.77737
2.20874 10.0501
2.25338 13.07
2.298 5.37912
2.34263 6.07222
2.38725 6.26842
2.43188 6.0841
2.4765 7.13513
2.52115 6.84728
2.56577 7.38569
2.6104 8.35476
2.65503 7.90435
2.69965 8.3242
2.7443 7.90727
2.78893 8.31707
2.83356 8.10509
2.87818 9.15434
2.92281 8.95114
2.96744 9.00937
3.01209 10.3292
3.05672 10.7531
3.10135 11.9787
3.14599 12.7508
3.19062 13.8242
3.23527 14.9253
3.2799 15.7012
3.32454 16.6658
3.36917 17.3678
3.4138 18.8629
3.45844 19.2844
3.50309 20.4132
3.54773 21.2257
3.59237 22.9128
3.637 57.0176
3.68164 41.8485
3.7263 25.318
3.77094 25.8696
3.81558 26.6496
3.86022 26.839
3.90486 28.1828
3.9495 29.1972
3.99416 30.0698
4.0388 31.5846
4.08344 33.142
4.12809 34.2469
4.17273 35.6935
4.21738 39.6636
4.26204 146.04
4.30669 125.869
4.35133 44.8645
4.39598 42.9339
4.44063 49.4013
4.4853 56.3788
4.52995 53.6468
4.5746 54.5567
4.61925 53.0272
4.6639 54.9579
4.70855 57.6791
4.75322 60.6566
4.79788 66.2819
4.84253 67.8841
4.88719 72.686
4.93184 75.4283
4.97652 80.7669
5.02118 86.5883
5.06583 93.8783
5.11049 104.864
5.15515 157.026
5.19981 382.265
5.24449 2809.34
5.28916 12334.1
5.33382 2525.32
5.37848 183.604
5.42315 127.0
5.46783 115.48
5.5125 108.483
5.55716 101.277
5.60183 96.6649
5.6465 94.8278
5.69117 93.5528
5.73586 91.9459
5.78053 94.698
5.8252 94.5791
5.86988 96.6326
5.91455 93.9956
5.95924 103.662
6.00392 232.741
6.0486 960.218
6.09328 4545.75
6.13795 3042.62
6.18263 204.859
6.22733 89.3175
6.27201 79.405
6.3167 87.5708
6.36138 74.4269
6.40606 68.5767
6.45075 68.0038
6.49545 64.219
6.54014 62.825
6.58483 61.9277
6.62952 61.9051
6.67421 76.9175
6.71892 99.9923
6.76361 62.9141
6.8083 58.3964
6.853 58.1753
6.89769 56.1319
6.94239 55.8184
6.98711 54.863
7.03181 55.0355
7.07651 54.3702
7.12121 54.3865
7.16591 55.2593
7.21063 55.0206
7.25533 62.2107
7.30004 115.547
7.34475 72.0259
7.38945 54.6633
7.43416 53.1273
7.47889 53.261
7.5236 53.8061
7.56831 54.4283
7.61303 54.9753
7.65774 55.8331
7.70247 55.7607
7.74719 55.6354
7.79191 56.0346
7.83663 55.9916
7.88135 57.1965
7.92607 58.0603
7.97081 58.9647
8.01553 60.1236
8.06026 61.7241
8.10498 63.5209
8.14971 70.2002
8.19446 70.1769
8.23919 68.7748
8.28392 71.1618
8.32865 73.2947
8.37339 78.0952
8.41812 83.8225
8.46288 104.159
8.50761 174.897
8.55235 383.273
8.59709 1215.21
8.64183 2186.81
8.68658 844.692
8.73134 146.79
8.77609 96.5679
8.82083 91.1709
8.86558 90.6644
8.91033 89.8862
8.9551 88.4451
8.99985 84.3108
9.04461 83.2046
9.08936 82.7786
9.13412 81.4589
9.17888 81.5607
9.22365 81.572
9.26841 81.4338
9.31318 83.3597
9.35794 84.1884
9.4027 84.116
9.44749 83.9047
9.49226 83.7829
9.53703 84.8489
9.5818 87.6459
9.62657 92.3913
9.67134 94.7882
9.71614 92.2581
9.76091 93.4768
9.80569 97.4206
9.85047 99.8252
9.89525 113.437
9.94005 127.25
9.98484 187.382
10.0296 343.785
10.0744 825.563
10.1192 1788.32
10.164 1505.02
10.2088 342.125
10.2536 119.531
10.2984 109.057
10.3432 108.455
10.388 103.617
10.4328 120.689
10.4776 161.478
10.5224 290.823
10.5672 535.173
10.612 485.72
10.6568 186.034
10.7017 93.786
10.7465 85.0881
10.7913 82.0956
10.8361 80.0324
10.8809 77.9318
10.9257 77.0709
10.9706 77.256
11.0154 74.2099
11.0602 71.9629
11.105 70.5637
11.1499 72.3642
11.1947 75.2938
11.2395 70.4033
11.2844 67.9873
11.3292 66.0556
11.374 65.0973
11.4189 64.6841
11.4637 64.0262
11.5086 64.1232
11.5534 65.2275
11.5983 63.9665
11.6431 63.062
11.688 62.0836
11.7328 61.8951
11.7777 61.9398
11.8225 61.8785
11.8674 61.6211
11.9122 61.8318
11.9571 62.1591
12.002 63.5678
12.0468 67.9474
12.0917 77.8615
12.1366 102.076
12.1814 157.537
12.2263 213.621
12.2712 166.267
12.3161 88.1871
12.3609 66.6905
12.4058 63.4475
12.4507 63.46
12.4956 63.7667
12.5405 63.9158
12.5853 64.5966
12.6302 68.394
12.6751 71.4557
12.72 67.7015
12.7649 67.0171
12.8098 67.5743
12.8547 69.0051
12.8996 70.6592
12.9445 72.0473
12.9894 73.6985
13.0343 75.0833
13.0792 79.1031
13.1242 90.7958
13.1691 111.21
13.214 148.141
13.2589 247.802
13.3038 388.327
13.3487 417.193
13.3937 240.383
13.4386 117.128
13.4835 105.408
13.5285 119.599
13.5734 159.237
13.6183 256.598
13.6633 364.219
13.7082 327.066
13.7531 167.573
13.7981 92.3414
13.843 80.3471
13.888 78.3674
13.9329 76.1056
13.9779 74.9892
14.0228 73.2099
14.0678 72.3887
14.1127 71.7686
14.1577 71.0933
14.2027 70.5042
14.2476 69.6978
14.2926 69.4727
14.3376 69.6278
14.3825 68.9182
14.4275 68.2155
14.4725 68.0691
14.5175 68.0676
14.5624 68.1925
14.6074 69.4014
14.6524 69.7243
14.6974 69.7837
14.7424 72.5018
14.7874 79.0256
14.8324 88.4933
14.8774 111.383
14.9224 158.578
14.9674 216.604
15.0124 219.309
15.0574 141.456
15.1024 86.3693
15.1474 71.2803
15.1924 69.3399
15.2374 69.1417
15.2824 68.3859
15.3274 66.9691
15.3725 65.9445
15.4175 65.5088
15.4625 65.4094
15.5076 65.3458
15.5526 65.2649
15.5976 65.3115
15.6426 67.2013
15.6877 72.4667
15.7327 79.02
15.7778 94.689
15.8228 129.219
15.8679 178.391
15.9129 197.394
15.958 145.814
16.003 88.3852
16.0481 65.5108
16.0931 62.4607
16.1382 60.8587
16.1833 59.7268
16.2283 58.2515
16.2734 57.5004
16.3185 57.33
16.3636 57.5129
16.4086 56.3971
16.4537 55.2245
16.4988 54.8244
16.5439 54.6432
16.589 54.4155
16.6341 54.076
16.6792 53.8071
16.7243 54.0785
16.7694 54.0095
16.8145 53.9659
16.8596 54.2135
16.9047 55.1394
16.9498 55.3634
16.9949 54.9763
17.04 55.431
17.0851 56.4151
17.1302 58.0085
17.1754 61.1754
17.2205 66.8661
17.2656 75.2184
17.3108 83.1578
17.3559 81.0118
17.401 68.6527
17.4462 60.5903
17.4913 58.5607
17.5365 58.473
17.5815 58.5552
17.6268 58.9961
17.6718 59.5797
17.7171 60.1938
17.7622 60.6457
17.8074 61.662
17.8525 64.4971
17.8977 67.795
17.9428 73.1337
17.9881 82.3561
18.0331 101.082
18.0784 125.06
18.1237 141.474
18.1688 126.795
18.214 98.9502
18.2591 84.6467
18.3044 90.9313
18.3495 101.882
18.3948 105.297
18.4399 92.2647
18.4852 73.9483
18.5303 64.4541
18.5756 61.1534
18.6207 60.3173
18.666 59.4715
18.7112 59.0355
18.7565 58.3558
18.8016 57.9477
18.8469 57.2337
18.892 57.0962
18.9374 56.5779
18.9825 56.448
19.0278 56.3666
19.073 56.2344
19.1183 56.7824
19.1635 57.229
19.2088 58.7122
19.254 61.5819
19.2993 66.5224
19.3447 72.4851
19.3898 75.829
19.4352 70.2651
19.4804 61.1403
19.5257 55.3293
19.5709 53.4547
19.6163 53.0506
19.6615 52.9558
19.7068 52.6717
19.752 52.6417
19.7974 53.0871
19.8426 53.8488
19.888 54.3636
19.9332 55.4585
19.9786 58.5646
20.0238 62.6913
20.0692 67.5976
20.1144 69.6561
20.1598 66.8812
20.205 62.265
20.2504 61.6352
20.2957 63.7747
20.3411 65.3992
20.3863 62.8639
20.4318 56.6933
20.477 52.5606
20.5224 50.6256
20.5677 50.097
20.6131 49.7004
20.6586 49.0692
20.7038 48.9394
20.7493 48.5102
20.7945 48.1565
20.84 48.2829
20.8853 48.4539
20.9307 48.0524
20.976 48.2189
21.0215 48.0257
21.0668 48.4446
21.1122 49.0502
21.1575 49.8549
21.203 50.4473
21.2483 50.9623
21.2938 50.7161
21.3391 49.3032
21.3846 48.2147
21.4299 47.72
21.4754 47.8323
21.5207 48.1224
21.5662 48.2559
21.6116 48.8327
21.6571 49.3655
21.7024 50.3151
21.7479 52.3819
21.7933 55.2112
21.8388 59.1912
21.8843 62.8424
21.9297 64.2462
21.9752 61.9815
22.0206 58.2306
22.0661 55.8487
22.1115 55.8189
22.157 55.6239
22.2024 53.1784
22.248 50.6119
22.2933 49.2693
22.3389 48.3926
22.3843 48.2299
22.4299 48.1494
22.4753 48.1488
22.5208 48.0522
22.5662 47.9567
22.6118 48.0589
22.6572 48.4123
22.7028 48.7112
22.7483 49.076
22.7939 49.9442
22.8393 51.4524
22.8849 53.7506
22.9303 56.1001
22.9759 57.463
23.0214 56.5485
23.067 53.4298
23.1126 50.2282
23.1581 48.5205
23.2037 48.1513
23.2492 48.4291
23.2948 48.2783
23.3403 48.6067
23.3859 49.3129
23.4314 50.5074
23.477 52.5676
23.5225 54.8489
23.5682 56.8621
23.6137 57.329
23.6593 54.447
23.7048 50.2849
23.7505 47.3791
23.796 45.9447
23.8417 45.5035
23.8872 44.9773
23.9329 44.72
23.9784 44.3728
24.0241 44.162
24.0697 43.8861
24.1154 43.7059
24.1609 43.438
24.2066 43.2538
24.2522 43.3728
24.2979 42.9048
24.3434 42.8032
24.3892 42.6011
24.4349 42.5653
24.4805 42.4261
24.5262 42.6289
24.5718 42.4317
24.6175 42.5049
24.6631 42.2195
24.7089 42.0425
24.7545 41.8247
24.8002 41.8098
24.8458 41.826
24.8916 41.4892
24.9372 41.718
24.983 42.0478
25.0286 42.5163
25.0744 42.9307
25.12 43.2405
25.1658 43.908
25.2114 44.2308
25.2572 44.2641
25.3029 44.4406
25.3487 44.5459
25.3943 44.1842
25.4402 42.8619
25.4858 41.6834
25.5316 40.9526
25.5773 40.4519
25.6231 40.4632
25.669 40.097
25.7147 40.1347
25.7605 39.9805
25.8062 40.0859
25.8521 40.1519
25.8977 39.9804
25.9436 40.4159
25.9893 40.6084
26.0352 41.0947
26.0809 41.1243
26.1268 41.2713
26.1725 40.8296
26.2184 40.3155
26.2641 39.7452
26.31 39.647
26.3557 39.7166
26.4017 39.6679
26.4474 39.984
26.4933 40.3981
26.5391 40.9457
26.585 41.2947
26.6308 41.7817
26.6767 41.7687
26.7225 41.4504
26.7684 40.9786
26.8142 40.3605
26.8601 39.9319
26.9059 39.5832
26.9519 38.9911
26.9979 38.6527
27.0437 38.5019
27.0896 38.2532
27.1354 38.2559
27.1814 38.2668
27.2272 38.1628
27.2732 38.1273
27.3191 37.8219
27.3651 38.1318
27.4109 38.0576
27.4569 38.0739
27.5027 38.1897
27.5488 38.2565
27.5946 37.9778
27.6407 37.7652
27.6865 37.6707
27.7326 37.446
27.7784 37.4693
27.8245 37.3907
27.8703 37.6252
27.9164 37.9797
27.9623 38.0577
28.0084 38.5166
28.0543 38.7437
28.1003 38.6517
28.1462 38.5142
28.1923 38.079
28.2384 37.5987
28.2843 37.1006
28.3304 36.6691
28.3764 36.2572
28.4225 36.0071
28.4684 35.829
28.5145 35.5935
28.5605 35.3869
28.6066 35.3149
28.6526 35.1693
28.6987 35.1929
28.7447 35.0473
28.7908 35.0491
28.8368 35.077
28.8829 35.0994
28.9289 34.8645
28.9751 34.7105
29.0211 34.5121
29.0673 34.1898
29.1133 34.2004
29.1595 34.0762
29.2055 33.935
29.2517 34.0181
29.2977 33.8567
29.3439 33.9946
29.3899 33.936
29.4361 33.8656
29.4824 33.5111
29.5284 33.276
29.5746 32.9422
29.6207 32.7068
29.6669 32.6781
29.713 32.5846
29.7593 32.506
29.8053 32.5476
29.8516 32.4598
29.8977 32.3422
29.9439 32.2243
29.99 32.2104
30.0363 32.0495
30.0824 32.2016
30.1287 32.0698
30.1748 32.1273
30.2211 32.0267
30.2673 31.9327
30.3136 32.0107
30.3597 31.92
30.406 31.7695
30.4522 31.7309
30.4985 31.6832
30.5447 31.7388
30.591 31.8281
30.6372 31.8497
30.6835 31.8395
30.7297 31.7744
30.7761 31.826
30.8224 31.5577
30.8686 31.4563
30.915 31.1625
30.9612 31.098
31.0076 30.9815
31.0538 30.9163
31.1002 30.7662
31.1464 30.5975
31.1928 30.6421
31.2391 30.6224
31.2855 30.6064
31.3317 30.5313
31.3781 30.6422
31.4244 30.5784
31.4708 30.5996
31.5171 30.4873
31.5636 30.3222
31.6098 30.0777
31.6563 29.94
31.7026 29.8922
31.7491 29.8096
31.7953 29.8594
31.8418 29.8051
31.8881 29.8438
31.9346 29.8733
31.9809 29.7527
32.0275 29.4802
32.074 29.3322
32.1203 29.3529
32.1668 29.1838
32.2132 29.0326
32.2597 28.9882
32.306 28.8408
32.3526 28.6523
32.399 28.6148
32.4455 28.5523
32.4919 28.2832
32.5385 28.3099
32.5848 28.1289
32.6314 28.2659
32.6778 28.0772
32.7244 27.9873
32.7708 27.817
32.8174 27.8364
32.8638 27.7761
32.9104 27.742
32.9569 27.6704
33.0035 27.5237
33.0499 27.5465
33.0966 27.5044
33.143 27.5017
33.1897 27.4321
33.2361 27.3572
33.2828 27.3073
33.3293 27.0984
33.3759 27.1074
33.4226 27.0124
33.4691 26.729
33.5158 26.6403
33.5623 26.5199
33.609 26.4748
33.6555 26.3763
33.7022 26.3006
33.7487 26.2236
33.7954 26.1454
33.842 26.1324
33.8887 25.9828
33.9353 25.9757
33.982 25.8406
34.0286 25.77
34.0753 25.6426
34.1219 25.6185
34.1687 25.5327
34.2152 25.529
34.262 25.4695
34.3086 25.3084
34.3554 25.2529
34.402 25.1231
34.4488 24.998
34.4954 24.9033
34.5422 24.8806
34.5889 24.813
34.6357 24.6883
34.6825 24.6138
34.7292 24.6177
34.776 24.4961
34.8227 24.447
34.8695 24.3672
34.9162 24.3331
34.9631 24.238
35.0098 24.2627
35.0566 24.1214
35.1033 23.975
35.1502 23.9694
35.1969 24.0102
35.2438 23.8799
35.2906 23.7976
35.3375 23.8306
35.3842 23.6973
35.4311 23.7104
35.4779 23.7123
35.5248 23.5967
35.5716 23.6201
35.6185 23.4931
35.6653 23.2815
35.7123 23.2545
35.759 23.1885
35.806 23.1142
35.8528 22.9794
35.8998 22.9523
35.9468 22.8102
35.9936 22.8837
36.0406 22.7776
36.0874 22.7333
36.1345 22.6989
36.1813 22.6115
36.2283 22.5002
36.2752 22.3782
36.3222 22.4063
36.3691 22.3466
36.4161 22.2156
36.463 22.2365
36.5101 22.1909
36.557 22.0755
36.6041 21.9317
36.651 21.8956
36.6981 21.8623
36.745 21.8349
36.7921 21.7339
36.839 21.6212
36.8861 21.5366
36.9331 21.5419
36.9802 21.4382
37.0272 21.4033
37.0743 21.3196
37.1213 21.3019
37.1684 21.1979
37.2154 21.1498
37.2626 21.0344
37.3098 21.0274
37.3568 20.8715
37.404 20.8566
37.451 20.7148
37.4982 20.7396
37.5452 20.5738
37.5924 20.5779
37.6395 20.5393
37.6867 20.5115
37.7337 20.3715
37.781 20.3644
37.8281 20.2627
37.8753 20.147
37.9224 20.0654
37.9697 19.9863
38.0168 20.0276
38.064 19.9402
38.1111 19.833
38.1584 19.7849
38.2056 19.7622
38.2529 19.737
38.3 19.5605
38.3473 19.5716
38.3945 19.455
38.4418 19.4344
38.489 19.3884
38.5363 19.3324
38.5837 19.1691
38.6309 19.186
38.6782 19.1458
38.7254 19.0664
38.7728 18.9874
38.82 18.8822
38.8674 18.8554
38.9146 18.8363
38.9621 18.6941
39.0093 18.758
39.0567 18.6104
39.104 18.5194
39.1514 18.4689
39.1987 18.5
39.2461 18.388
39.2934 18.3398
39.3409 18.1977
39.3882 18.1367
39.4356 18.1973
39.483 18.1529
39.5304 18.0603
39.5778 18.0147
39.6253 17.999
39.6726 17.8665
39.7201 17.8478
39.7675 17.757
39.815 17.7127
39.8624 17.6134
39.9099 17.6069
39.9575 17.4919
40.0049 17.4821
40.0525 17.4292
40.0999 17.3302
40.1474 17.3872
40.1949 17.2622
40.2425 17.175
40.2899 17.1799
40.3375 17.0821
40.385 17.0028
40.4326 16.9822
40.48 16.9309
40.5277 16.9718
40.5752 16.8039
40.6228 16.713
40.6703 16.6806
40.718 16.6804
40.7655 16.6312
40.8132 16.476
40.8607 16.5677
40.9084 16.5346
40.9559 16.4317
41.0036 16.3585
41.0512 16.3507
41.0989 16.244
41.1465 16.2262
41.1942 16.1489
41.242 16.0944
41.2896 16.0465
41.3373 15.9555
41.3849 15.9399
41.4327 15.8423
41.4803 15.7891
41.5281 15.7866
41.5758 15.7185
41.6236 15.6429
41.6712 15.5795
41.7191 15.5901
41.7667 15.4973
41.8146 15.4651
41.8622 15.3813
41.9101 15.3882
41.9578 15.2193
42.0057 15.2102
42.0534 15.2139
42.1013 15.1584
42.149 15.0714
42.1969 15.0888
42.2446 15.0294
42.2925 14.9291
42.3403 14.8617
42.3882 14.9067
42.436 14.8008
42.4839 14.7207
42.5319 14.72
42.5797 14.6638
42.6277 14.5443
42.6755 14.565
42.7235 14.4689
42.7713 14.5195
42.8193 14.3548
42.8671 14.3836
42.9152 14.3221
42.963 14.292
43.0111 14.1977
43.0589 14.1168
43.107 14.117
43.1549 14.0202
43.2029 14.0468
43.2508 13.9889
43.2989 13.9116
43.3468 13.8337
43.3949 13.8612
43.4429 13.8269
43.491 13.74
43.5389 13.6751
43.5871 13.6444
43.635 13.5775
43.6832 13.5745
43.7312 13.4508
43.7793 13.4481
43.8273 13.4147
43.8755 13.3572
43.9237 13.3472
43.9717 13.2524
44.0199 13.2216
44.068 13.2154
44.1162 13.0996
44.1642 13.0614
44.2125 13.0032
44.2606 12.994
44.3088 12.9725
44.3569 12.9083
44.4052 12.8893
44.4533 12.7536
44.5016 12.7689
44.5497 12.7222
44.598 12.7117
44.6461 12.6354
44.6945 12.564
44.7426 12.5508
44.791 12.4725
44.8391 12.4529
44.8875 12.4083
44.9357 12.3549
44.984 12.2752
45.0322 12.2854
45.0806 12.2439
45.1288 12.1766
45.1773 12.1609
45.2257 12.106
45.2739 12.0461
45.3224 12.0316
45.3706 11.9734
45.4191 11.956
45.4673 11.9407
45.5158 11.8604
45.5641 11.8094
45.6126 11.8097
45.6609 11.7454
45.7094 11.6763
45.7577 11.6256
45.8063 11.5741
45.8546 11.5717
45.9031 11.5011
45.9515 11.4524
46.0001 11.4344
46.0484 11.3785
46.097 11.3401
46.1454 11.3425
46.194 11.285
46.2424 11.2214
46.291 11.1529
46.3395 11.173
46.3881 11.0627
46.4365 11.104
46.4852 11.018
46.5337 10.9967
46.5823 11.0183
46.631 10.891
46.6795 10.8798
46.7282 10.8342
46.7767 10.7881
46.8254 10.7403
46.8739 10.6985
46.9226 10.6731
46.9712 10.5792
47.0199 10.5721
47.0685 10.5559
47.1173 10.5407
47.1658 10.4748
47.2146 10.4636
47.2632 10.3777
47.312 10.3563
47.3606 10.3116
47.4095 10.2913
47.4581 10.2781
47.5069 10.2214
47.5556 10.1671
47.6044 10.149
47.6531 10.0828
47.702 10.0219
47.7507 10.0213
47.7996 9.92803
47.8483 9.91014
47.8972 9.89354
47.9461 9.87567
47.9948 9.78804
48.0438 9.80723
48.0925 9.75391
48.1415 9.71703
48.1902 9.66199
48.2392 9.67019
48.288 9.62677
48.337 9.59601
48.3858 9.55248
48.4348 9.49248
48.4837 9.51683
48.5327 9.44489
48.5815 9.43837
48.6306 9.37784
48.6795 9.3617
48.7285 9.29953
48.7774 9.276
48.8265 9.27006
48.8754 9.20238
48.9245 9.18739
48.9734 9.15297
49.0226 9.10654
49.0715 9.08164
49.1206 9.03901
49.1696 9.00326
49.2188 8.99549
49.2679 8.94129
49.3169 8.90536
49.3661 8.85291
49.4151 8.83767
49.4643 8.77646
49.5134 8.77923
49.5626 8.71217
49.6117 8.70196
49.6609 8.66506
49.71 8.58682
49.7592 8.61106
49.8083 8.55079
49.8576 8.56476
49.9067 8.48285
49.956 8.43547
50.0052 8.40098
50.0545 8.39709
50.1036 8.37659
50.153 8.3562
50.2022 8.28149
50.2515 8.27625
50.3007 8.21272
50.3501 8.18227
50.3993 8.18099
50.4487 8.12633
50.498 8.08587
50.5474 8.06431
50.5966 8.06017
50.6461 8.02571
50.6955 7.98447
50.7448 7.98796
50.7943 7.97632
50.8436 7.9477
50.8931 7.87473
50.9424 7.82124
50.9919 7.79965
51.0413 7.76878
51.0908 7.772
51.1402 7.73484
51.1897 7.68976
51.2391 7.69407
51.2887 7.61628
51.3381 7.5705
51.3877 7.56355
51.4371 7.5223
51.4867 7.49179
51.5362 7.48164
51.5858 7.44513
51.6353 7.40208
51.6849 7.34295
51.7344 7.33805
51.7841 7.33557
51.8336 7.26971
51.8833 7.24507
51.9328 7.22223
51.9826 7.14042
52.0323 7.18224
52.0818 7.13848
52.1316 7.09481
52.1812 7.09119
52.231 7.03609
52.2806 7.01826
52.3304 7.00874
52.38 6.97266
52.4298 6.92116
52.4794 6.87293
52.5293 6.8997
52.5789 6.81951
52.6288 6.83832
52.6785 6.78218
52.7284 6.74264
52.7781 6.73035
52.828 6.71759
52.8777 6.65876
52.9276 6.66485
52.9774 6.60263
53.0273 6.61201
53.0771 6.57043
53.1271 6.54589
53.1769 6.52635
53.2269 6.53047
53.2767 6.44716
53.3267 6.45552
53.3765 6.41417
53.4266 6.38481
53.4766 6.3416
53.5265 6.31159
53.5765 6.2872
53.6264 6.27967
53.6765 6.24686
53.7264 6.19382
53.7765 6.18207
53.8265 6.18387
53.8766 6.09491
53.9266 6.11561
53.9767 6.08906
54.0267 6.0348
54.0769 6.05915
54.1269 6.02306
54.1771 5.97015
54.2271 5.91975
54.2773 5.88362
54.3274 5.85477
54.3776 5.77293
54.4277 5.83387
54.478 5.78707
54.528 5.74127
54.5783 5.65363
54.6285 5.65439
54.6788 5.57905
54.7289 5.56104
54.7792 5.52985
54.8296 5.44797
54.8798 5.44413
54.9301 5.36701
54.9803 5.43132
55.0307 5.39019
55.0809 5.3113
55.1314 5.26911
55.1816 5.22884
55.232 5.20074
55.2823 5.1423
55.3328 5.10804
55.383 5.0579
55.4335 4.98249
55.4838 4.95013
55.5344 4.95522
55.5847 4.85069
55.6352 4.87058
55.6856 4.81072
55.7361 4.7681