File: XRD/Ni3Fe_FD1066.xy
TT I
1.27165 7.21651
1.31627 6.70406
1.36089 6.54144
1.40551 5.76156
1.45013 5.5233
1.49476 6.02742
1.53938 5.92419
1.584 4.5896
1.62863 5.15846
1.67325 5.01249
1.71787 4.04253
1.7625 4.60769
1.80712 4.62878
1.85174 4.18501
1.89636 3.95534
1.94099 4.81005
1.98562 4.09667
2.03025 4.3285
2.07487 3.37769
2.11949 4.2428
2.16411 4.38672
2.20874 4.93972
2.25338 6.31613
2.298 5.33216
2.34263 4.50845
2.38725 5.73726
2.43188 5.47714
2.4765 7.2353
2.52115 6.63543
2.56577 7.43256
2.6104 7.91879
2.65503 8.43406
2.69965 8.63012
2.7443 8.38961
2.78893 8.4248
2.83356 8.28119
2.87818 9.12909
2.92281 8.48141
2.96744 9.50209
3.01209 10.0435
3.05672 11.1223
3.10135 11.7232
3.14599 12.3411
3.19062 13.4241
3.23527 14.473
3.2799 15.3579
3.32454 16.16
3.36917 17.136
3.4138 17.8927
3.45844 18.4485
3.50309 19.5018
3.54773 20.6083
3.59237 21.2262
3.637 27.2991
3.68164 26.9366
3.7263 23.9379
3.77094 24.5188
3.81558 24.9157
3.86022 26.4945
3.90486 27.2142
3.9495 28.1507
3.99416 28.7869
4.0388 30.3276
4.08344 31.6331
4.12809 32.6201
4.17273 33.5443
4.21738 35.615
4.26204 51.9348
4.30669 56.3316
4.35133 40.5172
4.39598 40.8947
4.44063 43.2228
4.4853 46.2353
4.52995 46.8887
4.5746 48.5326
4.61925 50.7161
4.6639 52.9696
4.70855 55.4186
4.75322 57.7959
4.79788 60.5687
4.84253 64.327
4.88719 68.3603
4.93184 71.6105
4.97652 76.8755
5.02118 83.1052
5.06583 89.9768
5.11049 97.488
5.15515 118.512
5.19981 229.996
5.24449 2493.21
5.28916 13644.9
5.33382 3352.75
5.37848 209.05
5.42315 124.055
5.46783 108.57
5.5125 101.257
5.55716 97.7003
5.60183 93.2713
5.6465 91.3239
5.69117 89.6446
5.73586 88.2277
5.78053 87.2993
5.8252 86.263
5.86988 87.3896
5.91455 88.8764
5.95924 95.0738
6.00392 163.345
6.0486 885.75
6.09328 4558.41
6.13795 3653.0
6.18263 241.061
6.22733 87.8594
6.27201 76.199
6.3167 73.0369
6.36138 68.7323
6.40606 64.9129
6.45075 63.4741
6.49545 61.89
6.54014 60.2969
6.58483 58.8713
6.62952 57.9428
6.67421 58.9923
6.71892 64.53
6.76361 56.7065
6.8083 54.7762
6.853 53.9653
6.89769 53.1439
6.94239 53.3604
6.98711 52.5293
7.03181 52.2553
7.07651 52.4414
7.12121 52.1723
7.16591 51.7081
7.21063 51.2955
7.25533 51.7223
7.30004 61.8226
7.34475 55.8194
7.38945 51.642
7.43416 51.1789
7.47889 51.564
7.5236 58.4037
7.56831 72.3682
7.61303 56.3777
7.65774 53.4239
7.70247 53.0414
7.74719 53.3894
7.79191 53.6857
7.83663 53.9594
7.88135 54.8568
7.92607 55.5765
7.97081 57.0019
8.01553 57.6782
8.06026 58.9054
8.10498 60.0668
8.14971 62.1764
8.19446 64.2469
8.23919 65.5865
8.28392 68.2805
8.32865 70.2937
8.37339 73.8977
8.41812 77.8133
8.46288 86.1649
8.50761 128.086
8.55235 375.781
8.59709 1104.2
8.64183 2292.37
8.68658 1112.64
8.73134 171.772
8.77609 95.0465
8.82083 88.5299
8.86558 85.7798
8.91033 84.0628
8.9551 82.1763
8.99985 80.7669
9.04461 80.512
9.08936 79.5168
9.13412 79.3175
9.17888 79.1519
9.22365 90.4032
9.26841 112.492
9.31318 88.8602
9.35794 80.2023
9.4027 80.0381
9.44749 80.4914
9.49226 80.7521
9.53703 82.0132
9.5818 83.4139
9.62657 84.3967
9.67134 86.8568
9.71614 88.0137
9.76091 89.6436
9.80569 91.7954
9.85047 94.1947
9.89525 99.3373
9.94005 106.457
9.98484 147.007
10.0296 349.124
10.0744 775.52
10.1192 1783.59
10.164 1718.54
10.2088 450.009
10.2536 125.463
10.2984 103.233
10.3432 100.843
10.388 98.0546
10.4328 107.425
10.4776 162.168
10.5224 272.828
10.5672 512.288
10.612 564.19
10.6568 230.621
10.7017 103.397
10.7465 86.0378
10.7913 79.7663
10.8361 77.6876
10.8809 75.626
10.9257 73.701
10.9706 72.5612
11.0154 70.6185
11.0602 69.331
11.105 68.4556
11.1499 67.4434
11.1947 67.3122
11.2395 65.7841
11.2844 64.7615
11.3292 63.6996
11.374 63.1385
11.4189 62.5861
11.4637 61.7461
11.5086 61.3819
11.5534 61.2902
11.5983 61.044
11.6431 60.8026
11.688 59.9233
11.7328 60.1088
11.7777 59.918
11.8225 59.5713
11.8674 59.8025
11.9122 61.7839
11.9571 67.7511
12.002 66.4934
12.0468 64.5754
12.0917 76.9401
12.1366 98.7435
12.1814 146.722
12.2263 204.824
12.2712 177.269
12.3161 97.3321
12.3609 64.6191
12.4058 61.1961
12.4507 61.2584
12.4956 61.3307
12.5405 61.6207
12.5853 62.1908
12.6302 62.5801
12.6751 64.0043
12.72 64.1488
12.7649 64.43
12.8098 65.4373
12.8547 66.5443
12.8996 67.8835
12.9445 69.4167
12.9894 71.1343
13.0343 72.7941
13.0792 76.5958
13.1242 82.3562
13.1691 108.016
13.214 148.629
13.2589 230.496
13.3038 369.807
13.3487 453.708
13.3937 281.925
13.4386 127.475
13.4835 99.0381
13.5285 120.504
13.5734 157.054
13.6183 237.089
13.6633 356.787
13.7082 364.337
13.7531 206.525
13.7981 100.588
13.843 79.7595
13.888 76.965
13.9329 74.6325
13.9779 73.6614
14.0228 71.7946
14.0678 70.8593
14.1127 71.7384
14.1577 75.1668
14.2027 73.4928
14.2476 68.8642
14.2926 67.5392
14.3376 67.5722
14.3825 66.9208
14.4275 66.3213
14.4725 66.6279
14.5175 66.4049
14.5624 66.2546
14.6074 66.8908
14.6524 67.3118
14.6974 67.5758
14.7424 68.5572
14.7874 74.6093
14.8324 88.7636
14.8774 110.42
14.9224 149.054
14.9674 209.17
15.0124 230.047
15.0574 160.158
15.1024 94.3088
15.1474 71.0999
15.1924 68.0377
15.2374 66.3553
15.2824 65.8576
15.3274 64.869
15.3725 64.5071
15.4175 64.3145
15.4625 63.5495
15.5076 63.5799
15.5526 63.4744
15.5976 63.4668
15.6426 63.9995
15.6877 68.6098
15.7327 79.8442
15.7778 94.983
15.8228 123.056
15.8679 169.397
15.9129 203.018
15.958 169.872
16.003 105.168
16.0481 69.6426
16.0931 62.7609
16.1382 59.731
16.1833 58.4343
16.2283 57.0221
16.2734 56.3794
16.3185 55.5016
16.3636 55.2354
16.4086 54.525
16.4537 53.9538
16.4988 53.4852
16.5439 53.4303
16.589 53.2343
16.6341 52.9128
16.6792 52.6342
16.7243 52.8288
16.7694 52.7222
16.8145 52.5753
16.8596 52.7972
16.9047 53.7313
16.9498 54.2338
16.9949 53.709
17.04 53.839
17.0851 54.6608
17.1302 57.09
17.1754 60.0989
17.2205 64.8422
17.2656 72.5676
17.3108 82.0708
17.3559 82.9972
17.401 72.3417
17.4462 61.5842
17.4913 57.579
17.5365 57.2616
17.5815 57.444
17.6268 57.7121
17.6718 58.2649
17.7171 58.7533
17.7622 60.1483
17.8074 60.8947
17.8525 61.7576
17.8977 66.3956
17.9428 73.4869
17.9881 82.3107
18.0331 97.886
18.0784 121.097
18.1237 142.85
18.1688 138.299
18.214 109.39
18.2591 88.5025
18.3044 88.9745
18.3495 99.6095
18.3948 107.799
18.4399 99.1876
18.4852 79.2565
18.5303 65.7825
18.5756 61.3475
18.6207 60.2231
18.666 58.9289
18.7112 58.0792
18.7565 57.6304
18.8016 56.9443
18.8469 56.5416
18.892 56.1611
18.9374 55.6232
18.9825 55.1465
19.0278 55.2414
19.073 55.2848
19.1183 55.1119
19.1635 56.3025
19.2088 58.1283
19.254 60.754
19.2993 65.7
19.3447 72.1237
19.3898 76.3533
19.4352 72.4218
19.4804 63.4319
19.5257 56.1972
19.5709 53.0885
19.6163 52.4114
19.6615 52.3451
19.7068 51.8459
19.752 51.9685
19.7974 51.9956
19.8426 52.8137
19.888 53.8296
19.9332 55.2233
19.9786 57.6293
20.0238 61.0945
20.0692 66.6701
20.1144 70.5343
20.1598 69.3334
20.205 64.0389
20.2504 61.8352
20.2957 63.5961
20.3411 65.4745
20.3863 64.276
20.4318 58.4867
20.477 52.9661
20.5224 50.072
20.5677 49.2761
20.6131 48.8304
20.6586 48.3515
20.7038 48.4407
20.7493 48.1416
20.7945 48.1038
20.84 47.9111
20.8853 47.7617
20.9307 47.3622
20.976 47.5026
21.0215 47.3437
21.0668 47.946
21.1122 48.4688
21.1575 48.808
21.203 49.6126
21.2483 50.4018
21.2938 50.8531
21.3391 49.1881
21.3846 47.9774
21.4299 47.31
21.4754 47.3158
21.5207 47.5376
21.5662 47.7219
21.6116 47.9766
21.6571 48.9511
21.7024 50.0809
21.7479 51.8814
21.7933 54.1868
21.8388 58.049
21.8843 62.9036
21.9297 65.4266
21.9752 64.0098
22.0206 60.0444
22.0661 56.4782
22.1115 55.9846
22.157 56.1998
22.2024 54.4372
22.248 51.1507
22.2933 49.1324
22.3389 48.1487
22.3843 47.8932
22.4299 47.5157
22.4753 47.5484
22.5208 47.5761
22.5662 47.4014
22.6118 47.6831
22.6572 47.7534
22.7028 48.3319
22.7483 48.946
22.7939 49.9672
22.8393 51.377
22.8849 53.4794
22.9303 55.9824
22.9759 57.7964
23.0214 57.5285
23.067 54.9329
23.1126 51.1099
23.1581 48.621
23.2037 47.9395
23.2492 47.8606
23.2948 47.9922
23.3403 48.5856
23.3859 49.4725
23.4314 50.6523
23.477 52.2012
23.5225 54.699
23.5682 57.3438
23.6137 58.746
23.6593 56.5795
23.7048 52.0222
23.7505 48.4594
23.796 46.0663
23.8417 45.2796
23.8872 44.7159
23.9329 44.3359
23.9784 44.1617
24.0241 43.7665
24.0697 43.6471
24.1154 43.1964
24.1609 43.0125
24.2066 42.7998
24.2522 42.6967
24.2979 42.4898
24.3434 42.2869
24.3892 42.0996
24.4349 42.0868
24.4805 42.0969
24.5262 42.2222
24.5718 42.189
24.6175 42.3411
24.6631 41.9991
24.7089 41.6703
24.7545 41.581
24.8002 41.3558
24.8458 41.3402
24.8916 41.2469
24.9372 41.4761
24.983 41.7245
25.0286 41.9737
25.0744 42.7237
25.12 43.3445
25.1658 43.9079
25.2114 44.4257
25.2572 44.5404
25.3029 44.6439
25.3487 44.7312
25.3943 44.3244
25.4402 43.2949
25.4858 42.0731
25.5316 41.115
25.5773 40.2646
25.6231 40.2358
25.669 39.7367
25.7147 39.7168
25.7605 39.7103
25.8062 39.8308
25.8521 39.9475
25.8977 39.9005
25.9436 40.0734
25.9893 40.4377
26.0352 40.9029
26.0809 41.1858
26.1268 41.3714
26.1725 41.1492
26.2184 40.5427
26.2641 39.6921
26.31 39.4789
26.3557 39.5098
26.4017 39.4988
26.4474 39.8946
26.4933 40.1903
26.5391 40.675
26.585 41.3676
26.6308 41.8624
26.6767 42.0256
26.7225 41.974
26.7684 41.4214
26.8142 40.6116
26.8601 40.1137
26.9059 39.7884
26.9519 39.2044
26.9979 38.6596
27.0437 38.3354
27.0896 38.2436
27.1354 38.2379
27.1814 38.1118
27.2272 37.965
27.2732 38.0172
27.3191 37.7032
27.3651 37.925
27.4109 37.9002
27.4569 37.9787
27.5027 38.2179
27.5488 38.2838
27.5946 37.8369
27.6407 37.7802
27.6865 37.5271
27.7326 37.347
27.7784 37.3902
27.8245 37.2727
27.8703 37.4197
27.9164 37.8537
27.9623 38.159
28.0084 38.4703
28.0543 38.9595
28.1003 38.8393
28.1462 38.611
28.1923 38.5364
28.2384 37.7738
28.2843 37.3623
28.3304 36.9301
28.3764 36.343
28.4225 36.0572
28.4684 35.843
28.5145 35.4736
28.5605 35.2201
28.6066 35.1713
28.6526 35.0264
28.6987 35.0354
28.7447 35.0594
28.7908 34.9527
28.8368 34.8935
28.8829 34.9563
28.9289 34.9353
28.9751 34.7015
29.0211 34.3942
29.0673 34.2028
29.1133 34.1025
29.1595 33.9051
29.2055 33.8069
29.2517 33.8732
29.2977 33.803
29.3439 33.7303
29.3899 33.8292
29.4361 33.6863
29.4824 33.6196
29.5284 33.1994
29.5746 33.0125
29.6207 32.5814
29.6669 32.5308
29.713 32.4936
29.7593 32.2941
29.8053 32.2473
29.8516 32.3141
29.8977 32.2445
29.9439 32.1479
29.99 32.04
30.0363 31.9223
30.0824 31.9937
30.1287 31.942
30.1748 31.9497
30.2211 31.9756
30.2673 31.7591
30.3136 31.9154
30.3597 31.8561
30.406 31.7971
30.4522 31.6881
30.4985 31.5856
30.5447 31.6708
30.591 31.7403
30.6372 31.8263
30.6835 31.9259
30.7297 31.9332
30.7761 31.9015
30.8224 31.6762
30.8686 31.5758
30.915 31.212
30.9612 31.1668
31.0076 30.9723
31.0538 30.789
31.1002 30.766
31.1464 30.5745
31.1928 30.6111
31.2391 30.5742
31.2855 30.4264
31.3317 30.4601
31.3781 30.5205
31.4244 30.5596
31.4708 30.5174
31.5171 30.4439
31.5636 30.5104
31.6098 30.249
31.6563 30.0515
31.7026 29.961
31.7491 29.7531
31.7953 29.9652
31.8418 29.8502
31.8881 29.8063
31.9346 29.7932
31.9809 29.7127
32.0275 29.6144
32.074 29.5709
32.1203 29.3882
32.1668 29.2499
32.2132 29.1438
32.2597 28.9594
32.306 28.7575
32.3526 28.5849
32.399 28.5653
32.4455 28.4108
32.4919 28.4035
32.5385 28.3009
32.5848 28.1091
32.6314 28.0773
32.6778 28.0464
32.7244 27.9107
32.7708 27.7341
32.8174 27.7652
32.8638 27.5807
32.9104 27.7335
32.9569 27.6438
33.0035 27.568
33.0499 27.5079
33.0966 27.4345
33.143 27.4805
33.1897 27.3483
33.2361 27.2536
33.2828 27.3155
33.3293 27.1679
33.3759 27.0769
33.4226 26.8807
33.4691 26.7632
33.5158 26.7735
33.5623 26.657
33.609 26.4357
33.6555 26.2991
33.7022 26.3252
33.7487 26.1586
33.7954 26.1001
33.842 26.0908
33.8887 26.0499
33.9353 25.945
33.982 25.739
34.0286 25.8165
34.0753 25.608
34.1219 25.5264
34.1687 25.4438
34.2152 25.4243
34.262 25.299
34.3086 25.2239
34.3554 25.2347
34.402 25.0628
34.4488 24.9465
34.4954 24.8367
34.5422 24.8356
34.5889 24.7433
34.6357 24.6495
34.6825 24.5392
34.7292 24.4569
34.776 24.4333
34.8227 24.3669
34.8695 24.2006
34.9162 24.2127
34.9631 24.1324
35.0098 24.1277
35.0566 23.9975
35.1033 23.9624
35.1502 23.9397
35.1969 23.8108
35.2438 23.8093
35.2906 23.8181
35.3375 23.7726
35.3842 23.7458
35.4311 23.6924
35.4779 23.6898
35.5248 23.5757
35.5716 23.5337
35.6185 23.4192
35.6653 23.2474
35.7123 23.2415
35.759 23.1273
35.806 23.1041
35.8528 22.991
35.8998 22.9449
35.9468 22.7809
35.9936 22.7834
36.0406 22.7068
36.0874 22.7444
36.1345 22.6143
36.1813 22.504
36.2283 22.4445
36.2752 22.2872
36.3222 22.4459
36.3691 22.3022
36.4161 22.1421
36.463 22.1856
36.5101 22.1797
36.557 22.0775
36.6041 21.9239
36.651 21.9165
36.6981 21.9098
36.745 21.8011
36.7921 21.7262
36.839 21.6092
36.8861 21.565
36.9331 21.4498
36.9802 21.398
37.0272 21.2438
37.0743 21.2382
37.1213 21.254
37.1684 21.0896
37.2154 21.0437
37.2626 20.9809
37.3098 20.9656
37.3568 20.8572
37.404 20.8066
37.451 20.7347
37.4982 20.6305
37.5452 20.5743
37.5924 20.5335
37.6395 20.5558
37.6867 20.4473
37.7337 20.3244
37.781 20.2657
37.8281 20.248
37.8753 20.1668
37.9224 20.0868
37.9697 20.0048
38.0168 19.9194
38.064 19.894
38.1111 19.8466
38.1584 19.7767
38.2056 19.7015
38.2529 19.6666
38.3 19.5911
38.3473 19.5424
38.3945 19.4458
38.4418 19.4921
38.489 19.4152
38.5363 19.2715
38.5837 19.218
38.6309 19.171
38.6782 19.0696
38.7254 19.0337
38.7728 18.9566
38.82 18.8783
38.8674 18.7881
38.9146 18.8201
38.9621 18.7273
39.0093 18.671
39.0567 18.5976
39.104 18.5569
39.1514 18.4824
39.1987 18.3803
39.2461 18.3627
39.2934 18.3335
39.3409 18.1645
39.3882 18.1764
39.4356 18.1032
39.483 18.038
39.5304 18.0279
39.5778 17.9891
39.6253 17.9169
39.6726 17.859
39.7201 17.854
39.7675 17.7877
39.815 17.6703
39.8624 17.5831
39.9099 17.6353
39.9575 17.5104
40.0049 17.5039
40.0525 17.3474
40.0999 17.3545
40.1474 17.2808
40.1949 17.2254
40.2425 17.2143
40.2899 17.1061
40.3375 17.1393
40.385 17.0638
40.4326 16.984
40.48 16.8735
40.5277 16.912
40.5752 16.8502
40.6228 16.7096
40.6703 16.7025
40.718 16.6704
40.7655 16.6359
40.8132 16.5658
40.8607 16.4959
40.9084 16.487
40.9559 16.3448
41.0036 16.3481
41.0512 16.3664
41.0989 16.3076
41.1465 16.1937
41.1942 16.1661
41.242 16.0659
41.2896 15.9156
41.3373 15.9316
41.3849 15.9302
41.4327 15.795
41.4803 15.7682
41.5281 15.7794
41.5758 15.6788
41.6236 15.6061
41.6712 15.5891
41.7191 15.545
41.7667 15.4673
41.8146 15.4917
41.8622 15.3911
41.9101 15.3357
41.9578 15.2652
42.0057 15.2156
42.0534 15.1514
42.1013 15.1312
42.149 15.0027
42.1969 15.011
42.2446 15.0013
42.2925 14.9207
42.3403 14.8969
42.3882 14.8078
42.436 14.8299
42.4839 14.7216
42.5319 14.7157
42.5797 14.6012
42.6277 14.5603
42.6755 14.5264
42.7235 14.4778
42.7713 14.4146
42.8193 14.3719
42.8671 14.381
42.9152 14.2039
42.963 14.2579
43.0111 14.167
43.0589 14.1479
43.107 14.105
43.1549 13.9803
43.2029 13.9274
43.2508 13.9367
43.2989 13.906
43.3468 13.8261
43.3949 13.7832
43.4429 13.7113
43.491 13.7301
43.5389 13.646
43.5871 13.6067
43.635 13.5387
43.6832 13.5447
43.7312 13.4713
43.7793 13.3772
43.8273 13.3968
43.8755 13.3591
43.9237 13.2883
43.9717 13.2331
44.0199 13.2423
44.068 13.2136
44.1162 13.1123
44.1642 13.1038
44.2125 13.0486
44.2606 12.9984
44.3088 12.9248
44.3569 12.8477
44.4052 12.8394
44.4533 12.7786
44.5016 12.7141
44.5497 12.7001
44.598 12.7064
44.6461 12.635
44.6945 12.5521
44.7426 12.5273
44.791 12.5215
44.8391 12.4217
44.8875 12.4009
44.9357 12.3837
44.984 12.2626
45.0322 12.273
45.0806 12.1969
45.1288 12.1795
45.1773 12.1489
45.2257 12.0913
45.2739 12.027
45.3224 12.0272
45.3706 11.9516
45.4191 11.9085
45.4673 11.8581
45.5158 11.847
45.5641 11.7512
45.6126 11.7553
45.6609 11.705
45.7094 11.6457
45.7577 11.6266
45.8063 11.5306
45.8546 11.5802
45.9031 11.4926
45.9515 11.4517
46.0001 11.3829
46.0484 11.3525
46.097 11.3142
46.1454 11.2937
46.194 11.2696
46.2424 11.2264
46.291 11.1705
46.3395 11.1172
46.3881 11.0739
46.4365 11.0746
46.4852 10.9846
46.5337 10.9247
46.5823 10.9663
46.631 10.8593
46.6795 10.8774
46.7282 10.8472
46.7767 10.7906
46.8254 10.7428
46.8739 10.6895
46.9226 10.6575
46.9712 10.6014
47.0199 10.5767
47.0685 10.518
47.1173 10.4779
47.1658 10.4732
47.2146 10.457
47.2632 10.3531
47.312 10.3781
47.3606 10.3035
47.4095 10.2266
47.4581 10.2344
47.5069 10.2139
47.5556 10.1374
47.6044 10.0611
47.6531 10.0838
47.702 10.0281
47.7507 10.0206
47.7996 9.91203
47.8483 9.95231
47.8972 9.8927
47.9461 9.83824
47.9948 9.78428
48.0438 9.77755
48.0925 9.75706
48.1415 9.70041
48.1902 9.67338
48.2392 9.61483
48.288 9.62155
48.337 9.60263
48.3858 9.51891
48.4348 9.48631
48.4837 9.52724
48.5327 9.45357
48.5815 9.40559
48.6306 9.34682
48.6795 9.35646
48.7285 9.2901
48.7774 9.27525
48.8265 9.21725
48.8754 9.19613
48.9245 9.14261
48.9734 9.1101
49.0226 9.11591
49.0715 9.05227
49.1206 9.0474
49.1696 8.95804
49.2188 9.01697
49.2679 8.93208
49.3169 8.87914
49.3661 8.85706
49.4151 8.83243
49.4643 8.7913
49.5134 8.73033
49.5626 8.70254
49.6117 8.68128
49.6609 8.64924
49.71 8.60587
49.7592 8.58404
49.8083 8.5269
49.8576 8.53769
49.9067 8.45399
49.956 8.46915
50.0052 8.42214
50.0545 8.40276
50.1036 8.36815
50.153 8.31079
50.2022 8.3072
50.2515 8.26843
50.3007 8.18454
50.3501 8.19853
50.3993 8.13873
50.4487 8.10643
50.498 8.11621
50.5474 8.04721
50.5966 8.02896
50.6461 8.00568
50.6955 7.97372
50.7448 7.93903
50.7943 7.9221
50.8436 7.9101
50.8931 7.84816
50.9424 7.85045
50.9919 7.79452
51.0413 7.79773
51.0908 7.73436
51.1402 7.69249
51.1897 7.64931
51.2391 7.6084
51.2887 7.60711
51.3381 7.56375
51.3877 7.54743
51.4371 7.53403
51.4867 7.4598
51.5362 7.4558
51.5858 7.42205
51.6353 7.37517
51.6849 7.34626
51.7344 7.35476
51.7841 7.28526
51.8336 7.25732
51.8833 7.24626
51.9328 7.19339
51.9826 7.19976
52.0323 7.11851
52.0818 7.14049
52.1316 7.11355
52.1812 7.06693
52.231 7.01826
52.2806 6.98945
52.3304 6.99353
52.38 6.92484
52.4298 6.89678
52.4794 6.84812
52.5293 6.8674
52.5789 6.84433
52.6288 6.80353
52.6785 6.76013
52.7284 6.72921
52.7781 6.71531
52.828 6.67253
52.8777 6.65808
52.9276 6.62162
52.9774 6.64588
53.0273 6.56998
53.0771 6.5634
53.1271 6.55384
53.1769 6.5009
53.2269 6.48457
53.2767 6.46583
53.3267 6.40166
53.3765 6.40357
53.4266 6.37592
53.4766 6.32449
53.5265 6.30023
53.5765 6.24042
53.6264 6.23378
53.6765 6.24712
53.7264 6.24588
53.7765 6.2081
53.8265 6.18312
53.8766 6.10092
53.9266 6.12657
53.9767 5.96997
54.0267 6.06911
54.0769 6.00015
54.1269 5.96792
54.1771 5.95381
54.2271 5.93809
54.2773 5.8502
54.3274 5.87353
54.3776 5.79362
54.4277 5.76828
54.478 5.76338
54.528 5.71367
54.5783 5.71632
54.6285 5.68079
54.6788 5.59982
54.7289 5.57271
54.7792 5.5435
54.8296 5.51772
54.8798 5.43293
54.9301 5.40929
54.9803 5.39384
55.0307 5.36893
55.0809 5.30508
55.1314 5.30038
55.1816 5.24766
55.232 5.1622
55.2823 5.1301
55.3328 5.12576
55.383 5.03051
55.4335 5.01423
55.4838 4.96765
55.5344 4.94732
55.5847 4.92164
55.6352 4.84991
55.6856 4.79149
55.7361 4.78057