File: XRD/Ni3Fe_FD0294.xy
TT I
1.27165 7.84821
1.31627 6.9835
1.36089 6.83499
1.40551 4.9095
1.45013 6.89688
1.49476 6.23552
1.53938 5.69536
1.584 5.66734
1.62863 5.6725
1.67325 5.26923
1.71787 5.07881
1.7625 5.70106
1.80712 5.13057
1.85174 5.11493
1.89636 4.86475
1.94099 5.05444
1.98562 4.48397
2.03025 4.77315
2.07487 4.76937
2.11949 5.3791
2.16411 4.83175
2.20874 17.407
2.25338 29.7373
2.298 6.34854
2.34263 4.8482
2.38725 4.5985
2.43188 5.56628
2.4765 5.16646
2.52115 5.70853
2.56577 6.35226
2.6104 6.36234
2.65503 6.81248
2.69965 6.78865
2.7443 7.32355
2.78893 7.18186
2.83356 7.61279
2.87818 8.07488
2.92281 8.44367
2.96744 10.0351
3.01209 11.6226
3.05672 11.6218
3.10135 12.1661
3.14599 12.7793
3.19062 14.6736
3.23527 15.5134
3.2799 16.0066
3.32454 17.2733
3.36917 18.2825
3.4138 19.365
3.45844 20.2028
3.50309 21.3488
3.54773 22.5587
3.59237 25.319
3.637 117.551
3.68164 73.2889
3.7263 27.3622
3.77094 27.0107
3.81558 27.3907
3.86022 28.6167
3.90486 29.7897
3.9495 30.8523
3.99416 32.123
4.0388 32.9776
4.08344 34.7867
4.12809 36.0405
4.17273 38.5278
4.21738 45.9059
4.26204 320.169
4.30669 285.11
4.35133 52.2514
4.39598 46.6303
4.44063 58.4086
4.4853 74.2116
4.52995 53.6574
4.5746 53.3997
4.61925 54.9694
4.6639 56.9159
4.70855 59.67
4.75322 62.6837
4.79788 66.1078
4.84253 69.5015
4.88719 74.6386
4.93184 77.974
4.97652 83.9478
5.02118 91.0602
5.06583 100.134
5.11049 115.053
5.15515 213.034
5.19981 503.834
5.24449 3102.48
5.28916 11009.7
5.33382 4219.23
5.37848 257.143
5.42315 146.147
5.46783 124.149
5.5125 113.202
5.55716 107.633
5.60183 103.549
5.6465 101.554
5.69117 98.303
5.73586 97.1398
5.78053 97.0712
5.8252 96.8306
5.86988 98.1918
5.91455 100.768
5.95924 112.54
6.00392 259.459
6.0486 1069.51
6.09328 3768.32
6.13795 3820.15
6.18263 365.834
6.22733 107.355
6.27201 90.2068
6.3167 117.037
6.36138 88.0374
6.40606 73.1429
6.45075 70.5673
6.49545 68.5723
6.54014 66.9078
6.58483 65.738
6.62952 66.1136
6.67421 106.564
6.71892 178.299
6.76361 74.7591
6.8083 61.3698
6.853 60.1422
6.89769 59.1648
6.94239 58.8996
6.98711 58.4499
7.03181 57.7452
7.07651 57.5651
7.12121 57.5139
7.16591 58.1284
7.21063 58.496
7.25533 77.4597
7.30004 227.334
7.34475 107.7
7.38945 59.5337
7.43416 57.1529
7.47889 56.8435
7.5236 56.9103
7.56831 57.7053
7.61303 60.1003
7.65774 60.4443
7.70247 58.3535
7.74719 58.3906
7.79191 58.6299
7.83663 58.7302
7.88135 59.898
7.92607 61.0343
7.97081 61.9149
8.01553 63.0746
8.06026 65.164
8.10498 66.114
8.14971 79.0759
8.19446 76.7752
8.23919 72.2872
8.28392 74.7494
8.32865 77.0249
8.37339 81.4639
8.41812 90.1384
8.46288 129.024
8.50761 191.73
8.55235 441.099
8.59709 1014.25
8.64183 2049.0
8.68658 1256.13
8.73134 223.888
8.77609 108.662
8.82083 97.9737
8.86558 93.6506
8.91033 95.0089
8.9551 97.081
8.99985 89.0699
9.04461 86.7331
9.08936 86.1027
9.13412 84.8281
9.17888 84.9668
9.22365 85.9188
9.26841 85.1322
9.31318 86.1015
9.35794 85.6069
9.4027 86.0611
9.44749 87.161
9.49226 87.5846
9.53703 88.6212
9.5818 90.6906
9.62657 96.4784
9.67134 105.526
9.71614 97.928
9.76091 97.5701
9.80569 100.214
9.85047 103.894
9.89525 136.259
9.94005 152.414
9.98484 200.043
10.0296 386.386
10.0744 717.799
10.1192 1494.85
10.164 1798.76
10.2088 592.356
10.2536 152.167
10.2984 122.531
10.3432 124.703
10.388 110.786
10.4328 127.365
10.4776 172.829
10.5224 256.111
10.5672 450.073
10.612 550.362
10.6568 256.847
10.7017 107.153
10.7465 90.9604
10.7913 87.0057
10.8361 84.4443
10.8809 82.2153
10.9257 82.2904
10.9706 83.4968
11.0154 78.6073
11.0602 75.7026
11.105 74.7237
11.1499 81.0584
11.1947 91.8499
11.2395 79.6536
11.2844 74.1634
11.3292 70.2474
11.374 68.9315
11.4189 68.1398
11.4637 67.4944
11.5086 68.3241
11.5534 72.6776
11.5983 68.9409
11.6431 66.3391
11.688 65.5035
11.7328 65.4464
11.7777 65.3295
11.8225 64.9539
11.8674 64.7613
11.9122 65.1721
11.9571 65.3392
12.002 66.1449
12.0468 71.1437
12.0917 84.7019
12.1366 102.776
12.1814 138.692
12.2263 196.336
12.2712 191.607
12.3161 114.867
12.3609 76.7636
12.4058 67.9464
12.4507 66.9285
12.4956 67.0809
12.5405 67.2823
12.5853 68.3501
12.6302 78.7238
12.6751 86.1136
12.72 74.1217
12.7649 70.6025
12.8098 70.9576
12.8547 72.3287
12.8996 73.9046
12.9445 74.7374
12.9894 76.5865
13.0343 78.2843
13.0792 81.9602
13.1242 92.9657
13.1691 121.794
13.214 154.568
13.2589 213.762
13.3038 326.07
13.3487 437.912
13.3937 323.38
13.4386 148.029
13.4835 114.71
13.5285 130.431
13.5734 157.166
13.6183 216.073
13.6633 314.661
13.7082 371.017
13.7531 237.199
13.7981 113.13
13.843 86.1528
13.888 83.1797
13.9329 80.271
13.9779 79.0738
14.0228 77.5541
14.0678 75.9931
14.1127 74.9887
14.1577 75.6328
14.2027 74.2966
14.2476 73.0919
14.2926 73.4266
14.3376 75.1508
14.3825 73.1536
14.4275 71.508
14.4725 71.0952
14.5175 71.5124
14.5624 71.5746
14.6074 74.4172
14.6524 74.93
14.6974 73.3707
14.7424 74.8334
14.7874 83.1188
14.8324 94.3576
14.8774 110.182
14.9224 138.658
14.9674 189.601
15.0124 227.531
15.0574 174.091
15.1024 104.619
15.1474 76.543
15.1924 74.0719
15.2374 75.0431
15.2824 74.1136
15.3274 71.3005
15.3725 69.4874
15.4175 68.9163
15.4625 68.4403
15.5076 69.126
15.5526 69.0123
15.5976 68.3787
15.6426 69.4837
15.6877 76.0581
15.7327 84.8777
15.7778 95.9146
15.8228 116.627
15.8679 153.864
15.9129 193.202
15.958 176.433
16.003 115.373
16.0481 74.5162
16.0931 68.6152
16.1382 66.2991
16.1833 63.3326
16.2283 61.4199
16.2734 60.7425
16.3185 61.3411
16.3636 62.7744
16.4086 60.9396
16.4537 58.6729
16.4988 57.8191
16.5439 57.7663
16.589 57.4276
16.6341 57.2342
16.6792 56.8651
16.7243 57.0631
16.7694 57.2112
16.8145 56.961
16.8596 57.3877
16.9047 59.6293
16.9498 59.8951
16.9949 58.0461
17.04 57.9654
17.0851 59.3844
17.1302 61.4365
17.1754 63.8932
17.2205 67.1153
17.2656 72.7594
17.3108 81.7042
17.3559 86.1061
17.401 77.2472
17.4462 66.1568
17.4913 61.7737
17.5365 61.5421
17.5815 61.1945
17.6268 61.5914
17.6718 62.8259
17.7171 63.2459
17.7622 63.4492
17.8074 64.1055
17.8525 66.755
17.8977 71.924
17.9428 77.4629
17.9881 83.2972
18.0331 94.76
18.0784 113.59
18.1237 137.745
18.1688 142.908
18.214 116.979
18.2591 92.4401
18.3044 88.8816
18.3495 97.1564
18.3948 108.291
18.4399 104.21
18.4852 85.0255
18.5303 70.1564
18.5756 64.9142
18.6207 63.7103
18.666 62.7837
18.7112 62.0301
18.7565 61.2561
18.8016 60.9752
18.8469 60.5069
18.892 60.2044
18.9374 59.2679
18.9825 59.3328
19.0278 59.3407
19.073 59.5258
19.1183 59.8295
19.1635 61.0642
19.2088 61.8663
19.254 63.3379
19.2993 66.1468
19.3447 71.8845
19.3898 78.2848
19.4352 77.5588
19.4804 68.5234
19.5257 60.3204
19.5709 56.5491
19.6163 56.0747
19.6615 55.8371
19.7068 55.3701
19.752 55.2855
19.7974 55.6275
19.8426 56.7778
19.888 57.3544
19.9332 58.211
19.9786 59.887
20.0238 62.2703
20.0692 67.1699
20.1144 71.5575
20.1598 72.1613
20.205 67.2806
20.2504 63.6572
20.2957 63.9493
20.3411 66.7924
20.3863 67.4821
20.4318 62.5535
20.477 57.0536
20.5224 54.1888
20.5677 53.2185
20.6131 52.2986
20.6586 51.8034
20.7038 51.576
20.7493 50.8929
20.7945 50.7701
20.84 50.7622
20.8853 50.5894
20.9307 50.4439
20.976 50.6496
21.0215 50.476
21.0668 51.002
21.1122 51.203
21.1575 51.6639
21.203 52.236
21.2483 53.1209
21.2938 53.5081
21.3391 52.5624
21.3846 51.1916
21.4299 50.4592
21.4754 50.2582
21.5207 50.3586
21.5662 50.6948
21.6116 51.1052
21.6571 51.9061
21.7024 52.7975
21.7479 54.224
21.7933 56.0647
21.8388 58.9647
21.8843 62.7131
21.9297 66.5716
21.9752 67.0837
22.0206 63.3358
22.0661 58.8389
22.1115 57.4203
22.157 57.8141
22.2024 56.9952
22.248 54.1742
22.2933 52.3179
22.3389 51.1209
22.3843 51.036
22.4299 50.9815
22.4753 50.7966
22.5208 50.5182
22.5662 50.3563
22.6118 50.505
22.6572 50.7546
22.7028 51.1288
22.7483 51.5134
22.7939 52.0101
22.8393 53.1842
22.8849 54.7122
22.9303 56.8156
22.9759 59.1912
23.0214 60.0715
23.067 58.0824
23.1126 54.2961
23.1581 51.548
23.2037 50.5836
23.2492 50.8677
23.2948 50.7873
23.3403 51.2769
23.3859 51.4315
23.4314 52.0099
23.477 53.2484
23.5225 55.0969
23.5682 57.4491
23.6137 59.7516
23.6593 58.8826
23.7048 55.1971
23.7505 50.9768
23.796 48.8491
23.8417 47.9046
23.8872 47.4124
23.9329 47.0789
23.9784 46.6744
24.0241 46.3199
24.0697 46.0624
24.1154 45.772
24.1609 45.715
24.2066 45.5436
24.2522 45.356
24.2979 45.1316
24.3434 45.0082
24.3892 44.968
24.4349 44.7712
24.4805 44.491
24.5262 44.5791
24.5718 44.4669
24.6175 44.6109
24.6631 44.4354
24.7089 44.2348
24.7545 44.1404
24.8002 43.9972
24.8458 43.907
24.8916 43.6543
24.9372 43.8464
24.983 44.0452
25.0286 44.274
25.0744 44.7542
25.12 45.0607
25.1658 45.6668
25.2114 46.0469
25.2572 46.1578
25.3029 45.9891
25.3487 46.4437
25.3943 46.3939
25.4402 45.74
25.4858 44.5097
25.5316 43.3189
25.5773 42.6319
25.6231 42.3569
25.669 42.1425
25.7147 42.154
25.7605 41.943
25.8062 42.1556
25.8521 42.2677
25.8977 42.1441
25.9436 42.267
25.9893 42.2974
26.0352 42.6234
26.0809 42.8023
26.1268 43.1764
26.1725 43.1029
26.2184 42.4819
26.2641 42.0223
26.31 41.7519
26.3557 41.6372
26.4017 41.712
26.4474 41.8212
26.4933 42.1681
26.5391 42.5622
26.585 42.7792
26.6308 43.279
26.6767 43.4968
26.7225 43.5777
26.7684 43.1375
26.8142 42.5832
26.8601 42.013
26.9059 41.6555
26.9519 41.0184
26.9979 40.7801
27.0437 40.3606
27.0896 40.1755
27.1354 40.1405
27.1814 40.0061
27.2272 39.882
27.2732 39.9598
27.3191 39.7572
27.3651 39.9133
27.4109 39.6796
27.4569 39.8525
27.5027 39.8209
27.5488 39.9786
27.5946 39.8937
27.6407 39.8199
27.6865 39.6722
27.7326 39.3802
27.7784 39.2544
27.8245 39.076
27.8703 39.3651
27.9164 39.532
27.9623 39.5245
28.0084 39.9392
28.0543 40.1927
28.1003 40.3394
28.1462 40.2038
28.1923 39.8905
28.2384 39.4704
28.2843 39.1499
28.3304 38.7826
28.3764 38.3146
28.4225 37.9455
28.4684 37.6366
28.5145 37.3616
28.5605 37.2547
28.6066 37.0481
28.6526 36.9283
28.6987 36.9428
28.7447 36.8955
28.7908 36.6531
28.8368 36.7004
28.8829 36.692
28.9289 36.7395
28.9751 36.3805
29.0211 36.3792
29.0673 36.0035
29.1133 35.8743
29.1595 35.6068
29.2055 35.5804
29.2517 35.6449
29.2977 35.5396
29.3439 35.5332
29.3899 35.487
29.4361 35.518
29.4824 35.3182
29.5284 35.2074
29.5746 34.6538
29.6207 34.5341
29.6669 34.4189
29.713 34.2868
29.7593 34.115
29.8053 34.117
29.8516 34.1034
29.8977 34.0557
29.9439 33.8614
29.99 33.7576
30.0363 33.6643
30.0824 33.6689
30.1287 33.5469
30.1748 33.5812
30.2211 33.6343
30.2673 33.4989
30.3136 33.6012
30.3597 33.6127
30.406 33.4775
30.4522 33.23
30.4985 33.1707
30.5447 33.3768
30.591 33.2448
30.6372 33.2206
30.6835 33.2787
30.7297 33.3252
30.7761 33.2819
30.8224 33.1941
30.8686 33.1537
30.915 32.8416
30.9612 32.7499
31.0076 32.5136
31.0538 32.347
31.1002 32.3703
31.1464 32.1024
31.1928 32.095
31.2391 32.0389
31.2855 31.9822
31.3317 32.0172
31.3781 32.0211
31.4244 32.0278
31.4708 31.9483
31.5171 32.0088
31.5636 31.8868
31.6098 31.6977
31.6563 31.4996
31.7026 31.3783
31.7491 31.2333
31.7953 31.2784
31.8418 31.2089
31.8881 31.2563
31.9346 31.2313
31.9809 31.1295
32.0275 31.0261
32.074 31.0085
32.1203 30.772
32.1668 30.6141
32.2132 30.499
32.2597 30.3961
32.306 30.2455
32.3526 30.0444
32.399 30.0504
32.4455 29.9007
32.4919 29.8228
32.5385 29.7403
32.5848 29.5566
32.6314 29.5338
32.6778 29.4795
32.7244 29.2706
32.7708 29.3318
32.8174 29.2233
32.8638 29.1277
32.9104 29.072
32.9569 29.1001
33.0035 28.8902
33.0499 28.8636
33.0966 28.8225
33.143 28.8476
33.1897 28.7095
33.2361 28.6187
33.2828 28.6417
33.3293 28.4118
33.3759 28.4855
33.4226 28.2975
33.4691 28.1832
33.5158 28.0903
33.5623 27.9751
33.609 27.6976
33.6555 27.7649
33.7022 27.6039
33.7487 27.4742
33.7954 27.5339
33.842 27.38
33.8887 27.3034
33.9353 27.2732
33.982 27.109
34.0286 27.0944
34.0753 26.9739
34.1219 26.902
34.1687 26.8469
34.2152 26.7492
34.262 26.5878
34.3086 26.5076
34.3554 26.523
34.402 26.2986
34.4488 26.2272
34.4954 26.2239
34.5422 26.0536
34.5889 26.0306
34.6357 25.9521
34.6825 25.8833
34.7292 25.8929
34.776 25.6911
34.8227 25.5726
34.8695 25.6007
34.9162 25.4929
34.9631 25.3804
35.0098 25.3919
35.0566 25.2837
35.1033 25.2133
35.1502 25.2012
35.1969 25.1125
35.2438 25.1178
35.2906 25.0105
35.3375 24.7958
35.3842 24.8865
35.4311 24.9143
35.4779 24.7442
35.5248 24.7296
35.5716 24.6275
35.6185 24.6389
35.6653 24.5023
35.7123 24.3745
35.759 24.3805
35.806 24.2145
35.8528 24.1774
35.8998 24.075
35.9468 23.9804
35.9936 23.9369
36.0406 23.92
36.0874 23.8372
36.1345 23.7143
36.1813 23.7519
36.2283 23.6036
36.2752 23.5223
36.3222 23.5361
36.3691 23.4184
36.4161 23.282
36.463 23.2598
36.5101 23.3431
36.557 23.2226
36.6041 23.0048
36.651 23.028
36.6981 22.9445
36.745 22.9163
36.7921 22.7845
36.839 22.6606
36.8861 22.6396
36.9331 22.503
36.9802 22.4227
37.0272 22.4614
37.0743 22.3546
37.1213 22.2519
37.1684 22.2692
37.2154 22.1212
37.2626 22.0729
37.3098 21.9811
37.3568 21.8924
37.404 21.8945
37.451 21.7567
37.4982 21.7406
37.5452 21.6511
37.5924 21.6184
37.6395 21.5379
37.6867 21.5186
37.7337 21.4364
37.781 21.3097
37.8281 21.2126
37.8753 21.2153
37.9224 21.139
37.9697 20.9784
38.0168 20.9758
38.064 20.9008
38.1111 20.898
38.1584 20.8079
38.2056 20.7277
38.2529 20.6596
38.3 20.5976
38.3473 20.5927
38.3945 20.4303
38.4418 20.4538
38.489 20.3467
38.5363 20.265
38.5837 20.1573
38.6309 20.1635
38.6782 20.1013
38.7254 20.0493
38.7728 19.9243
38.82 19.8712
38.8674 19.8186
38.9146 19.8194
38.9621 19.7026
39.0093 19.6728
39.0567 19.6268
39.104 19.5118
39.1514 19.3886
39.1987 19.348
39.2461 19.3879
39.2934 19.34
39.3409 19.1414
39.3882 19.0821
39.4356 19.0864
39.483 19.0626
39.5304 18.9444
39.5778 18.9441
39.6253 18.7757
39.6726 18.7633
39.7201 18.7567
39.7675 18.6826
39.815 18.62
39.8624 18.553
39.9099 18.4957
39.9575 18.3966
40.0049 18.3943
40.0525 18.3467
40.0999 18.1936
40.1474 18.2055
40.1949 18.0715
40.2425 18.0357
40.2899 18.1385
40.3375 17.985
40.385 17.924
40.4326 17.8274
40.48 17.7614
40.5277 17.731
40.5752 17.7045
40.6228 17.604
40.6703 17.5923
40.718 17.4944
40.7655 17.4848
40.8132 17.4275
40.8607 17.4347
40.9084 17.3723
40.9559 17.2089
41.0036 17.2438
41.0512 17.1491
41.0989 17.1533
41.1465 17.036
41.1942 17.0041
41.242 16.8926
41.2896 16.8466
41.3373 16.7951
41.3849 16.7671
41.4327 16.6719
41.4803 16.5516
41.5281 16.5877
41.5758 16.5103
41.6236 16.3886
41.6712 16.358
41.7191 16.3084
41.7667 16.2664
41.8146 16.25
41.8622 16.1892
41.9101 16.1108
41.9578 16.0147
42.0057 16.0492
42.0534 15.9668
42.1013 15.9489
42.149 15.8591
42.1969 15.7653
42.2446 15.7605
42.2925 15.7207
42.3403 15.6588
42.3882 15.6525
42.436 15.56
42.4839 15.4735
42.5319 15.45
42.5797 15.4216
42.6277 15.3392
42.6755 15.2998
42.7235 15.2597
42.7713 15.1572
42.8193 15.1565
42.8671 15.0252
42.9152 15.0549
42.963 14.9901
43.0111 14.9533
43.0589 14.928
43.107 14.8236
43.1549 14.7881
43.2029 14.6626
43.2508 14.687
43.2989 14.621
43.3468 14.5319
43.3949 14.5068
43.4429 14.4203
43.491 14.4463
43.5389 14.4058
43.5871 14.3473
43.635 14.2696
43.6832 14.2636
43.7312 14.1427
43.7793 14.102
43.8273 14.1301
43.8755 14.0211
43.9237 13.9867
43.9717 13.9144
44.0199 13.8752
44.068 13.8399
44.1162 13.8052
44.1642 13.7336
44.2125 13.6892
44.2606 13.6382
44.3088 13.5624
44.3569 13.5457
44.4052 13.4899
44.4533 13.4319
44.5016 13.3109
44.5497 13.3479
44.598 13.346
44.6461 13.2706
44.6945 13.2528
44.7426 13.1879
44.791 13.0675
44.8391 13.1082
44.8875 13.0349
44.9357 13.0012
44.984 12.9057
45.0322 12.8998
45.0806 12.8275
45.1288 12.8054
45.1773 12.7702
45.2257 12.6996
45.2739 12.7007
45.3224 12.6301
45.3706 12.5421
45.4191 12.5145
45.4673 12.498
45.5158 12.4451
45.5641 12.395
45.6126 12.3765
45.6609 12.2767
45.7094 12.2518
45.7577 12.2508
45.8063 12.2279
45.8546 12.147
45.9031 12.1228
45.9515 12.0656
46.0001 12.004
46.0484 11.9887
46.097 11.9354
46.1454 11.8607
46.194 11.8436
46.2424 11.8063
46.291 11.7493
46.3395 11.7115
46.3881 11.6572
46.4365 11.6244
46.4852 11.6395
46.5337 11.5143
46.5823 11.5555
46.631 11.4651
46.6795 11.3947
46.7282 11.3683
46.7767 11.3567
46.8254 11.2657
46.8739 11.223
46.9226 11.2367
46.9712 11.1639
47.0199 11.0843
47.0685 11.0773
47.1173 11.0333
47.1658 10.9914
47.2146 10.9701
47.2632 10.8921
47.312 10.8614
47.3606 10.8657
47.4095 10.79
47.4581 10.7618
47.5069 10.7284
47.5556 10.6668
47.6044 10.6014
47.6531 10.5717
47.702 10.5655
47.7507 10.5323
47.7996 10.4756
47.8483 10.4455
47.8972 10.4188
47.9461 10.378
47.9948 10.2751
48.0438 10.2924
48.0925 10.2487
48.1415 10.2248
48.1902 10.1922
48.2392 10.1609
48.288 10.1522
48.337 10.0722
48.3858 10.0702
48.4348 9.99128
48.4837 10.015
48.5327 9.9652
48.5815 9.87072
48.6306 9.88868
48.6795 9.82038
48.7285 9.7638
48.7774 9.7045
48.8265 9.74281
48.8754 9.65347
48.9245 9.61773
48.9734 9.59336
49.0226 9.58554
49.0715 9.53882
49.1206 9.46925
49.1696 9.42972
49.2188 9.42866
49.2679 9.38604
49.3169 9.31448
49.3661 9.32007
49.4151 9.27913
49.4643 9.23566
49.5134 9.22923
49.5626 9.1624
49.6117 9.12661
49.6609 9.12733
49.71 9.09671
49.7592 9.0199
49.8083 8.97403
49.8576 8.97378
49.9067 8.93175
49.956 8.90833
50.0052 8.86819
50.0545 8.84466
50.1036 8.80503
50.153 8.74541
50.2022 8.71168
50.2515 8.6826
50.3007 8.669
50.3501 8.64076
50.3993 8.56202
50.4487 8.54486
50.498 8.53163
50.5474 8.50244
50.5966 8.47728
50.6461 8.45639
50.6955 8.41073
50.7448 8.37762
50.7943 8.33989
50.8436 8.29414
50.8931 8.29026
50.9424 8.22898
50.9919 8.22314
51.0413 8.19799
51.0908 8.11833
51.1402 8.12474
51.1897 8.06901
51.2391 8.05333
51.2887 7.96695
51.3381 7.99282
51.3877 7.94823
51.4371 7.88898
51.4867 7.83942
51.5362 7.86056
51.5858 7.81399
51.6353 7.77971
51.6849 7.74353
51.7344 7.71655
51.7841 7.68114
51.8336 7.64244
51.8833 7.60996
51.9328 7.53953
51.9826 7.56731
52.0323 7.51207
52.0818 7.46814
52.1316 7.41886
52.1812 7.46348
52.231 7.40712
52.2806 7.34832
52.3304 7.31313
52.38 7.28758
52.4298 7.25841
52.4794 7.21216
52.5293 7.18693
52.5789 7.17443
52.6288 7.13847
52.6785 7.12648
52.7284 7.09948
52.7781 7.04843
52.828 7.03611
52.8777 6.96605
52.9276 6.97546
52.9774 6.94551
53.0273 6.92666
53.0771 6.8724
53.1271 6.86674
53.1769 6.80752
53.2269 6.79882
53.2767 6.77736
53.3267 6.75207
53.3765 6.71459
53.4266 6.71563
53.4766 6.67963
53.5265 6.59302
53.5765 6.59396
53.6264 6.55299
53.6765 6.53548
53.7264 6.46401
53.7765 6.50751
53.8265 6.42436
53.8766 6.41079
53.9266 6.42626
53.9767 6.37383
54.0267 6.32764
54.0769 6.29882
54.1269 6.2334
54.1771 6.23239
54.2271 6.21016
54.2773 6.14564
54.3274 6.15494
54.3776 6.09953
54.4277 6.0877
54.478 6.01237
54.528 5.97322
54.5783 5.94314
54.6285 5.90082
54.6788 5.86659
54.7289 5.80233
54.7792 5.78595
54.8296 5.73643
54.8798 5.68031
54.9301 5.70749
54.9803 5.60677
55.0307 5.59368
55.0809 5.59087
55.1314 5.56094
55.1816 5.47022
55.232 5.42744
55.2823 5.40448
55.3328 5.26895
55.383 5.29173
55.4335 5.18709
55.4838 5.1349
55.5344 5.14397
55.5847 5.10735
55.6352 5.04342
55.6856 4.98771
55.7361 5.00141