File: XRD/Ni3Fe_FD0269.xy
TT I
1.27165 7.31851
1.31627 6.6441
1.36089 7.43491
1.40551 6.18085
1.45013 6.12451
1.49476 6.42223
1.53938 6.31468
1.584 5.72785
1.62863 5.6858
1.67325 5.1852
1.71787 5.23295
1.7625 4.91876
1.80712 4.61624
1.85174 4.80446
1.89636 5.41444
1.94099 5.57681
1.98562 4.81425
2.03025 4.85776
2.07487 4.88418
2.11949 5.06666
2.16411 4.68503
2.20874 12.7347
2.25338 19.0901
2.298 5.73043
2.34263 4.94578
2.38725 4.82165
2.43188 5.34646
2.4765 5.23826
2.52115 5.51702
2.56577 5.53381
2.6104 6.85089
2.65503 5.75827
2.69965 6.5072
2.7443 6.73537
2.78893 6.8021
2.83356 7.63595
2.87818 8.07568
2.92281 8.51225
2.96744 9.61994
3.01209 10.5932
3.05672 11.366
3.10135 12.0673
3.14599 12.8813
3.19062 14.0613
3.23527 15.2379
3.2799 16.1157
3.32454 16.9074
3.36917 17.9893
3.4138 19.4086
3.45844 20.0474
3.50309 21.5365
3.54773 22.017
3.59237 23.8948
3.637 79.7709
3.68164 53.242
3.7263 26.5502
3.77094 26.8546
3.81558 27.6938
3.86022 28.2668
3.90486 29.544
3.9495 30.2132
3.99416 31.698
4.0388 32.9092
4.08344 34.7138
4.12809 36.3059
4.17273 38.1535
4.21738 43.5437
4.26204 211.54
4.30669 185.556
4.35133 49.4174
4.39598 46.1543
4.44063 53.9203
4.4853 63.9042
4.52995 53.6475
4.5746 53.6396
4.61925 55.2991
4.6639 57.8242
4.70855 60.2409
4.75322 63.4461
4.79788 67.2662
4.84253 70.6253
4.88719 75.4103
4.93184 79.1516
4.97652 85.4668
5.02118 93.3285
5.06583 102.313
5.11049 117.497
5.15515 190.8
5.19981 543.476
5.24449 3479.7
5.28916 10741.8
5.33382 4193.48
5.37848 265.232
5.42315 149.903
5.46783 126.832
5.5125 115.517
5.55716 109.395
5.60183 105.174
5.6465 103.073
5.69117 100.37
5.73586 98.5612
5.78053 99.6251
5.8252 99.3537
5.86988 100.773
5.91455 103.447
5.95924 116.821
6.00392 279.874
6.0486 1214.16
6.09328 3687.95
6.13795 3671.69
6.18263 372.55
6.22733 108.462
6.27201 89.7965
6.3167 102.543
6.36138 83.1967
6.40606 73.141
6.45075 70.9897
6.49545 68.2957
6.54014 66.8534
6.58483 65.8292
6.62952 65.5356
6.67421 89.702
6.71892 130.947
6.76361 69.4543
6.8083 61.0207
6.853 59.6848
6.89769 59.1272
6.94239 58.8647
6.98711 58.0256
7.03181 57.6768
7.07651 57.6566
7.12121 57.1412
7.16591 57.5887
7.21063 57.7984
7.25533 69.2526
7.30004 158.446
7.34475 87.5211
7.38945 58.2943
7.43416 56.6962
7.47889 56.1721
7.5236 56.6071
7.56831 57.3324
7.61303 59.0629
7.65774 59.5065
7.70247 58.7375
7.74719 58.4606
7.79191 59.065
7.83663 59.1025
7.88135 60.1763
7.92607 60.9288
7.97081 62.4979
8.01553 63.355
8.06026 65.1164
8.10498 66.3669
8.14971 75.3173
8.19446 74.4586
8.23919 72.7717
8.28392 75.3028
8.32865 77.4354
8.37339 82.6079
8.41812 89.6362
8.46288 117.715
8.50761 198.009
8.55235 488.428
8.59709 1083.81
8.64183 1986.41
8.68658 1273.26
8.73134 231.71
8.77609 109.922
8.82083 99.4156
8.86558 95.3066
8.91033 94.5745
8.9551 95.0683
8.99985 89.2574
9.04461 87.8662
9.08936 87.0826
9.13412 85.6593
9.17888 86.1316
9.22365 86.4996
9.26841 85.9768
9.31318 86.9926
9.35794 86.905
9.4027 87.0993
9.44749 87.6438
9.49226 88.2909
9.53703 89.0869
9.5818 91.5936
9.62657 96.2757
9.67134 101.964
9.71614 97.9239
9.76091 98.3724
9.80569 101.521
9.85047 105.185
9.89525 125.81
9.94005 140.615
9.98484 208.898
10.0296 434.604
10.0744 789.343
10.1192 1481.07
10.164 1709.21
10.2088 588.581
10.2536 152.557
10.2984 120.566
10.3432 119.874
10.388 110.806
10.4328 130.71
10.4776 186.871
10.5224 276.573
10.5672 458.784
10.612 541.405
10.6568 262.437
10.7017 109.132
10.7465 91.8589
10.7913 87.5646
10.8361 85.023
10.8809 82.7823
10.9257 81.6023
10.9706 81.9794
11.0154 78.2033
11.0602 75.9263
11.105 74.9816
11.1499 78.0104
11.1947 83.7548
11.2395 76.1457
11.2844 73.033
11.3292 70.084
11.374 68.8846
11.4189 68.3556
11.4637 67.5753
11.5086 67.8592
11.5534 70.3095
11.5983 67.9251
11.6431 66.5076
11.688 65.6975
11.7328 65.728
11.7777 65.6995
11.8225 65.0916
11.8674 65.1841
11.9122 65.4373
11.9571 65.7019
12.002 66.7067
12.0468 72.3847
12.0917 87.3862
12.1366 107.524
12.1814 143.398
12.2263 194.53
12.2712 186.939
12.3161 113.595
12.3609 74.7441
12.4058 67.7179
12.4507 67.3503
12.4956 67.4118
12.5405 67.4515
12.5853 67.8347
12.6302 74.57
12.6751 79.3738
12.72 72.5575
12.7649 70.6856
12.8098 71.4544
12.8547 72.5256
12.8996 74.1571
12.9445 75.4684
12.9894 77.1957
13.0343 79.0775
13.0792 83.0112
13.1242 94.3754
13.1691 127.241
13.214 165.0
13.2589 227.402
13.3038 329.843
13.3487 426.669
13.3937 323.577
13.4386 153.176
13.4835 116.966
13.5285 138.531
13.5734 167.906
13.6183 229.088
13.6633 318.323
13.7082 356.269
13.7531 232.221
13.7981 112.773
13.843 86.7495
13.888 83.6892
13.9329 80.8443
13.9779 79.2508
14.0228 77.7774
14.0678 76.2271
14.1127 75.8559
14.1577 75.4917
14.2027 74.8864
14.2476 73.4941
14.2926 73.7819
14.3376 74.1068
14.3825 73.3171
14.4275 71.801
14.4725 71.6099
14.5175 71.7993
14.5624 72.1437
14.6074 73.9818
14.6524 74.576
14.6974 73.7655
14.7424 75.7746
14.7874 85.0352
14.8324 99.1596
14.8774 115.6
14.9224 145.785
14.9674 190.232
15.0124 219.329
15.0574 175.557
15.1024 105.864
15.1474 77.6684
15.1924 74.0344
15.2374 74.0972
15.2824 73.0817
15.3274 70.9862
15.3725 69.957
15.4175 69.5293
15.4625 68.9645
15.5076 69.2959
15.5526 69.2155
15.5976 68.8695
15.6426 70.1678
15.6877 77.794
15.7327 88.759
15.7778 100.672
15.8228 122.101
15.8679 155.921
15.9129 188.619
15.958 175.52
16.003 115.285
16.0481 74.7185
16.0931 67.9425
16.1382 65.2864
16.1833 63.2382
16.2283 61.7626
16.2734 60.9975
16.3185 61.04
16.3636 61.6223
16.4086 59.9169
16.4537 58.5761
16.4988 57.7306
16.5439 57.9821
16.589 57.5684
16.6341 57.3328
16.6792 56.8594
16.7243 57.0216
16.7694 57.4613
16.8145 57.1431
16.8596 57.4846
16.9047 58.9243
16.9498 59.1768
16.9949 58.0813
17.04 58.2342
17.0851 60.0924
17.1302 62.1175
17.1754 64.7535
17.2205 68.5393
17.2656 74.2669
17.3108 82.3609
17.3559 84.947
17.401 77.2386
17.4462 67.1456
17.4913 62.3341
17.5365 61.6658
17.5815 61.9618
17.6268 62.2607
17.6718 63.1223
17.7171 63.3856
17.7622 63.9934
17.8074 64.7395
17.8525 67.4963
17.8977 73.2118
17.9428 79.765
17.9881 86.2709
18.0331 98.6505
18.0784 115.431
18.1237 136.204
18.1688 141.495
18.214 119.313
18.2591 94.1241
18.3044 91.0338
18.3495 98.1442
18.3948 106.332
18.4399 102.75
18.4852 85.6293
18.5303 71.166
18.5756 65.4906
18.6207 64.2592
18.666 63.4462
18.7112 62.4841
18.7565 61.6108
18.8016 61.2626
18.8469 60.6262
18.892 60.5795
18.9374 59.7411
18.9825 59.6216
19.0278 59.4412
19.073 59.6855
19.1183 60.1228
19.1635 61.464
19.2088 62.7131
19.254 64.4436
19.2993 67.4703
19.3447 72.2526
19.3898 77.3646
19.4352 76.5519
19.4804 68.9742
19.5257 60.757
19.5709 57.0654
19.6163 56.4365
19.6615 56.0477
19.7068 55.5603
19.752 55.6769
19.7974 56.0763
19.8426 57.3004
19.888 58.0981
19.9332 59.0868
19.9786 60.6741
20.0238 63.3962
20.0692 67.7005
20.1144 71.8677
20.1598 72.7405
20.205 67.9663
20.2504 64.6752
20.2957 64.6504
20.3411 66.8638
20.3863 67.1681
20.4318 62.4885
20.477 57.3445
20.5224 54.1418
20.5677 53.3304
20.6131 52.6466
20.6586 51.7443
20.7038 51.8237
20.7493 51.201
20.7945 51.1798
20.84 50.9904
20.8853 50.988
20.9307 50.7972
20.976 51.066
21.0215 50.8776
21.0668 51.2029
21.1122 51.6078
21.1575 51.9721
21.203 52.6049
21.2483 53.0955
21.2938 53.7347
21.3391 52.7357
21.3846 51.3932
21.4299 50.7719
21.4754 50.5925
21.5207 50.769
21.5662 51.0618
21.6116 51.4802
21.6571 52.7579
21.7024 53.6395
21.7479 55.0082
21.7933 56.9372
21.8388 59.8591
21.8843 63.3701
21.9297 66.3299
21.9752 66.8121
22.0206 63.5641
22.0661 59.4263
22.1115 57.8295
22.157 57.9229
22.2024 57.2551
22.248 54.6285
22.2933 52.6891
22.3389 51.4841
22.3843 51.1237
22.4299 50.9038
22.4753 50.9205
22.5208 50.8323
22.5662 50.7006
22.6118 50.8976
22.6572 51.0517
22.7028 51.8171
22.7483 52.2298
22.7939 52.7222
22.8393 53.7284
22.8849 55.3326
22.9303 57.0753
22.9759 59.0935
23.0214 59.878
23.067 57.9014
23.1126 54.5034
23.1581 51.8761
23.2037 51.0473
23.2492 51.0355
23.2948 51.2693
23.3403 51.636
23.3859 52.2206
23.4314 52.7402
23.477 54.0572
23.5225 55.7861
23.5682 57.5705
23.6137 59.689
23.6593 58.5904
23.7048 55.4096
23.7505 51.4757
23.796 49.0183
23.8417 48.1925
23.8872 47.4692
23.9329 47.3185
23.9784 46.7858
24.0241 46.6324
24.0697 46.4024
24.1154 46.1035
24.1609 45.9606
24.2066 45.765
24.2522 45.6379
24.2979 45.223
24.3434 45.3134
24.3892 44.9442
24.4349 45.0129
24.4805 44.8285
24.5262 44.7042
24.5718 44.7676
24.6175 44.6976
24.6631 44.7937
24.7089 44.338
24.7545 44.3439
24.8002 44.0978
24.8458 44.084
24.8916 43.8813
24.9372 43.9958
24.983 44.4171
25.0286 44.5624
25.0744 45.1799
25.12 45.5647
25.1658 46.0556
25.2114 46.257
25.2572 46.5061
25.3029 46.361
25.3487 46.4849
25.3943 46.4483
25.4402 45.8535
25.4858 44.9191
25.5316 43.5476
25.5773 42.8368
25.6231 42.7862
25.669 42.3621
25.7147 42.2564
25.7605 42.2303
25.8062 42.3296
25.8521 42.4861
25.8977 42.2648
25.9436 42.629
25.9893 42.4446
26.0352 43.0032
26.0809 43.0787
26.1268 43.3535
26.1725 43.1238
26.2184 42.9224
26.2641 42.2909
26.31 41.9708
26.3557 41.9903
26.4017 41.9357
26.4474 42.0073
26.4933 42.394
26.5391 42.7918
26.585 43.2069
26.6308 43.5724
26.6767 43.8029
26.7225 43.8611
26.7684 43.3241
26.8142 42.7555
26.8601 42.2476
26.9059 41.8546
26.9519 41.3706
26.9979 41.1255
27.0437 40.7098
27.0896 40.4733
27.1354 40.4436
27.1814 40.4172
27.2272 40.1635
27.2732 40.2923
27.3191 39.8716
27.3651 40.081
27.4109 40.0522
27.4569 40.2319
27.5027 40.1215
27.5488 40.2138
27.5946 40.0843
27.6407 39.832
27.6865 39.8539
27.7326 39.5442
27.7784 39.5375
27.8245 39.4792
27.8703 39.5484
27.9164 39.8228
27.9623 39.7339
28.0084 40.0961
28.0543 40.5666
28.1003 40.4023
28.1462 40.4573
28.1923 40.1501
28.2384 39.6875
28.2843 39.1899
28.3304 38.845
28.3764 38.4782
28.4225 38.018
28.4684 37.8106
28.5145 37.5708
28.5605 37.4303
28.6066 37.1029
28.6526 37.1705
28.6987 37.1937
28.7447 36.994
28.7908 36.7557
28.8368 36.9924
28.8829 36.8036
28.9289 36.7931
28.9751 36.6494
29.0211 36.5417
29.0673 36.208
29.1133 36.1854
29.1595 35.8739
29.2055 35.8504
29.2517 35.7229
29.2977 35.6711
29.3439 35.5996
29.3899 35.6635
29.4361 35.609
29.4824 35.3966
29.5284 35.2112
29.5746 34.8306
29.6207 34.6544
29.6669 34.5441
29.713 34.3718
29.7593 34.2414
29.8053 34.2976
29.8516 34.1158
29.8977 34.2062
29.9439 34.1197
29.99 33.9366
30.0363 33.9547
30.0824 33.9214
30.1287 33.7757
30.1748 33.7075
30.2211 33.7601
30.2673 33.5535
30.3136 33.7533
30.3597 33.6536
30.406 33.5441
30.4522 33.4067
30.4985 33.3972
30.5447 33.5326
30.591 33.457
30.6372 33.5399
30.6835 33.4594
30.7297 33.4997
30.7761 33.5249
30.8224 33.4489
30.8686 33.2532
30.915 32.998
30.9612 32.9016
31.0076 32.6847
31.0538 32.5004
31.1002 32.381
31.1464 32.3901
31.1928 32.3775
31.2391 32.3443
31.2855 32.1757
31.3317 32.1136
31.3781 32.1555
31.4244 32.1858
31.4708 32.1217
31.5171 32.0501
31.5636 32.1678
31.6098 31.8698
31.6563 31.7811
31.7026 31.5612
31.7491 31.3946
31.7953 31.4724
31.8418 31.2896
31.8881 31.4446
31.9346 31.272
31.9809 31.2529
32.0275 31.1864
32.074 31.1304
32.1203 30.9655
32.1668 30.8149
32.2132 30.6975
32.2597 30.4158
32.306 30.4274
32.3526 30.2619
32.399 30.1168
32.4455 30.092
32.4919 29.9782
32.5385 29.8583
32.5848 29.6857
32.6314 29.6864
32.6778 29.6026
32.7244 29.505
32.7708 29.3499
32.8174 29.4216
32.8638 29.2771
32.9104 29.261
32.9569 29.2383
33.0035 29.0891
33.0499 29.1133
33.0966 29.0498
33.143 28.907
33.1897 28.9009
33.2361 28.73
33.2828 28.6905
33.3293 28.6195
33.3759 28.5665
33.4226 28.4429
33.4691 28.3339
33.5158 28.2382
33.5623 28.0361
33.609 27.9022
33.6555 27.8448
33.7022 27.7387
33.7487 27.6031
33.7954 27.6689
33.842 27.5099
33.8887 27.4025
33.9353 27.4178
33.982 27.2289
34.0286 27.2605
34.0753 27.0976
34.1219 27.0146
34.1687 26.9845
34.2152 26.8432
34.262 26.73
34.3086 26.6641
34.3554 26.6716
34.402 26.438
34.4488 26.4209
34.4954 26.3561
34.5422 26.2991
34.5889 26.2093
34.6357 26.0757
34.6825 25.9694
34.7292 25.888
34.776 25.7822
34.8227 25.8051
34.8695 25.8015
34.9162 25.6175
34.9631 25.4822
35.0098 25.6235
35.0566 25.4065
35.1033 25.3342
35.1502 25.2978
35.1969 25.2764
35.2438 25.2524
35.2906 25.2233
35.3375 25.0692
35.3842 24.9482
35.4311 24.9229
35.4779 24.905
35.5248 24.9352
35.5716 24.7711
35.6185 24.7058
35.6653 24.5545
35.7123 24.563
35.759 24.4485
35.806 24.2433
35.8528 24.2624
35.8998 24.2141
35.9468 24.0901
35.9936 24.0118
36.0406 23.9802
36.0874 23.9329
36.1345 23.8683
36.1813 23.7936
36.2283 23.6551
36.2752 23.5161
36.3222 23.6556
36.3691 23.549
36.4161 23.3415
36.463 23.404
36.5101 23.3693
36.557 23.2843
36.6041 23.1273
36.651 23.0761
36.6981 23.0823
36.745 22.987
36.7921 22.836
36.839 22.749
36.8861 22.6799
36.9331 22.654
36.9802 22.5861
37.0272 22.4633
37.0743 22.3983
37.1213 22.3315
37.1684 22.3424
37.2154 22.2953
37.2626 22.1936
37.3098 22.085
37.3568 22.0291
37.404 22.0361
37.451 21.8877
37.4982 21.8472
37.5452 21.7726
37.5924 21.7219
37.6395 21.7125
37.6867 21.6079
37.7337 21.4339
37.781 21.4696
37.8281 21.3873
37.8753 21.2045
37.9224 21.2423
37.9697 21.14
38.0168 21.0952
38.064 21.0112
38.1111 20.9515
38.1584 20.8655
38.2056 20.8458
38.2529 20.7441
38.3 20.6743
38.3473 20.6982
38.3945 20.5686
38.4418 20.4567
38.489 20.4734
38.5363 20.2968
38.5837 20.2932
38.6309 20.2784
38.6782 20.1197
38.7254 20.1281
38.7728 20.0309
38.82 19.9833
38.8674 19.9486
38.9146 19.8376
38.9621 19.7785
39.0093 19.7003
39.0567 19.6192
39.104 19.6145
39.1514 19.4807
39.1987 19.474
39.2461 19.4102
39.2934 19.351
39.3409 19.2501
39.3882 19.2388
39.4356 19.1063
39.483 19.0741
39.5304 18.9999
39.5778 18.9627
39.6253 18.943
39.6726 18.8378
39.7201 18.82
39.7675 18.7601
39.815 18.6799
39.8624 18.5953
39.9099 18.6035
39.9575 18.5495
40.0049 18.4691
40.0525 18.3277
40.0999 18.3088
40.1474 18.2755
40.1949 18.2125
40.2425 18.0758
40.2899 18.0953
40.3375 18.0605
40.385 17.9897
40.4326 17.9203
40.48 17.9068
40.5277 17.8333
40.5752 17.7227
40.6228 17.6782
40.6703 17.5983
40.718 17.5833
40.7655 17.5699
40.8132 17.454
40.8607 17.4473
40.9084 17.4171
40.9559 17.3434
41.0036 17.2492
41.0512 17.2323
41.0989 17.2016
41.1465 17.1198
41.1942 17.0265
41.242 17.0397
41.2896 16.942
41.3373 16.8315
41.3849 16.798
41.4327 16.774
41.4803 16.6385
41.5281 16.6477
41.5758 16.557
41.6236 16.4957
41.6712 16.498
41.7191 16.4389
41.7667 16.3056
41.8146 16.308
41.8622 16.3035
41.9101 16.1867
41.9578 16.1301
42.0057 16.1078
42.0534 15.9991
42.1013 15.9799
42.149 15.9161
42.1969 15.8717
42.2446 15.8342
42.2925 15.6833
42.3403 15.7025
42.3882 15.6966
42.436 15.6355
42.4839 15.546
42.5319 15.4981
42.5797 15.4473
42.6277 15.4339
42.6755 15.332
42.7235 15.2787
42.7713 15.2463
42.8193 15.2097
42.8671 15.1334
42.9152 15.0919
42.963 15.064
43.0111 15.0092
43.0589 14.9307
43.107 14.8779
43.1549 14.8263
43.2029 14.7403
43.2508 14.7289
43.2989 14.626
43.3468 14.6242
43.3949 14.5831
43.4429 14.5265
43.491 14.4097
43.5389 14.4506
43.5871 14.386
43.635 14.3066
43.6832 14.2937
43.7312 14.1854
43.7793 14.1261
43.8273 14.1744
43.8755 14.0552
43.9237 14.0542
43.9717 13.9413
44.0199 13.9548
44.068 13.8594
44.1162 13.8504
44.1642 13.8297
44.2125 13.7144
44.2606 13.723
44.3088 13.6313
44.3569 13.6004
44.4052 13.5463
44.4533 13.521
44.5016 13.482
44.5497 13.4192
44.598 13.3688
44.6461 13.2928
44.6945 13.2755
44.7426 13.2295
44.791 13.1662
44.8391 13.1408
44.8875 13.0776
44.9357 13.0211
44.984 13.0062
45.0322 12.9477
45.0806 12.9035
45.1288 12.8928
45.1773 12.807
45.2257 12.7712
45.2739 12.7384
45.3224 12.6763
45.3706 12.6226
45.4191 12.5448
45.4673 12.5605
45.5158 12.5275
45.5641 12.4171
45.6126 12.394
45.6609 12.3284
45.7094 12.254
45.7577 12.2486
45.8063 12.2205
45.8546 12.2191
45.9031 12.1224
45.9515 12.1146
46.0001 12.0612
46.0484 11.9988
46.097 12.0014
46.1454 11.9704
46.194 11.8894
46.2424 11.8426
46.291 11.8116
46.3395 11.7444
46.3881 11.6533
46.4365 11.6525
46.4852 11.6298
46.5337 11.6116
46.5823 11.5728
46.631 11.4914
46.6795 11.4447
46.7282 11.4006
46.7767 11.3594
46.8254 11.3097
46.8739 11.2494
46.9226 11.2626
46.9712 11.1737
47.0199 11.1517
47.0685 11.1208
47.1173 11.069
47.1658 11.0397
47.2146 11.0002
47.2632 10.976
47.312 10.9067
47.3606 10.8526
47.4095 10.8262
47.4581 10.7904
47.5069 10.7735
47.5556 10.6776
47.6044 10.6572
47.6531 10.6019
47.702 10.5604
47.7507 10.5532
47.7996 10.4892
47.8483 10.4548
47.8972 10.4443
47.9461 10.4012
47.9948 10.357
48.0438 10.3572
48.0925 10.3251
48.1415 10.2473
48.1902 10.2042
48.2392 10.1497
48.288 10.1701
48.337 10.0957
48.3858 10.0427
48.4348 10.0086
48.4837 10.0226
48.5327 9.96777
48.5815 9.88843
48.6306 9.89154
48.6795 9.84816
48.7285 9.81585
48.7774 9.79943
48.8265 9.72505
48.8754 9.70161
48.9245 9.66932
48.9734 9.64261
49.0226 9.58557
49.0715 9.54582
49.1206 9.49382
49.1696 9.4836
49.2188 9.4203
49.2679 9.41162
49.3169 9.37427
49.3661 9.30334
49.4151 9.31162
49.4643 9.28881
49.5134 9.22866
49.5626 9.20831
49.6117 9.16088
49.6609 9.12934
49.71 9.08949
49.7592 9.01658
49.8083 8.99677
49.8576 8.9992
49.9067 8.95364
49.956 8.91285
50.0052 8.8688
50.0545 8.88195
50.1036 8.84093
50.153 8.80693
50.2022 8.71125
50.2515 8.74375
50.3007 8.66769
50.3501 8.6588
50.3993 8.57417
50.4487 8.56999
50.498 8.52811
50.5474 8.51123
50.5966 8.46622
50.6461 8.45156
50.6955 8.42585
50.7448 8.3919
50.7943 8.36689
50.8436 8.32983
50.8931 8.27238
50.9424 8.25028
50.9919 8.21648
51.0413 8.20033
51.0908 8.14623
51.1402 8.11032
51.1897 8.09325
51.2391 8.08407
51.2887 8.03191
51.3381 7.98142
51.3877 7.99862
51.4371 7.92833
51.4867 7.8686
51.5362 7.87838
51.5858 7.83813
51.6353 7.79396
51.6849 7.73575
51.7344 7.70477
51.7841 7.74772
51.8336 7.67455
51.8833 7.64738
51.9328 7.57398
51.9826 7.52724
52.0323 7.553
52.0818 7.53598
52.1316 7.42941
52.1812 7.42445
52.231 7.42466
52.2806 7.35082
52.3304 7.35274
52.38 7.34269
52.4298 7.30719
52.4794 7.26811
52.5293 7.22976
52.5789 7.22286
52.6288 7.23259
52.6785 7.1186
52.7284 7.10679
52.7781 7.06115
52.828 7.05468
52.8777 7.02956
52.9276 7.01536
52.9774 6.95691
53.0273 6.93765
53.0771 6.90065
53.1271 6.91006
53.1769 6.84548
53.2269 6.80058
53.2767 6.78842
53.3267 6.78185
53.3765 6.7073
53.4266 6.74609
53.4766 6.6529
53.5265 6.63691
53.5765 6.60014
53.6264 6.62375
53.6765 6.58457
53.7264 6.54776
53.7765 6.51833
53.8265 6.45632
53.8766 6.45925
53.9266 6.4044
53.9767 6.36473
54.0267 6.36905
54.0769 6.32347
54.1269 6.31524
54.1771 6.25116
54.2271 6.26818
54.2773 6.21317
54.3274 6.2249
54.3776 6.11998
54.4277 6.11799
54.478 6.07971
54.528 6.00241
54.5783 5.97128
54.6285 5.94865
54.6788 5.94524
54.7289 5.85497
54.7792 5.82946
54.8296 5.76653
54.8798 5.74039
54.9301 5.69852
54.9803 5.62219
55.0307 5.62133
55.0809 5.56294
55.1314 5.55957
55.1816 5.45776
55.232 5.46972
55.2823 5.40927
55.3328 5.34794
55.383 5.28298
55.4335 5.25972
55.4838 5.21357
55.5344 5.13061
55.5847 5.05216
55.6352 5.09766
55.6856 5.07137
55.7361 4.95339