File: XRD/Ni3Fe_FD0144.xy
TT I
1.27165 8.17492
1.31627 7.21114
1.36089 6.96619
1.40551 6.62815
1.45013 6.79009
1.49476 6.3485
1.53938 5.93612
1.584 5.97296
1.62863 5.74371
1.67325 5.30989
1.71787 5.26711
1.7625 5.29342
1.80712 5.38359
1.85174 5.20329
1.89636 4.83076
1.94099 5.707
1.98562 4.78743
2.03025 4.89972
2.07487 4.74602
2.11949 4.78268
2.16411 4.5716
2.20874 4.30309
2.25338 4.39918
2.298 4.37625
2.34263 4.46428
2.38725 4.13887
2.43188 3.99903
2.4765 4.4137
2.52115 4.01696
2.56577 5.17459
2.6104 4.63913
2.65503 4.94668
2.69965 5.43925
2.7443 5.98576
2.78893 6.711
2.83356 7.30273
2.87818 7.37871
2.92281 8.93623
2.96744 8.97049
3.01209 10.286
3.05672 11.156
3.10135 12.3169
3.14599 13.1628
3.19062 14.0606
3.23527 14.9745
3.2799 15.5912
3.32454 16.4702
3.36917 17.644
3.4138 18.3473
3.45844 19.2773
3.50309 20.7849
3.54773 20.8856
3.59237 21.3472
3.637 22.4593
3.68164 23.1404
3.7263 24.4761
3.77094 24.8624
3.81558 26.1837
3.86022 26.6184
3.90486 27.7822
3.9495 28.6012
3.99416 29.3553
4.0388 30.7099
4.08344 31.586
4.12809 32.6968
4.17273 33.7538
4.21738 35.3229
4.26204 36.1331
4.30669 37.681
4.35133 39.3694
4.39598 41.2086
4.44063 42.8071
4.4853 44.4557
4.52995 47.0525
4.5746 49.1817
4.61925 51.4663
4.6639 53.6039
4.70855 56.6377
4.75322 58.8867
4.79788 62.5401
4.84253 65.5398
4.88719 70.7528
4.93184 74.7857
4.97652 81.9902
5.02118 90.5912
5.06583 101.295
5.11049 117.083
5.15515 155.06
5.19981 556.387
5.24449 3768.71
5.28916 8125.91
5.33382 6385.91
5.37848 461.636
5.42315 164.185
5.46783 127.771
5.5125 113.729
5.55716 107.328
5.60183 101.625
5.6465 98.7595
5.69117 97.44
5.73586 95.1489
5.78053 95.0556
5.8252 95.2608
5.86988 98.3557
5.91455 105.493
5.95924 124.7
6.00392 290.642
6.0486 1382.37
6.09328 2665.86
6.13795 4064.68
6.18263 729.286
6.22733 123.959
6.27201 89.3896
6.3167 77.8209
6.36138 72.3728
6.40606 68.2878
6.45075 66.1747
6.49545 63.8854
6.54014 62.0954
6.58483 60.5329
6.62952 59.5859
6.67421 58.064
6.71892 57.3445
6.76361 56.3553
6.8083 55.596
6.853 54.8306
6.89769 54.4604
6.94239 53.8166
6.98711 53.2625
7.03181 52.6951
7.07651 52.2598
7.12121 51.955
7.16591 52.2191
7.21063 51.8537
7.25533 51.7314
7.30004 51.6514
7.34475 51.9386
7.38945 51.8863
7.43416 51.9719
7.47889 51.8738
7.5236 55.9407
7.56831 64.1019
7.61303 55.3286
7.65774 53.1442
7.70247 54.0155
7.74719 54.0712
7.79191 55.0354
7.83663 55.0782
7.88135 56.0174
7.92607 56.6161
7.97081 58.284
8.01553 58.9439
8.06026 60.2633
8.10498 61.7408
8.14971 63.462
8.19446 65.4148
8.23919 67.7533
8.28392 70.8781
8.32865 73.2608
8.37339 77.9025
8.41812 83.2251
8.46288 95.059
8.50761 172.936
8.55235 603.451
8.59709 873.778
8.64183 1458.31
8.68658 1646.45
8.73134 420.599
8.77609 116.214
8.82083 96.9483
8.86558 90.3669
8.91033 87.3667
8.9551 84.7866
8.99985 83.4939
9.04461 82.6263
9.08936 81.7898
9.13412 81.0562
9.17888 81.2655
9.22365 86.7436
9.26841 97.9875
9.31318 86.8619
9.35794 81.9362
9.4027 81.88
9.44749 82.5213
9.49226 83.4205
9.53703 84.2908
9.5818 85.7006
9.62657 87.0073
9.67134 88.8127
9.71614 90.1259
9.76091 92.7675
9.80569 94.7355
9.85047 98.4236
9.89525 103.559
9.94005 113.527
9.98484 185.87
10.0296 547.331
10.0744 729.583
10.1192 1010.21
10.164 1638.54
10.2088 994.919
10.2536 219.435
10.2984 116.386
10.3432 107.875
10.388 104.035
10.4328 121.046
10.4776 215.789
10.5224 259.563
10.5672 325.791
10.612 491.37
10.6568 385.836
10.7017 136.162
10.7465 90.265
10.7913 83.384
10.8361 80.3569
10.8809 77.9296
10.9257 75.3516
10.9706 73.9753
11.0154 72.3467
11.0602 71.1446
11.105 70.0165
11.1499 68.3499
11.1947 67.2657
11.2395 66.3051
11.2844 65.9069
11.3292 65.0075
11.374 64.4418
11.4189 63.8201
11.4637 63.1733
11.5086 62.4193
11.5534 61.8869
11.5983 61.8049
11.6431 62.0352
11.688 61.07
11.7328 61.1273
11.7777 60.9787
11.8225 60.7421
11.8674 61.0357
11.9122 62.2408
11.9571 65.7267
12.002 65.4968
12.0468 67.3476
12.0917 90.172
12.1366 107.644
12.1814 116.673
12.2263 148.122
12.2712 189.573
12.3161 138.695
12.3609 74.9198
12.4058 63.7105
12.4507 63.1942
12.4956 62.7035
12.5405 62.984
12.5853 63.3338
12.6302 63.2286
12.6751 64.2932
12.72 65.0653
12.7649 65.7987
12.8098 66.705
12.8547 67.8776
12.8996 69.2975
12.9445 70.9808
12.9894 73.0428
13.0343 74.7103
13.0792 79.0235
13.1242 86.3069
13.1691 132.861
13.214 186.835
13.2589 202.165
13.3038 241.196
13.3487 344.651
13.3937 382.153
13.4386 214.351
13.4835 120.356
13.5285 154.438
13.5734 182.022
13.6183 190.032
13.6633 233.554
13.7082 327.621
13.7531 307.494
13.7981 153.853
13.843 88.1672
13.888 80.3956
13.9329 77.09
13.9779 75.6923
14.0228 74.1799
14.0678 72.6865
14.1127 72.4397
14.1577 74.2058
14.2027 72.6527
14.2476 70.3014
14.2926 69.111
14.3376 68.6529
14.3825 68.4124
14.4275 67.7123
14.4725 67.8579
14.5175 68.1002
14.5624 67.8197
14.6074 68.147
14.6524 68.7655
14.6974 69.3886
14.7424 71.1083
14.7874 80.4166
14.8324 106.89
14.8774 120.807
14.9224 125.409
14.9674 145.789
15.0124 189.704
15.0574 204.705
15.1024 140.472
15.1474 82.2624
15.1924 71.1748
15.2374 68.8348
15.2824 67.374
15.3274 66.5872
15.3725 65.9688
15.4175 65.8041
15.4625 65.141
15.5076 65.1937
15.5526 65.0518
15.5976 65.4888
15.6426 66.1017
15.6877 73.6283
15.7327 94.6944
15.7778 107.189
15.8228 109.547
15.8679 122.08
15.9129 151.889
15.958 184.17
16.003 153.167
16.0481 88.984
16.0931 66.0969
16.1382 61.5032
16.1833 60.3402
16.2283 58.6188
16.2734 57.7469
16.3185 56.8683
16.3636 56.2448
16.4086 55.6305
16.4537 55.4034
16.4988 54.8874
16.5439 54.6144
16.589 54.3686
16.6341 54.1062
16.6792 53.7664
16.7243 53.9797
16.7694 53.8749
16.8145 53.8859
16.8596 53.9045
16.9047 54.3825
16.9498 54.7615
16.9949 54.6924
17.04 55.1634
17.0851 56.4117
17.1302 60.7723
17.1754 64.1826
17.2205 64.9102
17.2656 66.5678
17.3108 71.7232
17.3559 78.6866
17.401 80.2338
17.4462 70.8834
17.4913 61.3626
17.5365 58.68
17.5815 58.7043
17.6268 59.0897
17.6718 59.4916
17.7171 60.0133
17.7622 61.0923
17.8074 61.7384
17.8525 63.6048
17.8977 71.9172
17.9428 83.6428
17.9881 88.1317
18.0331 90.2469
18.0784 97.0381
18.1237 113.43
18.1688 139.332
18.214 142.002
18.2591 110.815
18.3044 87.696
18.3495 85.8465
18.3948 94.0005
18.4399 102.495
18.4852 95.0055
18.5303 76.6286
18.5756 64.9234
18.6207 61.9666
18.666 60.6592
18.7112 59.5853
18.7565 59.0985
18.8016 58.5442
18.8469 57.9941
18.892 57.4968
18.9374 57.0726
18.9825 56.6403
19.0278 56.4712
19.073 56.359
19.1183 57.0165
19.1635 59.4061
19.2088 61.5637
19.254 62.2078
19.2993 62.7417
19.3447 64.6207
19.3898 68.6585
19.4352 73.3682
19.4804 72.299
19.5257 63.8215
19.5709 56.1562
19.6163 54.0828
19.6615 53.6921
19.7068 53.3026
19.752 53.2145
19.7974 53.3291
19.8426 54.4638
19.888 56.6276
19.9332 57.9064
19.9786 58.3279
20.0238 58.9954
20.0692 61.4962
20.1144 66.4367
20.1598 72.1177
20.205 70.8562
20.2504 65.12
20.2957 60.7034
20.3411 61.2338
20.3863 64.2538
20.4318 64.2311
20.477 58.9542
20.5224 53.2211
20.5677 50.9185
20.6131 50.1062
20.6586 49.6235
20.7038 49.3536
20.7493 49.1719
20.7945 49.1355
20.84 48.8843
20.8853 48.8565
20.9307 48.327
20.976 48.6754
21.0215 48.8306
21.0668 49.2176
21.1122 49.3665
21.1575 49.3506
21.203 49.5246
21.2483 50.0351
21.2938 51.124
21.3391 51.2154
21.3846 50.3733
21.4299 48.9568
21.4754 48.5493
21.5207 48.7421
21.5662 48.8505
21.6116 49.1698
21.6571 51.0597
21.7024 52.9768
21.7479 53.9947
21.7933 54.1288
21.8388 55.5165
21.8843 58.3152
21.9297 61.6342
21.9752 65.297
22.0206 65.4694
22.0661 60.5809
22.1115 56.052
22.157 55.2203
22.2024 56.1574
22.248 55.1388
22.2933 52.329
22.3389 49.8822
22.3843 49.0776
22.4299 48.6258
22.4753 48.7906
22.5208 48.5983
22.5662 48.4557
22.6118 48.6936
22.6572 48.8698
22.7028 50.1926
22.7483 51.2809
22.7939 51.8686
22.8393 51.8739
22.8849 52.477
22.9303 53.1962
22.9759 54.8057
23.0214 56.9537
23.067 58.2209
23.1126 55.9921
23.1581 52.1894
23.2037 49.7524
23.2492 49.0802
23.2948 49.3938
23.3403 50.7171
23.3859 51.7016
23.4314 51.6342
23.477 51.7402
23.5225 52.2016
23.5682 53.1602
23.6137 55.4804
23.6593 57.4863
23.7048 57.0826
23.7505 53.2153
23.796 48.9495
23.8417 46.8852
23.8872 45.8834
23.9329 45.571
23.9784 45.2035
24.0241 44.9222
24.0697 44.6642
24.1154 44.1377
24.1609 44.0638
24.2066 43.8072
24.2522 43.7149
24.2979 43.4101
24.3434 43.3685
24.3892 43.4335
24.4349 43.1845
24.4805 42.8604
24.5262 42.9196
24.5718 42.7228
24.6175 42.9742
24.6631 43.0538
24.7089 42.7926
24.7545 42.6514
24.8002 42.4006
24.8458 42.4307
24.8916 42.4295
24.9372 42.4331
24.983 42.7612
25.0286 42.9433
25.0744 43.4574
25.12 43.8116
25.1658 44.1015
25.2114 44.5338
25.2572 44.8659
25.3029 44.7781
25.3487 44.526
25.3943 44.5915
25.4402 44.8725
25.4858 44.3853
25.5316 43.0916
25.5773 41.6029
25.6231 41.1195
25.669 40.7773
25.7147 40.6795
25.7605 40.4557
25.8062 40.8971
25.8521 41.034
25.8977 40.8468
25.9436 40.9415
25.9893 40.7498
26.0352 40.971
26.0809 41.0771
26.1268 41.5412
26.1725 41.7953
26.2184 41.8434
26.2641 41.3231
26.31 40.8082
26.3557 40.6924
26.4017 40.6485
26.4474 40.7658
26.4933 40.8497
26.5391 41.1423
26.585 41.2933
26.6308 41.6575
26.6767 41.9027
26.7225 42.4693
26.7684 42.5907
26.8142 41.9244
26.8601 41.2284
26.9059 40.7549
26.9519 40.2866
26.9979 39.9921
27.0437 39.5118
27.0896 39.0988
27.1354 39.0687
27.1814 38.912
27.2272 38.9755
27.2732 38.9049
27.3191 38.5481
27.3651 38.7077
27.4109 38.5701
27.4569 38.6734
27.5027 38.5976
27.5488 38.6115
27.5946 38.5881
27.6407 38.5566
27.6865 38.7503
27.7326 38.4603
27.7784 38.3221
27.8245 38.2886
27.8703 38.289
27.9164 38.3804
27.9623 38.4218
28.0084 38.5636
28.0543 38.9542
28.1003 39.0339
28.1462 39.2525
28.1923 39.2648
28.2384 38.7431
28.2843 38.1708
28.3304 37.8913
28.3764 37.6826
28.4225 37.1197
28.4684 36.5978
28.5145 36.28
28.5605 35.9653
28.6066 35.8506
28.6526 35.8604
28.6987 35.8815
28.7447 35.5425
28.7908 35.4956
28.8368 35.4089
28.8829 35.4424
28.9289 35.4927
28.9751 35.3297
29.0211 35.2838
29.0673 35.145
29.1133 34.9445
29.1595 34.6906
29.2055 34.4855
29.2517 34.4878
29.2977 34.3953
29.3439 34.2116
29.3899 34.1804
29.4361 34.2017
29.4824 34.0805
29.5284 34.0804
29.5746 33.8539
29.6207 33.4875
29.6669 33.3447
29.713 33.0928
29.7593 32.9458
29.8053 33.0658
29.8516 32.7845
29.8977 32.8203
29.9439 32.6932
29.99 32.6942
30.0363 32.4637
30.0824 32.5427
30.1287 32.444
30.1748 32.5076
30.2211 32.4081
30.2673 32.3616
30.3136 32.5331
30.3597 32.4775
30.406 32.4652
30.4522 32.3725
30.4985 32.1749
30.5447 32.323
30.591 32.1969
30.6372 32.1093
30.6835 32.1573
30.7297 32.2379
30.7761 32.3426
30.8224 32.359
30.8686 32.2725
30.915 32.0312
30.9612 31.9803
31.0076 31.6758
31.0538 31.4557
31.1002 31.2855
31.1464 31.2776
31.1928 31.1444
31.2391 31.1628
31.2855 31.0684
31.3317 30.9856
31.3781 31.0394
31.4244 30.9043
31.4708 30.8658
31.5171 30.8469
31.5636 30.984
31.6098 30.8957
31.6563 30.7429
31.7026 30.5929
31.7491 30.4852
31.7953 30.378
31.8418 30.3547
31.8881 30.1829
31.9346 30.1218
31.9809 30.3026
32.0275 30.1485
32.074 30.0642
32.1203 29.9301
32.1668 29.8583
32.2132 29.7274
32.2597 29.5432
32.306 29.3647
32.3526 29.1959
32.399 29.0876
32.4455 28.9101
32.4919 28.7554
32.5385 28.8684
32.5848 28.6133
32.6314 28.6941
32.6778 28.5581
32.7244 28.3229
32.7708 28.2945
32.8174 28.2697
32.8638 28.2272
32.9104 28.2327
32.9569 28.1157
33.0035 27.995
33.0499 27.9899
33.0966 27.8786
33.143 27.8281
33.1897 27.7224
33.2361 27.7536
33.2828 27.7212
33.3293 27.5897
33.3759 27.5723
33.4226 27.4494
33.4691 27.3368
33.5158 27.2246
33.5623 27.1326
33.609 26.858
33.6555 26.8256
33.7022 26.7081
33.7487 26.5822
33.7954 26.5477
33.842 26.5142
33.8887 26.4503
33.9353 26.3628
33.982 26.3139
34.0286 26.2747
34.0753 26.1664
34.1219 26.0975
34.1687 25.9505
34.2152 25.8595
34.262 25.795
34.3086 25.6102
34.3554 25.6139
34.402 25.4862
34.4488 25.4006
34.4954 25.4049
34.5422 25.3026
34.5889 25.1763
34.6357 25.0329
34.6825 25.0155
34.7292 24.966
34.776 24.8412
34.8227 24.8027
34.8695 24.7445
34.9162 24.6182
34.9631 24.5206
35.0098 24.5912
35.0566 24.4513
35.1033 24.4562
35.1502 24.387
35.1969 24.2389
35.2438 24.2388
35.2906 24.1697
35.3375 24.1385
35.3842 24.0803
35.4311 23.9693
35.4779 24.0106
35.5248 23.9166
35.5716 23.888
35.6185 23.9055
35.6653 23.8091
35.7123 23.6157
35.759 23.6065
35.806 23.492
35.8528 23.3625
35.8998 23.2776
35.9468 23.2187
35.9936 23.2017
36.0406 23.1557
36.0874 23.0828
36.1345 23.0788
36.1813 22.9324
36.2283 22.7907
36.2752 22.7998
36.3222 22.7977
36.3691 22.6812
36.4161 22.5785
36.463 22.5362
36.5101 22.5912
36.557 22.367
36.6041 22.3648
36.651 22.2131
36.6981 22.3113
36.745 22.192
36.7921 22.1103
36.839 21.9987
36.8861 21.9716
36.9331 21.8227
36.9802 21.7738
37.0272 21.7189
37.0743 21.5637
37.1213 21.5174
37.1684 21.5133
37.2154 21.4576
37.2626 21.3598
37.3098 21.3141
37.3568 21.2582
37.404 21.2477
37.451 21.1269
37.4982 20.9844
37.5452 20.8609
37.5924 20.9197
37.6395 20.8978
37.6867 20.7971
37.7337 20.7612
37.781 20.6439
37.8281 20.5645
37.8753 20.4826
37.9224 20.4197
37.9697 20.3521
38.0168 20.3233
38.064 20.1602
38.1111 20.1433
38.1584 20.1213
38.2056 19.9535
38.2529 20.0042
38.3 19.9304
38.3473 19.8653
38.3945 19.7636
38.4418 19.7565
38.489 19.6365
38.5363 19.6
38.5837 19.5122
38.6309 19.4606
38.6782 19.4216
38.7254 19.3335
38.7728 19.2725
38.82 19.209
38.8674 19.1819
38.9146 19.1184
38.9621 19.0946
39.0093 19.0359
39.0567 18.9371
39.104 18.8378
39.1514 18.8021
39.1987 18.7581
39.2461 18.7173
39.2934 18.6913
39.3409 18.5676
39.3882 18.4394
39.4356 18.4506
39.483 18.3827
39.5304 18.305
39.5778 18.3279
39.6253 18.2615
39.6726 18.1517
39.7201 18.1466
39.7675 18.0287
39.815 18.0507
39.8624 17.9348
39.9099 17.9617
39.9575 17.8158
40.0049 17.7682
40.0525 17.7089
40.0999 17.6275
40.1474 17.6347
40.1949 17.5117
40.2425 17.411
40.2899 17.4892
40.3375 17.3497
40.385 17.3381
40.4326 17.3159
40.48 17.2058
40.5277 17.1787
40.5752 17.1374
40.6228 17.0481
40.6703 16.988
40.718 16.8763
40.7655 16.8882
40.8132 16.8592
40.8607 16.8464
40.9084 16.7704
40.9559 16.7398
41.0036 16.5973
41.0512 16.6002
41.0989 16.5921
41.1465 16.5107
41.1942 16.3831
41.242 16.3232
41.2896 16.2374
41.3373 16.174
41.3849 16.1454
41.4327 16.1377
41.4803 16.0267
41.5281 16.0402
41.5758 15.9815
41.6236 15.9213
41.6712 15.8202
41.7191 15.8262
41.7667 15.7575
41.8146 15.7588
41.8622 15.6395
41.9101 15.6407
41.9578 15.5485
42.0057 15.5063
42.0534 15.4169
42.1013 15.4037
42.149 15.3158
42.1969 15.2827
42.2446 15.2814
42.2925 15.2473
42.3403 15.1144
42.3882 15.1248
42.436 15.0794
42.4839 14.9432
42.5319 14.9951
42.5797 14.8799
42.6277 14.7821
42.6755 14.787
42.7235 14.7376
42.7713 14.6528
42.8193 14.6957
42.8671 14.5857
42.9152 14.5786
42.963 14.4852
43.0111 14.4185
43.0589 14.4064
43.107 14.2947
43.1549 14.2706
43.2029 14.2137
43.2508 14.1597
43.2989 14.1287
43.3468 14.0738
43.3949 14.0434
43.4429 14.003
43.491 13.9112
43.5389 13.872
43.5871 13.8256
43.635 13.8026
43.6832 13.7603
43.7312 13.6745
43.7793 13.6858
43.8273 13.6127
43.8755 13.5207
43.9237 13.5035
43.9717 13.469
44.0199 13.4249
44.068 13.3552
44.1162 13.3143
44.1642 13.2723
44.2125 13.2412
44.2606 13.1876
44.3088 13.1047
44.3569 13.0959
44.4052 13.0917
44.4533 12.9786
44.5016 12.9574
44.5497 12.9004
44.598 12.892
44.6461 12.7742
44.6945 12.761
44.7426 12.723
44.791 12.6639
44.8391 12.6525
44.8875 12.6012
44.9357 12.5447
44.984 12.473
45.0322 12.4693
45.0806 12.4471
45.1288 12.3446
45.1773 12.3016
45.2257 12.274
45.2739 12.222
45.3224 12.1884
45.3706 12.1482
45.4191 12.0969
45.4673 12.0987
45.5158 12.0555
45.5641 11.9564
45.6126 11.9703
45.6609 11.8613
45.7094 11.86
45.7577 11.835
45.8063 11.7362
45.8546 11.7612
45.9031 11.6603
45.9515 11.6572
46.0001 11.5987
46.0484 11.582
46.097 11.5126
46.1454 11.5076
46.194 11.4485
46.2424 11.3798
46.291 11.352
46.3395 11.2717
46.3881 11.2679
46.4365 11.2375
46.4852 11.1827
46.5337 11.177
46.5823 11.1197
46.631 11.0443
46.6795 11.0533
46.7282 11.0157
46.7767 10.9215
46.8254 10.9163
46.8739 10.8741
46.9226 10.776
46.9712 10.814
47.0199 10.6817
47.0685 10.6986
47.1173 10.6584
47.1658 10.5907
47.2146 10.6089
47.2632 10.57
47.312 10.4904
47.3606 10.4502
47.4095 10.4394
47.4581 10.4041
47.5069 10.3692
47.5556 10.3159
47.6044 10.2688
47.6531 10.2089
47.702 10.2214
47.7507 10.1528
47.7996 10.1077
47.8483 10.0981
47.8972 10.0617
47.9461 10.0133
47.9948 9.98882
48.0438 9.9414
48.0925 9.93293
48.1415 9.9068
48.1902 9.81518
48.2392 9.85401
48.288 9.79307
48.337 9.78909
48.3858 9.68958
48.4348 9.65571
48.4837 9.68998
48.5327 9.61446
48.5815 9.58824
48.6306 9.53758
48.6795 9.50837
48.7285 9.41544
48.7774 9.45886
48.8265 9.43529
48.8754 9.35886
48.9245 9.30998
48.9734 9.28996
49.0226 9.29647
49.0715 9.19709
49.1206 9.19195
49.1696 9.1601
49.2188 9.0957
49.2679 9.08559
49.3169 9.04151
49.3661 8.97429
49.4151 8.95832
49.4643 8.9397
49.5134 8.90471
49.5626 8.82946
49.6117 8.84886
49.6609 8.78569
49.71 8.76128
49.7592 8.70975
49.8083 8.68239
49.8576 8.68628
49.9067 8.60197
49.956 8.61627
50.0052 8.56784
50.0545 8.55391
50.1036 8.47617
50.153 8.45586
50.2022 8.45991
50.2515 8.40656
50.3007 8.35337
50.3501 8.36217
50.3993 8.29774
50.4487 8.2889
50.498 8.24972
50.5474 8.22043
50.5966 8.18604
50.6461 8.1634
50.6955 8.13952
50.7448 8.07152
50.7943 8.08414
50.8436 8.07499
50.8931 7.99816
50.9424 7.98226
50.9919 7.95855
51.0413 7.90357
51.0908 7.86809
51.1402 7.85736
51.1897 7.84179
51.2391 7.80054
51.2887 7.71441
51.3381 7.69101
51.3877 7.68177
51.4371 7.64185
51.4867 7.61927
51.5362 7.6088
51.5858 7.54845
51.6353 7.52704
51.6849 7.47929
51.7344 7.47204
51.7841 7.43784
51.8336 7.37944
51.8833 7.3758
51.9328 7.35748
51.9826 7.26839
52.0323 7.27499
52.0818 7.2475
52.1316 7.18204
52.1812 7.17258
52.231 7.14272
52.2806 7.10891
52.3304 7.06049
52.38 7.03672
52.4298 7.05694
52.4794 7.01387
52.5293 6.97969
52.5789 6.95824
52.6288 6.92482
52.6785 6.94028
52.7284 6.83479
52.7781 6.87078
52.828 6.81053
52.8777 6.80851
52.9276 6.76086
52.9774 6.73941
53.0273 6.72225
53.0771 6.67028
53.1271 6.70112
53.1769 6.63497
53.2269 6.61607
53.2767 6.55867
53.3267 6.5302
53.3765 6.54228
53.4266 6.47589
53.4766 6.46729
53.5265 6.41133
53.5765 6.42658
53.6264 6.37011
53.6765 6.34168
53.7264 6.28171
53.7765 6.26147
53.8265 6.26133
53.8766 6.18252
53.9266 6.1769
53.9767 6.11863
54.0267 6.13868
54.0769 6.10352
54.1269 6.08375
54.1771 6.0243
54.2271 6.02998
54.2773 5.94268
54.3274 5.95026
54.3776 5.93947
54.4277 5.87148
54.478 5.78968
54.528 5.82005
54.5783 5.74478
54.6285 5.6726
54.6788 5.67324
54.7289 5.60428
54.7792 5.60993
54.8296 5.52022
54.8798 5.48918
54.9301 5.42926
54.9803 5.38209
55.0307 5.42103
55.0809 5.3209
55.1314 5.29763
55.1816 5.19808
55.232 5.20485
55.2823 5.11786
55.3328 5.12123
55.383 5.00556
55.4335 5.01672
55.4838 4.90823
55.5344 4.90433
55.5847 4.84576
55.6352 4.86404
55.6856 4.76403
55.7361 4.75542