File: XRD/Ni3Fe_FD0810.xy
TT I
1.27165 7.41081
1.31627 6.76965
1.36089 6.11024
1.40551 6.3189
1.45013 5.98803
1.49476 5.94522
1.53938 4.96134
1.584 5.39204
1.62863 5.39669
1.67325 5.06332
1.71787 5.14068
1.7625 4.96584
1.80712 4.65993
1.85174 4.49635
1.89636 4.82341
1.94099 4.80464
1.98562 4.40208
2.03025 4.27295
2.07487 4.92194
2.11949 4.92153
2.16411 5.21826
2.20874 8.51253
2.25338 12.1132
2.298 5.13579
2.34263 5.21462
2.38725 5.7328
2.43188 6.11325
2.4765 7.18709
2.52115 6.83574
2.56577 7.81814
2.6104 8.24833
2.65503 7.75958
2.69965 8.72955
2.7443 7.84469
2.78893 8.35875
2.83356 8.5359
2.87818 8.24653
2.92281 9.07479
2.96744 9.97699
3.01209 10.8602
3.05672 11.1273
3.10135 12.2923
3.14599 12.9434
3.19062 14.1873
3.23527 15.2701
3.2799 15.3893
3.32454 16.6052
3.36917 17.4788
3.4138 18.9829
3.45844 19.361
3.50309 20.6336
3.54773 21.6063
3.59237 23.1024
3.637 52.4574
3.68164 38.2543
3.7263 25.2354
3.77094 25.5348
3.81558 26.5997
3.86022 26.9141
3.90486 28.3776
3.9495 29.377
3.99416 30.5845
4.0388 31.7756
4.08344 32.7974
4.12809 33.9968
4.17273 35.5164
4.21738 39.5379
4.26204 129.326
4.30669 113.208
4.35133 44.1826
4.39598 43.3865
4.44063 48.6236
4.4853 54.5651
4.52995 56.1383
4.5746 56.3463
4.61925 53.4704
4.6639 55.3612
4.70855 57.9573
4.75322 61.3009
4.79788 67.7031
4.84253 68.0713
4.88719 74.0193
4.93184 75.8788
4.97652 80.549
5.02118 86.7524
5.06583 93.7839
5.11049 105.662
5.15515 156.159
5.19981 397.431
5.24449 2861.13
5.28916 12343.9
5.33382 2484.54
5.37848 188.54
5.42315 128.857
5.46783 117.159
5.5125 110.747
5.55716 101.824
5.60183 97.2263
5.6465 95.2357
5.69117 93.6731
5.73586 92.4235
5.78053 96.4502
5.8252 96.6685
5.86988 99.5068
5.91455 94.1655
5.95924 103.333
6.00392 238.766
6.0486 966.025
6.09328 4596.62
6.13795 3030.8
6.18263 205.093
6.22733 89.0134
6.27201 80.147
6.3167 85.0096
6.36138 74.1996
6.40606 69.4533
6.45075 69.1047
6.49545 64.8256
6.54014 62.9512
6.58483 62.2378
6.62952 62.4353
6.67421 74.4305
6.71892 92.8317
6.76361 62.1748
6.8083 58.6803
6.853 58.9016
6.89769 56.069
6.94239 55.7509
6.98711 55.4312
7.03181 55.3536
7.07651 54.1198
7.12121 54.049
7.16591 55.3791
7.21063 55.1564
7.25533 61.1215
7.30004 105.05
7.34475 69.7693
7.38945 54.7559
7.43416 53.2421
7.47889 53.3585
7.5236 53.7593
7.56831 54.4132
7.61303 54.9988
7.65774 55.5356
7.70247 56.1168
7.74719 56.0112
7.79191 55.8067
7.83663 56.2212
7.88135 57.1133
7.92607 58.1201
7.97081 59.5083
8.01553 60.4248
8.06026 62.186
8.10498 63.6365
8.14971 70.1438
8.19446 70.2548
8.23919 68.9919
8.28392 71.4752
8.32865 73.6783
8.37339 78.0104
8.41812 83.6075
8.46288 102.986
8.50761 177.262
8.55235 383.335
8.59709 1222.99
8.64183 2205.28
8.68658 853.569
8.73134 147.517
8.77609 96.9224
8.82083 91.7083
8.86558 91.5253
8.91033 90.9268
8.9551 89.0713
8.99985 84.4813
9.04461 83.1945
9.08936 83.6687
9.13412 81.8628
9.17888 81.3281
9.22365 81.7174
9.26841 81.4231
9.31318 84.4865
9.35794 85.4953
9.4027 85.2217
9.44749 84.4772
9.49226 84.5688
9.53703 84.9606
9.5818 88.1467
9.62657 93.5086
9.67134 95.2369
9.71614 92.0091
9.76091 93.6919
9.80569 98.4495
9.85047 100.492
9.89525 112.214
9.94005 127.048
9.98484 189.83
10.0296 344.59
10.0744 834.515
10.1192 1811.11
10.164 1507.6
10.2088 347.029
10.2536 119.94
10.2984 108.554
10.3432 107.726
10.388 103.888
10.4328 121.428
10.4776 161.833
10.5224 293.28
10.5672 538.651
10.612 486.526
10.6568 182.958
10.7017 93.5426
10.7465 85.1884
10.7913 82.4014
10.8361 80.3263
10.8809 78.2137
10.9257 77.3798
10.9706 77.2845
11.0154 74.7292
11.0602 72.2412
11.105 70.7516
11.1499 71.9375
11.1947 74.2836
11.2395 70.0208
11.2844 67.7707
11.3292 66.5603
11.374 65.509
11.4189 64.8118
11.4637 64.2
11.5086 64.0553
11.5534 65.1111
11.5983 63.5363
11.6431 62.7279
11.688 62.1513
11.7328 62.3054
11.7777 62.1201
11.8225 62.0515
11.8674 61.8889
11.9122 62.0928
11.9571 62.5994
12.002 63.869
12.0468 68.3138
12.0917 77.997
12.1366 102.991
12.1814 160.451
12.2263 217.683
12.2712 166.71
12.3161 87.9883
12.3609 66.3595
12.4058 63.539
12.4507 63.5003
12.4956 63.9622
12.5405 63.9921
12.5853 64.5927
12.6302 67.897
12.6751 70.7086
12.72 67.6169
12.7649 67.0291
12.8098 67.807
12.8547 69.1831
12.8996 70.64
12.9445 72.2151
12.9894 73.9519
13.0343 75.5515
13.0792 79.5879
13.1242 91.8562
13.1691 111.203
13.214 148.812
13.2589 248.433
13.3038 391.092
13.3487 412.404
13.3937 235.211
13.4386 118.14
13.4835 106.3
13.5285 119.853
13.5734 160.751
13.6183 258.044
13.6633 362.851
13.7082 329.574
13.7531 169.431
13.7981 92.9468
13.843 80.7724
13.888 78.4927
13.9329 76.4408
13.9779 74.7697
14.0228 73.5208
14.0678 72.186
14.1127 71.6981
14.1577 71.1665
14.2027 70.5195
14.2476 69.6039
14.2926 69.549
14.3376 69.7108
14.3825 69.0649
14.4275 68.4051
14.4725 68.1468
14.5175 68.0807
14.5624 68.2926
14.6074 69.231
14.6524 69.7738
14.6974 69.8993
14.7424 73.154
14.7874 79.0797
14.8324 88.5906
14.8774 111.745
14.9224 159.714
14.9674 218.37
15.0124 220.308
15.0574 140.53
15.1024 85.6838
15.1474 71.092
15.1924 69.4235
15.2374 69.137
15.2824 68.2709
15.3274 66.9716
15.3725 66.0892
15.4175 65.8378
15.4625 65.1262
15.5076 65.0892
15.5526 65.1917
15.5976 65.19
15.6426 67.5946
15.6877 72.4225
15.7327 79.3554
15.7778 95.2711
15.8228 130.022
15.8679 179.095
15.9129 198.032
15.958 146.783
16.003 89.3499
16.0481 65.3571
16.0931 62.4197
16.1382 60.9347
16.1833 59.5911
16.2283 58.095
16.2734 57.6129
16.3185 57.233
16.3636 57.3853
16.4086 56.2719
16.4537 55.4709
16.4988 54.5675
16.5439 54.6785
16.589 54.4263
16.6341 54.206
16.6792 53.8869
16.7243 54.0719
16.7694 54.1101
16.8145 54.0076
16.8596 54.3107
16.9047 54.8586
16.9498 55.2827
16.9949 54.6372
17.04 55.5921
17.0851 56.8776
17.1302 58.0685
17.1754 61.2555
17.2205 66.8882
17.2656 75.1669
17.3108 83.6732
17.3559 80.6352
17.401 68.7497
17.4462 60.956
17.4913 58.3692
17.5365 58.3657
17.5815 58.5095
17.6268 58.93
17.6718 59.6551
17.7171 60.0922
17.7622 60.725
17.8074 61.6768
17.8525 64.8397
17.8977 67.8945
17.9428 73.2184
17.9881 82.6737
18.0331 101.866
18.0784 125.684
18.1237 141.485
18.1688 126.715
18.214 98.661
18.2591 84.5529
18.3044 91.1981
18.3495 102.136
18.3948 105.353
18.4399 92.2296
18.4852 74.3866
18.5303 64.4444
18.5756 61.3311
18.6207 60.4374
18.666 59.6815
18.7112 59.0741
18.7565 58.3609
18.8016 57.9866
18.8469 57.3406
18.892 57.1639
18.9374 56.4963
18.9825 56.3064
19.0278 56.2925
19.073 56.269
19.1183 56.8806
19.1635 57.0423
19.2088 58.7238
19.254 61.6468
19.2993 66.5069
19.3447 72.4775
19.3898 75.5451
19.4352 69.81
19.4804 60.7985
19.5257 55.4158
19.5709 53.4612
19.6163 53.249
19.6615 53.1974
19.7068 52.8715
19.752 52.6433
19.7974 53.0241
19.8426 53.7608
19.888 54.4864
19.9332 55.7987
19.9786 58.5072
20.0238 62.595
20.0692 67.6625
20.1144 69.4435
20.1598 66.8972
20.205 62.339
20.2504 61.6623
20.2957 64.1486
20.3411 65.3535
20.3863 62.5259
20.4318 56.7276
20.477 52.2154
20.5224 50.5721
20.5677 49.965
20.6131 49.4518
20.6586 49.1553
20.7038 48.8046
20.7493 48.4546
20.7945 48.3236
20.84 48.2227
20.8853 48.2291
20.9307 48.1034
20.976 48.2677
21.0215 48.2213
21.0668 48.6419
21.1122 48.9799
21.1575 49.6598
21.203 50.4234
21.2483 51.117
21.2938 50.8466
21.3391 49.4055
21.3846 48.2594
21.4299 47.7586
21.4754 47.9198
21.5207 48.0263
21.5662 48.4754
21.6116 48.8216
21.6571 49.3015
21.7024 50.4135
21.7479 52.4944
21.7933 55.2621
21.8388 59.202
21.8843 62.8281
21.9297 64.2782
21.9752 61.8068
22.0206 57.8554
22.0661 55.8096
22.1115 55.7634
22.157 55.2201
22.2024 53.2549
22.248 50.5828
22.2933 49.2009
22.3389 48.527
22.3843 48.4136
22.4299 48.1591
22.4753 48.1269
22.5208 48.0868
22.5662 47.9325
22.6118 48.2436
22.6572 48.3828
22.7028 48.9012
22.7483 49.2991
22.7939 49.92
22.8393 51.5745
22.8849 53.846
22.9303 56.0597
22.9759 57.5422
23.0214 56.3791
23.067 53.2096
23.1126 50.302
23.1581 48.6053
23.2037 48.1034
23.2492 48.322
23.2948 48.1974
23.3403 48.4796
23.3859 49.2642
23.4314 50.4648
23.477 52.516
23.5225 54.8356
23.5682 56.9913
23.6137 57.422
23.6593 54.3775
23.7048 50.2698
23.7505 47.292
23.796 45.8624
23.8417 45.4665
23.8872 44.9765
23.9329 44.7026
23.9784 44.4275
24.0241 44.0598
24.0697 44.0317
24.1154 43.7618
24.1609 43.4685
24.2066 43.263
24.2522 43.0762
24.2979 43.0745
24.3434 42.6158
24.3892 42.5522
24.4349 42.5667
24.4805 42.4062
24.5262 42.9037
24.5718 42.544
24.6175 42.4598
24.6631 42.3321
24.7089 41.915
24.7545 41.9518
24.8002 41.7563
24.8458 41.7392
24.8916 41.5817
24.9372 41.7536
24.983 42.1101
25.0286 42.3708
25.0744 42.8387
25.12 43.4303
25.1658 44.0756
25.2114 44.0681
25.2572 44.3188
25.3029 44.4334
25.3487 44.5104
25.3943 44.0906
25.4402 42.7778
25.4858 41.7378
25.5316 40.8834
25.5773 40.4665
25.6231 40.4061
25.669 40.1365
25.7147 40.006
25.7605 40.1008
25.8062 39.9241
25.8521 40.1456
25.8977 40.1029
25.9436 40.4176
25.9893 40.6604
26.0352 41.0316
26.0809 41.2044
26.1268 41.3535
26.1725 40.7844
26.2184 40.2593
26.2641 39.8321
26.31 39.6925
26.3557 39.6563
26.4017 39.5435
26.4474 40.0089
26.4933 40.3684
26.5391 40.9044
26.585 41.424
26.6308 41.7079
26.6767 41.4881
26.7225 41.4098
26.7684 40.8692
26.8142 40.2786
26.8601 39.9587
26.9059 39.4608
26.9519 38.9082
26.9979 38.7226
27.0437 38.4749
27.0896 38.3045
27.1354 38.3135
27.1814 38.1728
27.2272 37.977
27.2732 38.1352
27.3191 38.046
27.3651 38.0324
27.4109 37.9453
27.4569 38.1663
27.5027 38.2842
27.5488 38.1569
27.5946 37.9599
27.6407 37.7287
27.6865 37.5939
27.7326 37.5135
27.7784 37.5057
27.8245 37.5074
27.8703 37.6194
27.9164 37.9715
27.9623 38.0781
28.0084 38.3679
28.0543 38.8511
28.1003 38.6283
28.1462 38.3792
28.1923 38.0461
28.2384 37.557
28.2843 37.2182
28.3304 36.5906
28.3764 36.3096
28.4225 35.9376
28.4684 35.7355
28.5145 35.5548
28.5605 35.4191
28.6066 35.3149
28.6526 35.2954
28.6987 35.2906
28.7447 35.1581
28.7908 35.1355
28.8368 34.9745
28.8829 34.9715
28.9289 34.9363
28.9751 34.7711
29.0211 34.4346
29.0673 34.1989
29.1133 34.1843
29.1595 34.0143
29.2055 34.0297
29.2517 33.8496
29.2977 33.967
29.3439 33.8765
29.3899 33.9174
29.4361 33.6903
29.4824 33.6038
29.5284 33.3331
29.5746 32.978
29.6207 32.6959
29.6669 32.5797
29.713 32.6398
29.7593 32.5262
29.8053 32.4722
29.8516 32.5005
29.8977 32.2991
29.9439 32.3238
29.99 32.1414
30.0363 32.1118
30.0824 32.2292
30.1287 32.0313
30.1748 32.0599
30.2211 32.1125
30.2673 31.9301
30.3136 31.9282
30.3597 31.9697
30.406 31.8488
30.4522 31.6758
30.4985 31.6717
30.5447 31.8766
30.591 31.8229
30.6372 31.8649
30.6835 31.8651
30.7297 31.8953
30.7761 31.7879
30.8224 31.6409
30.8686 31.5562
30.915 31.221
30.9612 31.1683
31.0076 30.9551
31.0538 30.8281
31.1002 30.8438
31.1464 30.6171
31.1928 30.5864
31.2391 30.5683
31.2855 30.6115
31.3317 30.4946
31.3781 30.6029
31.4244 30.586
31.4708 30.5205
31.5171 30.4761
31.5636 30.4588
31.6098 30.0366
31.6563 29.9082
31.7026 29.9838
31.7491 29.8232
31.7953 29.8982
31.8418 29.8322
31.8881 29.9124
31.9346 29.6758
31.9809 29.8076
32.0275 29.605
32.074 29.3907
32.1203 29.2703
32.1668 29.1594
32.2132 29.0808
32.2597 29.0062
32.306 28.8661
32.3526 28.6167
32.399 28.6252
32.4455 28.3652
32.4919 28.3687
32.5385 28.3329
32.5848 28.181
32.6314 28.1281
32.6778 28.022
32.7244 28.0174
32.7708 27.846
32.8174 27.8935
32.8638 27.7035
32.9104 27.8195
32.9569 27.7686
33.0035 27.5669
33.0499 27.5774
33.0966 27.5039
33.143 27.4804
33.1897 27.4257
33.2361 27.2946
33.2828 27.1773
33.3293 27.0424
33.3759 27.0334
33.4226 26.8784
33.4691 26.7435
33.5158 26.7551
33.5623 26.5987
33.609 26.3555
33.6555 26.3196
33.7022 26.3006
33.7487 26.1559
33.7954 26.1584
33.842 25.9961
33.8887 25.9475
33.9353 26.0201
33.982 25.866
34.0286 25.6867
34.0753 25.6758
34.1219 25.6371
34.1687 25.506
34.2152 25.5361
34.262 25.436
34.3086 25.2472
34.3554 25.2118
34.402 25.1032
34.4488 25.0642
34.4954 24.947
34.5422 24.8426
34.5889 24.7922
34.6357 24.6539
34.6825 24.6434
34.7292 24.5109
34.776 24.5002
34.8227 24.4099
34.8695 24.3646
34.9162 24.344
34.9631 24.2229
35.0098 24.1743
35.0566 24.1121
35.1033 24.0391
35.1502 23.9807
35.1969 23.902
35.2438 23.9713
35.2906 23.7963
35.3375 23.7796
35.3842 23.69
35.4311 23.7057
35.4779 23.6105
35.5248 23.6777
35.5716 23.5573
35.6185 23.5093
35.6653 23.3779
35.7123 23.252
35.759 23.1531
35.806 23.1346
35.8528 22.8624
35.8998 22.9438
35.9468 22.8807
35.9936 22.8226
36.0406 22.7844
36.0874 22.7195
36.1345 22.66
36.1813 22.6026
36.2283 22.5026
36.2752 22.3334
36.3222 22.3618
36.3691 22.3691
36.4161 22.2206
36.463 22.1355
36.5101 22.1933
36.557 22.1088
36.6041 21.9615
36.651 21.9506
36.6981 21.8917
36.745 21.8172
36.7921 21.7101
36.839 21.5673
36.8861 21.583
36.9331 21.5229
36.9802 21.4216
37.0272 21.3311
37.0743 21.2683
37.1213 21.2353
37.1684 21.1702
37.2154 21.1425
37.2626 21.0758
37.3098 20.9117
37.3568 20.8741
37.404 20.831
37.451 20.7624
37.4982 20.7263
37.5452 20.641
37.5924 20.5297
37.6395 20.6327
37.6867 20.4069
37.7337 20.3292
37.781 20.3071
37.8281 20.1615
37.8753 20.256
37.9224 20.0777
37.9697 20.0725
38.0168 19.9655
38.064 19.9389
38.1111 19.8445
38.1584 19.7125
38.2056 19.7789
38.2529 19.6472
38.3 19.5855
38.3473 19.5713
38.3945 19.4186
38.4418 19.4445
38.489 19.3406
38.5363 19.307
38.5837 19.1839
38.6309 19.177
38.6782 19.1398
38.7254 19.0879
38.7728 19.0091
38.82 18.9138
38.8674 18.873
38.9146 18.8848
38.9621 18.7219
39.0093 18.6813
39.0567 18.6041
39.104 18.5871
39.1514 18.4457
39.1987 18.5442
39.2461 18.4566
39.2934 18.3251
39.3409 18.2109
39.3882 18.1572
39.4356 18.1147
39.483 18.0918
39.5304 18.0716
39.5778 18.0243
39.6253 17.9621
39.6726 17.8666
39.7201 17.8583
39.7675 17.813
39.815 17.6961
39.8624 17.6697
39.9099 17.715
39.9575 17.4779
40.0049 17.4129
40.0525 17.4407
40.0999 17.3926
40.1474 17.3041
40.1949 17.2623
40.2425 17.1204
40.2899 17.1573
40.3375 17.1085
40.385 17.0557
40.4326 17.0046
40.48 16.9543
40.5277 16.8859
40.5752 16.8077
40.6228 16.7434
40.6703 16.7416
40.718 16.6332
40.7655 16.6176
40.8132 16.5539
40.8607 16.5079
40.9084 16.5137
40.9559 16.4152
41.0036 16.3981
41.0512 16.3497
41.0989 16.3456
41.1465 16.1763
41.1942 16.1811
41.242 16.0902
41.2896 16.1028
41.3373 15.9846
41.3849 15.9299
41.4327 15.8484
41.4803 15.7845
41.5281 15.784
41.5758 15.6715
41.6236 15.655
41.6712 15.6184
41.7191 15.5267
41.7667 15.4973
41.8146 15.5092
41.8622 15.3996
41.9101 15.3662
41.9578 15.2187
42.0057 15.2263
42.0534 15.2118
42.1013 15.169
42.149 15.1336
42.1969 15.013
42.2446 15.0111
42.2925 14.9817
42.3403 14.8862
42.3882 14.8736
42.436 14.831
42.4839 14.7428
42.5319 14.6984
42.5797 14.6572
42.6277 14.6092
42.6755 14.5333
42.7235 14.4549
42.7713 14.422
42.8193 14.4006
42.8671 14.3752
42.9152 14.3197
42.963 14.198
43.0111 14.1597
43.0589 14.1579
43.107 14.0499
43.1549 14.023
43.2029 14.0248
43.2508 13.9834
43.2989 13.8966
43.3468 13.8801
43.3949 13.8094
43.4429 13.7548
43.491 13.743
43.5389 13.7015
43.5871 13.5963
43.635 13.6024
43.6832 13.5926
43.7312 13.5066
43.7793 13.4002
43.8273 13.4416
43.8755 13.3374
43.9237 13.3565
43.9717 13.3033
44.0199 13.2483
44.068 13.1971
44.1162 13.1475
44.1642 13.1043
44.2125 13.0534
44.2606 12.9771
44.3088 12.9584
44.3569 12.907
44.4052 12.8442
44.4533 12.8071
44.5016 12.7395
44.5497 12.6787
44.598 12.7279
44.6461 12.6164
44.6945 12.594
44.7426 12.5228
44.791 12.435
44.8391 12.5067
44.8875 12.3967
44.9357 12.3997
44.984 12.3455
45.0322 12.2261
45.0806 12.2045
45.1288 12.1968
45.1773 12.1348
45.2257 12.1015
45.2739 12.0773
45.3224 11.9996
45.3706 12.0151
45.4191 11.8984
45.4673 11.9045
45.5158 11.8455
45.5641 11.782
45.6126 11.7554
45.6609 11.7125
45.7094 11.6674
45.7577 11.6012
45.8063 11.5634
45.8546 11.6118
45.9031 11.5108
45.9515 11.4598
46.0001 11.4487
46.0484 11.4188
46.097 11.3442
46.1454 11.3389
46.194 11.2737
46.2424 11.1836
46.291 11.1803
46.3395 11.1111
46.3881 11.069
46.4365 11.0505
46.4852 11.0092
46.5337 10.977
46.5823 10.972
46.631 10.8816
46.6795 10.8725
46.7282 10.8363
46.7767 10.801
46.8254 10.7568
46.8739 10.6741
46.9226 10.7074
46.9712 10.6399
47.0199 10.5682
47.0685 10.5317
47.1173 10.5035
47.1658 10.4891
47.2146 10.4487
47.2632 10.3572
47.312 10.3607
47.3606 10.3197
47.4095 10.2599
47.4581 10.2568
47.5069 10.2475
47.5556 10.1945
47.6044 10.1161
47.6531 10.0892
47.702 10.0174
47.7507 10.0055
47.7996 9.97578
47.8483 9.9533
47.8972 9.87188
47.9461 9.88036
47.9948 9.83189
48.0438 9.80022
48.0925 9.771
48.1415 9.74951
48.1902 9.68221
48.2392 9.71577
48.288 9.67127
48.337 9.64288
48.3858 9.55041
48.4348 9.50103
48.4837 9.52784
48.5327 9.47393
48.5815 9.41553
48.6306 9.40487
48.6795 9.36641
48.7285 9.29592
48.7774 9.25202
48.8265 9.25341
48.8754 9.23212
48.9245 9.17571
48.9734 9.14212
49.0226 9.12851
49.0715 9.08192
49.1206 9.05536
49.1696 8.99004
49.2188 8.97151
49.2679 8.98002
49.3169 8.88366
49.3661 8.82063
49.4151 8.81381
49.4643 8.81843
49.5134 8.76054
49.5626 8.65119
49.6117 8.70801
49.6609 8.67671
49.71 8.63116
49.7592 8.6029
49.8083 8.53649
49.8576 8.49607
49.9067 8.47769
49.956 8.48106
50.0052 8.42517
50.0545 8.40055
50.1036 8.3288
50.153 8.32029
50.2022 8.31052
50.2515 8.29814
50.3007 8.21069
50.3501 8.19042
50.3993 8.18269
50.4487 8.16779
50.498 8.11666
50.5474 8.0752
50.5966 8.05254
50.6461 8.00984
50.6955 7.97628
50.7448 7.99563
50.7943 7.91546
50.8436 7.87931
50.8931 7.8829
50.9424 7.85502
50.9919 7.82609
51.0413 7.82788
51.0908 7.76234
51.1402 7.72368
51.1897 7.68541
51.2391 7.66308
51.2887 7.60887
51.3381 7.57907
51.3877 7.56256
51.4371 7.52674
51.4867 7.49162
51.5362 7.45203
51.5858 7.42241
51.6353 7.35304
51.6849 7.35836
51.7344 7.33616
51.7841 7.30308
51.8336 7.28525
51.8833 7.24087
51.9328 7.22848
51.9826 7.17353
52.0323 7.17951
52.0818 7.13317
52.1316 7.07643
52.1812 7.09887
52.231 6.99144
52.2806 7.00215
52.3304 7.00827
52.38 6.97387
52.4298 6.97156
52.4794 6.8884
52.5293 6.88962
52.5789 6.81301
52.6288 6.83076
52.6785 6.81194
52.7284 6.74029
52.7781 6.72861
52.828 6.70797
52.8777 6.65663
52.9276 6.61702
52.9774 6.61209
53.0273 6.59878
53.0771 6.57609
53.1271 6.59336
53.1769 6.54132
53.2269 6.46111
53.2767 6.43435
53.3267 6.41681
53.3765 6.36734
53.4266 6.40038
53.4766 6.34312
53.5265 6.312
53.5765 6.30055
53.6264 6.22257
53.6765 6.26322
53.7264 6.20158
53.7765 6.18504
53.8265 6.12868
53.8766 6.12111
53.9266 6.1281
53.9767 6.04913
54.0267 6.07402
54.0769 6.02922
54.1269 5.94167
54.1771 5.91203
54.2271 5.95043
54.2773 5.90597
54.3274 5.86032
54.3776 5.89304
54.4277 5.79082
54.478 5.76867
54.528 5.7727
54.5783 5.7021
54.6285 5.63224
54.6788 5.61642
54.7289 5.58062
54.7792 5.54056
54.8296 5.46254
54.8798 5.46076
54.9301 5.43076
54.9803 5.37438
55.0307 5.36126
55.0809 5.27699
55.1314 5.26875
55.1816 5.24126
55.232 5.1887
55.2823 5.10958
55.3328 5.06532
55.383 5.01225
55.4335 4.98735
55.4838 4.96464
55.5344 4.84817
55.5847 4.87622
55.6352 4.83609
55.6856 4.79506
55.7361 4.81691