File: XRD/Ni3Fe_FD0695.xy
TT I
1.27165 7.31939
1.31627 6.44076
1.36089 6.62067
1.40551 5.97093
1.45013 6.05812
1.49476 5.74604
1.53938 5.93386
1.584 5.61649
1.62863 4.97189
1.67325 4.90398
1.71787 5.50968
1.7625 5.08065
1.80712 4.97054
1.85174 4.77127
1.89636 4.48992
1.94099 4.79058
1.98562 4.34303
2.03025 4.70968
2.07487 4.84215
2.11949 5.27024
2.16411 4.71113
2.20874 9.30643
2.25338 13.1371
2.298 5.499
2.34263 5.19868
2.38725 5.53445
2.43188 5.95105
2.4765 7.01783
2.52115 6.58338
2.56577 8.1955
2.6104 8.01576
2.65503 8.03883
2.69965 8.29096
2.7443 8.19475
2.78893 8.29474
2.83356 8.37511
2.87818 9.16071
2.92281 8.81028
2.96744 8.89443
3.01209 10.4164
3.05672 11.1643
3.10135 11.932
3.14599 13.053
3.19062 13.7652
3.23527 15.4855
3.2799 15.7085
3.32454 16.7061
3.36917 17.4918
3.4138 18.8237
3.45844 19.4234
3.50309 20.3601
3.54773 21.6602
3.59237 23.367
3.637 56.6923
3.68164 40.1734
3.7263 25.5211
3.77094 26.1437
3.81558 26.4884
3.86022 27.6049
3.90486 29.0402
3.9495 29.4958
3.99416 30.6553
4.0388 31.6857
4.08344 33.2364
4.12809 34.1398
4.17273 36.2554
4.21738 39.79
4.26204 137.366
4.30669 118.246
4.35133 44.4278
4.39598 43.6709
4.44063 49.7163
4.4853 55.7686
4.52995 54.9257
4.5746 55.2029
4.61925 53.675
4.6639 55.6469
4.70855 58.1085
4.75322 61.4478
4.79788 66.9087
4.84253 68.1118
4.88719 74.2141
4.93184 76.8355
4.97652 81.4423
5.02118 87.7277
5.06583 95.8181
5.11049 107.3
5.15515 159.174
5.19981 430.235
5.24449 3039.3
5.28916 12719.1
5.33382 2642.07
5.37848 193.156
5.42315 130.794
5.46783 118.302
5.5125 110.488
5.55716 102.137
5.60183 98.7711
5.6465 96.5774
5.69117 94.6705
5.73586 93.3634
5.78053 96.1961
5.8252 95.852
5.86988 98.3105
5.91455 96.2244
5.95924 106.314
6.00392 250.724
6.0486 1031.21
6.09328 4620.58
6.13795 3131.92
6.18263 217.575
6.22733 90.9737
6.27201 80.8082
6.3167 87.0562
6.36138 75.474
6.40606 69.3343
6.45075 69.1204
6.49545 65.2171
6.54014 63.4886
6.58483 62.5326
6.62952 62.949
6.67421 76.2063
6.71892 98.433
6.76361 62.8186
6.8083 58.856
6.853 58.8002
6.89769 56.7851
6.94239 56.2057
6.98711 55.4311
7.03181 55.7492
7.07651 54.9759
7.12121 54.5206
7.16591 55.9366
7.21063 55.0837
7.25533 61.6501
7.30004 109.782
7.34475 70.9536
7.38945 55.382
7.43416 54.0041
7.47889 53.4944
7.5236 54.3511
7.56831 54.9489
7.61303 56.1137
7.65774 56.2538
7.70247 56.8203
7.74719 56.368
7.79191 56.2838
7.83663 56.9183
7.88135 57.7635
7.92607 58.683
7.97081 59.8068
8.01553 60.9979
8.06026 62.284
8.10498 64.2456
8.14971 70.8656
8.19446 70.933
8.23919 69.3436
8.28392 71.9748
8.32865 74.1874
8.37339 78.518
8.41812 84.5042
8.46288 105.844
8.50761 187.323
8.55235 411.928
8.59709 1241.23
8.64183 2220.0
8.68658 863.074
8.73134 154.45
8.77609 98.4259
8.82083 92.5479
8.86558 91.7366
8.91033 91.2472
8.9551 89.5953
8.99985 85.038
9.04461 84.2737
9.08936 84.0529
9.13412 82.7633
9.17888 82.3074
9.22365 82.4938
9.26841 82.1078
9.31318 84.176
9.35794 85.2316
9.4027 85.2666
9.44749 85.3181
9.49226 84.9231
9.53703 85.6624
9.5818 88.5148
9.62657 93.4309
9.67134 95.7487
9.71614 93.0848
9.76091 94.7653
9.80569 98.9215
9.85047 101.009
9.89525 114.08
9.94005 130.668
9.98484 199.678
10.0296 366.32
10.0744 854.352
10.1192 1796.36
10.164 1560.01
10.2088 358.105
10.2536 122.173
10.2984 110.247
10.3432 109.841
10.388 105.512
10.4328 124.564
10.4776 166.386
10.5224 293.72
10.5672 515.363
10.612 495.274
10.6568 194.095
10.7017 94.2852
10.7465 86.3412
10.7913 82.9743
10.8361 80.8448
10.8809 78.5169
10.9257 77.7358
10.9706 77.9826
11.0154 75.0177
11.0602 72.8404
11.105 71.625
11.1499 72.7153
11.1947 75.6325
11.2395 70.7036
11.2844 68.5534
11.3292 66.615
11.374 65.7995
11.4189 65.5062
11.4637 64.5364
11.5086 64.7034
11.5534 65.7054
11.5983 64.4005
11.6431 63.3762
11.688 62.5913
11.7328 62.5015
11.7777 62.6225
11.8225 62.4586
11.8674 62.4604
11.9122 62.7549
11.9571 62.724
12.002 64.4885
12.0468 69.451
12.0917 79.6505
12.1366 104.971
12.1814 156.173
12.2263 206.367
12.2712 157.921
12.3161 87.8508
12.3609 67.2102
12.4058 63.841
12.4507 64.2166
12.4956 64.2972
12.5405 64.8062
12.5853 65.4265
12.6302 68.8167
12.6751 71.8186
12.72 68.3717
12.7649 67.7526
12.8098 68.4234
12.8547 69.7428
12.8996 71.344
12.9445 72.442
12.9894 74.689
13.0343 76.3176
13.0792 80.2234
13.1242 93.4084
13.1691 114.463
13.214 153.604
13.2589 249.586
13.3038 381.692
13.3487 417.623
13.3937 248.407
13.4386 120.527
13.4835 108.669
13.5285 123.21
13.5734 164.657
13.6183 257.277
13.6633 355.003
13.7082 326.167
13.7531 171.198
13.7981 93.5567
13.843 81.298
13.888 79.5659
13.9329 77.1461
13.9779 76.0475
14.0228 74.4086
14.0678 73.0291
14.1127 72.3969
14.1577 71.9266
14.2027 71.2097
14.2476 70.2019
14.2926 70.0273
14.3376 70.4444
14.3825 69.5183
14.4275 68.7194
14.4725 68.5729
14.5175 69.1318
14.5624 68.7891
14.6074 70.0558
14.6524 70.6259
14.6974 70.6453
14.7424 74.3183
14.7874 80.4304
14.8324 90.6286
14.8774 114.356
14.9224 158.9
14.9674 212.598
15.0124 216.019
15.0574 139.881
15.1024 87.0595
15.1474 71.6685
15.1924 69.9063
15.2374 69.8219
15.2824 68.8289
15.3274 67.4279
15.3725 66.8091
15.4175 66.3452
15.4625 65.9228
15.5076 66.0171
15.5526 66.1003
15.5976 65.8813
15.6426 68.5292
15.6877 73.7215
15.7327 80.9224
15.7778 97.0735
15.8228 130.258
15.8679 175.135
15.9129 195.153
15.958 149.707
16.003 91.1484
16.0481 66.4993
16.0931 63.3363
16.1382 61.525
16.1833 60.1342
16.2283 58.7575
16.2734 58.0966
16.3185 57.8376
16.3636 57.9621
16.4086 56.9089
16.4537 55.9287
16.4988 55.2731
16.5439 55.3255
16.589 55.0123
16.6341 54.7145
16.6792 54.4357
16.7243 54.7839
16.7694 54.6488
16.8145 54.6251
16.8596 54.8699
16.9047 55.9375
16.9498 55.8699
16.9949 55.3941
17.04 55.8954
17.0851 57.1274
17.1302 58.7118
17.1754 61.98
17.2205 67.0987
17.2656 75.3369
17.3108 83.0524
17.3559 81.2194
17.401 69.9424
17.4462 61.4384
17.4913 58.9071
17.5365 58.8613
17.5815 59.2237
17.6268 59.6174
17.6718 60.2489
17.7171 60.746
17.7622 61.294
17.8074 62.5195
17.8525 65.4231
17.8977 69.1579
17.9428 74.3513
17.9881 84.0556
18.0331 102.597
18.0784 125.071
18.1237 142.103
18.1688 130.813
18.214 101.186
18.2591 86.1963
18.3044 91.3173
18.3495 101.243
18.3948 105.475
18.4399 94.4047
18.4852 75.3063
18.5303 64.9922
18.5756 61.8451
18.6207 60.9161
18.666 60.2583
18.7112 59.3451
18.7565 58.9538
18.8016 58.5416
18.8469 57.8163
18.892 57.5773
18.9374 57.1645
18.9825 57.2084
19.0278 56.8323
19.073 56.9799
19.1183 57.3496
19.1635 57.9949
19.2088 59.3493
19.254 62.3161
19.2993 67.3404
19.3447 73.1162
19.3898 76.1626
19.4352 71.3291
19.4804 62.1132
19.5257 56.162
19.5709 54.0127
19.6163 53.6897
19.6615 53.7306
19.7068 53.1809
19.752 53.2457
19.7974 53.5136
19.8426 54.4497
19.888 54.952
19.9332 56.3639
19.9786 59.3117
20.0238 62.9142
20.0692 67.7962
20.1144 69.8365
20.1598 67.5159
20.205 63.1644
20.2504 62.1666
20.2957 64.1435
20.3411 65.3448
20.3863 63.333
20.4318 57.4833
20.477 52.8909
20.5224 51.2113
20.5677 50.6429
20.6131 50.0407
20.6586 49.4061
20.7038 49.5254
20.7493 48.9119
20.7945 48.9543
20.84 48.6676
20.8853 48.5434
20.9307 48.5855
20.976 48.6625
21.0215 48.4711
21.0668 49.0333
21.1122 49.4556
21.1575 50.1759
21.203 50.8297
21.2483 51.465
21.2938 51.3899
21.3391 49.8362
21.3846 48.6927
21.4299 48.5477
21.4754 48.3376
21.5207 48.4382
21.5662 48.874
21.6116 49.3704
21.6571 49.884
21.7024 50.9224
21.7479 52.9224
21.7933 55.9545
21.8388 59.4497
21.8843 63.1229
21.9297 64.8073
21.9752 62.6772
22.0206 58.9411
22.0661 56.2295
22.1115 55.7755
22.157 55.7601
22.2024 53.843
22.248 51.1482
22.2933 49.5481
22.3389 48.9016
22.3843 48.6715
22.4299 48.4278
22.4753 48.7027
22.5208 48.5256
22.5662 48.3939
22.6118 48.8082
22.6572 48.8498
22.7028 49.3827
22.7483 49.6853
22.7939 50.5152
22.8393 52.207
22.8849 54.3799
22.9303 56.4911
22.9759 57.8891
23.0214 57.0971
23.067 53.8977
23.1126 50.6611
23.1581 48.9657
23.2037 48.6167
23.2492 48.9354
23.2948 48.7289
23.3403 49.0694
23.3859 49.9698
23.4314 51.0093
23.477 52.9703
23.5225 55.2147
23.5682 57.306
23.6137 57.8459
23.6593 55.0321
23.7048 50.9338
23.7505 47.687
23.796 46.4619
23.8417 46.0077
23.8872 45.4578
23.9329 45.162
23.9784 44.8253
24.0241 44.487
24.0697 44.4339
24.1154 44.0666
24.1609 43.8637
24.2066 43.6957
24.2522 43.7113
24.2979 43.2927
24.3434 43.3211
24.3892 43.1115
24.4349 42.9527
24.4805 42.8748
24.5262 42.892
24.5718 42.8172
24.6175 42.811
24.6631 42.6511
24.7089 42.422
24.7545 42.3087
24.8002 42.2056
24.8458 42.2087
24.8916 42.0224
24.9372 42.1966
24.983 42.5805
25.0286 42.7564
25.0744 43.2426
25.12 43.6915
25.1658 44.357
25.2114 44.6509
25.2572 44.6762
25.3029 44.8421
25.3487 44.9399
25.3943 44.4455
25.4402 43.4027
25.4858 42.1872
25.5316 41.121
25.5773 40.6942
25.6231 40.7474
25.669 40.4147
25.7147 40.558
25.7605 40.3968
25.8062 40.419
25.8521 40.5278
25.8977 40.544
25.9436 40.6899
25.9893 40.9216
26.0352 41.5207
26.0809 41.558
26.1268 41.614
26.1725 41.1562
26.2184 40.7861
26.2641 40.1918
26.31 40.1437
26.3557 40.0526
26.4017 40.0221
26.4474 40.3434
26.4933 40.7409
26.5391 41.0844
26.585 41.8781
26.6308 42.125
26.6767 42.2705
26.7225 41.8641
26.7684 41.2139
26.8142 40.6754
26.8601 40.354
26.9059 39.8293
26.9519 39.3391
26.9979 39.0432
27.0437 38.7064
27.0896 38.6834
27.1354 38.833
27.1814 38.5799
27.2272 38.477
27.2732 38.5948
27.3191 38.2143
27.3651 38.3913
27.4109 38.3263
27.4569 38.5019
27.5027 38.6451
27.5488 38.587
27.5946 38.2683
27.6407 38.0722
27.6865 38.0058
27.7326 37.7171
27.7784 37.7556
27.8245 37.7631
27.8703 37.9362
27.9164 38.2628
27.9623 38.4089
28.0084 38.7132
28.0543 39.1755
28.1003 38.8508
28.1462 38.6275
28.1923 38.3371
28.2384 37.8245
28.2843 37.5937
28.3304 37.0009
28.3764 36.6231
28.4225 36.2279
28.4684 36.1846
28.5145 35.8926
28.5605 35.7956
28.6066 35.5417
28.6526 35.5548
28.6987 35.6287
28.7447 35.5291
28.7908 35.3966
28.8368 35.3482
28.8829 35.3051
28.9289 35.2859
28.9751 35.0833
29.0211 34.8942
29.0673 34.5285
29.1133 34.528
29.1595 34.282
29.2055 34.302
29.2517 34.2405
29.2977 34.1205
29.3439 34.2373
29.3899 34.3294
29.4361 34.1235
29.4824 33.8056
29.5284 33.612
29.5746 33.2908
29.6207 33.1472
29.6669 33.0384
29.713 32.9712
29.7593 32.8179
29.8053 32.835
29.8516 32.6653
29.8977 32.7817
29.9439 32.4763
29.99 32.5575
30.0363 32.3806
30.0824 32.5538
30.1287 32.3823
30.1748 32.4573
30.2211 32.3644
30.2673 32.1929
30.3136 32.3219
30.3597 32.1601
30.406 32.1264
30.4522 32.0328
30.4985 32.0263
30.5447 32.1159
30.591 32.0643
30.6372 32.1467
30.6835 32.078
30.7297 32.1313
30.7761 32.1819
30.8224 32.0402
30.8686 31.8102
30.915 31.6448
30.9612 31.4554
31.0076 31.1759
31.0538 31.1358
31.1002 31.0943
31.1464 30.8978
31.1928 30.939
31.2391 30.9298
31.2855 30.8817
31.3317 30.8824
31.3781 30.8957
31.4244 30.8601
31.4708 30.8258
31.5171 30.785
31.5636 30.6828
31.6098 30.3393
31.6563 30.2739
31.7026 30.1596
31.7491 30.0229
31.7953 30.174
31.8418 30.1046
31.8881 30.1738
31.9346 30.1447
31.9809 29.9983
32.0275 29.7944
32.074 29.7192
32.1203 29.5356
32.1668 29.5127
32.2132 29.2678
32.2597 29.3032
32.306 29.087
32.3526 28.9627
32.399 28.8482
32.4455 28.777
32.4919 28.6049
32.5385 28.6127
32.5848 28.3859
32.6314 28.4686
32.6778 28.3585
32.7244 28.2954
32.7708 28.0683
32.8174 28.104
32.8638 28.003
32.9104 28.0588
32.9569 27.9603
33.0035 27.7856
33.0499 27.7627
33.0966 27.8345
33.143 27.6939
33.1897 27.6531
33.2361 27.5636
33.2828 27.5165
33.3293 27.2747
33.3759 27.311
33.4226 27.1433
33.4691 27.0709
33.5158 26.9727
33.5623 26.8656
33.609 26.7214
33.6555 26.6781
33.7022 26.5146
33.7487 26.4451
33.7954 26.4422
33.842 26.2765
33.8887 26.316
33.9353 26.2181
33.982 26.1985
34.0286 26.0017
34.0753 25.8605
34.1219 25.9218
34.1687 25.7552
34.2152 25.7106
34.262 25.5153
34.3086 25.5327
34.3554 25.478
34.402 25.2906
34.4488 25.2521
34.4954 25.2817
34.5422 25.1056
34.5889 25.0901
34.6357 24.9482
34.6825 24.807
34.7292 24.8254
34.776 24.7255
34.8227 24.6153
34.8695 24.5909
34.9162 24.4596
34.9631 24.4132
35.0098 24.4242
35.0566 24.29
35.1033 24.2609
35.1502 24.2384
35.1969 24.1255
35.2438 24.0589
35.2906 24.0427
35.3375 23.9139
35.3842 23.9909
35.4311 23.9788
35.4779 23.9138
35.5248 23.802
35.5716 23.7606
35.6185 23.6853
35.6653 23.5861
35.7123 23.4544
35.759 23.3997
35.806 23.2203
35.8528 23.1123
35.8998 23.1826
35.9468 23.0953
35.9936 23.0028
36.0406 22.9015
36.0874 22.9892
36.1345 22.8463
36.1813 22.8845
36.2283 22.6822
36.2752 22.5718
36.3222 22.5768
36.3691 22.4889
36.4161 22.3656
36.463 22.3956
36.5101 22.3686
36.557 22.2762
36.6041 22.1585
36.651 22.1307
36.6981 22.0746
36.745 21.9956
36.7921 21.9334
36.839 21.7444
36.8861 21.8922
36.9331 21.7074
36.9802 21.6241
37.0272 21.6066
37.0743 21.4209
37.1213 21.5543
37.1684 21.375
37.2154 21.3921
37.2626 21.2503
37.3098 21.2036
37.3568 21.1551
37.404 21.0394
37.451 20.9667
37.4982 20.9143
37.5452 20.8255
37.5924 20.7266
37.6395 20.817
37.6867 20.7433
37.7337 20.5437
37.781 20.4854
37.8281 20.4149
37.8753 20.2524
37.9224 20.287
37.9697 20.2286
38.0168 20.1888
38.064 20.1161
38.1111 20.0476
38.1584 19.9936
38.2056 19.8986
38.2529 19.8768
38.3 19.7639
38.3473 19.7916
38.3945 19.6729
38.4418 19.5985
38.489 19.5653
38.5363 19.4612
38.5837 19.3659
38.6309 19.3682
38.6782 19.2906
38.7254 19.2482
38.7728 19.1789
38.82 19.1393
38.8674 19.0877
38.9146 18.9974
38.9621 18.97
39.0093 18.9468
39.0567 18.8786
39.104 18.7997
39.1514 18.6814
39.1987 18.6256
39.2461 18.6286
39.2934 18.568
39.3409 18.4158
39.3882 18.3539
39.4356 18.3183
39.483 18.2056
39.5304 18.1719
39.5778 18.1796
39.6253 18.0865
39.6726 18.0311
39.7201 17.9677
39.7675 17.9667
39.815 17.8946
39.8624 17.8829
39.9099 17.8304
39.9575 17.7672
40.0049 17.6888
40.0525 17.6099
40.0999 17.5028
40.1474 17.505
40.1949 17.4001
40.2425 17.3683
40.2899 17.2838
40.3375 17.2517
40.385 17.1953
40.4326 17.1741
40.48 17.1315
40.5277 17.0493
40.5752 17.0409
40.6228 16.8991
40.6703 16.8752
40.718 16.777
40.7655 16.7906
40.8132 16.7207
40.8607 16.723
40.9084 16.6773
40.9559 16.5536
41.0036 16.5373
41.0512 16.4921
41.0989 16.4371
41.1465 16.3366
41.1942 16.3648
41.242 16.2263
41.2896 16.1764
41.3373 16.1624
41.3849 16.1171
41.4327 16.0424
41.4803 15.9499
41.5281 15.9805
41.5758 15.82
41.6236 15.7925
41.6712 15.7874
41.7191 15.7344
41.7667 15.6818
41.8146 15.595
41.8622 15.4813
41.9101 15.4911
41.9578 15.3774
42.0057 15.3813
42.0534 15.3618
42.1013 15.2951
42.149 15.2264
42.1969 15.1596
42.2446 15.1167
42.2925 15.0709
42.3403 15.0426
42.3882 15.0527
42.436 14.9683
42.4839 14.8627
42.5319 14.8641
42.5797 14.7126
42.6277 14.7173
42.6755 14.6882
42.7235 14.5924
42.7713 14.6313
42.8193 14.5813
42.8671 14.507
42.9152 14.4836
42.963 14.4129
43.0111 14.3587
43.0589 14.2764
43.107 14.2253
43.1549 14.2191
43.2029 14.1496
43.2508 14.0971
43.2989 14.0359
43.3468 14.0448
43.3949 13.9678
43.4429 13.9234
43.491 13.8619
43.5389 13.8306
43.5871 13.7794
43.635 13.6597
43.6832 13.7191
43.7312 13.6
43.7793 13.5187
43.8273 13.5225
43.8755 13.4135
43.9237 13.4001
43.9717 13.3843
44.0199 13.326
44.068 13.2838
44.1162 13.2817
44.1642 13.218
44.2125 13.164
44.2606 13.0841
44.3088 13.0067
44.3569 13.0241
44.4052 13.0193
44.4533 12.9604
44.5016 12.9153
44.5497 12.8193
44.598 12.7603
44.6461 12.7268
44.6945 12.6811
44.7426 12.6511
44.791 12.6469
44.8391 12.5607
44.8875 12.5416
44.9357 12.4324
44.984 12.4737
45.0322 12.3849
45.0806 12.3707
45.1288 12.3205
45.1773 12.2772
45.2257 12.2172
45.2739 12.2157
45.3224 12.1524
45.3706 12.0915
45.4191 12.0092
45.4673 12.0217
45.5158 11.9692
45.5641 11.9035
45.6126 11.9014
45.6609 11.8342
45.7094 11.8316
45.7577 11.7534
45.8063 11.7414
45.8546 11.6817
45.9031 11.6322
45.9515 11.586
46.0001 11.5245
46.0484 11.4766
46.097 11.4794
46.1454 11.3925
46.194 11.4037
46.2424 11.3611
46.291 11.308
46.3395 11.2442
46.3881 11.2145
46.4365 11.1997
46.4852 11.0965
46.5337 11.0612
46.5823 11.0841
46.631 10.9943
46.6795 10.9793
46.7282 10.9165
46.7767 10.9112
46.8254 10.8304
46.8739 10.794
46.9226 10.7273
46.9712 10.749
47.0199 10.6582
47.0685 10.6597
47.1173 10.6321
47.1658 10.5736
47.2146 10.5428
47.2632 10.458
47.312 10.481
47.3606 10.4182
47.4095 10.386
47.4581 10.3152
47.5069 10.3215
47.5556 10.2679
47.6044 10.2169
47.6531 10.1661
47.702 10.127
47.7507 10.1054
47.7996 10.0613
47.8483 10.0307
47.8972 10.0253
47.9461 9.96
47.9948 9.91934
48.0438 9.9031
48.0925 9.87073
48.1415 9.84133
48.1902 9.79428
48.2392 9.75335
48.288 9.74136
48.337 9.7067
48.3858 9.67527
48.4348 9.62519
48.4837 9.5861
48.5327 9.55091
48.5815 9.51413
48.6306 9.46591
48.6795 9.44401
48.7285 9.42776
48.7774 9.36893
48.8265 9.35904
48.8754 9.30413
48.9245 9.27407
48.9734 9.24193
49.0226 9.21905
49.0715 9.18038
49.1206 9.15137
49.1696 9.09444
49.2188 9.05241
49.2679 9.01153
49.3169 8.98149
49.3661 8.91025
49.4151 8.89201
49.4643 8.87196
49.5134 8.84906
49.5626 8.76425
49.6117 8.79651
49.6609 8.73599
49.71 8.72319
49.7592 8.68648
49.8083 8.63599
49.8576 8.63213
49.9067 8.569
49.956 8.53985
50.0052 8.49862
50.0545 8.46666
50.1036 8.42873
50.153 8.43162
50.2022 8.37403
50.2515 8.34574
50.3007 8.32006
50.3501 8.29675
50.3993 8.23655
50.4487 8.23429
50.498 8.17718
50.5474 8.18867
50.5966 8.15407
50.6461 8.0928
50.6955 8.07298
50.7448 8.02536
50.7943 8.01481
50.8436 7.94542
50.8931 7.92249
50.9424 7.89315
50.9919 7.89111
51.0413 7.84852
51.0908 7.81012
51.1402 7.79383
51.1897 7.7399
51.2391 7.71267
51.2887 7.71035
51.3381 7.64062
51.3877 7.65369
51.4371 7.58172
51.4867 7.56582
51.5362 7.55523
51.5858 7.51873
51.6353 7.41094
51.6849 7.43174
51.7344 7.45208
51.7841 7.36978
51.8336 7.36267
51.8833 7.34654
51.9328 7.29191
51.9826 7.2548
52.0323 7.21759
52.0818 7.20636
52.1316 7.14123
52.1812 7.12534
52.231 7.10953
52.2806 7.08209
52.3304 7.04058
52.38 7.04185
52.4298 6.98151
52.4794 6.96936
52.5293 6.93671
52.5789 6.90191
52.6288 6.87265
52.6785 6.8361
52.7284 6.83262
52.7781 6.78118
52.828 6.76215
52.8777 6.73362
52.9276 6.70253
52.9774 6.6704
53.0273 6.67859
53.0771 6.58484
53.1271 6.57132
53.1769 6.5252
53.2269 6.53914
53.2767 6.48032
53.3267 6.4823
53.3765 6.46332
53.4266 6.43104
53.4766 6.39485
53.5265 6.35642
53.5765 6.38279
53.6264 6.31533
53.6765 6.31858
53.7264 6.26642
53.7765 6.24723
53.8265 6.2176
53.8766 6.17072
53.9266 6.2019
53.9767 6.15799
54.0267 6.10834
54.0769 6.06258
54.1269 6.02687
54.1771 5.99416
54.2271 5.97647
54.2773 5.94665
54.3274 5.93922
54.3776 5.90865
54.4277 5.86457
54.478 5.81557
54.528 5.79614
54.5783 5.7625
54.6285 5.71998
54.6788 5.69737
54.7289 5.61591
54.7792 5.5644
54.8296 5.5067
54.8798 5.51256
54.9301 5.48847
54.9803 5.46431
55.0307 5.43401
55.0809 5.33369
55.1314 5.34862
55.1816 5.26854
55.232 5.24772
55.2823 5.21429
55.3328 5.13573
55.383 5.10729
55.4335 5.07733
55.4838 4.96932
55.5344 4.93415
55.5847 4.93697
55.6352 4.86077
55.6856 4.84492
55.7361 4.81831