File: XRD/Ni3Fe_FD1056.xy
TT I
1.27165 7.0956
1.31627 6.46909
1.36089 5.97085
1.40551 5.83794
1.45013 5.96189
1.49476 5.86254
1.53938 5.99036
1.584 4.97141
1.62863 5.34669
1.67325 5.02054
1.71787 4.31628
1.7625 4.72162
1.80712 4.24959
1.85174 4.25792
1.89636 4.74369
1.94099 4.57271
1.98562 4.23325
2.03025 3.84313
2.07487 4.70587
2.11949 5.13307
2.16411 4.26981
2.20874 5.02897
2.25338 6.71216
2.298 4.98264
2.34263 5.5725
2.38725 6.13374
2.43188 6.06481
2.4765 7.02486
2.52115 6.69329
2.56577 8.29072
2.6104 8.81638
2.65503 8.29902
2.69965 9.30979
2.7443 8.30024
2.78893 8.19251
2.83356 8.53366
2.87818 9.09908
2.92281 8.966
2.96744 9.77284
3.01209 10.3596
3.05672 10.8179
3.10135 12.0504
3.14599 12.9216
3.19062 14.3995
3.23527 14.7072
3.2799 15.2322
3.32454 16.3405
3.36917 17.4334
3.4138 18.2205
3.45844 18.2822
3.50309 19.5292
3.54773 20.5483
3.59237 20.8065
3.637 27.4632
3.68164 26.7733
3.7263 23.4002
3.77094 24.6139
3.81558 25.7173
3.86022 26.2291
3.90486 27.4019
3.9495 28.317
3.99416 29.2468
4.0388 30.2681
4.08344 31.8787
4.12809 32.3093
4.17273 33.7909
4.21738 35.2789
4.26204 52.0929
4.30669 55.8533
4.35133 40.6364
4.39598 41.4049
4.44063 43.3152
4.4853 46.6109
4.52995 46.5014
4.5746 48.4178
4.61925 50.6333
4.6639 53.0217
4.70855 55.3446
4.75322 58.324
4.79788 61.0368
4.84253 64.0518
4.88719 68.3462
4.93184 71.7959
4.97652 77.4886
5.02118 82.9861
5.06583 89.2027
5.11049 98.1818
5.15515 118.216
5.19981 232.47
5.24449 2506.44
5.28916 13520.7
5.33382 3306.64
5.37848 211.554
5.42315 123.892
5.46783 108.139
5.5125 101.094
5.55716 97.4461
5.60183 93.1856
5.6465 91.3697
5.69117 90.0981
5.73586 87.9045
5.78053 87.2035
5.8252 86.1888
5.86988 86.9833
5.91455 89.1469
5.95924 95.3867
6.00392 163.89
6.0486 895.493
6.09328 4550.53
6.13795 3606.74
6.18263 237.56
6.22733 87.3678
6.27201 76.1388
6.3167 72.8964
6.36138 68.7261
6.40606 64.9645
6.45075 63.6089
6.49545 61.9077
6.54014 60.209
6.58483 58.9734
6.62952 58.0288
6.67421 58.5889
6.71892 64.5906
6.76361 56.9209
6.8083 54.5717
6.853 53.8428
6.89769 53.2045
6.94239 53.0389
6.98711 52.5806
7.03181 52.0408
7.07651 51.9889
7.12121 51.8309
7.16591 51.3462
7.21063 51.2568
7.25533 51.5611
7.30004 61.5232
7.34475 55.9733
7.38945 51.9127
7.43416 50.9849
7.47889 51.5409
7.5236 59.0496
7.56831 73.2759
7.61303 56.7834
7.65774 52.8799
7.70247 53.2592
7.74719 53.1719
7.79191 53.8686
7.83663 54.2429
7.88135 54.9669
7.92607 55.6268
7.97081 56.7755
8.01553 57.6189
8.06026 58.904
8.10498 60.3358
8.14971 62.277
8.19446 63.8107
8.23919 65.7672
8.28392 68.3977
8.32865 70.5746
8.37339 74.4647
8.41812 77.7677
8.46288 86.5657
8.50761 128.75
8.55235 374.196
8.59709 1093.17
8.64183 2278.71
8.68658 1100.08
8.73134 173.56
8.77609 94.7389
8.82083 88.2981
8.86558 85.6356
8.91033 83.8655
8.9551 82.553
8.99985 81.0209
9.04461 80.2249
9.08936 79.3739
9.13412 79.1145
9.17888 79.5294
9.22365 91.1338
9.26841 113.178
9.31318 89.1852
9.35794 80.633
9.4027 80.1348
9.44749 80.4464
9.49226 80.9432
9.53703 81.8814
9.5818 83.2492
9.62657 84.5044
9.67134 86.4953
9.71614 87.5712
9.76091 89.654
9.80569 92.0282
9.85047 94.1525
9.89525 99.1645
9.94005 106.614
9.98484 147.585
10.0296 351.18
10.0744 776.755
10.1192 1765.39
10.164 1678.53
10.2088 438.664
10.2536 124.964
10.2984 102.975
10.3432 101.129
10.388 98.2453
10.4328 107.695
10.4776 162.028
10.5224 272.139
10.5672 507.439
10.612 568.114
10.6568 228.936
10.7017 103.638
10.7465 86.3492
10.7913 79.8881
10.8361 77.6464
10.8809 75.7298
10.9257 73.4603
10.9706 72.6859
11.0154 70.6731
11.0602 69.5155
11.105 67.9563
11.1499 67.2507
11.1947 67.5267
11.2395 65.73
11.2844 64.9755
11.3292 64.0783
11.374 63.2442
11.4189 62.6102
11.4637 61.8608
11.5086 61.3127
11.5534 61.1642
11.5983 60.835
11.6431 60.5066
11.688 60.0451
11.7328 60.2392
11.7777 60.0605
11.8225 59.7395
11.8674 59.8597
11.9122 61.8791
11.9571 68.1377
12.002 66.5685
12.0468 64.4169
12.0917 76.9103
12.1366 99.0628
12.1814 146.213
12.2263 202.423
12.2712 174.001
12.3161 98.2158
12.3609 64.6647
12.4058 61.1494
12.4507 61.5523
12.4956 61.4277
12.5405 61.3589
12.5853 61.8692
12.6302 62.6812
12.6751 64.3484
12.72 63.9443
12.7649 64.6984
12.8098 65.251
12.8547 66.5256
12.8996 67.9845
12.9445 69.4422
12.9894 71.0794
13.0343 72.9508
13.0792 76.8396
13.1242 82.4769
13.1691 108.171
13.214 148.427
13.2589 229.59
13.3038 367.878
13.3487 446.46
13.3937 279.217
13.4386 127.35
13.4835 99.1383
13.5285 120.283
13.5734 156.834
13.6183 237.493
13.6633 356.591
13.7082 359.331
13.7531 205.724
13.7981 100.271
13.843 79.6942
13.888 77.0761
13.9329 74.6488
13.9779 73.5689
14.0228 72.1832
14.0678 71.0906
14.1127 71.7453
14.1577 75.5321
14.2027 73.5116
14.2476 68.829
14.2926 67.6496
14.3376 67.3872
14.3825 66.712
14.4275 66.3317
14.4725 66.0762
14.5175 66.5244
14.5624 66.3678
14.6074 66.9759
14.6524 67.2594
14.6974 67.6731
14.7424 68.6794
14.7874 74.4914
14.8324 89.0405
14.8774 110.57
14.9224 149.214
14.9674 208.446
15.0124 227.654
15.0574 160.566
15.1024 93.8916
15.1474 70.9585
15.1924 67.9828
15.2374 66.7545
15.2824 65.7373
15.3274 65.0915
15.3725 64.5363
15.4175 63.9477
15.4625 63.7058
15.5076 63.6037
15.5526 63.4488
15.5976 63.5907
15.6426 63.9932
15.6877 68.6842
15.7327 79.4757
15.7778 94.7036
15.8228 122.231
15.8679 169.488
15.9129 202.93
15.958 168.581
16.003 103.839
16.0481 69.4256
16.0931 62.9195
16.1382 59.8317
16.1833 58.4381
16.2283 57.0455
16.2734 56.3528
16.3185 55.6481
16.3636 55.2909
16.4086 54.5086
16.4537 53.9962
16.4988 53.3987
16.5439 53.4773
16.589 53.0978
16.6341 53.2047
16.6792 52.633
16.7243 52.9216
16.7694 52.7376
16.8145 52.7178
16.8596 53.0051
16.9047 53.5652
16.9498 54.3485
16.9949 53.9683
17.04 54.0717
17.0851 54.7625
17.1302 56.993
17.1754 59.9862
17.2205 65.0171
17.2656 72.4368
17.3108 81.6856
17.3559 82.4829
17.401 72.1423
17.4462 61.6708
17.4913 57.5739
17.5365 57.2458
17.5815 57.3818
17.6268 57.7634
17.6718 58.4823
17.7171 58.7298
17.7622 60.0067
17.8074 60.8143
17.8525 61.8415
17.8977 66.7453
17.9428 73.5459
17.9881 81.9476
18.0331 97.8391
18.0784 121.492
18.1237 142.087
18.1688 137.455
18.214 108.493
18.2591 88.1507
18.3044 88.9977
18.3495 99.2891
18.3948 107.773
18.4399 98.6212
18.4852 79.117
18.5303 65.8923
18.5756 61.3332
18.6207 60.198
18.666 58.9509
18.7112 58.2099
18.7565 57.6134
18.8016 57.268
18.8469 56.5138
18.892 56.3445
18.9374 55.7392
18.9825 55.4747
19.0278 55.0684
19.073 55.0274
19.1183 55.2536
19.1635 56.3515
19.2088 58.0431
19.254 60.6122
19.2993 65.5336
19.3447 72.2004
19.3898 76.1253
19.4352 72.1598
19.4804 63.5224
19.5257 56.0655
19.5709 52.9922
19.6163 52.5392
19.6615 52.1675
19.7068 51.8687
19.752 51.8907
19.7974 51.9832
19.8426 52.8483
19.888 53.6498
19.9332 55.168
19.9786 57.5819
20.0238 60.9096
20.0692 66.6268
20.1144 70.4341
20.1598 69.3398
20.205 64.222
20.2504 61.9606
20.2957 63.3646
20.3411 65.6154
20.3863 64.1078
20.4318 58.1785
20.477 52.7748
20.5224 50.1827
20.5677 49.4046
20.6131 48.9994
20.6586 48.3534
20.7038 48.2911
20.7493 48.1129
20.7945 48.1112
20.84 48.0242
20.8853 47.5407
20.9307 47.4075
20.976 47.3919
21.0215 47.4016
21.0668 47.8376
21.1122 48.2324
21.1575 48.7777
21.203 49.6779
21.2483 50.2908
21.2938 50.4779
21.3391 49.189
21.3846 48.0111
21.4299 47.31
21.4754 47.2698
21.5207 47.4473
21.5662 47.5219
21.6116 47.9162
21.6571 48.8141
21.7024 50.1781
21.7479 51.683
21.7933 54.1574
21.8388 58.1357
21.8843 62.8085
21.9297 65.2707
21.9752 63.9161
22.0206 59.8048
22.0661 56.4174
22.1115 55.9032
22.157 55.9596
22.2024 54.3488
22.248 51.1638
22.2933 49.2205
22.3389 48.0296
22.3843 47.6847
22.4299 47.4835
22.4753 47.5524
22.5208 47.4922
22.5662 47.4938
22.6118 47.4954
22.6572 47.752
22.7028 48.3168
22.7483 49.0877
22.7939 49.882
22.8393 51.1566
22.8849 53.3464
22.9303 55.6462
22.9759 57.8005
23.0214 57.5344
23.067 54.4775
23.1126 50.9282
23.1581 48.6739
23.2037 47.9403
23.2492 47.7727
23.2948 47.9651
23.3403 48.4906
23.3859 49.3489
23.4314 50.3388
23.477 52.0987
23.5225 54.515
23.5682 57.1149
23.6137 58.5302
23.6593 56.3194
23.7048 52.0048
23.7505 48.2577
23.796 45.9742
23.8417 45.0122
23.8872 44.6823
23.9329 44.3565
23.9784 43.9672
24.0241 43.7563
24.0697 43.4726
24.1154 43.1589
24.1609 43.0685
24.2066 42.7848
24.2522 42.7137
24.2979 42.5461
24.3434 42.2808
24.3892 42.0708
24.4349 42.1802
24.4805 42.0913
24.5262 42.2151
24.5718 42.1007
24.6175 42.0756
24.6631 42.1834
24.7089 41.5365
24.7545 41.3635
24.8002 41.1875
24.8458 41.2801
24.8916 41.2406
24.9372 41.3923
24.983 41.633
25.0286 42.0211
25.0744 42.5186
25.12 43.2771
25.1658 43.7326
25.2114 44.3441
25.2572 44.3446
25.3029 44.5275
25.3487 44.673
25.3943 44.4228
25.4402 43.2227
25.4858 42.048
25.5316 40.7984
25.5773 40.2419
25.6231 40.0994
25.669 39.8343
25.7147 39.7318
25.7605 39.6714
25.8062 39.6853
25.8521 39.9714
25.8977 39.9454
25.9436 40.0153
25.9893 40.3255
26.0352 40.8362
26.0809 41.0629
26.1268 41.2492
26.1725 40.9799
26.2184 40.2159
26.2641 39.6493
26.31 39.357
26.3557 39.6207
26.4017 39.4257
26.4474 39.7986
26.4933 40.1201
26.5391 40.6883
26.585 41.2553
26.6308 41.8658
26.6767 41.9111
26.7225 41.9435
26.7684 41.2875
26.8142 40.5628
26.8601 40.0265
26.9059 39.6905
26.9519 39.1645
26.9979 38.8501
27.0437 38.301
27.0896 38.091
27.1354 38.2156
27.1814 38.0158
27.2272 37.859
27.2732 37.8957
27.3191 37.7513
27.3651 37.8358
27.4109 37.9212
27.4569 37.9973
27.5027 38.0659
27.5488 38.0665
27.5946 37.9427
27.6407 37.6733
27.6865 37.4709
27.7326 37.2949
27.7784 37.288
27.8245 37.2631
27.8703 37.3866
27.9164 37.748
27.9623 38.0515
28.0084 38.5098
28.0543 39.0014
28.1003 38.7755
28.1462 38.6376
28.1923 38.3033
28.2384 37.7085
28.2843 37.3344
28.3304 36.887
28.3764 36.2639
28.4225 35.9507
28.4684 35.6536
28.5145 35.4679
28.5605 35.3056
28.6066 35.0998
28.6526 35.1002
28.6987 35.0029
28.7447 34.8104
28.7908 34.7332
28.8368 34.8447
28.8829 34.8311
28.9289 34.7514
28.9751 34.5669
29.0211 34.4066
29.0673 34.2049
29.1133 34.0439
29.1595 33.828
29.2055 33.8619
29.2517 33.777
29.2977 33.7335
29.3439 33.8289
29.3899 33.6304
29.4361 33.765
29.4824 33.4741
29.5284 33.2452
29.5746 32.865
29.6207 32.5903
29.6669 32.624
29.713 32.3624
29.7593 32.2463
29.8053 32.4031
29.8516 32.1959
29.8977 32.2308
29.9439 32.1083
29.99 32.1062
30.0363 31.8501
30.0824 32.0026
30.1287 31.8811
30.1748 31.9587
30.2211 31.9065
30.2673 31.6425
30.3136 31.8316
30.3597 31.6999
30.406 31.7009
30.4522 31.5656
30.4985 31.5938
30.5447 31.6819
30.591 31.5806
30.6372 31.8199
30.6835 31.6995
30.7297 31.9183
30.7761 31.8521
30.8224 31.7336
30.8686 31.5752
30.915 31.3508
30.9612 31.1092
31.0076 30.9783
31.0538 30.6861
31.1002 30.7041
31.1464 30.5465
31.1928 30.4273
31.2391 30.5139
31.2855 30.4522
31.3317 30.4714
31.3781 30.5388
31.4244 30.4301
31.4708 30.4234
31.5171 30.4269
31.5636 30.4738
31.6098 30.1195
31.6563 30.0047
31.7026 29.8639
31.7491 29.7069
31.7953 29.7643
31.8418 29.721
31.8881 29.8575
31.9346 29.7303
31.9809 29.6158
32.0275 29.5757
32.074 29.4975
32.1203 29.2579
32.1668 29.1384
32.2132 29.0718
32.2597 28.8503
32.306 28.8258
32.3526 28.5506
32.399 28.5688
32.4455 28.3334
32.4919 28.2935
32.5385 28.163
32.5848 27.9737
32.6314 27.9611
32.6778 27.9318
32.7244 27.8215
32.7708 27.7704
32.8174 27.679
32.8638 27.5788
32.9104 27.6346
32.9569 27.5728
33.0035 27.5389
33.0499 27.4926
33.0966 27.4519
33.143 27.4369
33.1897 27.3298
33.2361 27.2867
33.2828 27.2094
33.3293 27.0436
33.3759 27.1171
33.4226 26.8057
33.4691 26.7321
33.5158 26.693
33.5623 26.4779
33.609 26.3699
33.6555 26.2897
33.7022 26.228
33.7487 26.1009
33.7954 26.013
33.842 25.9987
33.8887 25.9975
33.9353 25.9296
33.982 25.6861
34.0286 25.602
34.0753 25.6127
34.1219 25.4985
34.1687 25.3945
34.2152 25.4434
34.262 25.2434
34.3086 25.1801
34.3554 25.1822
34.402 25.0675
34.4488 24.9622
34.4954 24.8415
34.5422 24.8577
34.5889 24.6697
34.6357 24.6652
34.6825 24.6037
34.7292 24.3955
34.776 24.3654
34.8227 24.3565
34.8695 24.2334
34.9162 24.2355
34.9631 24.1308
35.0098 24.1755
35.0566 23.9369
35.1033 23.938
35.1502 23.9927
35.1969 23.8964
35.2438 23.8233
35.2906 23.7672
35.3375 23.7286
35.3842 23.6483
35.4311 23.6807
35.4779 23.5887
35.5248 23.5622
35.5716 23.4561
35.6185 23.3448
35.6653 23.3184
35.7123 23.2235
35.759 23.1472
35.806 23.048
35.8528 22.9741
35.8998 22.8545
35.9468 22.7707
35.9936 22.7656
36.0406 22.7044
36.0874 22.7084
36.1345 22.61
36.1813 22.5121
36.2283 22.4355
36.2752 22.2619
36.3222 22.3274
36.3691 22.2027
36.4161 22.0525
36.463 22.1164
36.5101 22.1249
36.557 22.0154
36.6041 21.8849
36.651 21.8582
36.6981 21.8675
36.745 21.7617
36.7921 21.7308
36.839 21.6267
36.8861 21.4695
36.9331 21.4365
36.9802 21.3832
37.0272 21.2508
37.0743 21.2038
37.1213 21.1468
37.1684 21.1364
37.2154 21.0157
37.2626 20.9213
37.3098 20.9323
37.3568 20.7695
37.404 20.7506
37.451 20.6551
37.4982 20.6377
37.5452 20.5262
37.5924 20.4647
37.6395 20.5296
37.6867 20.4498
37.7337 20.3241
37.781 20.217
37.8281 20.1798
37.8753 20.0493
37.9224 20.0885
37.9697 19.9207
38.0168 19.9384
38.064 19.8881
38.1111 19.8281
38.1584 19.6845
38.2056 19.6655
38.2529 19.6632
38.3 19.4976
38.3473 19.5483
38.3945 19.4138
38.4418 19.3851
38.489 19.3648
38.5363 19.2229
38.5837 19.1808
38.6309 19.1772
38.6782 19.0505
38.7254 18.9373
38.7728 18.9078
38.82 18.845
38.8674 18.7804
38.9146 18.685
38.9621 18.6641
39.0093 18.6461
39.0567 18.5857
39.104 18.521
39.1514 18.4694
39.1987 18.3581
39.2461 18.2996
39.2934 18.2582
39.3409 18.173
39.3882 18.1246
39.4356 18.106
39.483 18.0205
39.5304 17.9585
39.5778 17.994
39.6253 17.939
39.6726 17.8082
39.7201 17.7955
39.7675 17.7587
39.815 17.72
39.8624 17.6201
39.9099 17.6171
39.9575 17.477
40.0049 17.5107
40.0525 17.4243
40.0999 17.3174
40.1474 17.2798
40.1949 17.2526
40.2425 17.1394
40.2899 17.1588
40.3375 17.0306
40.385 17.0153
40.4326 16.948
40.48 16.8792
40.5277 16.8609
40.5752 16.7672
40.6228 16.7326
40.6703 16.6901
40.718 16.6176
40.7655 16.5818
40.8132 16.4906
40.8607 16.4891
40.9084 16.4174
40.9559 16.3282
41.0036 16.3673
41.0512 16.2758
41.0989 16.1708
41.1465 16.1629
41.1942 16.0965
41.242 15.9857
41.2896 15.9671
41.3373 15.9161
41.3849 15.8826
41.4327 15.808
41.4803 15.7652
41.5281 15.7418
41.5758 15.6933
41.6236 15.5645
41.6712 15.5288
41.7191 15.5116
41.7667 15.393
41.8146 15.4721
41.8622 15.3322
41.9101 15.3204
41.9578 15.1387
42.0057 15.2156
42.0534 15.1537
42.1013 15.1252
42.149 15.0407
42.1969 14.9563
42.2446 14.9579
42.2925 14.9556
42.3403 14.8581
42.3882 14.8203
42.436 14.7741
42.4839 14.687
42.5319 14.6406
42.5797 14.5895
42.6277 14.5592
42.6755 14.5582
42.7235 14.455
42.7713 14.4026
42.8193 14.3542
42.8671 14.2483
42.9152 14.2569
42.963 14.2377
43.0111 14.1602
43.0589 14.1045
43.107 14.0664
43.1549 14.007
43.2029 13.9476
43.2508 13.9596
43.2989 13.8234
43.3468 13.8141
43.3949 13.7587
43.4429 13.7177
43.491 13.6499
43.5389 13.6105
43.5871 13.6124
43.635 13.493
43.6832 13.4762
43.7312 13.4578
43.7793 13.4402
43.8273 13.3333
43.8755 13.3021
43.9237 13.2736
43.9717 13.2539
44.0199 13.2022
44.068 13.1417
44.1162 13.0366
44.1642 13.0852
44.2125 12.9739
44.2606 12.9503
44.3088 12.9304
44.3569 12.8019
44.4052 12.8052
44.4533 12.7828
44.5016 12.7164
44.5497 12.6921
44.598 12.6431
44.6461 12.5319
44.6945 12.5858
44.7426 12.4861
44.791 12.408
44.8391 12.3754
44.8875 12.3845
44.9357 12.3473
44.984 12.2667
45.0322 12.2449
45.0806 12.2331
45.1288 12.1931
45.1773 12.0885
45.2257 12.0328
45.2739 11.9853
45.3224 11.9763
45.3706 11.9712
45.4191 11.876
45.4673 11.8674
45.5158 11.8096
45.5641 11.7455
45.6126 11.6976
45.6609 11.7203
45.7094 11.6515
45.7577 11.5771
45.8063 11.4961
45.8546 11.5156
45.9031 11.5032
45.9515 11.4387
46.0001 11.4654
46.0484 11.3547
46.097 11.392
46.1454 11.2902
46.194 11.251
46.2424 11.1968
46.291 11.1703
46.3395 11.0989
46.3881 11.0532
46.4365 11.0525
46.4852 10.9819
46.5337 10.9522
46.5823 10.9468
46.631 10.9232
46.6795 10.8513
46.7282 10.8203
46.7767 10.7723
46.8254 10.7227
46.8739 10.6405
46.9226 10.6443
46.9712 10.6116
47.0199 10.5536
47.0685 10.5537
47.1173 10.4925
47.1658 10.4556
47.2146 10.4276
47.2632 10.3691
47.312 10.3192
47.3606 10.2776
47.4095 10.2204
47.4581 10.1791
47.5069 10.1863
47.5556 10.1137
47.6044 10.0964
47.6531 10.0783
47.702 9.9925
47.7507 9.96436
47.7996 9.93847
47.8483 9.94039
47.8972 9.88662
47.9461 9.86935
47.9948 9.77009
48.0438 9.74872
48.0925 9.72726
48.1415 9.67415
48.1902 9.68173
48.2392 9.65544
48.288 9.60481
48.337 9.52558
48.3858 9.54216
48.4348 9.48926
48.4837 9.47658
48.5327 9.40892
48.5815 9.39104
48.6306 9.36142
48.6795 9.27974
48.7285 9.26315
48.7774 9.24527
48.8265 9.22694
48.8754 9.16141
48.9245 9.14668
48.9734 9.14888
49.0226 9.06189
49.0715 9.04033
49.1206 8.97642
49.1696 8.98898
49.2188 8.9672
49.2679 8.89685
49.3169 8.87494
49.3661 8.82621
49.4151 8.80152
49.4643 8.75731
49.5134 8.73382
49.5626 8.68073
49.6117 8.6652
49.6609 8.60564
49.71 8.57056
49.7592 8.56863
49.8083 8.52761
49.8576 8.50175
49.9067 8.46487
49.956 8.42337
50.0052 8.39973
50.0545 8.3951
50.1036 8.32503
50.153 8.33329
50.2022 8.27742
50.2515 8.26846
50.3007 8.23933
50.3501 8.18422
50.3993 8.14751
50.4487 8.15972
50.498 8.0524
50.5474 8.01391
50.5966 8.02227
50.6461 7.99645
50.6955 7.96393
50.7448 7.93273
50.7943 7.90772
50.8436 7.88215
50.8931 7.8107
50.9424 7.78811
50.9919 7.76106
51.0413 7.75754
51.0908 7.72302
51.1402 7.6663
51.1897 7.66478
51.2391 7.65106
51.2887 7.62181
51.3381 7.57619
51.3877 7.55324
51.4371 7.47849
51.4867 7.45382
51.5362 7.45037
51.5858 7.41682
51.6353 7.39054
51.6849 7.33469
51.7344 7.33868
51.7841 7.31498
51.8336 7.25367
51.8833 7.21865
51.9328 7.18803
51.9826 7.1738
52.0323 7.14471
52.0818 7.13947
52.1316 7.07663
52.1812 7.0383
52.231 7.0268
52.2806 7.00102
52.3304 6.96152
52.38 6.93682
52.4298 6.91231
52.4794 6.84806
52.5293 6.86751
52.5789 6.84805
52.6288 6.78373
52.6785 6.76387
52.7284 6.75633
52.7781 6.69575
52.828 6.68976
52.8777 6.63679
52.9276 6.59729
52.9774 6.5882
53.0273 6.58257
53.0771 6.56228
53.1271 6.52082
53.1769 6.50993
53.2269 6.45682
53.2767 6.44501
53.3267 6.40225
53.3765 6.39692
53.4266 6.32081
53.4766 6.31215
53.5265 6.30405
53.5765 6.26399
53.6264 6.25575
53.6765 6.2468
53.7264 6.1483
53.7765 6.17116
53.8265 6.13362
53.8766 6.1221
53.9266 6.08572
53.9767 6.06451
54.0267 6.04477
54.0769 6.02765
54.1269 5.9703
54.1771 5.95987
54.2271 5.90186
54.2773 5.87124
54.3274 5.85579
54.3776 5.81283
54.4277 5.77872
54.478 5.75405
54.528 5.74268
54.5783 5.70447
54.6285 5.67205
54.6788 5.61084
54.7289 5.56055
54.7792 5.51226
54.8296 5.47935
54.8798 5.42883
54.9301 5.42702
54.9803 5.39853
55.0307 5.35659
55.0809 5.31029
55.1314 5.29306
55.1816 5.19203
55.232 5.20252
55.2823 5.18109
55.3328 5.10289
55.383 5.08317
55.4335 5.02363
55.4838 4.97746
55.5344 4.91633
55.5847 4.85043
55.6352 4.82546
55.6856 4.82143
55.7361 4.74503