File: XRD/Ni3Fe_FD0052.xy
TT I
1.27165 33.0728
1.31627 31.1362
1.36089 30.0915
1.40551 28.9394
1.45013 26.4982
1.49476 26.3167
1.53938 24.4662
1.584 24.6416
1.62863 23.3931
1.67325 22.8157
1.71787 22.2867
1.7625 22.083
1.80712 21.2653
1.85174 21.0375
1.89636 20.702
1.94099 20.9917
1.98562 20.9972
2.03025 19.9829
2.07487 20.2043
2.11949 20.108
2.16411 20.2957
2.20874 20.9061
2.25338 20.2109
2.298 21.894
2.34263 20.7121
2.38725 21.3404
2.43188 21.4935
2.4765 21.6286
2.52115 22.0127
2.56577 22.8247
2.6104 23.7417
2.65503 23.8353
2.69965 25.9705
2.7443 27.5668
2.78893 29.7155
2.83356 32.618
2.87818 36.2124
2.92281 40.7931
2.96744 46.3247
3.01209 55.4094
3.05672 63.9577
3.10135 72.6663
3.14599 76.7204
3.19062 74.7563
3.23527 66.8015
3.2799 55.6866
3.32454 46.7567
3.36917 39.2007
3.4138 34.6526
3.45844 31.2934
3.50309 28.9671
3.54773 27.8525
3.59237 26.7598
3.637 26.0921
3.68164 25.6386
3.7263 25.9157
3.77094 26.1569
3.81558 26.1693
3.86022 25.9102
3.90486 26.6882
3.9495 26.6041
3.99416 27.796
4.0388 28.0137
4.08344 28.6398
4.12809 29.4245
4.17273 30.7391
4.21738 31.962
4.26204 33.776
4.30669 37.4943
4.35133 41.7164
4.39598 39.6472
4.44063 37.6019
4.4853 37.5018
4.52995 38.3999
4.5746 39.7194
4.61925 41.0229
4.6639 42.222
4.70855 44.8497
4.75322 47.0298
4.79788 50.492
4.84253 54.4907
4.88719 60.2582
4.93184 68.5429
4.97652 82.7673
5.02118 103.96
5.06583 121.944
5.11049 141.527
5.15515 187.062
5.19981 312.756
5.24449 717.112
5.28916 1628.14
5.33382 4085.46
5.37848 3148.91
5.42315 810.62
5.46783 306.017
5.5125 196.338
5.55716 151.105
5.60183 126.183
5.6465 115.067
5.69117 109.662
5.73586 103.182
5.78053 100.24
5.8252 101.424
5.86988 106.95
5.91455 118.825
5.95924 141.873
6.00392 197.699
6.0486 331.593
6.09328 568.404
6.13795 1045.1
6.18263 1116.76
6.22733 496.973
6.27201 220.051
6.3167 130.881
6.36138 92.2457
6.40606 73.9133
6.45075 64.4044
6.49545 57.3787
6.54014 52.9185
6.58483 49.8683
6.62952 47.3338
6.67421 45.0618
6.71892 43.6429
6.76361 42.84
6.8083 41.6565
6.853 40.8229
6.89769 41.0983
6.94239 40.8244
6.98711 40.7244
7.03181 42.2102
7.07651 45.0126
7.12121 46.4474
7.16591 43.5694
7.21063 40.8076
7.25533 39.8674
7.30004 39.2572
7.34475 39.1699
7.38945 39.009
7.43416 39.5902
7.47889 42.2726
7.5236 59.5229
7.56831 167.125
7.61303 171.787
7.65774 63.8913
7.70247 44.0895
7.74719 40.0846
7.79191 38.8028
7.83663 38.5845
7.88135 38.6917
7.92607 38.7421
7.97081 39.4783
8.01553 39.7993
8.06026 40.7519
8.10498 41.4397
8.14971 42.768
8.19446 43.7387
8.23919 46.3721
8.28392 49.3605
8.32865 52.1279
8.37339 55.7315
8.41812 59.1889
8.46288 66.8884
8.50761 83.1656
8.55235 123.258
8.59709 185.247
8.64183 273.757
8.68658 574.902
8.73134 743.706
8.77609 371.553
8.82083 167.557
8.86558 105.293
8.91033 84.4459
8.9551 74.6289
8.99985 69.5042
9.04461 66.7831
9.08936 64.6427
9.13412 65.2441
9.17888 68.8947
9.22365 91.5389
9.26841 252.436
9.31318 327.676
9.35794 123.038
9.4027 70.9453
9.44749 62.0284
9.49226 58.9873
9.53703 57.416
9.5818 57.2394
9.62657 57.1704
9.67134 57.4561
9.71614 58.014
9.76091 59.4531
9.80569 60.9922
9.85047 63.6557
9.89525 67.2756
9.94005 73.7685
9.98484 86.507
10.0296 119.237
10.0744 165.765
10.1192 210.043
10.164 355.379
10.2088 686.264
10.2536 628.09
10.2984 279.466
10.3432 146.681
10.388 100.025
10.4328 84.9331
10.4776 84.5146
10.5224 92.1055
10.5672 98.3676
10.612 129.957
10.6568 224.218
10.7017 271.456
10.7465 199.365
10.7913 101.255
10.8361 64.7559
10.8809 55.5828
10.9257 51.7802
10.9706 49.5283
11.0154 47.7046
11.0602 45.9247
11.105 44.9812
11.1499 44.1014
11.1947 43.6003
11.2395 43.5533
11.2844 42.9557
11.3292 41.7512
11.374 40.9089
11.4189 40.4935
11.4637 39.9315
11.5086 39.6032
11.5534 39.2148
11.5983 39.2394
11.6431 39.2391
11.688 38.9474
11.7328 39.0335
11.7777 39.5129
11.8225 39.9301
11.8674 40.9155
11.9122 44.3875
11.9571 66.6293
12.002 115.182
12.0468 92.7915
12.0917 54.441
12.1366 49.2941
12.1814 50.3018
12.2263 54.3642
12.2712 65.5945
12.3161 85.2299
12.3609 85.3713
12.4058 65.2085
12.4507 50.9808
12.4956 45.5432
12.5405 42.6747
12.5853 41.099
12.6302 40.1401
12.6751 40.0152
12.72 39.9822
12.7649 40.0308
12.8098 40.3517
12.8547 41.0699
12.8996 41.5377
12.9445 42.4612
12.9894 43.3726
13.0343 44.6679
13.0792 47.8026
13.1242 57.6216
13.1691 68.5035
13.214 66.606
13.2589 68.6394
13.3038 73.1095
13.3487 87.3792
13.3937 129.238
13.4386 189.017
13.4835 175.552
13.5285 115.114
13.5734 88.7966
13.6183 80.5915
13.6633 79.5954
13.7082 94.388
13.7531 137.796
13.7981 184.261
13.843 143.964
13.888 87.0024
13.9329 63.3325
13.9779 54.8425
14.0228 50.7653
14.0678 49.3208
14.1127 50.3463
14.1577 64.4561
14.2027 101.057
14.2476 95.3052
14.2926 58.1637
14.3376 46.8087
14.3825 43.9988
14.4275 42.7902
14.4725 41.9612
14.5175 41.9898
14.5624 41.3992
14.6074 41.4307
14.6524 41.3585
14.6974 41.4388
14.7424 42.0097
14.7874 43.1976
14.8324 45.481
14.8774 48.8348
14.9224 51.4152
14.9674 53.2477
15.0124 59.4366
15.0574 77.2773
15.1024 104.571
15.1474 107.628
15.1924 82.6068
15.2374 60.8055
15.2824 49.8968
15.3274 45.1201
15.3725 43.0444
15.4175 42.1976
15.4625 41.4994
15.5076 40.8643
15.5526 40.7996
15.5976 40.6423
15.6426 40.9014
15.6877 41.4289
15.7327 43.135
15.7778 45.7819
15.8228 48.0794
15.8679 49.704
15.9129 53.3229
15.958 64.6831
16.003 86.3053
16.0481 104.89
16.0931 97.8837
16.1382 80.6331
16.1833 59.7741
16.2283 45.4017
16.2734 40.8208
16.3185 38.4897
16.3636 37.23
16.4086 36.1184
16.4537 35.589
16.4988 34.9834
16.5439 34.8921
16.589 34.4927
16.6341 34.3177
16.6792 34.0456
16.7243 34.1469
16.7694 34.0045
16.8145 33.8263
16.8596 33.9782
16.9047 34.604
16.9498 37.4563
16.9949 42.8338
17.04 42.3108
17.0851 36.9081
17.1302 34.9774
17.1754 35.2064
17.2205 35.8496
17.2656 35.9569
17.3108 36.6537
17.3559 37.8533
17.401 40.8472
17.4462 46.0925
17.4913 48.359
17.5365 44.3347
17.5815 39.5338
17.6268 37.6463
17.6718 37.0379
17.7171 37.0302
17.7622 38.2269
17.8074 42.1099
17.8525 45.3896
17.8977 42.9765
17.9428 41.1921
17.9881 41.9962
18.0331 43.5341
18.0784 43.8594
18.1237 45.8714
18.1688 51.0906
18.214 62.6918
18.2591 79.2342
18.3044 82.2774
18.3495 67.7239
18.3948 55.1573
18.4399 51.9745
18.4852 56.3291
18.5303 63.4796
18.5756 62.8046
18.6207 55.929
18.666 49.1136
18.7112 42.803
18.7565 39.2966
18.8016 37.9513
18.8469 37.4471
18.892 36.8481
18.9374 36.3314
18.9825 35.8883
19.0278 35.5716
19.073 35.5726
19.1183 35.2537
19.1635 35.3489
19.2088 35.8223
19.254 36.4017
19.2993 37.2642
19.3447 40.9008
19.3898 47.2511
19.4352 49.6058
19.4804 45.5255
19.5257 45.1095
19.5709 44.6017
19.6163 41.4265
19.6615 37.6468
19.7068 35.344
19.752 34.4427
19.7974 33.7468
19.8426 33.5032
19.888 33.4124
19.9332 33.5402
19.9786 33.7323
20.0238 33.6702
20.0692 33.954
20.1144 34.4105
20.1598 35.716
20.205 37.8782
20.2504 41.3551
20.2957 42.9054
20.3411 40.403
20.3863 37.9607
20.4318 37.7521
20.477 39.4498
20.5224 40.6645
20.5677 38.6636
20.6131 35.3431
20.6586 33.5633
20.7038 32.5699
20.7493 31.9153
20.7945 32.9232
20.84 35.0008
20.8853 35.5886
20.9307 33.2304
20.976 31.3676
21.0215 30.6978
21.0668 30.4444
21.1122 30.4018
21.1575 30.3893
21.203 30.202
21.2483 30.1921
21.2938 30.37
21.3391 30.5512
21.3846 31.2729
21.4299 32.0574
21.4754 32.321
21.5207 31.9582
21.5662 31.764
21.6116 30.8771
21.6571 30.5602
21.7024 30.7757
21.7479 30.9878
21.7933 31.3429
21.8388 31.5144
21.8843 31.8618
21.9297 32.4237
21.9752 33.7195
22.0206 35.7025
22.0661 38.708
22.1115 41.1175
22.157 40.7949
22.2024 39.5046
22.248 38.6403
22.2933 37.6318
22.3389 36.3622
22.3843 34.7085
22.4299 32.9053
22.4753 31.8578
22.5208 31.2958
22.5662 30.9141
22.6118 30.7664
22.6572 30.7486
22.7028 30.6614
22.7483 30.9822
22.7939 31.3255
22.8393 32.1591
22.8849 32.9083
22.9303 32.2787
22.9759 31.7129
23.0214 31.8996
23.067 32.8051
23.1126 34.5978
23.1581 36.819
23.2037 37.4256
23.2492 35.5313
23.2948 33.187
23.3403 32.0471
23.3859 31.8142
23.4314 32.2341
23.477 33.6508
23.5225 34.2354
23.5682 33.4805
23.6137 32.5409
23.6593 32.6911
23.7048 33.7964
23.7505 35.8392
23.796 37.5365
23.8417 36.8931
23.8872 34.0927
23.9329 31.7493
23.9784 30.4786
24.0241 29.8269
24.0697 29.563
24.1154 29.5579
24.1609 29.3453
24.2066 28.741
24.2522 28.2578
24.2979 27.944
24.3434 27.8741
24.3892 27.7576
24.4349 27.6009
24.4805 27.4641
24.5262 27.4736
24.5718 27.3217
24.6175 27.4362
24.6631 27.771
24.7089 28.3205
24.7545 28.5571
24.8002 28.2116
24.8458 27.644
24.8916 27.0687
24.9372 26.8869
24.983 26.9512
25.0286 26.8884
25.0744 26.8326
25.12 26.9031
25.1658 26.9704
25.2114 27.1797
25.2572 27.5168
25.3029 27.9618
25.3487 28.6454
25.3943 28.6225
25.4402 28.5043
25.4858 28.5974
25.5316 29.0677
25.5773 29.1794
25.6231 28.8425
25.669 27.9122
25.7147 27.0893
25.7605 26.5373
25.8062 26.4465
25.8521 26.7293
25.8977 26.858
25.9436 26.7923
25.9893 26.3709
26.0352 26.0121
26.0809 25.9363
26.1268 26.0351
26.1725 26.0532
26.2184 26.1224
26.2641 26.5247
26.31 26.9677
26.3557 27.2235
26.4017 26.7813
26.4474 26.3613
26.4933 26.0489
26.5391 26.0106
26.585 25.8926
26.6308 25.9348
26.6767 25.9868
26.7225 26.0625
26.7684 26.4774
26.8142 26.8624
26.8601 27.5869
26.9059 27.9461
26.9519 27.7508
26.9979 27.8282
27.0437 27.5878
27.0896 27.0861
27.1354 26.5554
27.1814 25.7999
27.2272 25.5033
27.2732 25.2675
27.3191 25.213
27.3651 25.068
27.4109 24.877
27.4569 24.9992
27.5027 24.9095
27.5488 24.989
27.5946 24.9439
27.6407 25.0257
27.6865 24.9226
27.7326 24.9811
27.7784 25.1673
27.8245 24.9515
27.8703 24.838
27.9164 24.8338
27.9623 24.6358
28.0084 24.7985
28.0543 25.0767
28.1003 25.2419
28.1462 25.354
28.1923 25.3077
28.2384 25.4203
28.2843 25.8109
28.3304 25.8096
28.3764 25.5294
28.4225 25.2179
28.4684 25.1452
28.5145 24.7956
28.5605 24.3944
28.6066 24.1174
28.6526 23.9615
28.6987 23.6765
28.7447 23.4309
28.7908 23.2058
28.8368 23.1937
28.8829 22.9537
28.9289 22.9503
28.9751 22.9358
29.0211 22.8148
29.0673 22.919
29.1133 22.8935
29.1595 22.988
29.2055 22.9221
29.2517 22.6933
29.2977 22.3774
29.3439 22.2728
29.3899 22.2179
29.4361 22.1102
29.4824 22.0368
29.5284 22.1364
29.5746 21.978
29.6207 22.1864
29.6669 22.0904
29.713 22.0209
29.7593 21.7913
29.8053 21.6983
29.8516 21.5572
29.8977 21.5296
29.9439 21.3776
29.99 21.4082
30.0363 21.3627
30.0824 21.4295
30.1287 21.3652
30.1748 21.5119
30.2211 21.3491
30.2673 21.1377
30.3136 21.1556
30.3597 21.1444
30.406 21.1133
30.4522 21.108
30.4985 21.2489
30.5447 21.1067
30.591 20.9998
30.6372 20.9041
30.6835 20.8528
30.7297 20.8882
30.7761 20.8668
30.8224 20.8696
30.8686 21.0175
30.915 21.1022
30.9612 21.3331
31.0076 21.2588
31.0538 21.2222
31.1002 21.1981
31.1464 21.0139
31.1928 20.9635
31.2391 20.7493
31.2855 20.577
31.3317 20.4702
31.3781 20.4027
31.4244 20.3451
31.4708 20.2682
31.5171 20.3342
31.5636 20.352
31.6098 20.3218
31.6563 20.389
31.7026 20.3967
31.7491 20.3327
31.7953 20.4329
31.8418 20.2427
31.8881 20.1904
31.9346 20.05
31.9809 19.9603
32.0275 19.8532
32.074 19.8749
32.1203 19.9463
32.1668 19.9926
32.2132 19.9274
32.2597 19.9157
32.306 19.8712
32.3526 19.6743
32.399 19.5638
32.4455 19.4304
32.4919 19.3029
32.5385 19.2343
32.5848 19.1535
32.6314 19.0665
32.6778 18.9724
32.7244 18.8664
32.7708 18.8224
32.8174 18.823
32.8638 18.7624
32.9104 18.6953
32.9569 18.7023
33.0035 18.6985
33.0499 18.6817
33.0966 18.5701
33.143 18.4758
33.1897 18.4688
33.2361 18.2957
33.2828 18.3612
33.3293 18.1982
33.3759 18.3364
33.4226 18.3656
33.4691 18.3476
33.5158 18.3237
33.5623 18.3092
33.609 18.1737
33.6555 18.0951
33.7022 17.921
33.7487 17.8363
33.7954 17.7239
33.842 17.654
33.8887 17.6019
33.9353 17.6281
33.982 17.5785
34.0286 17.5012
34.0753 17.3463
34.1219 17.4376
34.1687 17.3623
34.2152 17.3538
34.262 17.227
34.3086 17.1049
34.3554 17.1239
34.402 17.0485
34.4488 16.9575
34.4954 16.9123
34.5422 16.924
34.5889 16.8491
34.6357 16.8825
34.6825 16.8256
34.7292 16.6988
34.776 16.5745
34.8227 16.6003
34.8695 16.5061
34.9162 16.4648
34.9631 16.3852
35.0098 16.3685
35.0566 16.3213
35.1033 16.2349
35.1502 16.2759
35.1969 16.2075
35.2438 16.2362
35.2906 16.1787
35.3375 16.0723
35.3842 16.0437
35.4311 16.0724
35.4779 16.0571
35.5248 16.0706
35.5716 15.9313
35.6185 16.013
35.6653 16.0219
35.7123 15.9475
35.759 16.0056
35.806 15.907
35.8528 15.836
35.8998 15.8284
35.9468 15.6979
35.9936 15.6842
36.0406 15.588
36.0874 15.6225
36.1345 15.5032
36.1813 15.3536
36.2283 15.3357
36.2752 15.2848
36.3222 15.3067
36.3691 15.2621
36.4161 15.2065
36.463 15.216
36.5101 15.2597
36.557 15.1593
36.6041 15.0136
36.651 15.0222
36.6981 15.0305
36.745 14.9727
36.7921 14.8986
36.839 14.8509
36.8861 14.8444
36.9331 14.8217
36.9802 14.8305
37.0272 14.6681
37.0743 14.5503
37.1213 14.6025
37.1684 14.5385
37.2154 14.4698
37.2626 14.4007
37.3098 14.3445
37.3568 14.3429
37.404 14.2628
37.451 14.2324
37.4982 14.2236
37.5452 14.1685
37.5924 14.1512
37.6395 14.1237
37.6867 14.1047
37.7337 13.9992
37.781 13.9622
37.8281 13.9629
37.8753 13.8868
37.9224 13.8128
37.9697 13.7971
38.0168 13.7597
38.064 13.6828
38.1111 13.6749
38.1584 13.5719
38.2056 13.5982
38.2529 13.5833
38.3 13.5137
38.3473 13.4239
38.3945 13.3544
38.4418 13.3329
38.489 13.335
38.5363 13.2484
38.5837 13.2662
38.6309 13.2049
38.6782 13.1592
38.7254 13.133
38.7728 13.1022
38.82 13.0233
38.8674 13.0006
38.9146 12.9478
38.9621 12.9414
39.0093 12.9454
39.0567 12.9161
39.104 12.8199
39.1514 12.7929
39.1987 12.6775
39.2461 12.6646
39.2934 12.6416
39.3409 12.6249
39.3882 12.5816
39.4356 12.5477
39.483 12.5583
39.5304 12.4995
39.5778 12.4191
39.6253 12.3597
39.6726 12.2965
39.7201 12.3059
39.7675 12.3062
39.815 12.273
39.8624 12.2031
39.9099 12.1738
39.9575 12.1551
40.0049 12.0198
40.0525 12.0849
40.0999 12.0422
40.1474 12.0154
40.1949 11.9397
40.2425 11.9083
40.2899 11.8753
40.3375 11.8355
40.385 11.7972
40.4326 11.8209
40.48 11.7101
40.5277 11.7439
40.5752 11.7421
40.6228 11.6426
40.6703 11.6246
40.718 11.6026
40.7655 11.5408
40.8132 11.5128
40.8607 11.4904
40.9084 11.481
40.9559 11.4101
41.0036 11.401
41.0512 11.3415
41.0989 11.3929
41.1465 11.2512
41.1942 11.2448
41.242 11.1645
41.2896 11.1832
41.3373 11.0921
41.3849 11.0617
41.4327 11.0836
41.4803 10.9909
41.5281 11.0068
41.5758 10.9817
41.6236 10.9095
41.6712 10.8901
41.7191 10.8376
41.7667 10.8353
41.8146 10.7952
41.8622 10.7637
41.9101 10.722
41.9578 10.7219
42.0057 10.6268
42.0534 10.5954
42.1013 10.654
42.149 10.4768
42.1969 10.4876
42.2446 10.4854
42.2925 10.4432
42.3403 10.4257
42.3882 10.382
42.436 10.3382
42.4839 10.2973
42.5319 10.2832
42.5797 10.2201
42.6277 10.1792
42.6755 10.1985
42.7235 10.1761
42.7713 10.108
42.8193 10.0525
42.8671 10.0273
42.9152 9.99306
42.963 9.92084
43.0111 9.94194
43.0589 9.84935
43.107 9.85655
43.1549 9.82781
43.2029 9.81355
43.2508 9.76493
43.2989 9.74318
43.3468 9.70504
43.3949 9.66004
43.4429 9.63577
43.491 9.59608
43.5389 9.57166
43.5871 9.5936
43.635 9.5284
43.6832 9.50471
43.7312 9.41092
43.7793 9.41097
43.8273 9.37804
43.8755 9.33862
43.9237 9.30149
43.9717 9.28715
44.0199 9.27002
44.068 9.23544
44.1162 9.21576
44.1642 9.23641
44.2125 9.16758
44.2606 9.14172
44.3088 9.07016
44.3569 9.05181
44.4052 9.0398
44.4533 8.95845
44.5016 8.97419
44.5497 8.93547
44.598 8.92557
44.6461 8.90254
44.6945 8.87056
44.7426 8.81836
44.791 8.76503
44.8391 8.73965
44.8875 8.71264
44.9357 8.70803
44.984 8.67682
45.0322 8.6337
45.0806 8.58983
45.1288 8.59226
45.1773 8.55042
45.2257 8.54588
45.2739 8.49805
45.3224 8.4769
45.3706 8.39816
45.4191 8.44682
45.4673 8.3703
45.5158 8.35212
45.5641 8.36045
45.6126 8.28492
45.6609 8.25746
45.7094 8.23514
45.7577 8.23198
45.8063 8.21775
45.8546 8.17315
45.9031 8.13981
45.9515 8.09811
46.0001 8.10287
46.0484 8.08442
46.097 8.02138
46.1454 7.97902
46.194 7.9819
46.2424 7.98803
46.291 7.90518
46.3395 7.90596
46.3881 7.84632
46.4365 7.83534
46.4852 7.79693
46.5337 7.74784
46.5823 7.75443
46.631 7.69269
46.6795 7.69992
46.7282 7.65944
46.7767 7.61302
46.8254 7.56668
46.8739 7.59806
46.9226 7.5713
46.9712 7.55277
47.0199 7.50435
47.0685 7.49908
47.1173 7.40855
47.1658 7.40407
47.2146 7.43277
47.2632 7.35754
47.312 7.36453
47.3606 7.34174
47.4095 7.2643
47.4581 7.2618
47.5069 7.23347
47.5556 7.22222
47.6044 7.18063
47.6531 7.15991
47.702 7.11402
47.7507 7.09499
47.7996 7.09274
47.8483 7.0496
47.8972 7.02489
47.9461 7.04068
47.9948 6.9343
48.0438 6.96905
48.0925 6.95539
48.1415 6.93938
48.1902 6.87365
48.2392 6.86287
48.288 6.88717
48.337 6.79843
48.3858 6.78872
48.4348 6.74301
48.4837 6.7455
48.5327 6.71949
48.5815 6.66808
48.6306 6.67679
48.6795 6.61905
48.7285 6.61874
48.7774 6.60401
48.8265 6.60463
48.8754 6.57775
48.9245 6.56267
48.9734 6.49893
49.0226 6.50017
49.0715 6.46136
49.1206 6.44153
49.1696 6.44448
49.2188 6.37723
49.2679 6.36665
49.3169 6.36186
49.3661 6.28935
49.4151 6.26169
49.4643 6.28162
49.5134 6.27222
49.5626 6.22414
49.6117 6.1745
49.6609 6.17753
49.71 6.13908
49.7592 6.14889
49.8083 6.09648
49.8576 6.136
49.9067 6.04877
49.956 6.06042
50.0052 6.05228
50.0545 6.00927
50.1036 5.98511
50.153 5.95277
50.2022 5.95186
50.2515 5.93364
50.3007 5.87385
50.3501 5.87556
50.3993 5.87355
50.4487 5.83387
50.498 5.83632
50.5474 5.81278
50.5966 5.75643
50.6461 5.74279
50.6955 5.71926
50.7448 5.74605
50.7943 5.68405
50.8436 5.66499
50.8931 5.6547
50.9424 5.64146
50.9919 5.61848
51.0413 5.5641
51.0908 5.55946
51.1402 5.53139
51.1897 5.50985
51.2391 5.53749
51.2887 5.46702
51.3381 5.46045
51.3877 5.44637
51.4371 5.40382
51.4867 5.4131
51.5362 5.38581
51.5858 5.34868
51.6353 5.35016
51.6849 5.31925
51.7344 5.26778
51.7841 5.26482
51.8336 5.25233
51.8833 5.21987
51.9328 5.21791
51.9826 5.18549
52.0323 5.14133
52.0818 5.15332
52.1316 5.11253
52.1812 5.11203
52.231 5.0748
52.2806 5.0675
52.3304 5.05811
52.38 5.03025
52.4298 4.98745
52.4794 4.99155
52.5293 4.94856
52.5789 4.93797
52.6288 4.90566
52.6785 4.90317
52.7284 4.906
52.7781 4.91337
52.828 4.87039
52.8777 4.84523
52.9276 4.82147
52.9774 4.81495
53.0273 4.80224
53.0771 4.73639
53.1271 4.74783
53.1769 4.69
53.2269 4.72001
53.2767 4.68755
53.3267 4.69163
53.3765 4.64518
53.4266 4.62608
53.4766 4.58181
53.5265 4.56141
53.5765 4.56267
53.6264 4.53475
53.6765 4.51798
53.7264 4.47749
53.7765 4.46942
53.8265 4.4186
53.8766 4.4284
53.9266 4.42001
53.9767 4.40215
54.0267 4.36795
54.0769 4.33644
54.1269 4.32313
54.1771 4.3108
54.2271 4.26275
54.2773 4.22963
54.3274 4.23178
54.3776 4.23812
54.4277 4.16774
54.478 4.15631
54.528 4.08513
54.5783 4.07753
54.6285 4.0437
54.6788 4.00921
54.7289 3.97526
54.7792 3.93788
54.8296 3.92242
54.8798 3.93772
54.9301 3.82893
54.9803 3.82965
55.0307 3.85428
55.0809 3.7864
55.1314 3.77011
55.1816 3.68866
55.232 3.65262
55.2823 3.61286
55.3328 3.56603
55.383 3.51128
55.4335 3.494
55.4838 3.46754
55.5344 3.41948
55.5847 3.46025
55.6352 3.40363
55.6856 3.37643
55.7361 3.40254