File: XRD/Ni3Fe_FD0539.xy
TT I
1.27165 7.28968
1.31627 6.70663
1.36089 6.871
1.40551 6.65414
1.45013 6.59328
1.49476 5.98484
1.53938 6.04098
1.584 5.43246
1.62863 5.19934
1.67325 5.25117
1.71787 4.9468
1.7625 5.28578
1.80712 4.93413
1.85174 4.58562
1.89636 4.95231
1.94099 4.57585
1.98562 5.47101
2.03025 4.80349
2.07487 4.97771
2.11949 5.30166
2.16411 5.12619
2.20874 17.779
2.25338 30.1383
2.298 6.78452
2.34263 5.50381
2.38725 5.53733
2.43188 5.55251
2.4765 6.49616
2.52115 6.72992
2.56577 7.00979
2.6104 7.58921
2.65503 7.49209
2.69965 8.00874
2.7443 8.05231
2.78893 7.40242
2.83356 7.99658
2.87818 8.90759
2.92281 9.16
2.96744 9.63102
3.01209 10.6343
3.05672 11.1262
3.10135 12.4562
3.14599 13.1034
3.19062 14.7225
3.23527 15.3342
3.2799 15.9503
3.32454 17.1419
3.36917 17.8684
3.4138 19.5472
3.45844 20.0987
3.50309 21.9195
3.54773 22.5239
3.59237 24.5289
3.637 120.324
3.68164 74.2716
3.7263 27.573
3.77094 26.9122
3.81558 27.1703
3.86022 27.8388
3.90486 29.3101
3.9495 29.9932
3.99416 31.3636
4.0388 32.6057
4.08344 34.2069
4.12809 35.9777
4.17273 38.1219
4.21738 45.7184
4.26204 322.117
4.30669 294.422
4.35133 51.9719
4.39598 45.5023
4.44063 58.0172
4.4853 73.8105
4.52995 51.4682
4.5746 51.9004
4.61925 53.7637
4.6639 56.04
4.70855 58.4603
4.75322 61.1137
4.79788 63.7796
4.84253 67.1462
4.88719 71.3217
4.93184 75.5454
4.97652 81.1462
5.02118 87.2541
5.06583 94.6465
5.11049 106.983
5.15515 194.996
5.19981 370.184
5.24449 2696.9
5.28916 11821.3
5.33382 3388.16
5.37848 208.187
5.42315 133.513
5.46783 115.755
5.5125 107.309
5.55716 103.563
5.60183 99.8886
5.6465 98.2959
5.69117 94.8567
5.73586 93.0891
5.78053 91.9076
5.8252 91.6972
5.86988 91.9357
5.91455 94.665
5.95924 102.193
6.00392 205.741
6.0486 929.301
6.09328 4065.83
6.13795 3597.74
6.18263 288.696
6.22733 97.4735
6.27201 85.8234
6.3167 113.903
6.36138 85.6458
6.40606 70.1479
6.45075 68.1155
6.49545 66.2185
6.54014 64.6297
6.58483 63.8498
6.62952 64.1667
6.67421 105.683
6.71892 179.488
6.76361 73.5706
6.8083 59.6982
6.853 58.5158
6.89769 57.9068
6.94239 57.7132
6.98711 56.9475
7.03181 56.5801
7.07651 56.5571
7.12121 55.7794
7.16591 56.3975
7.21063 56.7611
7.25533 75.7178
7.30004 232.541
7.34475 108.039
7.38945 58.3843
7.43416 55.8405
7.47889 55.6005
7.5236 56.1752
7.56831 56.5932
7.61303 58.911
7.65774 59.4059
7.70247 57.0541
7.74719 57.307
7.79191 57.7254
7.83663 58.0025
7.88135 58.4183
7.92607 59.6556
7.97081 60.4639
8.01553 61.5819
8.06026 63.3686
8.10498 64.5641
8.14971 76.9136
8.19446 75.2297
8.23919 70.2078
8.28392 72.5383
8.32865 74.7262
8.37339 78.9674
8.41812 86.3889
8.46288 124.018
8.50761 166.22
8.55235 373.815
8.59709 1085.51
8.64183 2155.05
8.68658 1085.02
8.73134 193.219
8.77609 102.223
8.82083 94.1294
8.86558 90.7038
8.91033 91.6832
8.9551 95.1188
8.99985 86.9777
9.04461 84.4004
9.08936 83.4809
9.13412 82.7459
9.17888 82.818
9.22365 83.7409
9.26841 83.1351
9.31318 83.1133
9.35794 82.8926
9.4027 83.4769
9.44749 84.6361
9.49226 85.2024
9.53703 86.342
9.5818 87.9124
9.62657 93.6254
9.67134 103.257
9.71614 95.3404
9.76091 94.423
9.80569 97.2124
9.85047 100.575
9.89525 132.094
9.94005 147.344
9.98484 173.641
10.0296 328.851
10.0744 740.868
10.1192 1620.69
10.164 1723.67
10.2088 470.112
10.2536 134.744
10.2984 117.564
10.3432 120.818
10.388 106.593
10.4328 117.741
10.4776 157.265
10.5224 265.321
10.5672 496.269
10.612 543.045
10.6568 227.247
10.7017 100.346
10.7465 88.058
10.7913 84.5677
10.8361 81.9831
10.8809 79.6271
10.9257 79.8355
10.9706 81.0058
11.0154 76.1641
11.0602 73.5285
11.105 72.9651
11.1499 79.2009
11.1947 90.4952
11.2395 78.1301
11.2844 72.6835
11.3292 68.4818
11.374 66.9163
11.4189 66.5582
11.4637 65.9031
11.5086 66.6485
11.5534 70.9249
11.5983 67.2838
11.6431 64.3048
11.688 63.8241
11.7328 63.6278
11.7777 63.6048
11.8225 63.1861
11.8674 63.0737
11.9122 63.6282
11.9571 63.483
12.002 64.276
12.0468 67.7631
12.0917 79.3841
12.1366 101.766
12.1814 146.703
12.2263 203.506
12.2712 179.484
12.3161 106.168
12.3609 73.9995
12.4058 65.98
12.4507 65.1399
12.4956 65.0657
12.5405 65.5147
12.5853 66.5418
12.6302 76.7743
12.6751 85.1114
12.72 72.0631
12.7649 68.7131
12.8098 69.2136
12.8547 70.4521
12.8996 71.8725
12.9445 72.6052
12.9894 74.7709
13.0343 76.1945
13.0792 79.5219
13.1242 87.8866
13.1691 111.333
13.214 145.833
13.2589 224.225
13.3038 345.009
13.3487 436.328
13.3937 293.175
13.4386 133.299
13.4835 106.445
13.5285 118.992
13.5734 153.306
13.6183 230.182
13.6633 332.77
13.7082 356.243
13.7531 206.594
13.7981 103.987
13.843 83.0386
13.888 80.3675
13.9329 77.9978
13.9779 76.6779
14.0228 75.2598
14.0678 73.8569
14.1127 73.437
14.1577 73.339
14.2027 72.5514
14.2476 71.1049
14.2926 71.4615
14.3376 73.2223
14.3825 71.3465
14.4275 69.7907
14.4725 69.5294
14.5175 69.6794
14.5624 69.7605
14.6074 72.6939
14.6524 73.137
14.6974 71.3446
14.7424 72.479
14.7874 78.6625
14.8324 88.2096
14.8774 107.806
14.9224 144.474
14.9674 197.944
15.0124 225.385
15.0574 162.61
15.1024 97.2393
15.1474 73.853
15.1924 71.5211
15.2374 72.8662
15.2824 72.3105
15.3274 69.2635
15.3725 67.5818
15.4175 67.0319
15.4625 66.8002
15.5076 67.216
15.5526 67.1635
15.5976 66.3234
15.6426 67.2279
15.6877 71.9947
15.7327 79.5381
15.7778 93.3843
15.8228 120.303
15.8679 161.846
15.9129 192.909
15.958 166.901
16.003 104.239
16.0481 70.5903
16.0931 66.8197
16.1382 64.3854
16.1833 61.8563
16.2283 59.9469
16.2734 59.233
16.3185 59.8012
16.3636 61.1011
16.4086 59.2456
16.4537 56.8861
16.4988 56.447
16.5439 56.1386
16.589 56.1274
16.6341 55.7407
16.6792 55.2674
16.7243 55.732
16.7694 55.8675
16.8145 55.734
16.8596 56.0629
16.9047 58.0994
16.9498 58.4307
16.9949 56.6567
17.04 56.3256
17.0851 57.504
17.1302 59.0934
17.1754 61.9656
17.2205 66.3443
17.2656 73.039
17.3108 82.2168
17.3559 83.4027
17.401 74.1039
17.4462 63.7553
17.4913 59.9709
17.5365 59.6615
17.5815 59.8536
17.6268 60.2345
17.6718 60.9751
17.7171 61.71
17.7622 62.0383
17.8074 62.3063
17.8525 64.4914
17.8977 68.4459
17.9428 73.8615
17.9881 81.4775
18.0331 96.3278
18.0784 116.567
18.1237 137.636
18.1688 136.091
18.214 108.881
18.2591 88.1387
18.3044 89.2958
18.3495 98.8355
18.3948 107.061
18.4399 100.709
18.4852 81.4642
18.5303 67.7837
18.5756 63.1429
18.6207 62.1019
18.666 61.2788
18.7112 60.3806
18.7565 59.6136
18.8016 59.32
18.8469 58.8306
18.892 58.4674
18.9374 57.7799
18.9825 57.7312
19.0278 57.8064
19.073 57.7959
19.1183 58.0075
19.1635 58.9809
19.2088 60.2133
19.254 62.0674
19.2993 65.9397
19.3447 72.2614
19.3898 77.2485
19.4352 74.6667
19.4804 65.2379
19.5257 58.0306
19.5709 54.8414
19.6163 54.5831
19.6615 54.3102
19.7068 54.0157
19.752 53.9662
19.7974 54.1337
19.8426 54.9796
19.888 55.6816
19.9332 56.7627
19.9786 58.8012
20.0238 61.7728
20.0692 66.4614
20.1144 70.2593
20.1598 69.7831
20.205 64.7896
20.2504 62.5413
20.2957 63.5462
20.3411 66.2852
20.3863 65.5383
20.4318 60.139
20.477 55.099
20.5224 52.5874
20.5677 51.9144
20.6131 50.9682
20.6586 50.2838
20.7038 50.12
20.7493 49.6036
20.7945 49.6012
20.84 49.3335
20.8853 49.1802
20.9307 49.1997
20.976 49.3496
21.0215 49.06
21.0668 49.6305
21.1122 49.9056
21.1575 50.5008
21.203 51.2278
21.2483 51.9142
21.2938 52.0814
21.3391 50.7134
21.3846 49.6424
21.4299 48.8479
21.4754 49.0255
21.5207 49.1717
21.5662 49.0929
21.6116 49.5748
21.6571 50.2063
21.7024 51.2006
21.7479 52.7958
21.7933 55.1811
21.8388 58.3478
21.8843 62.2265
21.9297 65.178
21.9752 64.9045
22.0206 61.1447
22.0661 57.3529
22.1115 56.5805
22.157 56.7511
22.2024 55.4909
22.248 52.5944
22.2933 50.7282
22.3389 49.7071
22.3843 49.7383
22.4299 49.6713
22.4753 49.5635
22.5208 49.2539
22.5662 49.0888
22.6118 48.9797
22.6572 49.2178
22.7028 49.7447
22.7483 50.1471
22.7939 50.7945
22.8393 52.2445
22.8849 54.0608
22.9303 56.0211
22.9759 58.2474
23.0214 58.417
23.067 56.0239
23.1126 52.2486
23.1581 50.1596
23.2037 49.277
23.2492 49.2257
23.2948 49.4097
23.3403 49.3619
23.3859 50.1318
23.4314 51.0809
23.477 52.6321
23.5225 54.4131
23.5682 56.6617
23.6137 58.6384
23.6593 56.955
23.7048 53.0127
23.7505 49.1512
23.796 47.3852
23.8417 46.6303
23.8872 46.0542
23.9329 45.9009
23.9784 45.4315
24.0241 45.1366
24.0697 44.9464
24.1154 44.5607
24.1609 44.6005
24.2066 44.3719
24.2522 44.1606
24.2979 44.0532
24.3434 43.8613
24.3892 43.7314
24.4349 43.7439
24.4805 43.3646
24.5262 43.6567
24.5718 43.3019
24.6175 43.5293
24.6631 43.3877
24.7089 43.0116
24.7545 43.0706
24.8002 42.7649
24.8458 42.6781
24.8916 42.543
24.9372 42.6089
24.983 42.8556
25.0286 43.1601
25.0744 43.5536
25.12 44.1107
25.1658 44.8535
25.2114 45.0022
25.2572 45.1034
25.3029 45.2822
25.3487 45.4185
25.3943 45.2649
25.4402 44.3319
25.4858 43.2931
25.5316 42.1224
25.5773 41.3044
25.6231 41.3249
25.669 41.1413
25.7147 40.8727
25.7605 40.8774
25.8062 40.9803
25.8521 41.191
25.8977 41.1387
25.9436 41.1268
25.9893 41.3188
26.0352 41.7644
26.0809 41.9982
26.1268 42.1701
26.1725 41.9798
26.2184 41.2986
26.2641 40.8564
26.31 40.5941
26.3557 40.5738
26.4017 40.5209
26.4474 40.8244
26.4933 41.1681
26.5391 41.6359
26.585 42.1487
26.6308 42.496
26.6767 42.5821
26.7225 42.5224
26.7684 42.084
26.8142 41.2133
26.8601 41.1011
26.9059 40.6028
26.9519 39.9817
26.9979 39.728
27.0437 39.2886
27.0896 39.1854
27.1354 39.2454
27.1814 39.0388
27.2272 38.973
27.2732 39.0319
27.3191 38.751
27.3651 38.8494
27.4109 38.808
27.4569 39.0169
27.5027 38.9279
27.5488 39.0065
27.5946 38.8919
27.6407 38.53
27.6865 38.5862
27.7326 38.2791
27.7784 38.3344
27.8245 38.2657
27.8703 38.4324
27.9164 38.6375
27.9623 38.7265
28.0084 38.9487
28.0543 39.405
28.1003 39.5152
28.1462 39.2425
28.1923 38.9035
28.2384 38.3913
28.2843 38.2185
28.3304 37.7207
28.3764 37.1997
28.4225 36.8557
28.4684 36.8826
28.5145 36.3522
28.5605 36.3183
28.6066 36.1596
28.6526 36.044
28.6987 36.0397
28.7447 35.9598
28.7908 35.8759
28.8368 35.8818
28.8829 35.7859
28.9289 35.6734
28.9751 35.5552
29.0211 35.4379
29.0673 35.081
29.1133 34.9469
29.1595 34.8105
29.2055 34.7138
29.2517 34.7484
29.2977 34.6808
29.3439 34.6776
29.3899 34.6744
29.4361 34.5953
29.4824 34.3795
29.5284 34.2634
29.5746 33.8786
29.6207 33.5504
29.6669 33.351
29.713 33.3265
29.7593 33.2339
29.8053 33.3285
29.8516 33.2348
29.8977 33.1881
29.9439 32.9884
29.99 32.936
30.0363 32.7718
30.0824 32.8761
30.1287 32.658
30.1748 32.8794
30.2211 32.7772
30.2673 32.7432
30.3136 32.8512
30.3597 32.5964
30.406 32.6237
30.4522 32.4521
30.4985 32.4231
30.5447 32.5838
30.591 32.4216
30.6372 32.5318
30.6835 32.4599
30.7297 32.5809
30.7761 32.5591
30.8224 32.3569
30.8686 32.1981
30.915 31.99
30.9612 31.9396
31.0076 31.6142
31.0538 31.6653
31.1002 31.5357
31.1464 31.2398
31.1928 31.2865
31.2391 31.3072
31.2855 31.2959
31.3317 31.177
31.3781 31.2216
31.4244 31.2537
31.4708 31.2194
31.5171 31.1627
31.5636 31.1653
31.6098 30.828
31.6563 30.7641
31.7026 30.5656
31.7491 30.4922
31.7953 30.5716
31.8418 30.4129
31.8881 30.4172
31.9346 30.3973
31.9809 30.466
32.0275 30.2589
32.074 30.2642
32.1203 29.9849
32.1668 29.9145
32.2132 29.7092
32.2597 29.5846
32.306 29.5449
32.3526 29.3275
32.399 29.3045
32.4455 29.0787
32.4919 29.077
32.5385 29.0699
32.5848 28.7897
32.6314 28.8198
32.6778 28.7226
32.7244 28.6887
32.7708 28.4704
32.8174 28.4483
32.8638 28.3674
32.9104 28.4549
32.9569 28.3576
33.0035 28.2184
33.0499 28.1493
33.0966 28.0897
33.143 28.1172
33.1897 27.9698
33.2361 27.9048
33.2828 27.9254
33.3293 27.7241
33.3759 27.7047
33.4226 27.5521
33.4691 27.503
33.5158 27.4052
33.5623 27.2249
33.609 27.0588
33.6555 27.0034
33.7022 26.9173
33.7487 26.8409
33.7954 26.8806
33.842 26.6793
33.8887 26.6635
33.9353 26.5457
33.982 26.5323
34.0286 26.3796
34.0753 26.3417
34.1219 26.2206
34.1687 26.1865
34.2152 26.074
34.262 25.988
34.3086 25.8767
34.3554 25.9049
34.402 25.7929
34.4488 25.5757
34.4954 25.5249
34.5422 25.4857
34.5889 25.3489
34.6357 25.3199
34.6825 25.1757
34.7292 25.1016
34.776 25.0266
34.8227 25.0819
34.8695 24.8458
34.9162 24.9161
34.9631 24.7684
35.0098 24.7704
35.0566 24.6976
35.1033 24.6088
35.1502 24.5785
35.1969 24.5586
35.2438 24.4711
35.2906 24.3522
35.3375 24.3411
35.3842 24.3636
35.4311 24.2594
35.4779 24.2026
35.5248 24.2457
35.5716 24.1385
35.6185 24.024
35.6653 23.9348
35.7123 23.8332
35.759 23.7338
35.806 23.5816
35.8528 23.4808
35.8998 23.4814
35.9468 23.4133
35.9936 23.4038
36.0406 23.3498
36.0874 23.3098
36.1345 23.1776
36.1813 23.1103
36.2283 22.9535
36.2752 22.8668
36.3222 23.0537
36.3691 22.8231
36.4161 22.7023
36.463 22.7202
36.5101 22.7404
36.557 22.5812
36.6041 22.4939
36.651 22.43
36.6981 22.409
36.745 22.3145
36.7921 22.2802
36.839 22.0974
36.8861 22.1116
36.9331 22.0137
36.9802 21.942
37.0272 21.8478
37.0743 21.7709
37.1213 21.7204
37.1684 21.6886
37.2154 21.5078
37.2626 21.4928
37.3098 21.3899
37.3568 21.3405
37.404 21.321
37.451 21.1934
37.4982 21.1628
37.5452 21.1135
37.5924 21.0887
37.6395 20.9903
37.6867 20.9457
37.7337 20.8964
37.781 20.8198
37.8281 20.7446
37.8753 20.6984
37.9224 20.5674
37.9697 20.5252
38.0168 20.4525
38.064 20.4285
38.1111 20.381
38.1584 20.2679
38.2056 20.2076
38.2529 20.1632
38.3 20.0966
38.3473 20.0633
38.3945 19.9601
38.4418 19.9316
38.489 19.842
38.5363 19.7659
38.5837 19.6819
38.6309 19.6596
38.6782 19.5769
38.7254 19.5798
38.7728 19.5143
38.82 19.3886
38.8674 19.2929
38.9146 19.2955
38.9621 19.2605
39.0093 19.1466
39.0567 19.1428
39.104 19.0364
39.1514 18.9539
39.1987 18.9167
39.2461 18.8346
39.2934 18.7901
39.3409 18.7593
39.3882 18.5753
39.4356 18.5719
39.483 18.5854
39.5304 18.4535
39.5778 18.4685
39.6253 18.3781
39.6726 18.3124
39.7201 18.3528
39.7675 18.2012
39.815 18.1969
39.8624 18.0951
39.9099 18.0834
39.9575 17.9862
40.0049 17.8764
40.0525 17.815
40.0999 17.8506
40.1474 17.7228
40.1949 17.7193
40.2425 17.717
40.2899 17.6115
40.3375 17.5347
40.385 17.488
40.4326 17.4096
40.48 17.3429
40.5277 17.3075
40.5752 17.2554
40.6228 17.1973
40.6703 17.1922
40.718 17.1294
40.7655 17.0309
40.8132 16.9681
40.8607 16.9235
40.9084 16.8765
40.9559 16.8168
41.0036 16.8127
41.0512 16.7539
41.0989 16.6768
41.1465 16.6458
41.1942 16.5305
41.242 16.4653
41.2896 16.4617
41.3373 16.3659
41.3849 16.348
41.4327 16.2631
41.4803 16.1788
41.5281 16.1597
41.5758 16.1324
41.6236 16.0363
41.6712 16.0122
41.7191 15.9293
41.7667 15.9161
41.8146 15.8578
41.8622 15.7469
41.9101 15.7745
41.9578 15.6013
42.0057 15.6295
42.0534 15.5679
42.1013 15.5426
42.149 15.4616
42.1969 15.4488
42.2446 15.4018
42.2925 15.3404
42.3403 15.2508
42.3882 15.2145
42.436 15.2068
42.4839 15.07
42.5319 15.0541
42.5797 15.0284
42.6277 15.0226
42.6755 14.9202
42.7235 14.848
42.7713 14.8111
42.8193 14.7139
42.8671 14.7184
42.9152 14.6815
42.963 14.6212
43.0111 14.572
43.0589 14.5064
43.107 14.4555
43.1549 14.4155
43.2029 14.3063
43.2508 14.3343
43.2989 14.2519
43.3468 14.1876
43.3949 14.1687
43.4429 14.0815
43.491 14.0494
43.5389 14.0134
43.5871 14.0006
43.635 13.9363
43.6832 13.8746
43.7312 13.8481
43.7793 13.787
43.8273 13.7306
43.8755 13.6623
43.9237 13.627
43.9717 13.5953
44.0199 13.5221
44.068 13.5242
44.1162 13.4009
44.1642 13.4611
44.2125 13.3877
44.2606 13.3275
44.3088 13.2983
44.3569 13.2412
44.4052 13.1825
44.4533 13.0717
44.5016 13.029
44.5497 13.0203
44.598 12.9941
44.6461 12.9493
44.6945 12.9078
44.7426 12.8104
44.791 12.7263
44.8391 12.7669
44.8875 12.7557
44.9357 12.6598
44.984 12.6625
45.0322 12.5983
45.0806 12.5599
45.1288 12.4895
45.1773 12.4847
45.2257 12.3846
45.2739 12.3488
45.3224 12.3063
45.3706 12.3078
45.4191 12.2203
45.4673 12.2104
45.5158 12.1462
45.5641 12.0659
45.6126 12.0777
45.6609 12.0532
45.7094 11.9643
45.7577 11.9356
45.8063 11.8766
45.8546 11.862
45.9031 11.761
45.9515 11.7539
46.0001 11.7259
46.0484 11.6764
46.097 11.6442
46.1454 11.61
46.194 11.5565
46.2424 11.4845
46.291 11.4649
46.3395 11.4357
46.3881 11.3852
46.4365 11.3511
46.4852 11.275
46.5337 11.2854
46.5823 11.2476
46.631 11.1783
46.6795 11.1761
46.7282 11.1261
46.7767 11.0438
46.8254 10.9666
46.8739 10.9616
46.9226 10.8911
46.9712 10.8925
47.0199 10.8702
47.0685 10.8301
47.1173 10.7912
47.1658 10.7183
47.2146 10.7209
47.2632 10.6021
47.312 10.6234
47.3606 10.5542
47.4095 10.5712
47.4581 10.5171
47.5069 10.4591
47.5556 10.4092
47.6044 10.4039
47.6531 10.3292
47.702 10.285
47.7507 10.2837
47.7996 10.2503
47.8483 10.2126
47.8972 10.1516
47.9461 10.1083
47.9948 10.0906
48.0438 10.066
48.0925 10.0092
48.1415 9.97125
48.1902 9.8958
48.2392 9.91004
48.288 9.87034
48.337 9.85146
48.3858 9.77697
48.4348 9.76039
48.4837 9.77092
48.5327 9.68202
48.5815 9.67333
48.6306 9.64154
48.6795 9.61386
48.7285 9.57093
48.7774 9.52974
48.8265 9.51983
48.8754 9.44209
48.9245 9.41529
48.9734 9.37834
49.0226 9.34827
49.0715 9.30144
49.1206 9.23514
49.1696 9.23853
49.2188 9.2363
49.2679 9.15776
49.3169 9.15376
49.3661 9.10555
49.4151 9.07027
49.4643 9.03107
49.5134 8.97946
49.5626 8.9709
49.6117 8.90913
49.6609 8.89182
49.71 8.82584
49.7592 8.80619
49.8083 8.76434
49.8576 8.79164
49.9067 8.70963
49.956 8.69113
50.0052 8.6447
50.0545 8.61903
50.1036 8.61799
50.153 8.57257
50.2022 8.52974
50.2515 8.49312
50.3007 8.42217
50.3501 8.44932
50.3993 8.39338
50.4487 8.34476
50.498 8.36367
50.5474 8.30939
50.5966 8.26825
50.6461 8.22157
50.6955 8.18893
50.7448 8.17749
50.7943 8.16026
50.8436 8.07473
50.8931 8.10337
50.9424 8.05149
50.9919 8.01434
51.0413 7.96507
51.0908 7.94319
51.1402 7.90891
51.1897 7.89256
51.2391 7.82745
51.2887 7.8194
51.3381 7.78096
51.3877 7.76646
51.4371 7.73321
51.4867 7.64843
51.5362 7.67478
51.5858 7.60367
51.6353 7.615
51.6849 7.58474
51.7344 7.51769
51.7841 7.52299
51.8336 7.46638
51.8833 7.44546
51.9328 7.39576
51.9826 7.35895
52.0323 7.33451
52.0818 7.30183
52.1316 7.24757
52.1812 7.24947
52.231 7.23007
52.2806 7.2203
52.3304 7.20103
52.38 7.17356
52.4298 7.11354
52.4794 7.08568
52.5293 7.0365
52.5789 6.99334
52.6288 7.00015
52.6785 6.94631
52.7284 6.95702
52.7781 6.89338
52.828 6.87389
52.8777 6.86008
52.9276 6.80866
52.9774 6.81763
53.0273 6.73277
53.0771 6.73512
53.1271 6.70656
53.1769 6.67
53.2269 6.6671
53.2767 6.63208
53.3267 6.58233
53.3765 6.57941
53.4266 6.54301
53.4766 6.52156
53.5265 6.46587
53.5765 6.43425
53.6264 6.45511
53.6765 6.41125
53.7264 6.37452
53.7765 6.33596
53.8265 6.32466
53.8766 6.25192
53.9266 6.23798
53.9767 6.22661
54.0267 6.21104
54.0769 6.21913
54.1269 6.10668
54.1771 6.1635
54.2271 6.08443
54.2773 6.03009
54.3274 6.01863
54.3776 5.97137
54.4277 5.92553
54.478 5.89482
54.528 5.89272
54.5783 5.82293
54.6285 5.77353
54.6788 5.77319
54.7289 5.71602
54.7792 5.68792
54.8296 5.62181
54.8798 5.56201
54.9301 5.5852
54.9803 5.56166
55.0307 5.52817
55.0809 5.43727
55.1314 5.45971
55.1816 5.33231
55.232 5.32411
55.2823 5.27856
55.3328 5.21898
55.383 5.14218
55.4335 5.14779
55.4838 5.05419
55.5344 5.03003
55.5847 4.97609
55.6352 4.99227
55.6856 4.91215
55.7361 4.87993