File: XRD/Ni3Fe_FD0542.xy
TT I
1.27165 7.4409
1.31627 6.27228
1.36089 6.991
1.40551 6.34407
1.45013 6.55715
1.49476 6.95659
1.53938 6.0795
1.584 5.18193
1.62863 5.59363
1.67325 5.24226
1.71787 5.24334
1.7625 4.94293
1.80712 4.67579
1.85174 5.03005
1.89636 4.70467
1.94099 5.24264
1.98562 4.76761
2.03025 4.80897
2.07487 4.63929
2.11949 4.85072
2.16411 5.59074
2.20874 18.4165
2.25338 28.5677
2.298 5.94591
2.34263 5.80662
2.38725 6.13035
2.43188 6.32126
2.4765 6.52925
2.52115 6.17807
2.56577 6.52359
2.6104 7.53157
2.65503 7.88411
2.69965 7.86129
2.7443 8.04793
2.78893 8.34623
2.83356 8.04401
2.87818 8.13819
2.92281 8.96289
2.96744 9.93973
3.01209 10.4986
3.05672 11.3024
3.10135 12.0388
3.14599 12.7852
3.19062 14.5429
3.23527 15.2309
3.2799 15.6994
3.32454 17.2233
3.36917 17.8537
3.4138 18.8158
3.45844 20.042
3.50309 21.2209
3.54773 22.1322
3.59237 25.1566
3.637 118.256
3.68164 73.4754
3.7263 26.9662
3.77094 26.2245
3.81558 27.2427
3.86022 27.8868
3.90486 29.3759
3.9495 29.9255
3.99416 31.246
4.0388 32.8154
4.08344 34.2239
4.12809 35.7879
4.17273 37.8447
4.21738 45.0562
4.26204 318.766
4.30669 287.036
4.35133 51.3642
4.39598 45.3121
4.44063 57.2424
4.4853 73.033
4.52995 50.8506
4.5746 51.8226
4.61925 53.6096
4.6639 55.595
4.70855 58.5244
4.75322 60.944
4.79788 63.6375
4.84253 67.3724
4.88719 71.1649
4.93184 75.3918
4.97652 80.7539
5.02118 87.0902
5.06583 95.2236
5.11049 106.959
5.15515 194.174
5.19981 366.253
5.24449 2679.34
5.28916 12056.2
5.33382 3407.11
5.37848 207.17
5.42315 132.425
5.46783 115.42
5.5125 107.356
5.55716 102.864
5.60183 99.232
5.6465 97.6936
5.69117 94.9355
5.73586 92.4361
5.78053 91.6259
5.8252 91.5452
5.86988 92.1118
5.91455 94.5582
5.95924 102.118
6.00392 203.425
6.0486 916.5
6.09328 4093.81
6.13795 3534.41
6.18263 290.617
6.22733 96.7744
6.27201 85.2141
6.3167 113.298
6.36138 85.2817
6.40606 69.9267
6.45075 68.081
6.49545 66.026
6.54014 64.6538
6.58483 64.0258
6.62952 64.028
6.67421 105.298
6.71892 177.044
6.76361 73.1945
6.8083 59.7662
6.853 58.3497
6.89769 57.7445
6.94239 57.2716
6.98711 56.9034
7.03181 56.6093
7.07651 56.4001
7.12121 56.087
7.16591 56.2514
7.21063 56.7972
7.25533 75.369
7.30004 225.707
7.34475 106.732
7.38945 58.3415
7.43416 55.7058
7.47889 55.4144
7.5236 55.8403
7.56831 56.4837
7.61303 58.8363
7.65774 59.0766
7.70247 56.9647
7.74719 56.778
7.79191 57.5171
7.83663 57.7114
7.88135 58.5999
7.92607 59.2724
7.97081 60.8357
8.01553 61.4532
8.06026 62.7389
8.10498 64.7277
8.14971 76.5409
8.19446 75.3037
8.23919 70.393
8.28392 72.3264
8.32865 74.3706
8.37339 78.8253
8.41812 86.5992
8.46288 123.184
8.50761 164.737
8.55235 370.452
8.59709 1080.4
8.64183 2167.49
8.68658 1068.66
8.73134 190.324
8.77609 101.617
8.82083 93.6402
8.86558 90.5284
8.91033 91.0652
8.9551 94.6592
8.99985 86.112
9.04461 83.881
9.08936 83.3699
9.13412 82.4601
9.17888 82.6031
9.22365 83.6867
9.26841 82.7605
9.31318 83.1358
9.35794 82.8975
9.4027 83.2529
9.44749 84.1465
9.49226 84.7412
9.53703 85.8934
9.5818 87.9308
9.62657 93.5688
9.67134 102.609
9.71614 94.8377
9.76091 94.3643
9.80569 97.3875
9.85047 100.352
9.89525 132.183
9.94005 146.954
9.98484 172.906
10.0296 326.149
10.0744 738.725
10.1192 1656.27
10.164 1733.91
10.2088 458.013
10.2536 133.272
10.2984 117.346
10.3432 120.351
10.388 105.946
10.4328 117.455
10.4776 157.1
10.5224 264.455
10.5672 494.797
10.612 538.023
10.6568 222.195
10.7017 99.4405
10.7465 87.4987
10.7913 83.7804
10.8361 81.9813
10.8809 79.8692
10.9257 79.5766
10.9706 80.8548
11.0154 75.7952
11.0602 73.5074
11.105 72.6804
11.1499 78.9536
11.1947 89.4465
11.2395 77.5666
11.2844 72.0703
11.3292 68.2214
11.374 66.9426
11.4189 66.359
11.4637 65.5941
11.5086 66.6046
11.5534 70.5345
11.5983 67.191
11.6431 64.3399
11.688 63.4262
11.7328 63.6005
11.7777 63.6718
11.8225 63.3648
11.8674 63.151
11.9122 63.5828
11.9571 63.5412
12.002 63.5479
12.0468 67.7678
12.0917 79.2741
12.1366 101.164
12.1814 145.649
12.2263 202.319
12.2712 175.474
12.3161 104.602
12.3609 73.4463
12.4058 65.7358
12.4507 65.2899
12.4956 64.8659
12.5405 65.3566
12.5853 66.5111
12.6302 76.6669
12.6751 84.5439
12.72 72.1408
12.7649 68.6291
12.8098 69.1973
12.8547 70.4299
12.8996 71.4094
12.9445 72.6304
12.9894 74.1323
13.0343 76.0738
13.0792 79.1618
13.1242 87.396
13.1691 110.937
13.214 144.983
13.2589 223.211
13.3038 349.605
13.3487 441.22
13.3937 292.34
13.4386 132.074
13.4835 106.463
13.5285 118.719
13.5734 152.799
13.6183 230.706
13.6633 337.549
13.7082 358.312
13.7531 204.495
13.7981 103.413
13.843 83.0103
13.888 80.4948
13.9329 77.8452
13.9779 76.5312
14.0228 75.0833
14.0678 73.5986
14.1127 73.4168
14.1577 73.4928
14.2027 72.2527
14.2476 71.2872
14.2926 71.482
14.3376 73.3234
14.3825 71.3515
14.4275 69.3418
14.4725 69.4831
14.5175 69.3804
14.5624 69.6983
14.6074 72.7163
14.6524 73.3263
14.6974 71.2487
14.7424 71.9988
14.7874 78.7987
14.8324 88.174
14.8774 107.649
14.9224 145.3
14.9674 199.886
15.0124 224.823
15.0574 161.169
15.1024 96.1973
15.1474 73.8476
15.1924 71.5358
15.2374 72.7244
15.2824 72.081
15.3274 69.2526
15.3725 67.6549
15.4175 67.0902
15.4625 66.6596
15.5076 67.3785
15.5526 67.0284
15.5976 66.4063
15.6426 66.8154
15.6877 71.809
15.7327 79.278
15.7778 93.1268
15.8228 120.077
15.8679 162.568
15.9129 194.205
15.958 166.023
16.003 103.266
16.0481 70.3341
16.0931 66.6378
16.1382 64.2986
16.1833 61.5857
16.2283 59.8151
16.2734 59.2003
16.3185 59.8994
16.3636 61.2453
16.4086 59.0118
16.4537 57.0379
16.4988 56.2623
16.5439 56.1631
16.589 55.923
16.6341 55.6569
16.6792 55.3138
16.7243 55.6676
16.7694 55.6645
16.8145 55.6585
16.8596 55.917
16.9047 58.1343
16.9498 58.4034
16.9949 56.7295
17.04 56.4096
17.0851 57.4055
17.1302 59.108
17.1754 62.0329
17.2205 66.3608
17.2656 73.3278
17.3108 82.5655
17.3559 83.753
17.401 73.8693
17.4462 63.4482
17.4913 59.7848
17.5365 59.7238
17.5815 59.7739
17.6268 60.278
17.6718 61.1251
17.7171 61.6834
17.7622 62.0339
17.8074 62.3969
17.8525 64.4506
17.8977 68.5594
17.9428 73.6434
17.9881 81.6908
18.0331 96.4743
18.0784 116.921
18.1237 139.055
18.1688 136.059
18.214 108.057
18.2591 87.5671
18.3044 89.2798
18.3495 99.3319
18.3948 107.753
18.4399 100.605
18.4852 81.2502
18.5303 67.6918
18.5756 63.0409
18.6207 61.9554
18.666 61.1093
18.7112 60.4022
18.7565 59.5653
18.8016 59.3633
18.8469 58.6266
18.892 58.3526
18.9374 57.6995
18.9825 57.5907
19.0278 57.4772
19.073 57.6701
19.1183 58.1478
19.1635 58.9375
19.2088 59.9896
19.254 62.2224
19.2993 66.0351
19.3447 72.4452
19.3898 77.6293
19.4352 74.5169
19.4804 64.9333
19.5257 57.7796
19.5709 55.0002
19.6163 54.5142
19.6615 54.2563
19.7068 53.8896
19.752 53.882
19.7974 54.0983
19.8426 55.1102
19.888 55.6247
19.9332 56.6378
19.9786 58.7876
20.0238 61.9512
20.0692 66.786
20.1144 70.4595
20.1598 69.765
20.205 64.7167
20.2504 62.2505
20.2957 63.7119
20.3411 66.4682
20.3863 65.8968
20.4318 59.8001
20.477 54.9641
20.5224 52.7097
20.5677 51.8457
20.6131 50.8446
20.6586 50.3099
20.7038 50.1016
20.7493 49.814
20.7945 49.575
20.84 49.3354
20.8853 49.1681
20.9307 49.0049
20.976 49.2249
21.0215 49.057
21.0668 49.6001
21.1122 49.9686
21.1575 50.4512
21.203 51.214
21.2483 51.9349
21.2938 52.1313
21.3391 50.8375
21.3846 49.6625
21.4299 49.0242
21.4754 48.7779
21.5207 49.1048
21.5662 49.2802
21.6116 49.667
21.6571 50.2383
21.7024 51.3579
21.7479 52.6964
21.7933 55.2456
21.8388 58.6472
21.8843 62.6571
21.9297 65.4709
21.9752 64.9195
22.0206 61.1573
22.0661 57.4739
22.1115 56.7297
22.157 56.6168
22.2024 55.503
22.248 52.5338
22.2933 50.7353
22.3389 49.8349
22.3843 49.64
22.4299 49.8484
22.4753 49.5356
22.5208 49.3004
22.5662 48.9284
22.6118 49.0311
22.6572 49.3383
22.7028 49.8512
22.7483 50.1779
22.7939 50.7951
22.8393 52.1428
22.8849 54.1203
22.9303 56.329
22.9759 58.3484
23.0214 58.4573
23.067 55.8684
23.1126 52.2703
23.1581 50.0788
23.2037 49.4403
23.2492 49.3901
23.2948 49.3587
23.3403 49.6797
23.3859 50.1043
23.4314 50.9708
23.477 52.5611
23.5225 54.5989
23.5682 57.0458
23.6137 58.7112
23.6593 57.0729
23.7048 52.9152
23.7505 49.2354
23.796 47.2876
23.8417 46.6079
23.8872 46.0658
23.9329 45.7863
23.9784 45.5535
24.0241 45.1907
24.0697 44.9667
24.1154 44.5403
24.1609 44.626
24.2066 44.4412
24.2522 44.309
24.2979 43.957
24.3434 43.934
24.3892 43.8045
24.4349 43.5629
24.4805 43.356
24.5262 43.5055
24.5718 43.3814
24.6175 43.4295
24.6631 43.4199
24.7089 43.1501
24.7545 42.7735
24.8002 42.6833
24.8458 42.6199
24.8916 42.5812
24.9372 42.5895
24.983 42.9384
25.0286 43.287
25.0744 43.5305
25.12 44.1088
25.1658 44.7218
25.2114 45.0258
25.2572 45.2759
25.3029 45.1435
25.3487 45.4289
25.3943 45.3712
25.4402 44.3167
25.4858 43.1353
25.5316 42.2453
25.5773 41.3519
25.6231 41.4423
25.669 40.8909
25.7147 41.1442
25.7605 40.8995
25.8062 41.1187
25.8521 41.0846
25.8977 41.0873
25.9436 41.1811
25.9893 41.2785
26.0352 41.8177
26.0809 41.9384
26.1268 42.2062
26.1725 42.0192
26.2184 41.3732
26.2641 40.9308
26.31 40.6646
26.3557 40.5941
26.4017 40.6627
26.4474 40.8797
26.4933 41.1791
26.5391 41.6197
26.585 41.9953
26.6308 42.456
26.6767 42.743
26.7225 42.6584
26.7684 41.9185
26.8142 41.402
26.8601 40.9107
26.9059 40.6198
26.9519 39.9674
26.9979 39.7703
27.0437 39.3078
27.0896 39.0946
27.1354 39.2395
27.1814 38.8947
27.2272 39.0879
27.2732 39.0244
27.3191 38.8837
27.3651 38.905
27.4109 38.8979
27.4569 38.9133
27.5027 39.0453
27.5488 39.0148
27.5946 38.7856
27.6407 38.7332
27.6865 38.5002
27.7326 38.2366
27.7784 38.1623
27.8245 38.3166
27.8703 38.4802
27.9164 38.6754
27.9623 38.8106
28.0084 39.1899
28.0543 39.4448
28.1003 39.4677
28.1462 39.334
28.1923 39.0556
28.2384 38.4924
28.2843 38.2548
28.3304 37.6416
28.3764 37.1889
28.4225 36.8187
28.4684 36.7494
28.5145 36.4151
28.5605 36.2889
28.6066 36.1009
28.6526 35.9679
28.6987 36.028
28.7447 35.8571
28.7908 35.8085
28.8368 35.8074
28.8829 35.9154
28.9289 35.7811
28.9751 35.597
29.0211 35.3251
29.0673 35.1651
29.1133 35.0267
29.1595 34.8529
29.2055 34.7692
29.2517 34.6901
29.2977 34.7027
29.3439 34.5729
29.3899 34.5311
29.4361 34.5159
29.4824 34.3614
29.5284 34.1569
29.5746 33.8118
29.6207 33.5382
29.6669 33.5208
29.713 33.3381
29.7593 33.1744
29.8053 33.3361
29.8516 33.188
29.8977 33.1082
29.9439 33.0561
29.99 33.0439
30.0363 32.8186
30.0824 32.9127
30.1287 32.8423
30.1748 32.87
30.2211 32.8761
30.2673 32.6533
30.3136 32.7832
30.3597 32.6884
30.406 32.4821
30.4522 32.448
30.4985 32.3266
30.5447 32.5948
30.591 32.5069
30.6372 32.4869
30.6835 32.555
30.7297 32.5683
30.7761 32.5093
30.8224 32.3737
30.8686 32.2166
30.915 31.9657
30.9612 31.878
31.0076 31.7026
31.0538 31.5333
31.1002 31.4552
31.1464 31.3662
31.1928 31.3108
31.2391 31.2974
31.2855 31.1932
31.3317 31.2693
31.3781 31.3247
31.4244 31.1925
31.4708 31.2225
31.5171 31.1521
31.5636 31.0848
31.6098 30.9637
31.6563 30.7111
31.7026 30.6614
31.7491 30.4031
31.7953 30.5073
31.8418 30.5363
31.8881 30.4946
31.9346 30.429
31.9809 30.3216
32.0275 30.2862
32.074 30.1909
32.1203 30.0265
32.1668 29.8426
32.2132 29.8283
32.2597 29.6082
32.306 29.4342
32.3526 29.3195
32.399 29.2774
32.4455 29.1798
32.4919 29.02
32.5385 28.9099
32.5848 28.7904
32.6314 28.8856
32.6778 28.7779
32.7244 28.6195
32.7708 28.5412
32.8174 28.5375
32.8638 28.3517
32.9104 28.3103
32.9569 28.4026
33.0035 28.1559
33.0499 28.2719
33.0966 28.1339
33.143 28.0999
33.1897 28.0463
33.2361 27.9128
33.2828 27.9163
33.3293 27.7172
33.3759 27.656
33.4226 27.6263
33.4691 27.4757
33.5158 27.361
33.5623 27.1928
33.609 27.0434
33.6555 27.0225
33.7022 26.8668
33.7487 26.8502
33.7954 26.8336
33.842 26.6546
33.8887 26.6674
33.9353 26.6234
33.982 26.456
34.0286 26.4398
34.0753 26.3203
34.1219 26.2752
34.1687 26.1705
34.2152 26.0836
34.262 25.92
34.3086 25.8085
34.3554 25.8255
34.402 25.7301
34.4488 25.6614
34.4954 25.5209
34.5422 25.5159
34.5889 25.3172
34.6357 25.319
34.6825 25.2229
34.7292 25.1545
34.776 25.0057
34.8227 24.9891
34.8695 24.9652
34.9162 24.8643
34.9631 24.713
35.0098 24.7549
35.0566 24.6347
35.1033 24.5651
35.1502 24.5522
35.1969 24.4429
35.2438 24.4763
35.2906 24.3194
35.3375 24.4059
35.3842 24.2513
35.4311 24.1712
35.4779 24.1762
35.5248 24.1749
35.5716 24.0427
35.6185 24.018
35.6653 23.8952
35.7123 23.7808
35.759 23.708
35.806 23.6294
35.8528 23.5065
35.8998 23.4531
35.9468 23.3567
35.9936 23.3724
36.0406 23.2753
36.0874 23.1992
36.1345 23.2012
36.1813 23.0382
36.2283 23.0235
36.2752 22.9243
36.3222 22.9699
36.3691 22.8506
36.4161 22.7684
36.463 22.7284
36.5101 22.6922
36.557 22.7032
36.6041 22.4473
36.651 22.4429
36.6981 22.3682
36.745 22.3614
36.7921 22.271
36.839 22.1206
36.8861 22.0857
36.9331 22.0017
36.9802 21.9339
37.0272 21.828
37.0743 21.7327
37.1213 21.7414
37.1684 21.6896
37.2154 21.5722
37.2626 21.4673
37.3098 21.4663
37.3568 21.4411
37.404 21.3632
37.451 21.2853
37.4982 21.2127
37.5452 21.0621
37.5924 21.0403
37.6395 21.0712
37.6867 20.9025
37.7337 20.8637
37.781 20.7434
37.8281 20.6999
37.8753 20.6437
37.9224 20.6186
37.9697 20.5255
38.0168 20.469
38.064 20.435
38.1111 20.29
38.1584 20.3076
38.2056 20.1739
38.2529 20.2135
38.3 20.0798
38.3473 20.0301
38.3945 19.9397
38.4418 19.8693
38.489 19.8121
38.5363 19.7518
38.5837 19.6842
38.6309 19.6058
38.6782 19.5505
38.7254 19.5216
38.7728 19.4642
38.82 19.3055
38.8674 19.3828
38.9146 19.303
38.9621 19.2045
39.0093 19.1463
39.0567 19.0756
39.104 19.095
39.1514 18.8793
39.1987 18.8754
39.2461 18.8414
39.2934 18.7679
39.3409 18.6974
39.3882 18.6515
39.4356 18.5511
39.483 18.5603
39.5304 18.4423
39.5778 18.4473
39.6253 18.3596
39.6726 18.3651
39.7201 18.322
39.7675 18.2171
39.815 18.1597
39.8624 18.0881
39.9099 18.0678
39.9575 17.9655
40.0049 17.9594
40.0525 17.879
40.0999 17.7969
40.1474 17.7716
40.1949 17.7193
40.2425 17.5802
40.2899 17.5469
40.3375 17.5182
40.385 17.4074
40.4326 17.3817
40.48 17.3975
40.5277 17.3226
40.5752 17.2124
40.6228 17.141
40.6703 17.1573
40.718 17.1099
40.7655 16.9787
40.8132 16.9553
40.8607 16.9616
40.9084 16.8898
40.9559 16.811
41.0036 16.7962
41.0512 16.7118
41.0989 16.7406
41.1465 16.5416
41.1942 16.581
41.242 16.4736
41.2896 16.4242
41.3373 16.3889
41.3849 16.3075
41.4327 16.1964
41.4803 16.224
41.5281 16.1415
41.5758 16.0939
41.6236 16.0195
41.6712 16.039
41.7191 15.9008
41.7667 15.8892
41.8146 15.8821
41.8622 15.7844
41.9101 15.749
41.9578 15.6541
42.0057 15.5889
42.0534 15.5542
42.1013 15.5685
42.149 15.444
42.1969 15.4175
42.2446 15.3841
42.2925 15.3054
42.3403 15.2656
42.3882 15.1872
42.436 15.1953
42.4839 15.0855
42.5319 15.0684
42.5797 15.0055
42.6277 14.9231
42.6755 15.0111
42.7235 14.8271
42.7713 14.813
42.8193 14.7442
42.8671 14.7385
42.9152 14.7197
42.963 14.6379
43.0111 14.5149
43.0589 14.5055
43.107 14.4114
43.1549 14.4235
43.2029 14.3384
43.2508 14.3067
43.2989 14.2524
43.3468 14.2012
43.3949 14.1609
43.4429 14.1062
43.491 14.041
43.5389 14.0221
43.5871 13.9841
43.635 13.9006
43.6832 13.8691
43.7312 13.8385
43.7793 13.7884
43.8273 13.7533
43.8755 13.6963
43.9237 13.6757
43.9717 13.5753
44.0199 13.561
44.068 13.5389
44.1162 13.4477
44.1642 13.446
44.2125 13.3816
44.2606 13.3027
44.3088 13.2476
44.3569 13.1791
44.4052 13.1321
44.4533 13.0822
44.5016 13.0365
44.5497 13.0244
44.598 13.0185
44.6461 12.9697
44.6945 12.9223
44.7426 12.8911
44.791 12.7604
44.8391 12.7496
44.8875 12.705
44.9357 12.668
44.984 12.6215
45.0322 12.5695
45.0806 12.5174
45.1288 12.4766
45.1773 12.439
45.2257 12.4425
45.2739 12.3442
45.3224 12.3175
45.3706 12.2754
45.4191 12.2019
45.4673 12.1976
45.5158 12.1646
45.5641 12.0909
45.6126 12.089
45.6609 11.9586
45.7094 11.9382
45.7577 11.925
45.8063 11.86
45.8546 11.8863
45.9031 11.8386
45.9515 11.737
46.0001 11.7005
46.0484 11.6578
46.097 11.6298
46.1454 11.5962
46.194 11.494
46.2424 11.5024
46.291 11.4385
46.3395 11.3933
46.3881 11.3647
46.4365 11.3578
46.4852 11.3121
46.5337 11.2381
46.5823 11.2331
46.631 11.1341
46.6795 11.1166
46.7282 11.1346
46.7767 11.0619
46.8254 10.9746
46.8739 10.9679
46.9226 10.9116
46.9712 10.887
47.0199 10.8641
47.0685 10.8281
47.1173 10.7444
47.1658 10.734
47.2146 10.7184
47.2632 10.6383
47.312 10.5904
47.3606 10.5815
47.4095 10.5135
47.4581 10.4837
47.5069 10.4776
47.5556 10.4043
47.6044 10.3581
47.6531 10.3354
47.702 10.3037
47.7507 10.2895
47.7996 10.2061
47.8483 10.2074
47.8972 10.1838
47.9461 10.0979
47.9948 10.0274
48.0438 10.0525
48.0925 10.0349
48.1415 9.98364
48.1902 9.94422
48.2392 9.92165
48.288 9.89679
48.337 9.8236
48.3858 9.74279
48.4348 9.76854
48.4837 9.74292
48.5327 9.69911
48.5815 9.63647
48.6306 9.6206
48.6795 9.60372
48.7285 9.50592
48.7774 9.53369
48.8265 9.5121
48.8754 9.48091
48.9245 9.41482
48.9734 9.37666
49.0226 9.35484
49.0715 9.29751
49.1206 9.29383
49.1696 9.22537
49.2188 9.19278
49.2679 9.14518
49.3169 9.13574
49.3661 9.10881
49.4151 9.05697
49.4643 9.03649
49.5134 9.02125
49.5626 8.94446
49.6117 8.91149
49.6609 8.92283
49.71 8.83437
49.7592 8.83481
49.8083 8.72743
49.8576 8.7705
49.9067 8.69428
49.956 8.67357
50.0052 8.65696
50.0545 8.66322
50.1036 8.5797
50.153 8.5623
50.2022 8.49264
50.2515 8.4637
50.3007 8.41693
50.3501 8.39037
50.3993 8.34225
50.4487 8.35718
50.498 8.30389
50.5474 8.31141
50.5966 8.23862
50.6461 8.23167
50.6955 8.21048
50.7448 8.18379
50.7943 8.11138
50.8436 8.08356
50.8931 8.05043
50.9424 8.03652
50.9919 8.00287
51.0413 7.9881
51.0908 7.91299
51.1402 7.93164
51.1897 7.89812
51.2391 7.85452
51.2887 7.83624
51.3381 7.77488
51.3877 7.76356
51.4371 7.72065
51.4867 7.67138
51.5362 7.6425
51.5858 7.617
51.6353 7.57767
51.6849 7.55521
51.7344 7.49183
51.7841 7.49832
51.8336 7.43236
51.8833 7.44549
51.9328 7.36705
51.9826 7.37866
52.0323 7.33973
52.0818 7.32986
52.1316 7.23528
52.1812 7.2677
52.231 7.25172
52.2806 7.21776
52.3304 7.18616
52.38 7.14808
52.4298 7.09582
52.4794 7.06327
52.5293 7.03415
52.5789 7.00118
52.6288 6.9841
52.6785 6.9205
52.7284 6.92913
52.7781 6.92139
52.828 6.90986
52.8777 6.80563
52.9276 6.8023
52.9774 6.7774
53.0273 6.74596
53.0771 6.73622
53.1271 6.76168
53.1769 6.67733
53.2269 6.66949
53.2767 6.60174
53.3267 6.57599
53.3765 6.57575
53.4266 6.50995
53.4766 6.4983
53.5265 6.44349
53.5765 6.43863
53.6264 6.41234
53.6765 6.40814
53.7264 6.35029
53.7765 6.31794
53.8265 6.30351
53.8766 6.2755
53.9266 6.25227
53.9767 6.22281
54.0267 6.22083
54.0769 6.16984
54.1269 6.12192
54.1771 6.11558
54.2271 6.08296
54.2773 6.03602
54.3274 6.01968
54.3776 5.96274
54.4277 5.9473
54.478 5.9401
54.528 5.82229
54.5783 5.83857
54.6285 5.80095
54.6788 5.72647
54.7289 5.75766
54.7792 5.6662
54.8296 5.63404
54.8798 5.59926
54.9301 5.54854
54.9803 5.58668
55.0307 5.50863
55.0809 5.41952
55.1314 5.43831
55.1816 5.32588
55.232 5.28629
55.2823 5.22841
55.3328 5.21297
55.383 5.18395
55.4335 5.14322
55.4838 5.06712
55.5344 5.07
55.5847 4.96855
55.6352 4.9754
55.6856 4.91539
55.7361 4.91119