File: XRD/Ni3Fe_FD0273.xy
TT I
1.27165 7.87108
1.31627 7.2198
1.36089 7.40647
1.40551 6.10588
1.45013 6.13552
1.49476 6.30622
1.53938 6.57169
1.584 5.77998
1.62863 5.59027
1.67325 5.40646
1.71787 5.32136
1.7625 5.03005
1.80712 5.36319
1.85174 4.98672
1.89636 5.1227
1.94099 5.15532
1.98562 5.10037
2.03025 4.92565
2.07487 4.89868
2.11949 5.15722
2.16411 5.03981
2.20874 13.5539
2.25338 21.8023
2.298 5.92451
2.34263 5.20994
2.38725 4.98196
2.43188 5.04326
2.4765 5.73348
2.52115 6.12257
2.56577 5.85116
2.6104 6.95981
2.65503 6.5356
2.69965 6.44477
2.7443 7.4423
2.78893 7.41079
2.83356 7.75338
2.87818 7.79417
2.92281 9.16666
2.96744 9.41393
3.01209 10.5971
3.05672 11.6911
3.10135 12.8052
3.14599 13.4552
3.19062 13.8313
3.23527 15.0107
3.2799 15.708
3.32454 17.1628
3.36917 17.9428
3.4138 19.4454
3.45844 19.9008
3.50309 21.367
3.54773 22.313
3.59237 24.538
3.637 86.9966
3.68164 57.3656
3.7263 26.5551
3.77094 27.0935
3.81558 27.6408
3.86022 27.9243
3.90486 29.6109
3.9495 30.4964
3.99416 31.5661
4.0388 33.2513
4.08344 34.7523
4.12809 35.8991
4.17273 38.3407
4.21738 44.1476
4.26204 230.074
4.30669 207.322
4.35133 50.0043
4.39598 45.9592
4.44063 54.134
4.4853 65.6799
4.52995 53.2711
4.5746 53.5608
4.61925 55.63
4.6639 57.0734
4.70855 60.1196
4.75322 63.1407
4.79788 66.75
4.84253 70.1884
4.88719 75.1858
4.93184 78.8002
4.97652 84.7496
5.02118 92.8734
5.06583 101.983
5.11049 116.941
5.15515 194.224
5.19981 527.361
5.24449 3363.99
5.28916 10754.1
5.33382 4165.16
5.37848 267.011
5.42315 149.134
5.46783 125.62
5.5125 115.056
5.55716 109.287
5.60183 105.032
5.6465 102.07
5.69117 99.6606
5.73586 98.2375
5.78053 98.9607
5.8252 98.0569
5.86988 99.5636
5.91455 103.533
5.95924 116.005
6.00392 272.749
6.0486 1174.44
6.09328 3738.67
6.13795 3716.38
6.18263 370.662
6.22733 107.821
6.27201 89.5109
6.3167 105.057
6.36138 84.5674
6.40606 72.9276
6.45075 71.0408
6.49545 68.4516
6.54014 66.5401
6.58483 65.6362
6.62952 65.5696
6.67421 92.1519
6.71892 140.656
6.76361 70.5514
6.8083 60.8603
6.853 59.966
6.89769 59.2525
6.94239 58.5928
6.98711 58.2603
7.03181 57.8336
7.07651 57.6584
7.12121 57.4024
7.16591 58.0727
7.21063 57.7183
7.25533 70.4514
7.30004 170.96
7.34475 92.2148
7.38945 58.235
7.43416 56.3763
7.47889 56.1039
7.5236 56.811
7.56831 57.8198
7.61303 59.1966
7.65774 59.4128
7.70247 58.1552
7.74719 58.8379
7.79191 58.6834
7.83663 59.3976
7.88135 59.8885
7.92607 60.9702
7.97081 61.9032
8.01553 63.5571
8.06026 64.7907
8.10498 66.48
8.14971 75.5597
8.19446 75.1383
8.23919 72.4405
8.28392 74.9642
8.32865 77.7649
8.37339 82.6945
8.41812 89.7042
8.46288 120.219
8.50761 195.825
8.55235 477.462
8.59709 1067.85
8.64183 2001.66
8.68658 1264.94
8.73134 232.125
8.77609 109.408
8.82083 98.9185
8.86558 94.8659
8.91033 94.4842
8.9551 95.6343
8.99985 89.6359
9.04461 87.3266
9.08936 86.6646
9.13412 85.6396
9.17888 85.4789
9.22365 85.9695
9.26841 85.2659
9.31318 86.475
9.35794 86.6203
9.4027 86.9792
9.44749 87.98
9.49226 88.3848
9.53703 89.2
9.5818 91.4471
9.62657 95.6494
9.67134 102.138
9.71614 98.0609
9.76091 98.5192
9.80569 100.993
9.85047 104.982
9.89525 127.495
9.94005 143.136
9.98484 205.0
10.0296 423.475
10.0744 775.289
10.1192 1481.3
10.164 1713.84
10.2088 591.932
10.2536 153.634
10.2984 121.256
10.3432 120.352
10.388 111.112
10.4328 129.096
10.4776 182.786
10.5224 271.405
10.5672 455.678
10.612 538.337
10.6568 258.636
10.7017 108.378
10.7465 91.4702
10.7913 87.5626
10.8361 84.7457
10.8809 82.4894
10.9257 81.7634
10.9706 82.474
11.0154 78.2705
11.0602 75.9475
11.105 74.9332
11.1499 78.6408
11.1947 85.4494
11.2395 77.187
11.2844 73.2319
11.3292 70.312
11.374 68.8077
11.4189 68.4337
11.4637 67.5562
11.5086 68.0228
11.5534 70.748
11.5983 68.0609
11.6431 66.4769
11.688 65.5658
11.7328 65.5682
11.7777 65.4347
11.8225 65.3204
11.8674 64.7993
11.9122 65.3216
11.9571 65.4862
12.002 66.4465
12.0468 71.9717
12.0917 86.7219
12.1366 106.05
12.1814 141.529
12.2263 195.425
12.2712 187.664
12.3161 113.654
12.3609 75.1375
12.4058 67.8019
12.4507 67.1366
12.4956 67.2849
12.5405 67.4894
12.5853 68.3237
12.6302 75.0002
12.6751 80.3054
12.72 72.576
12.7649 70.6202
12.8098 71.3629
12.8547 72.4602
12.8996 74.1128
12.9445 75.2414
12.9894 77.0411
13.0343 79.0464
13.0792 82.7001
13.1242 93.8296
13.1691 125.524
13.214 162.488
13.2589 224.509
13.3038 328.883
13.3487 429.441
13.3937 322.838
13.4386 153.314
13.4835 116.082
13.5285 136.222
13.5734 165.394
13.6183 225.784
13.6633 317.747
13.7082 357.246
13.7531 234.798
13.7981 114.909
13.843 86.905
13.888 83.321
13.9329 80.5748
13.9779 79.1584
14.0228 77.6482
14.0678 75.8675
14.1127 75.5009
14.1577 75.8018
14.2027 74.5087
14.2476 73.2603
14.2926 73.2266
14.3376 74.2066
14.3825 73.3927
14.4275 71.8504
14.4725 71.6079
14.5175 71.6447
14.5624 71.8368
14.6074 73.9918
14.6524 74.5514
14.6974 73.7352
14.7424 75.5197
14.7874 84.4859
14.8324 97.8847
14.8774 114.491
14.9224 144.486
14.9674 189.498
15.0124 218.959
15.0574 174.696
15.1024 106.563
15.1474 77.5991
15.1924 73.9946
15.2374 73.8605
15.2824 73.1255
15.3274 71.2947
15.3725 69.8
15.4175 69.2781
15.4625 68.9592
15.5076 69.2672
15.5526 69.2307
15.5976 68.6559
15.6426 70.0008
15.6877 77.1326
15.7327 87.8
15.7778 99.5513
15.8228 120.726
15.8679 155.405
15.9129 189.472
15.958 174.599
16.003 115.882
16.0481 74.7688
16.0931 67.8672
16.1382 65.5437
16.1833 63.2654
16.2283 61.754
16.2734 60.9977
16.3185 61.0115
16.3636 61.5359
16.4086 60.2811
16.4537 58.8312
16.4988 57.9269
16.5439 58.037
16.589 57.5488
16.6341 57.1824
16.6792 56.7809
16.7243 57.119
16.7694 57.0305
16.8145 57.16
16.8596 57.3508
16.9047 58.862
16.9498 59.2584
16.9949 58.0943
17.04 58.0557
17.0851 59.6779
17.1302 61.9778
17.1754 64.8044
17.2205 68.292
17.2656 73.8291
17.3108 82.0274
17.3559 85.5207
17.401 77.557
17.4462 67.1024
17.4913 61.9873
17.5365 61.5257
17.5815 61.8177
17.6268 62.0779
17.6718 62.7041
17.7171 63.4278
17.7622 63.9723
17.8074 64.7501
17.8525 67.4027
17.8977 72.6921
17.9428 79.3938
17.9881 85.5866
18.0331 97.6559
18.0784 115.492
18.1237 136.916
18.1688 141.642
18.214 119.393
18.2591 94.0629
18.3044 90.5445
18.3495 98.0005
18.3948 106.818
18.4399 103.174
18.4852 85.9154
18.5303 71.0098
18.5756 65.3507
18.6207 64.1238
18.666 63.2106
18.7112 62.3716
18.7565 61.5746
18.8016 61.2017
18.8469 60.5765
18.892 60.238
18.9374 59.5095
18.9825 59.6702
19.0278 59.3924
19.073 59.3619
19.1183 60.0055
19.1635 61.3786
19.2088 62.6389
19.254 64.041
19.2993 67.138
19.3447 72.1209
19.3898 77.4071
19.4352 76.8441
19.4804 69.2582
19.5257 61.1048
19.5709 57.0653
19.6163 56.3678
19.6615 56.1037
19.7068 55.6734
19.752 55.6889
19.7974 55.9113
19.8426 56.9545
19.888 57.9563
19.9332 58.8522
19.9786 60.7753
20.0238 63.217
20.0692 67.618
20.1144 71.8617
20.1598 72.208
20.205 67.8593
20.2504 64.5906
20.2957 64.7361
20.3411 66.7801
20.3863 67.5529
20.4318 62.5676
20.477 57.353
20.5224 54.0721
20.5677 53.1562
20.6131 52.5914
20.6586 51.8457
20.7038 51.7297
20.7493 51.0617
20.7945 51.1409
20.84 50.8697
20.8853 50.8687
20.9307 50.7689
20.976 50.8367
21.0215 50.8288
21.0668 51.1747
21.1122 51.4389
21.1575 51.9059
21.203 52.3944
21.2483 53.3597
21.2938 53.6412
21.3391 52.7286
21.3846 51.2927
21.4299 50.7706
21.4754 50.4998
21.5207 50.6755
21.5662 50.9076
21.6116 51.5259
21.6571 52.3629
21.7024 53.4759
21.7479 54.831
21.7933 56.7361
21.8388 59.5111
21.8843 63.2018
21.9297 66.4172
21.9752 66.9826
22.0206 63.9413
22.0661 59.2032
22.1115 57.8912
22.157 58.0335
22.2024 57.2995
22.248 54.6061
22.2933 52.4604
22.3389 51.4582
22.3843 51.1855
22.4299 51.0293
22.4753 50.9481
22.5208 50.5325
22.5662 50.5452
22.6118 50.8098
22.6572 51.0432
22.7028 51.6028
22.7483 52.1745
22.7939 52.5974
22.8393 53.6652
22.8849 55.3744
22.9303 57.1274
22.9759 59.252
23.0214 59.8808
23.067 58.1817
23.1126 54.4709
23.1581 51.8871
23.2037 51.1367
23.2492 50.9321
23.2948 51.1662
23.3403 51.6594
23.3859 52.1201
23.4314 52.8354
23.477 54.2024
23.5225 55.6949
23.5682 57.7706
23.6137 59.6599
23.6593 58.8175
23.7048 55.4768
23.7505 51.3964
23.796 49.1726
23.8417 48.0335
23.8872 47.6357
23.9329 47.2229
23.9784 46.7506
24.0241 46.6293
24.0697 46.1162
24.1154 46.0414
24.1609 45.8725
24.2066 45.6626
24.2522 45.5505
24.2979 45.3049
24.3434 45.2354
24.3892 45.0126
24.4349 45.0467
24.4805 44.665
24.5262 44.8423
24.5718 44.6771
24.6175 44.5819
24.6631 44.5785
24.7089 44.3228
24.7545 44.2236
24.8002 44.1804
24.8458 44.235
24.8916 43.8882
24.9372 44.0553
24.983 44.2935
25.0286 44.5647
25.0744 44.9019
25.12 45.3367
25.1658 45.9049
25.2114 46.3107
25.2572 46.4937
25.3029 46.3435
25.3487 46.4922
25.3943 46.495
25.4402 45.8601
25.4858 44.6201
25.5316 43.6298
25.5773 42.7581
25.6231 42.6718
25.669 42.2033
25.7147 42.4182
25.7605 42.1329
25.8062 42.2641
25.8521 42.3375
25.8977 42.2868
25.9436 42.6279
25.9893 42.3723
26.0352 43.0063
26.0809 43.0297
26.1268 43.3941
26.1725 43.3664
26.2184 42.5829
26.2641 42.208
26.31 41.9419
26.3557 41.9494
26.4017 41.8258
26.4474 42.0035
26.4933 42.3687
26.5391 42.8206
26.585 43.0819
26.6308 43.4341
26.6767 43.76
26.7225 43.7967
26.7684 43.3105
26.8142 42.7282
26.8601 42.2746
26.9059 41.8161
26.9519 41.2831
26.9979 41.0154
27.0437 40.6547
27.0896 40.3978
27.1354 40.3584
27.1814 40.138
27.2272 40.2017
27.2732 40.1058
27.3191 39.957
27.3651 40.0465
27.4109 39.9554
27.4569 40.114
27.5027 39.964
27.5488 40.1145
27.5946 40.0177
27.6407 39.8185
27.6865 39.7315
27.7326 39.489
27.7784 39.5539
27.8245 39.4953
27.8703 39.7319
27.9164 39.7485
27.9623 39.8694
28.0084 40.083
28.0543 40.3981
28.1003 40.4916
28.1462 40.4857
28.1923 40.1365
28.2384 39.5345
28.2843 39.27
28.3304 38.7876
28.3764 38.346
28.4225 38.0794
28.4684 37.6823
28.5145 37.5628
28.5605 37.5061
28.6066 37.3067
28.6526 37.1578
28.6987 37.0898
28.7447 36.9498
28.7908 36.8115
28.8368 36.9032
28.8829 36.8978
28.9289 36.6453
28.9751 36.6818
29.0211 36.4039
29.0673 36.2232
29.1133 36.0606
29.1595 35.8935
29.2055 35.7591
29.2517 35.7678
29.2977 35.7415
29.3439 35.7189
29.3899 35.5873
29.4361 35.544
29.4824 35.569
29.5284 35.1994
29.5746 34.9087
29.6207 34.5237
29.6669 34.4806
29.713 34.3644
29.7593 34.2286
29.8053 34.2073
29.8516 34.2852
29.8977 34.2272
29.9439 34.0134
29.99 33.9228
30.0363 33.8096
30.0824 33.7673
30.1287 33.7129
30.1748 33.676
30.2211 33.7821
30.2673 33.7227
30.3136 33.7196
30.3597 33.6326
30.406 33.5846
30.4522 33.3539
30.4985 33.3588
30.5447 33.5334
30.591 33.3105
30.6372 33.4899
30.6835 33.4245
30.7297 33.4664
30.7761 33.5021
30.8224 33.4654
30.8686 33.1595
30.915 33.0715
30.9612 32.8558
31.0076 32.6814
31.0538 32.5107
31.1002 32.4389
31.1464 32.1864
31.1928 32.2363
31.2391 32.2453
31.2855 32.1982
31.3317 32.0956
31.3781 32.1598
31.4244 32.1468
31.4708 32.1418
31.5171 32.1168
31.5636 32.1381
31.6098 31.8788
31.6563 31.7579
31.7026 31.7043
31.7491 31.3985
31.7953 31.4985
31.8418 31.3378
31.8881 31.4582
31.9346 31.2975
31.9809 31.2072
32.0275 31.1595
32.074 31.1325
32.1203 30.8501
32.1668 30.7988
32.2132 30.706
32.2597 30.4835
32.306 30.3647
32.3526 30.2317
32.399 30.1793
32.4455 30.0137
32.4919 29.967
32.5385 29.8244
32.5848 29.652
32.6314 29.7211
32.6778 29.575
32.7244 29.5271
32.7708 29.4338
32.8174 29.3047
32.8638 29.1712
32.9104 29.2319
32.9569 29.3047
33.0035 29.0384
33.0499 28.947
33.0966 29.037
33.143 29.0177
33.1897 28.7994
33.2361 28.716
33.2828 28.74
33.3293 28.484
33.3759 28.5906
33.4226 28.3593
33.4691 28.3418
33.5158 28.1958
33.5623 28.0457
33.609 27.9205
33.6555 27.8155
33.7022 27.7133
33.7487 27.543
33.7954 27.5163
33.842 27.4996
33.8887 27.3929
33.9353 27.3995
33.982 27.2743
34.0286 27.2091
34.0753 27.106
34.1219 26.9418
34.1687 26.9622
34.2152 26.8518
34.262 26.6684
34.3086 26.6254
34.3554 26.5898
34.402 26.4205
34.4488 26.3608
34.4954 26.3225
34.5422 26.2817
34.5889 26.1563
34.6357 26.0669
34.6825 26.0271
34.7292 25.918
34.776 25.7523
34.8227 25.6868
34.8695 25.7132
34.9162 25.6708
34.9631 25.4903
35.0098 25.4566
35.0566 25.322
35.1033 25.3515
35.1502 25.2847
35.1969 25.1962
35.2438 25.2254
35.2906 25.0769
35.3375 25.05
35.3842 24.9516
35.4311 25.0076
35.4779 24.9593
35.5248 24.883
35.5716 24.7174
35.6185 24.7429
35.6653 24.6454
35.7123 24.454
35.759 24.4456
35.806 24.3037
35.8528 24.2406
35.8998 24.1539
35.9468 24.1094
35.9936 24.0789
36.0406 23.9915
36.0874 23.9199
36.1345 23.8228
36.1813 23.8428
36.2283 23.6305
36.2752 23.5928
36.3222 23.7053
36.3691 23.4679
36.4161 23.4214
36.463 23.3694
36.5101 23.2891
36.557 23.2658
36.6041 23.1191
36.651 23.1425
36.6981 23.0667
36.745 22.9645
36.7921 22.9297
36.839 22.8405
36.8861 22.7084
36.9331 22.625
36.9802 22.6545
37.0272 22.4701
37.0743 22.3819
37.1213 22.4045
37.1684 22.2827
37.2154 22.2054
37.2626 22.2181
37.3098 22.0823
37.3568 21.9959
37.404 22.0141
37.451 21.9559
37.4982 21.8645
37.5452 21.709
37.5924 21.599
37.6395 21.6559
37.6867 21.6141
37.7337 21.4617
37.781 21.3563
37.8281 21.4035
37.8753 21.2903
37.9224 21.2582
37.9697 21.1508
38.0168 21.0726
38.064 20.9345
38.1111 20.9648
38.1584 20.8449
38.2056 20.7892
38.2529 20.8072
38.3 20.7263
38.3473 20.6852
38.3945 20.4884
38.4418 20.4666
38.489 20.4279
38.5363 20.3056
38.5837 20.2311
38.6309 20.1795
38.6782 20.1414
38.7254 20.0677
38.7728 20.0315
38.82 19.9635
38.8674 19.9304
38.9146 19.8131
38.9621 19.728
39.0093 19.7399
39.0567 19.6747
39.104 19.5946
39.1514 19.5109
39.1987 19.4873
39.2461 19.4868
39.2934 19.2716
39.3409 19.2257
39.3882 19.1954
39.4356 19.2116
39.483 19.1006
39.5304 19.04
39.5778 18.9502
39.6253 18.871
39.6726 18.8383
39.7201 18.7385
39.7675 18.7443
39.815 18.7265
39.8624 18.6258
39.9099 18.597
39.9575 18.466
40.0049 18.421
40.0525 18.4118
40.0999 18.3453
40.1474 18.3043
40.1949 18.1923
40.2425 18.0794
40.2899 18.1191
40.3375 18.0841
40.385 17.9544
40.4326 17.931
40.48 17.8223
40.5277 17.8471
40.5752 17.7228
40.6228 17.6614
40.6703 17.6469
40.718 17.5838
40.7655 17.5576
40.8132 17.4665
40.8607 17.4719
40.9084 17.4417
40.9559 17.3374
41.0036 17.2761
41.0512 17.2075
41.0989 17.1839
41.1465 17.0795
41.1942 17.0725
41.242 16.9833
41.2896 16.8976
41.3373 16.8595
41.3849 16.8458
41.4327 16.7422
41.4803 16.684
41.5281 16.6223
41.5758 16.5731
41.6236 16.5388
41.6712 16.5024
41.7191 16.3829
41.7667 16.3864
41.8146 16.2881
41.8622 16.2133
41.9101 16.226
41.9578 16.0941
42.0057 16.0658
42.0534 16.047
42.1013 15.9508
42.149 15.8839
42.1969 15.8738
42.2446 15.8351
42.2925 15.7545
42.3403 15.6883
42.3882 15.6848
42.436 15.6293
42.4839 15.5384
42.5319 15.442
42.5797 15.4412
42.6277 15.4089
42.6755 15.3362
42.7235 15.2883
42.7713 15.2607
42.8193 15.2124
42.8671 15.1441
42.9152 15.1399
42.963 15.0242
43.0111 14.9646
43.0589 14.9763
43.107 14.8914
43.1549 14.828
43.2029 14.7745
43.2508 14.733
43.2989 14.6274
43.3468 14.6325
43.3949 14.5944
43.4429 14.5434
43.491 14.4739
43.5389 14.4551
43.5871 14.389
43.635 14.3331
43.6832 14.2865
43.7312 14.2014
43.7793 14.2192
43.8273 14.1184
43.8755 14.052
43.9237 14.0744
43.9717 13.9926
44.0199 13.9413
44.068 13.8926
44.1162 13.8819
44.1642 13.7644
44.2125 13.7256
44.2606 13.6583
44.3088 13.6753
44.3569 13.6061
44.4052 13.6151
44.4533 13.492
44.5016 13.4108
44.5497 13.3913
44.598 13.3706
44.6461 13.2939
44.6945 13.2858
44.7426 13.1971
44.791 13.1245
44.8391 13.153
44.8875 13.0799
44.9357 13.054
44.984 13.0175
45.0322 12.9541
45.0806 12.8775
45.1288 12.8428
45.1773 12.784
45.2257 12.7927
45.2739 12.7116
45.3224 12.6701
45.3706 12.6651
45.4191 12.5656
45.4673 12.5631
45.5158 12.506
45.5641 12.4172
45.6126 12.3804
45.6609 12.3358
45.7094 12.3107
45.7577 12.2906
45.8063 12.1897
45.8546 12.1389
45.9031 12.1787
45.9515 12.1029
46.0001 12.002
46.0484 11.9713
46.097 11.975
46.1454 11.9312
46.194 11.8904
46.2424 11.8169
46.291 11.8108
46.3395 11.7696
46.3881 11.6904
46.4365 11.6491
46.4852 11.5882
46.5337 11.5898
46.5823 11.5664
46.631 11.483
46.6795 11.4557
46.7282 11.4046
46.7767 11.3981
46.8254 11.3189
46.8739 11.2779
46.9226 11.1973
46.9712 11.1825
47.0199 11.1593
47.0685 11.1104
47.1173 11.0209
47.1658 11.0311
47.2146 11.005
47.2632 10.9301
47.312 10.8833
47.3606 10.8278
47.4095 10.8336
47.4581 10.8072
47.5069 10.7803
47.5556 10.6856
47.6044 10.641
47.6531 10.6357
47.702 10.5752
47.7507 10.5682
47.7996 10.5004
47.8483 10.5009
47.8972 10.4304
47.9461 10.3924
47.9948 10.3735
48.0438 10.3308
48.0925 10.2932
48.1415 10.2599
48.1902 10.2182
48.2392 10.2173
48.288 10.1704
48.337 10.1082
48.3858 10.0352
48.4348 10.0363
48.4837 10.0201
48.5327 9.99278
48.5815 9.9095
48.6306 9.90002
48.6795 9.83162
48.7285 9.77477
48.7774 9.75888
48.8265 9.77706
48.8754 9.69661
48.9245 9.64721
48.9734 9.66631
49.0226 9.62277
49.0715 9.53006
49.1206 9.49407
49.1696 9.49545
49.2188 9.46028
49.2679 9.42346
49.3169 9.34758
49.3661 9.3332
49.4151 9.29657
49.4643 9.242
49.5134 9.2469
49.5626 9.16818
49.6117 9.14834
49.6609 9.12595
49.71 9.12008
49.7592 9.07489
49.8083 9.02137
49.8576 8.9731
49.9067 8.92717
49.956 8.95272
50.0052 8.88337
50.0545 8.86371
50.1036 8.7986
50.153 8.78099
50.2022 8.76858
50.2515 8.68588
50.3007 8.68928
50.3501 8.64449
50.3993 8.59969
50.4487 8.61228
50.498 8.54782
50.5474 8.49168
50.5966 8.48721
50.6461 8.48592
50.6955 8.40376
50.7448 8.38992
50.7943 8.36651
50.8436 8.31378
50.8931 8.28066
50.9424 8.22815
50.9919 8.22461
51.0413 8.18436
51.0908 8.18489
51.1402 8.16029
51.1897 8.07631
51.2391 8.0693
51.2887 8.02814
51.3381 7.98483
51.3877 7.93218
51.4371 7.94017
51.4867 7.8299
51.5362 7.85976
51.5858 7.7891
51.6353 7.78214
51.6849 7.75157
51.7344 7.73456
51.7841 7.7025
51.8336 7.70772
51.8833 7.65149
51.9328 7.62662
51.9826 7.56768
52.0323 7.53143
52.0818 7.50921
52.1316 7.4759
52.1812 7.44736
52.231 7.43564
52.2806 7.35235
52.3304 7.3667
52.38 7.30634
52.4298 7.29179
52.4794 7.25682
52.5293 7.23999
52.5789 7.23234
52.6288 7.19184
52.6785 7.15885
52.7284 7.08366
52.7781 7.08383
52.828 7.08639
52.8777 6.9992
52.9276 6.96977
52.9774 6.94508
53.0273 6.94208
53.0771 6.93125
53.1271 6.89412
53.1769 6.83733
53.2269 6.81213
53.2767 6.80735
53.3267 6.77115
53.3765 6.71963
53.4266 6.7222
53.4766 6.65483
53.5265 6.60845
53.5765 6.57328
53.6264 6.59948
53.6765 6.56309
53.7264 6.55446
53.7765 6.50314
53.8265 6.47317
53.8766 6.45441
53.9266 6.43016
53.9767 6.35944
54.0267 6.37292
54.0769 6.32593
54.1269 6.33451
54.1771 6.28332
54.2271 6.24618
54.2773 6.21197
54.3274 6.17582
54.3776 6.09798
54.4277 6.13872
54.478 6.07161
54.528 6.02303
54.5783 5.99198
54.6285 5.90929
54.6788 5.87792
54.7289 5.8369
54.7792 5.80721
54.8296 5.69971
54.8798 5.69389
54.9301 5.70102
54.9803 5.63655
55.0307 5.64783
55.0809 5.53563
55.1314 5.58798
55.1816 5.51564
55.232 5.40789
55.2823 5.33545
55.3328 5.29491
55.383 5.26199
55.4335 5.24856
55.4838 5.14966
55.5344 5.13326
55.5847 5.07959
55.6352 5.05239
55.6856 5.01572
55.7361 5.02546