File: XRD/Ni3Fe_FD1048.xy
TT I
1.27165 6.68663
1.31627 6.37534
1.36089 6.09253
1.40551 6.50379
1.45013 5.47046
1.49476 5.42228
1.53938 5.70436
1.584 5.08996
1.62863 4.72911
1.67325 4.58297
1.71787 4.56815
1.7625 4.20942
1.80712 4.71249
1.85174 4.00442
1.89636 4.35057
1.94099 4.33672
1.98562 4.74188
2.03025 3.58089
2.07487 4.23793
2.11949 4.71509
2.16411 4.44392
2.20874 4.21199
2.25338 6.3151
2.298 5.12196
2.34263 5.08503
2.38725 5.82769
2.43188 5.75083
2.4765 7.37387
2.52115 6.54717
2.56577 7.76761
2.6104 9.03037
2.65503 7.67681
2.69965 8.45491
2.7443 7.98736
2.78893 8.06711
2.83356 8.40761
2.87818 8.72012
2.92281 9.23222
2.96744 9.08016
3.01209 10.5317
3.05672 10.9527
3.10135 12.0855
3.14599 13.0107
3.19062 14.5782
3.23527 14.4637
3.2799 15.2561
3.32454 16.1677
3.36917 16.8892
3.4138 17.9017
3.45844 18.764
3.50309 19.7461
3.54773 20.2068
3.59237 21.5928
3.637 27.704
3.68164 26.6576
3.7263 24.4346
3.77094 24.3628
3.81558 25.5995
3.86022 25.9976
3.90486 27.3646
3.9495 28.0888
3.99416 29.1218
4.0388 30.3028
4.08344 31.813
4.12809 32.629
4.17273 33.8204
4.21738 35.4078
4.26204 52.2836
4.30669 56.69
4.35133 40.8704
4.39598 40.9182
4.44063 43.3304
4.4853 46.5568
4.52995 46.8007
4.5746 48.7196
4.61925 50.4787
4.6639 52.5046
4.70855 55.1752
4.75322 57.8557
4.79788 60.6499
4.84253 63.7954
4.88719 68.1208
4.93184 71.505
4.97652 76.9468
5.02118 83.3618
5.06583 89.3556
5.11049 97.8869
5.15515 118.338
5.19981 233.529
5.24449 2502.1
5.28916 13478.1
5.33382 3280.54
5.37848 213.273
5.42315 124.03
5.46783 108.524
5.5125 100.928
5.55716 97.0764
5.60183 93.5518
5.6465 91.438
5.69117 89.6314
5.73586 87.6828
5.78053 86.829
5.8252 86.685
5.86988 87.2347
5.91455 89.2227
5.95924 95.0363
6.00392 163.659
6.0486 893.608
6.09328 4612.87
6.13795 3600.24
6.18263 238.436
6.22733 87.4221
6.27201 76.0383
6.3167 72.5227
6.36138 68.7828
6.40606 64.8008
6.45075 63.4814
6.49545 61.6613
6.54014 60.413
6.58483 58.9608
6.62952 57.8429
6.67421 58.5506
6.71892 64.2294
6.76361 56.5046
6.8083 54.3722
6.853 53.6304
6.89769 53.3675
6.94239 53.2842
6.98711 52.4674
7.03181 52.5335
7.07651 52.3647
7.12121 51.746
7.16591 51.6626
7.21063 51.1733
7.25533 51.8151
7.30004 61.7253
7.34475 55.9364
7.38945 51.4677
7.43416 51.0978
7.47889 51.3808
7.5236 59.2406
7.56831 73.7967
7.61303 56.9655
7.65774 52.6963
7.70247 53.2585
7.74719 53.2621
7.79191 53.6706
7.83663 54.0238
7.88135 54.7503
7.92607 55.6827
7.97081 56.7037
8.01553 57.5383
8.06026 59.0007
8.10498 60.1994
8.14971 62.4592
8.19446 63.9188
8.23919 65.6015
8.28392 68.1794
8.32865 70.2025
8.37339 73.6904
8.41812 77.7469
8.46288 86.0852
8.50761 128.838
8.55235 370.348
8.59709 1088.74
8.64183 2253.78
8.68658 1090.44
8.73134 173.446
8.77609 95.0411
8.82083 88.1998
8.86558 85.5992
8.91033 83.7417
8.9551 82.0744
8.99985 81.0954
9.04461 80.2188
9.08936 79.8729
9.13412 79.3032
9.17888 79.4173
9.22365 91.8278
9.26841 115.107
9.31318 89.7584
9.35794 79.9425
9.4027 79.9528
9.44749 81.023
9.49226 80.856
9.53703 81.8518
9.5818 83.4636
9.62657 84.3667
9.67134 86.7971
9.71614 87.6858
9.76091 89.3684
9.80569 91.4061
9.85047 94.1542
9.89525 98.5442
9.94005 106.304
9.98484 147.428
10.0296 349.321
10.0744 775.457
10.1192 1756.04
10.164 1678.56
10.2088 437.808
10.2536 125.119
10.2984 103.36
10.3432 100.874
10.388 98.0458
10.4328 107.498
10.4776 161.146
10.5224 269.572
10.5672 504.156
10.612 562.348
10.6568 226.455
10.7017 104.345
10.7465 86.1341
10.7913 79.8256
10.8361 77.6108
10.8809 75.5785
10.9257 73.448
10.9706 72.4067
11.0154 70.9248
11.0602 69.2521
11.105 68.025
11.1499 66.855
11.1947 67.2142
11.2395 65.6739
11.2844 64.5641
11.3292 63.6626
11.374 63.0861
11.4189 62.3172
11.4637 62.0053
11.5086 61.2359
11.5534 61.1973
11.5983 60.7141
11.6431 60.5262
11.688 60.1825
11.7328 59.9749
11.7777 59.8795
11.8225 59.6288
11.8674 59.7916
11.9122 61.9994
11.9571 68.3032
12.002 66.5404
12.0468 64.2249
12.0917 76.5812
12.1366 99.0188
12.1814 146.686
12.2263 204.461
12.2712 176.049
12.3161 99.105
12.3609 64.677
12.4058 61.1136
12.4507 60.9429
12.4956 61.2478
12.5405 61.2783
12.5853 61.9313
12.6302 62.2543
12.6751 63.8868
12.72 64.046
12.7649 64.6935
12.8098 65.2735
12.8547 66.4594
12.8996 67.8947
12.9445 69.173
12.9894 70.8459
13.0343 72.7925
13.0792 76.695
13.1242 82.4178
13.1691 107.846
13.214 147.458
13.2589 228.427
13.3038 364.505
13.3487 442.847
13.3937 280.241
13.4386 126.962
13.4835 99.211
13.5285 119.972
13.5734 156.142
13.6183 236.674
13.6633 356.931
13.7082 359.279
13.7531 205.294
13.7981 100.408
13.843 79.5948
13.888 76.7751
13.9329 74.6266
13.9779 73.2373
14.0228 71.9851
14.0678 70.6401
14.1127 71.6985
14.1577 75.4826
14.2027 73.7592
14.2476 68.9638
14.2926 67.4026
14.3376 67.2184
14.3825 66.943
14.4275 66.2436
14.4725 66.1325
14.5175 66.4481
14.5624 66.2861
14.6074 66.6501
14.6524 67.2204
14.6974 67.581
14.7424 68.6523
14.7874 74.5443
14.8324 88.6963
14.8774 109.682
14.9224 148.218
14.9674 208.138
15.0124 228.114
15.0574 160.628
15.1024 93.5179
15.1474 70.9257
15.1924 67.8968
15.2374 66.472
15.2824 65.9084
15.3274 64.8881
15.3725 64.5473
15.4175 64.1172
15.4625 63.5645
15.5076 63.3342
15.5526 63.4144
15.5976 63.3102
15.6426 63.7082
15.6877 68.6775
15.7327 79.3062
15.7778 94.2931
15.8228 121.906
15.8679 168.995
15.9129 201.976
15.958 168.342
16.003 103.316
16.0481 69.3735
16.0931 62.992
16.1382 59.8484
16.1833 58.3874
16.2283 56.9851
16.2734 56.3479
16.3185 55.7541
16.3636 55.1693
16.4086 54.4516
16.4537 53.8274
16.4988 53.2064
16.5439 53.3786
16.589 53.0787
16.6341 53.0358
16.6792 52.6196
16.7243 52.6461
16.7694 52.7959
16.8145 52.6595
16.8596 52.7731
16.9047 53.5938
16.9498 54.21
16.9949 53.9807
17.04 53.84
17.0851 54.7867
17.1302 57.1472
17.1754 60.146
17.2205 64.6903
17.2656 72.6659
17.3108 81.6447
17.3559 82.4826
17.401 71.9654
17.4462 61.3812
17.4913 57.5567
17.5365 57.0244
17.5815 57.1626
17.6268 57.7278
17.6718 58.104
17.7171 58.7203
17.7622 59.8336
17.8074 60.5831
17.8525 61.7256
17.8977 66.5777
17.9428 73.4199
17.9881 81.8832
18.0331 97.8897
18.0784 121.517
18.1237 142.168
18.1688 137.156
18.214 108.487
18.2591 88.0152
18.3044 88.8894
18.3495 99.3
18.3948 107.498
18.4399 98.437
18.4852 79.0036
18.5303 65.7394
18.5756 61.3927
18.6207 60.1986
18.666 58.8266
18.7112 58.3049
18.7565 57.308
18.8016 57.0667
18.8469 56.5406
18.892 56.089
18.9374 55.5896
18.9825 55.3115
19.0278 55.2593
19.073 54.9845
19.1183 55.1669
19.1635 56.3675
19.2088 58.1557
19.254 60.6931
19.2993 65.4471
19.3447 72.0947
19.3898 76.0424
19.4352 72.298
19.4804 63.4064
19.5257 56.1373
19.5709 53.0044
19.6163 52.57
19.6615 52.2599
19.7068 51.831
19.752 51.868
19.7974 51.9136
19.8426 52.7302
19.888 53.4842
19.9332 55.1238
19.9786 57.3918
20.0238 60.8024
20.0692 66.6048
20.1144 70.5143
20.1598 69.2845
20.205 64.2169
20.2504 61.6767
20.2957 63.2865
20.3411 65.493
20.3863 63.7587
20.4318 58.2309
20.477 52.8986
20.5224 50.0473
20.5677 49.0048
20.6131 48.7957
20.6586 48.3307
20.7038 48.1045
20.7493 48.1173
20.7945 48.2522
20.84 47.864
20.8853 47.5075
20.9307 47.2542
20.976 47.4104
21.0215 47.1532
21.0668 47.7582
21.1122 48.1662
21.1575 48.8724
21.203 49.5651
21.2483 50.2854
21.2938 50.6591
21.3391 48.9806
21.3846 47.7645
21.4299 47.34
21.4754 47.3195
21.5207 47.2886
21.5662 47.4959
21.6116 47.9861
21.6571 48.9464
21.7024 50.1003
21.7479 51.7034
21.7933 54.1987
21.8388 57.7925
21.8843 62.7974
21.9297 65.4488
21.9752 63.9862
22.0206 59.6995
22.0661 56.2905
22.1115 55.7929
22.157 55.9096
22.2024 54.3007
22.248 51.0308
22.2933 48.9815
22.3389 48.1329
22.3843 47.6496
22.4299 47.4463
22.4753 47.4454
22.5208 47.3769
22.5662 47.2517
22.6118 47.4337
22.6572 47.6202
22.7028 48.2677
22.7483 49.0318
22.7939 49.7098
22.8393 51.1396
22.8849 53.2834
22.9303 55.6147
22.9759 57.8492
23.0214 57.2147
23.067 54.6243
23.1126 50.9244
23.1581 48.58
23.2037 47.664
23.2492 47.6019
23.2948 47.9918
23.3403 48.447
23.3859 49.377
23.4314 50.2324
23.477 52.0124
23.5225 54.3785
23.5682 57.15
23.6137 58.4022
23.6593 56.3843
23.7048 51.859
23.7505 48.162
23.796 45.9988
23.8417 45.1803
23.8872 44.5562
23.9329 44.3264
23.9784 43.927
24.0241 43.5493
24.0697 43.4265
24.1154 43.0824
24.1609 42.8702
24.2066 42.7516
24.2522 42.6728
24.2979 42.4908
24.3434 42.1448
24.3892 42.137
24.4349 42.0289
24.4805 41.8795
24.5262 42.1173
24.5718 41.9795
24.6175 42.0519
24.6631 42.0255
24.7089 41.6699
24.7545 41.4339
24.8002 41.2634
24.8458 41.1518
24.8916 41.1724
24.9372 41.3579
24.983 41.5547
25.0286 42.0198
25.0744 42.6217
25.12 43.1579
25.1658 43.8738
25.2114 44.1479
25.2572 44.3507
25.3029 44.5188
25.3487 44.4294
25.3943 44.2851
25.4402 43.1732
25.4858 41.8443
25.5316 40.8435
25.5773 40.1743
25.6231 40.0601
25.669 39.6691
25.7147 39.6193
25.7605 39.5424
25.8062 39.7593
25.8521 39.9317
25.8977 39.8575
25.9436 40.1655
25.9893 40.2018
26.0352 40.8295
26.0809 40.9991
26.1268 41.1596
26.1725 40.9183
26.2184 40.2966
26.2641 39.6825
26.31 39.4956
26.3557 39.5236
26.4017 39.3723
26.4474 39.7817
26.4933 40.0567
26.5391 40.7102
26.585 41.2154
26.6308 41.6451
26.6767 41.886
26.7225 41.6495
26.7684 41.2042
26.8142 40.535
26.8601 39.9982
26.9059 39.7138
26.9519 39.0469
26.9979 38.668
27.0437 38.2833
27.0896 38.0217
27.1354 38.0526
27.1814 37.8973
27.2272 37.7916
27.2732 37.9521
27.3191 37.6289
27.3651 37.7385
27.4109 37.7662
27.4569 37.8922
27.5027 37.9819
27.5488 38.0517
27.5946 37.8582
27.6407 37.5392
27.6865 37.4679
27.7326 37.3525
27.7784 37.3082
27.8245 37.101
27.8703 37.3168
27.9164 37.7765
27.9623 37.9225
28.0084 38.4034
28.0543 38.9336
28.1003 38.7511
28.1462 38.5646
28.1923 38.4114
28.2384 37.5591
28.2843 37.2776
28.3304 36.74
28.3764 36.2348
28.4225 35.8273
28.4684 35.5336
28.5145 35.4
28.5605 35.3239
28.6066 35.0321
28.6526 35.0832
28.6987 34.9336
28.7447 34.782
28.7908 34.7173
28.8368 34.8188
28.8829 34.8355
28.9289 34.758
28.9751 34.5809
29.0211 34.3692
29.0673 34.132
29.1133 34.0381
29.1595 33.7501
29.2055 33.6984
29.2517 33.7549
29.2977 33.6675
29.3439 33.6363
29.3899 33.7428
29.4361 33.6412
29.4824 33.3767
29.5284 33.2396
29.5746 32.8772
29.6207 32.5407
29.6669 32.3644
29.713 32.4208
29.7593 32.1657
29.8053 32.2327
29.8516 32.1494
29.8977 32.214
29.9439 31.9682
29.99 32.0461
30.0363 31.9862
30.0824 31.91
30.1287 31.7711
30.1748 31.7699
30.2211 31.794
30.2673 31.5789
30.3136 31.8156
30.3597 31.6349
30.406 31.663
30.4522 31.538
30.4985 31.3869
30.5447 31.6693
30.591 31.6767
30.6372 31.6541
30.6835 31.6703
30.7297 31.7416
30.7761 31.7702
30.8224 31.5742
30.8686 31.4118
30.915 31.1901
30.9612 31.0323
31.0076 30.8765
31.0538 30.7016
31.1002 30.6821
31.1464 30.5249
31.1928 30.3607
31.2391 30.5623
31.2855 30.3842
31.3317 30.4292
31.3781 30.4455
31.4244 30.4728
31.4708 30.3792
31.5171 30.4034
31.5636 30.4686
31.6098 30.117
31.6563 29.9159
31.7026 29.8126
31.7491 29.657
31.7953 29.8194
31.8418 29.7399
31.8881 29.715
31.9346 29.6329
31.9809 29.6517
32.0275 29.5694
32.074 29.4737
32.1203 29.2749
32.1668 29.0322
32.2132 28.9009
32.2597 28.8187
32.306 28.717
32.3526 28.5134
32.399 28.4629
32.4455 28.3214
32.4919 28.2764
32.5385 28.2266
32.5848 28.0207
32.6314 27.9679
32.6778 27.8989
32.7244 27.8498
32.7708 27.7484
32.8174 27.7027
32.8638 27.5273
32.9104 27.5719
32.9569 27.5345
33.0035 27.4146
33.0499 27.3678
33.0966 27.3891
33.143 27.4285
33.1897 27.1643
33.2361 27.1803
33.2828 27.1419
33.3293 26.96
33.3759 26.9003
33.4226 26.6999
33.4691 26.7129
33.5158 26.6648
33.5623 26.461
33.609 26.3519
33.6555 26.2333
33.7022 26.2055
33.7487 26.0748
33.7954 26.041
33.842 25.9199
33.8887 25.8968
33.9353 25.8799
33.982 25.7211
34.0286 25.637
34.0753 25.5588
34.1219 25.4115
34.1687 25.362
34.2152 25.3849
34.262 25.2382
34.3086 25.1685
34.3554 25.134
34.402 24.9765
34.4488 24.8977
34.4954 24.7891
34.5422 24.7175
34.5889 24.6087
34.6357 24.5694
34.6825 24.4378
34.7292 24.4355
34.776 24.3183
34.8227 24.367
34.8695 24.2789
34.9162 24.1264
34.9631 24.066
35.0098 24.0924
35.0566 24.0089
35.1033 23.8797
35.1502 23.935
35.1969 23.8012
35.2438 23.8911
35.2906 23.6855
35.3375 23.7627
35.3842 23.6059
35.4311 23.6677
35.4779 23.6384
35.5248 23.5858
35.5716 23.461
35.6185 23.3116
35.6653 23.251
35.7123 23.2335
35.759 23.1645
35.806 23.0404
35.8528 22.8847
35.8998 22.8782
35.9468 22.7675
35.9936 22.7171
36.0406 22.5819
36.0874 22.5987
36.1345 22.6112
36.1813 22.4405
36.2283 22.382
36.2752 22.3361
36.3222 22.2999
36.3691 22.2087
36.4161 22.0923
36.463 22.0883
36.5101 22.0808
36.557 22.0507
36.6041 21.8191
36.651 21.8636
36.6981 21.8373
36.745 21.7104
36.7921 21.6027
36.839 21.6058
36.8861 21.5677
36.9331 21.4499
36.9802 21.3137
37.0272 21.2879
37.0743 21.1852
37.1213 21.1039
37.1684 21.1002
37.2154 20.9711
37.2626 20.9232
37.3098 20.883
37.3568 20.7683
37.404 20.7699
37.451 20.6079
37.4982 20.6657
37.5452 20.4961
37.5924 20.5212
37.6395 20.5179
37.6867 20.3758
37.7337 20.2607
37.781 20.1904
37.8281 20.2033
37.8753 20.0637
37.9224 20.0251
37.9697 19.9045
38.0168 19.8604
38.064 19.7997
38.1111 19.7275
38.1584 19.6808
38.2056 19.6065
38.2529 19.553
38.3 19.5018
38.3473 19.5692
38.3945 19.3738
38.4418 19.3718
38.489 19.3427
38.5363 19.192
38.5837 19.1171
38.6309 19.1037
38.6782 19.0882
38.7254 18.9619
38.7728 18.8805
38.82 18.8065
38.8674 18.821
38.9146 18.722
38.9621 18.6902
39.0093 18.6229
39.0567 18.5575
39.104 18.4554
39.1514 18.3634
39.1987 18.3164
39.2461 18.3367
39.2934 18.2232
39.3409 18.1982
39.3882 18.0734
39.4356 18.0693
39.483 17.9789
39.5304 17.913
39.5778 17.9243
39.6253 17.8618
39.6726 17.8077
39.7201 17.7519
39.7675 17.6909
39.815 17.6711
39.8624 17.592
39.9099 17.5745
39.9575 17.46
40.0049 17.3969
40.0525 17.3103
40.0999 17.2694
40.1474 17.2302
40.1949 17.2146
40.2425 17.1153
40.2899 17.0808
40.3375 17.0398
40.385 16.9624
40.4326 16.9055
40.48 16.8721
40.5277 16.8427
40.5752 16.7666
40.6228 16.6632
40.6703 16.7107
40.718 16.6458
40.7655 16.5547
40.8132 16.462
40.8607 16.4333
40.9084 16.391
40.9559 16.3617
41.0036 16.3164
41.0512 16.2395
41.0989 16.2499
41.1465 16.1117
41.1942 16.0742
41.242 15.9843
41.2896 15.9366
41.3373 15.9008
41.3849 15.8641
41.4327 15.8282
41.4803 15.734
41.5281 15.6882
41.5758 15.6699
41.6236 15.6126
41.6712 15.5475
41.7191 15.5189
41.7667 15.4337
41.8146 15.4493
41.8622 15.3418
41.9101 15.2419
41.9578 15.1784
42.0057 15.1531
42.0534 15.101
42.1013 15.0868
42.149 15.0629
42.1969 14.9758
42.2446 14.9168
42.2925 14.9052
42.3403 14.7965
42.3882 14.8021
42.436 14.7639
42.4839 14.6126
42.5319 14.6459
42.5797 14.6171
42.6277 14.5335
42.6755 14.4889
42.7235 14.4156
42.7713 14.3874
42.8193 14.3661
42.8671 14.2916
42.9152 14.2161
42.963 14.1919
43.0111 14.0974
43.0589 14.0637
43.107 14.0222
43.1549 14.012
43.2029 13.9042
43.2508 13.9052
43.2989 13.8221
43.3468 13.7808
43.3949 13.786
43.4429 13.7041
43.491 13.6997
43.5389 13.6252
43.5871 13.5415
43.635 13.5047
43.6832 13.5044
43.7312 13.4172
43.7793 13.39
43.8273 13.3175
43.8755 13.3179
43.9237 13.2534
43.9717 13.2371
44.0199 13.1626
44.068 13.1195
44.1162 13.0376
44.1642 12.9985
44.2125 13.0204
44.2606 12.9101
44.3088 12.8674
44.3569 12.8168
44.4052 12.8013
44.4533 12.7263
44.5016 12.6571
44.5497 12.6281
44.598 12.6152
44.6461 12.5557
44.6945 12.5601
44.7426 12.5199
44.791 12.4428
44.8391 12.4168
44.8875 12.3586
44.9357 12.3296
44.984 12.2528
45.0322 12.2391
45.0806 12.1517
45.1288 12.1289
45.1773 12.0943
45.2257 12.0409
45.2739 12.0525
45.3224 12.0007
45.3706 11.9094
45.4191 11.8506
45.4673 11.8347
45.5158 11.8341
45.5641 11.7285
45.6126 11.719
45.6609 11.6678
45.7094 11.5711
45.7577 11.5666
45.8063 11.5024
45.8546 11.5227
45.9031 11.4679
45.9515 11.3997
46.0001 11.3673
46.0484 11.3645
46.097 11.3018
46.1454 11.2461
46.194 11.2346
46.2424 11.1341
46.291 11.1339
46.3395 11.079
46.3881 11.03
46.4365 11.0731
46.4852 10.952
46.5337 10.9213
46.5823 10.9523
46.631 10.8348
46.6795 10.8438
46.7282 10.7663
46.7767 10.7487
46.8254 10.6615
46.8739 10.6855
46.9226 10.5943
46.9712 10.594
47.0199 10.5291
47.0685 10.5073
47.1173 10.4389
47.1658 10.4329
47.2146 10.3498
47.2632 10.3525
47.312 10.34
47.3606 10.2401
47.4095 10.2117
47.4581 10.2181
47.5069 10.127
47.5556 10.1004
47.6044 10.0689
47.6531 10.0523
47.702 9.98225
47.7507 9.95878
47.7996 9.94333
47.8483 9.88062
47.8972 9.87591
47.9461 9.83724
47.9948 9.75672
48.0438 9.73329
48.0925 9.74104
48.1415 9.6523
48.1902 9.6404
48.2392 9.62759
48.288 9.58822
48.337 9.5478
48.3858 9.48021
48.4348 9.49009
48.4837 9.45398
48.5327 9.43926
48.5815 9.36859
48.6306 9.37031
48.6795 9.30216
48.7285 9.27361
48.7774 9.23943
48.8265 9.16519
48.8754 9.15185
48.9245 9.11558
48.9734 9.08991
49.0226 9.08003
49.0715 9.02045
49.1206 8.98382
49.1696 8.93435
49.2188 8.94981
49.2679 8.88136
49.3169 8.86205
49.3661 8.82525
49.4151 8.80759
49.4643 8.80417
49.5134 8.72875
49.5626 8.66744
49.6117 8.62969
49.6609 8.6285
49.71 8.53936
49.7592 8.56363
49.8083 8.48468
49.8576 8.50409
49.9067 8.4467
49.956 8.43912
50.0052 8.39733
50.0545 8.34031
50.1036 8.36588
50.153 8.30953
50.2022 8.24716
50.2515 8.20543
50.3007 8.18174
50.3501 8.16553
50.3993 8.11314
50.4487 8.11072
50.498 8.08079
50.5474 8.04296
50.5966 8.03731
50.6461 7.99237
50.6955 7.97267
50.7448 7.93666
50.7943 7.85894
50.8436 7.87701
50.8931 7.81928
50.9424 7.79114
50.9919 7.74676
51.0413 7.76825
51.0908 7.71036
51.1402 7.71646
51.1897 7.66913
51.2391 7.62628
51.2887 7.56846
51.3381 7.51559
51.3877 7.52783
51.4371 7.47983
51.4867 7.42847
51.5362 7.39811
51.5858 7.42849
51.6353 7.36131
51.6849 7.34081
51.7344 7.28542
51.7841 7.28694
51.8336 7.24069
51.8833 7.25401
51.9328 7.15556
51.9826 7.14442
52.0323 7.12572
52.0818 7.09963
52.1316 7.05884
52.1812 7.04961
52.231 7.0216
52.2806 6.9752
52.3304 6.94012
52.38 6.92503
52.4298 6.89414
52.4794 6.83401
52.5293 6.8191
52.5789 6.80284
52.6288 6.77568
52.6785 6.74716
52.7284 6.72544
52.7781 6.71263
52.828 6.6904
52.8777 6.62139
52.9276 6.65086
52.9774 6.56483
53.0273 6.58193
53.0771 6.5131
53.1271 6.4977
53.1769 6.44927
53.2269 6.44105
53.2767 6.39655
53.3267 6.3967
53.3765 6.38163
53.4266 6.32663
53.4766 6.27219
53.5265 6.2398
53.5765 6.26946
53.6264 6.21377
53.6765 6.22807
53.7264 6.15964
53.7765 6.14282
53.8265 6.11439
53.8766 6.0908
53.9266 6.08226
53.9767 6.00588
54.0267 6.02863
54.0769 5.99934
54.1269 5.95045
54.1771 5.90807
54.2271 5.87527
54.2773 5.83135
54.3274 5.82617
54.3776 5.83187
54.4277 5.80971
54.478 5.77626
54.528 5.71036
54.5783 5.69707
54.6285 5.63445
54.6788 5.65647
54.7289 5.59744
54.7792 5.49364
54.8296 5.50903
54.8798 5.4439
54.9301 5.4051
54.9803 5.40672
55.0307 5.37131
55.0809 5.27163
55.1314 5.25305
55.1816 5.20498
55.232 5.14296
55.2823 5.09643
55.3328 5.07124
55.383 5.03828
55.4335 4.99338
55.4838 4.9111
55.5344 4.86099
55.5847 4.86512
55.6352 4.82137
55.6856 4.78694
55.7361 4.79237