File: XRD/Ni3Fe_FD0747.xy
TT I
1.27165 7.33241
1.31627 6.94351
1.36089 6.28239
1.40551 6.2144
1.45013 5.90624
1.49476 6.35986
1.53938 5.83472
1.584 5.70367
1.62863 5.4079
1.67325 5.11314
1.71787 4.96539
1.7625 5.16461
1.80712 4.58056
1.85174 4.88196
1.89636 4.73196
1.94099 5.10598
1.98562 5.247
2.03025 4.24854
2.07487 4.51048
2.11949 5.1465
2.16411 5.44864
2.20874 15.2141
2.25338 23.9495
2.298 6.66654
2.34263 6.00712
2.38725 6.08075
2.43188 6.51684
2.4765 6.83812
2.52115 7.38975
2.56577 7.61428
2.6104 8.41071
2.65503 7.49808
2.69965 8.32287
2.7443 8.88496
2.78893 8.11426
2.83356 8.24951
2.87818 9.0756
2.92281 8.90084
2.96744 9.70579
3.01209 10.191
3.05672 11.3514
3.10135 12.1014
3.14599 13.1152
3.19062 14.3576
3.23527 15.4396
3.2799 15.5089
3.32454 16.9615
3.36917 17.7465
3.4138 18.4583
3.45844 20.02
3.50309 21.3233
3.54773 22.0413
3.59237 24.2874
3.637 96.832
3.68164 62.3124
3.7263 26.4309
3.77094 26.082
3.81558 26.8003
3.86022 27.399
3.90486 28.6628
3.9495 29.8563
3.99416 30.8857
4.0388 32.2464
4.08344 33.9847
4.12809 35.0649
4.17273 36.8091
4.21738 43.5114
4.26204 263.477
4.30669 236.492
4.35133 48.9086
4.39598 44.7082
4.44063 54.1832
4.4853 67.221
4.52995 49.901
4.5746 50.7941
4.61925 53.0631
4.6639 55.096
4.70855 57.7292
4.75322 60.5149
4.79788 63.3954
4.84253 66.6759
4.88719 70.1879
4.93184 74.2944
4.97652 79.6136
5.02118 85.3308
5.06583 92.7011
5.11049 103.392
5.15515 172.421
5.19981 314.007
5.24449 2600.04
5.28916 12771.6
5.33382 2947.79
5.37848 185.909
5.42315 127.53
5.46783 112.701
5.5125 105.038
5.55716 101.244
5.60183 97.8973
5.6465 95.5983
5.69117 93.4201
5.73586 91.2513
5.78053 90.1998
5.8252 89.7484
5.86988 90.3947
5.91455 92.4457
5.95924 99.1806
6.00392 183.577
6.0486 868.021
6.09328 4431.67
6.13795 3218.18
6.18263 241.133
6.22733 92.5699
6.27201 82.646
6.3167 103.931
6.36138 81.3193
6.40606 69.0163
6.45075 66.941
6.49545 65.4245
6.54014 63.3623
6.58483 62.6446
6.62952 62.3483
6.67421 95.289
6.71892 150.518
6.76361 69.8601
6.8083 58.3592
6.853 57.4577
6.89769 56.5427
6.94239 56.6272
6.98711 55.3837
7.03181 55.2112
7.07651 55.5526
7.12121 54.9927
7.16591 55.3071
7.21063 55.6476
7.25533 71.3019
7.30004 188.52
7.34475 94.7893
7.38945 56.662
7.43416 54.3457
7.47889 54.0955
7.5236 54.4745
7.56831 55.3763
7.61303 57.0794
7.65774 57.1876
7.70247 55.9286
7.74719 56.0419
7.79191 56.3501
7.83663 56.6189
7.88135 57.4581
7.92607 58.3108
7.97081 59.6179
8.01553 60.2128
8.06026 61.878
8.10498 63.6423
8.14971 73.4769
8.19446 72.5199
8.23919 69.2999
8.28392 71.1871
8.32865 73.3179
8.37339 77.1671
8.41812 84.5509
8.46288 114.248
8.50761 152.553
8.55235 354.38
8.59709 1139.86
8.64183 2172.52
8.68658 1013.79
8.73134 162.99
8.77609 98.6113
8.82083 91.9719
8.86558 88.724
8.91033 88.8991
8.9551 91.6292
8.99985 85.0431
9.04461 82.9621
9.08936 82.0787
9.13412 81.381
9.17888 81.1909
9.22365 82.2351
9.26841 81.1193
9.31318 81.7103
9.35794 81.877
9.4027 82.492
9.44749 83.1935
9.49226 83.9163
9.53703 84.6767
9.5818 86.8406
9.62657 91.353
9.67134 98.3594
9.71614 93.0333
9.76091 93.2127
9.80569 95.4037
9.85047 98.6729
9.89525 124.458
9.94005 136.106
9.98484 162.064
10.0296 315.184
10.0744 772.715
10.1192 1739.34
10.164 1621.42
10.2088 408.286
10.2536 127.043
10.2984 112.779
10.3432 114.763
10.388 103.663
10.4328 113.631
10.4776 152.123
10.5224 270.041
10.5672 507.6
10.612 511.481
10.6568 210.193
10.7017 96.8934
10.7465 86.0513
10.7913 82.4199
10.8361 80.3869
10.8809 78.2943
10.9257 77.7865
10.9706 78.5971
11.0154 74.215
11.0602 72.3078
11.105 71.3909
11.1499 76.6372
11.1947 84.4167
11.2395 74.8323
11.2844 70.3016
11.3292 66.5941
11.374 65.8065
11.4189 65.3306
11.4637 64.3279
11.5086 64.9827
11.5534 68.2913
11.5983 65.4474
11.6431 63.3559
11.688 62.7282
11.7328 62.6598
11.7777 62.6436
11.8225 62.0245
11.8674 61.8877
11.9122 62.2139
11.9571 62.4113
12.002 63.1844
12.0468 66.2251
12.0917 76.6414
12.1366 99.5982
12.1814 150.822
12.2263 202.745
12.2712 170.456
12.3161 100.475
12.3609 70.885
12.4058 64.2051
12.4507 63.9108
12.4956 63.9303
12.5405 63.9442
12.5853 65.1774
12.6302 73.4131
12.6751 79.4949
12.72 70.0633
12.7649 67.5343
12.8098 67.9061
12.8547 69.1807
12.8996 70.3565
12.9445 71.593
12.9894 73.3733
13.0343 74.8502
13.0792 78.0391
13.1242 85.2905
13.1691 107.533
13.214 142.2
13.2589 231.037
13.3038 373.086
13.3487 422.076
13.3937 267.934
13.4386 126.452
13.4835 102.568
13.5285 115.78
13.5734 151.909
13.6183 244.445
13.6633 349.917
13.7082 340.671
13.7531 188.092
13.7981 98.2353
13.843 81.171
13.888 78.9679
13.9329 76.3716
13.9779 75.348
14.0228 73.8992
14.0678 72.4112
14.1127 72.1444
14.1577 72.0986
14.2027 70.9932
14.2476 69.9903
14.2926 70.1314
14.3376 71.1835
14.3825 69.7518
14.4275 68.3389
14.4725 68.061
14.5175 68.5135
14.5624 68.5386
14.6074 70.7414
14.6524 71.2595
14.6974 69.8011
14.7424 70.9223
14.7874 76.3808
14.8324 85.9669
14.8774 107.381
14.9224 150.399
14.9674 206.885
15.0124 218.765
15.0574 153.053
15.1024 92.2767
15.1474 72.1039
15.1924 69.9513
15.2374 70.7266
15.2824 69.9843
15.3274 67.8836
15.3725 66.359
15.4175 66.1569
15.4625 65.4113
15.5076 65.8268
15.5526 65.9513
15.5976 65.3049
15.6426 65.6795
15.6877 70.5947
15.7327 77.4884
15.7778 92.2737
15.8228 123.72
15.8679 169.716
15.9129 195.013
15.958 158.347
16.003 99.333
16.0481 68.3203
16.0931 64.7095
16.1382 62.6345
16.1833 60.3502
16.2283 58.6029
16.2734 58.2818
16.3185 58.2894
16.3636 59.3211
16.4086 57.528
16.4537 55.833
16.4988 55.2041
16.5439 55.2413
16.589 54.8157
16.6341 54.4236
16.6792 54.0179
16.7243 54.4965
16.7694 54.5772
16.8145 54.5316
16.8596 54.9239
16.9047 56.6547
16.9498 56.9432
16.9949 55.2985
17.04 55.4849
17.0851 56.3106
17.1302 57.9475
17.1754 60.794
17.2205 65.9907
17.2656 74.0212
17.3108 82.9402
17.3559 83.17
17.401 71.1272
17.4462 62.1837
17.4913 58.8762
17.5365 58.6251
17.5815 58.984
17.6268 59.1877
17.6718 60.0321
17.7171 60.481
17.7622 60.8566
17.8074 61.215
17.8525 63.1301
17.8977 66.703
17.9428 72.1487
17.9881 80.8707
18.0331 98.1532
18.0784 120.521
18.1237 139.345
18.1688 131.012
18.214 103.299
18.2591 86.1441
18.3044 89.4471
18.3495 100.03
18.3948 105.816
18.4399 96.4472
18.4852 77.65
18.5303 65.9345
18.5756 61.9373
18.6207 60.9145
18.666 59.8823
18.7112 59.4251
18.7565 58.6109
18.8016 58.3668
18.8469 57.7423
18.892 57.1933
18.9374 56.8848
18.9825 56.609
19.0278 56.5586
19.073 56.4531
19.1183 56.9198
19.1635 57.7376
19.2088 59.1109
19.254 61.3651
19.2993 65.9723
19.3447 72.5874
19.3898 76.3234
19.4352 72.1329
19.4804 63.3124
19.5257 56.6086
19.5709 53.7944
19.6163 53.7396
19.6615 53.3199
19.7068 52.9793
19.752 52.8044
19.7974 53.1578
19.8426 53.95
19.888 54.4311
19.9332 55.6624
19.9786 58.2133
20.0238 61.6778
20.0692 66.9345
20.1144 69.5529
20.1598 67.8399
20.205 63.1259
20.2504 61.9773
20.2957 63.599
20.3411 65.6419
20.3863 63.5506
20.4318 58.3383
20.477 53.555
20.5224 51.4829
20.5677 50.7192
20.6131 50.0672
20.6586 49.3622
20.7038 49.2307
20.7493 48.7839
20.7945 48.5365
20.84 48.6048
20.8853 48.3658
20.9307 48.1697
20.976 48.3543
21.0215 48.4079
21.0668 48.7162
21.1122 49.0945
21.1575 49.8488
21.203 50.4125
21.2483 50.965
21.2938 51.2139
21.3391 49.7461
21.3846 48.858
21.4299 48.1473
21.4754 48.1526
21.5207 48.1168
21.5662 48.2336
21.6116 48.6329
21.6571 49.3314
21.7024 50.3282
21.7479 52.1821
21.7933 54.8036
21.8388 58.3491
21.8843 62.2971
21.9297 64.1009
21.9752 63.1503
22.0206 59.443
22.0661 56.3
22.1115 55.8787
22.157 55.6162
22.2024 53.9707
22.248 51.2955
22.2933 49.6564
22.3389 48.8454
22.3843 48.7822
22.4299 48.5653
22.4753 48.8103
22.5208 48.2355
22.5662 48.2584
22.6118 48.3157
22.6572 48.4734
22.7028 48.8929
22.7483 49.2703
22.7939 49.8877
22.8393 51.4898
22.8849 53.6021
22.9303 55.7879
22.9759 57.6416
23.0214 57.158
23.067 54.3578
23.1126 50.8585
23.1581 48.9811
23.2037 48.5531
23.2492 48.5051
23.2948 48.3545
23.3403 48.5916
23.3859 49.3479
23.4314 50.3148
23.477 52.0801
23.5225 54.5272
23.5682 56.7296
23.6137 57.5109
23.6593 55.3437
23.7048 51.3419
23.7505 48.2008
23.796 46.4163
23.8417 45.765
23.8872 45.3465
23.9329 44.9623
23.9784 44.5882
24.0241 44.3945
24.0697 44.1857
24.1154 43.9219
24.1609 43.7587
24.2066 43.6903
24.2522 43.4907
24.2979 43.0946
24.3434 43.0968
24.3892 42.977
24.4349 43.0504
24.4805 42.7122
24.5262 42.7396
24.5718 42.7443
24.6175 42.6864
24.6631 42.579
24.7089 42.3219
24.7545 42.3153
24.8002 41.9865
24.8458 41.8677
24.8916 41.8344
24.9372 41.8482
24.983 42.1793
25.0286 42.5371
25.0744 42.9258
25.12 43.4651
25.1658 44.1754
25.2114 44.4185
25.2572 44.5404
25.3029 44.5956
25.3487 44.6307
25.3943 44.4274
25.4402 43.2798
25.4858 42.329
25.5316 41.2104
25.5773 40.6678
25.6231 40.7206
25.669 40.4125
25.7147 40.1942
25.7605 40.2678
25.8062 40.3167
25.8521 40.4725
25.8977 40.3813
25.9436 40.5968
25.9893 40.6896
26.0352 41.2767
26.0809 41.3389
26.1268 41.4444
26.1725 41.1921
26.2184 40.6583
26.2641 40.043
26.31 39.8694
26.3557 39.8636
26.4017 39.9154
26.4474 40.1486
26.4933 40.4645
26.5391 40.9855
26.585 41.2947
26.6308 41.8102
26.6767 41.9499
26.7225 41.8333
26.7684 41.2277
26.8142 40.6349
26.8601 40.2353
26.9059 39.7511
26.9519 39.2553
26.9979 38.8987
27.0437 38.665
27.0896 38.4931
27.1354 38.475
27.1814 38.3652
27.2272 38.3737
27.2732 38.3759
27.3191 38.0358
27.3651 38.1694
27.4109 38.0497
27.4569 38.2083
27.5027 38.2674
27.5488 38.3605
27.5946 38.1314
27.6407 37.9205
27.6865 37.7863
27.7326 37.6166
27.7784 37.6534
27.8245 37.4401
27.8703 37.792
27.9164 38.1494
27.9623 38.1405
28.0084 38.3949
28.0543 38.7338
28.1003 38.7728
28.1462 38.6743
28.1923 38.2503
28.2384 37.8032
28.2843 37.3407
28.3304 37.0112
28.3764 36.5843
28.4225 36.2451
28.4684 36.0862
28.5145 35.6351
28.5605 35.5873
28.6066 35.3805
28.6526 35.3851
28.6987 35.5302
28.7447 35.3802
28.7908 35.2345
28.8368 35.4548
28.8829 35.2383
28.9289 35.2243
28.9751 35.0243
29.0211 34.7632
29.0673 34.5179
29.1133 34.3263
29.1595 34.2656
29.2055 34.084
29.2517 34.1996
29.2977 34.1589
29.3439 34.1871
29.3899 34.0535
29.4361 34.0354
29.4824 33.7397
29.5284 33.6132
29.5746 33.2193
29.6207 32.9205
29.6669 32.8961
29.713 32.8251
29.7593 32.7039
29.8053 32.685
29.8516 32.6558
29.8977 32.6039
29.9439 32.4111
29.99 32.4599
30.0363 32.2121
30.0824 32.3581
30.1287 32.2169
30.1748 32.2843
30.2211 32.2608
30.2673 32.0958
30.3136 32.1801
30.3597 32.002
30.406 31.9985
30.4522 31.9911
30.4985 31.8592
30.5447 31.971
30.591 32.0608
30.6372 32.0024
30.6835 32.0001
30.7297 32.0912
30.7761 32.0353
30.8224 31.8932
30.8686 31.6781
30.915 31.4368
30.9612 31.2746
31.0076 31.2416
31.0538 31.1184
31.1002 31.0693
31.1464 30.7651
31.1928 30.8101
31.2391 30.8956
31.2855 30.7293
31.3317 30.6813
31.3781 30.727
31.4244 30.6418
31.4708 30.5438
31.5171 30.5903
31.5636 30.5706
31.6098 30.2734
31.6563 30.1554
31.7026 30.0315
31.7491 29.9369
31.7953 30.0297
31.8418 30.0445
31.8881 29.9989
31.9346 29.8934
31.9809 29.8746
32.0275 29.7848
32.074 29.6455
32.1203 29.4657
32.1668 29.3579
32.2132 29.3113
32.2597 29.0868
32.306 29.0702
32.3526 28.828
32.399 28.8022
32.4455 28.6627
32.4919 28.6111
32.5385 28.4675
32.5848 28.4366
32.6314 28.4032
32.6778 28.2423
32.7244 28.1389
32.7708 27.9651
32.8174 27.9142
32.8638 27.897
32.9104 27.9055
32.9569 27.8319
33.0035 27.7235
33.0499 27.6519
33.0966 27.7007
33.143 27.7575
33.1897 27.5716
33.2361 27.4957
33.2828 27.4367
33.3293 27.1852
33.3759 27.2194
33.4226 27.1164
33.4691 26.989
33.5158 26.9516
33.5623 26.7993
33.609 26.582
33.6555 26.563
33.7022 26.4341
33.7487 26.3979
33.7954 26.3746
33.842 26.2191
33.8887 26.1371
33.9353 26.139
33.982 26.0424
34.0286 25.9187
34.0753 25.8495
34.1219 25.7766
34.1687 25.6142
34.2152 25.645
34.262 25.4879
34.3086 25.4952
34.3554 25.3833
34.402 25.2318
34.4488 25.1588
34.4954 25.1855
34.5422 25.0989
34.5889 24.9261
34.6357 24.892
34.6825 24.7422
34.7292 24.6838
34.776 24.5872
34.8227 24.6022
34.8695 24.4663
34.9162 24.3468
34.9631 24.3761
35.0098 24.3344
35.0566 24.2565
35.1033 24.1107
35.1502 24.1926
35.1969 24.0701
35.2438 24.0187
35.2906 23.9691
35.3375 24.0109
35.3842 23.8619
35.4311 23.8906
35.4779 23.7779
35.5248 23.7382
35.5716 23.7276
35.6185 23.5332
35.6653 23.5243
35.7123 23.4286
35.759 23.4013
35.806 23.2385
35.8528 23.2043
35.8998 23.1409
35.9468 23.0364
35.9936 23.0526
36.0406 22.854
36.0874 22.8697
36.1345 22.7922
36.1813 22.7088
36.2283 22.6002
36.2752 22.4936
36.3222 22.5766
36.3691 22.3971
36.4161 22.3057
36.463 22.2789
36.5101 22.2859
36.557 22.2341
36.6041 22.0934
36.651 22.0764
36.6981 21.9628
36.745 21.9926
36.7921 21.8692
36.839 21.7329
36.8861 21.7268
36.9331 21.6906
36.9802 21.5784
37.0272 21.5056
37.0743 21.3928
37.1213 21.3402
37.1684 21.2897
37.2154 21.2367
37.2626 21.1436
37.3098 21.13
37.3568 21.0448
37.404 21.0207
37.451 20.9147
37.4982 20.8322
37.5452 20.7501
37.5924 20.7117
37.6395 20.7919
37.6867 20.6305
37.7337 20.5468
37.781 20.3848
37.8281 20.3225
37.8753 20.3186
37.9224 20.3167
37.9697 20.1677
38.0168 20.1777
38.064 20.0382
38.1111 20.04
38.1584 19.9043
38.2056 19.9614
38.2529 19.7931
38.3 19.6756
38.3473 19.6974
38.3945 19.6109
38.4418 19.6342
38.489 19.5418
38.5363 19.4412
38.5837 19.3819
38.6309 19.3731
38.6782 19.2769
38.7254 19.1316
38.7728 19.0477
38.82 19.0115
38.8674 19.0063
38.9146 18.9304
38.9621 18.8565
39.0093 18.8647
39.0567 18.7836
39.104 18.6676
39.1514 18.6093
39.1987 18.5715
39.2461 18.5234
39.2934 18.5108
39.3409 18.3842
39.3882 18.3556
39.4356 18.3326
39.483 18.2301
39.5304 18.1392
39.5778 18.1239
39.6253 18.1357
39.6726 17.9535
39.7201 17.9418
39.7675 17.8599
39.815 17.859
39.8624 17.7476
39.9099 17.7902
39.9575 17.6569
40.0049 17.644
40.0525 17.5516
40.0999 17.4733
40.1474 17.4736
40.1949 17.3729
40.2425 17.3551
40.2899 17.3181
40.3375 17.2196
40.385 17.1727
40.4326 17.1034
40.48 17.0657
40.5277 17.0055
40.5752 16.9227
40.6228 16.9429
40.6703 16.9068
40.718 16.774
40.7655 16.7435
40.8132 16.6691
40.8607 16.6767
40.9084 16.5616
40.9559 16.5059
41.0036 16.4845
41.0512 16.3964
41.0989 16.4194
41.1465 16.2987
41.1942 16.2842
41.242 16.2011
41.2896 16.1533
41.3373 16.0616
41.3849 16.0736
41.4327 15.9965
41.4803 15.9482
41.5281 15.8405
41.5758 15.8043
41.6236 15.7851
41.6712 15.723
41.7191 15.6774
41.7667 15.5966
41.8146 15.5845
41.8622 15.5564
41.9101 15.498
41.9578 15.3831
42.0057 15.2922
42.0534 15.2988
42.1013 15.266
42.149 15.2326
42.1969 15.0816
42.2446 15.162
42.2925 15.0332
42.3403 15.0184
42.3882 14.9646
42.436 14.92
42.4839 14.8255
42.5319 14.8355
42.5797 14.7594
42.6277 14.7068
42.6755 14.7009
42.7235 14.585
42.7713 14.5547
42.8193 14.5666
42.8671 14.4471
42.9152 14.4307
42.963 14.4022
43.0111 14.2947
43.0589 14.2913
43.107 14.2115
43.1549 14.1766
43.2029 14.0939
43.2508 14.0589
43.2989 14.0317
43.3468 13.9643
43.3949 13.8975
43.4429 13.9106
43.491 13.7843
43.5389 13.8366
43.5871 13.6931
43.635 13.6416
43.6832 13.6633
43.7312 13.557
43.7793 13.5284
43.8273 13.5055
43.8755 13.4316
43.9237 13.4103
43.9717 13.3663
44.0199 13.3185
44.068 13.2773
44.1162 13.221
44.1642 13.196
44.2125 13.0895
44.2606 13.1317
44.3088 13.0702
44.3569 12.9903
44.4052 12.9418
44.4533 12.9423
44.5016 12.8511
44.5497 12.8234
44.598 12.7958
44.6461 12.6838
44.6945 12.6877
44.7426 12.701
44.791 12.602
44.8391 12.5439
44.8875 12.4811
44.9357 12.4758
44.984 12.4203
45.0322 12.3679
45.0806 12.3269
45.1288 12.3044
45.1773 12.2685
45.2257 12.1676
45.2739 12.1466
45.3224 12.1481
45.3706 12.0572
45.4191 12.0265
45.4673 11.9785
45.5158 11.9068
45.5641 11.8328
45.6126 11.8328
45.6609 11.8134
45.7094 11.72
45.7577 11.7271
45.8063 11.635
45.8546 11.643
45.9031 11.599
45.9515 11.5705
46.0001 11.5392
46.0484 11.4584
46.097 11.4447
46.1454 11.4105
46.194 11.4073
46.2424 11.3192
46.291 11.278
46.3395 11.1753
46.3881 11.2045
46.4365 11.1502
46.4852 11.1534
46.5337 11.0883
46.5823 11.0421
46.631 10.9907
46.6795 10.9794
46.7282 10.9214
46.7767 10.8917
46.8254 10.8265
46.8739 10.7854
46.9226 10.7582
46.9712 10.7026
47.0199 10.6523
47.0685 10.6369
47.1173 10.5688
47.1658 10.5295
47.2146 10.529
47.2632 10.4544
47.312 10.4267
47.3606 10.4098
47.4095 10.3931
47.4581 10.2961
47.5069 10.2583
47.5556 10.271
47.6044 10.1561
47.6531 10.1593
47.702 10.1011
47.7507 10.1107
47.7996 10.0763
47.8483 10.0161
47.8972 9.97243
47.9461 9.96652
47.9948 9.89469
48.0438 9.8558
48.0925 9.8337
48.1415 9.79177
48.1902 9.79696
48.2392 9.75656
48.288 9.71154
48.337 9.6603
48.3858 9.62933
48.4348 9.59311
48.4837 9.582
48.5327 9.49542
48.5815 9.48998
48.6306 9.4338
48.6795 9.41867
48.7285 9.35634
48.7774 9.35903
48.8265 9.33808
48.8754 9.26199
48.9245 9.23493
48.9734 9.23487
49.0226 9.19277
49.0715 9.14946
49.1206 9.09302
49.1696 9.07348
49.2188 9.06399
49.2679 9.01178
49.3169 8.96863
49.3661 8.949
49.4151 8.92368
49.4643 8.89427
49.5134 8.82686
49.5626 8.77188
49.6117 8.7841
49.6609 8.76293
49.71 8.66658
49.7592 8.66489
49.8083 8.60985
49.8576 8.63315
49.9067 8.53401
49.956 8.52018
50.0052 8.49357
50.0545 8.47027
50.1036 8.44329
50.153 8.37576
50.2022 8.37353
50.2515 8.36707
50.3007 8.27876
50.3501 8.2451
50.3993 8.20591
50.4487 8.18418
50.498 8.15114
50.5474 8.16263
50.5966 8.07299
50.6461 8.07464
50.6955 8.06383
50.7448 8.01159
50.7943 8.01555
50.8436 7.99129
50.8931 7.92781
50.9424 7.90434
50.9919 7.8733
51.0413 7.85502
51.0908 7.79571
51.1402 7.77107
51.1897 7.72932
51.2391 7.70446
51.2887 7.66947
51.3381 7.64931
51.3877 7.66001
51.4371 7.57655
51.4867 7.54275
51.5362 7.53126
51.5858 7.4542
51.6353 7.45643
51.6849 7.42713
51.7344 7.38272
51.7841 7.3591
51.8336 7.34065
51.8833 7.31335
51.9328 7.26684
51.9826 7.24436
52.0323 7.23733
52.0818 7.17879
52.1316 7.14825
52.1812 7.14439
52.231 7.10899
52.2806 7.07346
52.3304 7.03268
52.38 7.00275
52.4298 6.94978
52.4794 6.92849
52.5293 6.95331
52.5789 6.89437
52.6288 6.86048
52.6785 6.8414
52.7284 6.77635
52.7781 6.79851
52.828 6.76342
52.8777 6.7329
52.9276 6.67525
52.9774 6.68354
53.0273 6.63643
53.0771 6.61103
53.1271 6.59158
53.1769 6.51739
53.2269 6.48544
53.2767 6.48386
53.3267 6.46105
53.3765 6.4579
53.4266 6.4319
53.4766 6.36162
53.5265 6.36005
53.5765 6.33136
53.6264 6.2855
53.6765 6.33101
53.7264 6.22285
53.7765 6.24223
53.8265 6.18297
53.8766 6.17344
53.9266 6.14831
53.9767 6.14
54.0267 6.11376
54.0769 6.00765
54.1269 6.02957
54.1771 6.00203
54.2271 5.9582
54.2773 5.89149
54.3274 5.92056
54.3776 5.84245
54.4277 5.85863
54.478 5.81999
54.528 5.76621
54.5783 5.69528
54.6285 5.67315
54.6788 5.64838
54.7289 5.63932
54.7792 5.58291
54.8296 5.52563
54.8798 5.50557
54.9301 5.42991
54.9803 5.44609
55.0307 5.38723
55.0809 5.35219
55.1314 5.35141
55.1816 5.26684
55.232 5.24443
55.2823 5.20897
55.3328 5.15165
55.383 5.08081
55.4335 5.04708
55.4838 4.95612
55.5344 4.95443
55.5847 4.88398
55.6352 4.90902
55.6856 4.82684
55.7361 4.74339