File: XRD/Ni3Fe_FD0550.xy
TT I
1.27165 7.19315
1.31627 6.93895
1.36089 7.19381
1.40551 5.94367
1.45013 6.11506
1.49476 6.08684
1.53938 5.99296
1.584 5.27872
1.62863 5.42278
1.67325 5.22359
1.71787 4.86964
1.7625 5.1006
1.80712 5.19566
1.85174 4.80266
1.89636 4.39858
1.94099 4.88263
1.98562 4.93549
2.03025 4.90067
2.07487 4.37324
2.11949 5.5914
2.16411 5.26551
2.20874 12.8679
2.25338 20.1255
2.298 6.18578
2.34263 5.44966
2.38725 5.31774
2.43188 5.80799
2.4765 6.1534
2.52115 6.37858
2.56577 7.34654
2.6104 7.52354
2.65503 7.24431
2.69965 8.04154
2.7443 8.13753
2.78893 8.09539
2.83356 8.26707
2.87818 8.42185
2.92281 8.77213
2.96744 9.76329
3.01209 10.3371
3.05672 11.333
3.10135 12.506
3.14599 12.5584
3.19062 13.9317
3.23527 14.6523
3.2799 15.6905
3.32454 16.7913
3.36917 17.6869
3.4138 19.0386
3.45844 19.67
3.50309 21.0673
3.54773 21.792
3.59237 23.8975
3.637 83.0752
3.68164 54.2366
3.7263 25.9152
3.77094 26.1189
3.81558 26.5884
3.86022 27.5531
3.90486 29.2789
3.9495 30.225
3.99416 30.5322
4.0388 32.0315
4.08344 33.7553
4.12809 34.8819
4.17273 36.846
4.21738 42.2011
4.26204 217.998
4.30669 187.653
4.35133 48.2363
4.39598 44.6368
4.44063 52.6386
4.4853 62.6342
4.52995 50.5407
4.5746 51.5731
4.61925 53.5999
4.6639 55.7403
4.70855 58.6622
4.75322 61.293
4.79788 64.1718
4.84253 67.7505
4.88719 71.9345
4.93184 75.763
4.97652 81.2664
5.02118 87.8482
5.06583 95.7963
5.11049 108.224
5.15515 173.17
5.19981 390.014
5.24449 3044.65
5.28916 12177.3
5.33382 3114.74
5.37848 196.014
5.42315 130.059
5.46783 114.047
5.5125 106.891
5.55716 102.491
5.60183 98.8344
5.6465 97.1122
5.69117 94.9623
5.73586 92.6758
5.78053 92.7732
5.8252 91.8428
5.86988 92.7751
5.91455 96.2333
5.95924 105.441
6.00392 229.078
6.0486 1046.27
6.09328 4391.94
6.13795 3390.58
6.18263 263.874
6.22733 94.5481
6.27201 83.701
6.3167 98.5947
6.36138 79.8706
6.40606 69.4745
6.45075 67.3977
6.49545 65.728
6.54014 64.386
6.58483 63.0442
6.62952 63.202
6.67421 89.016
6.71892 131.54
6.76361 67.4709
6.8083 58.6388
6.853 57.4663
6.89769 57.2198
6.94239 56.918
6.98711 55.9509
7.03181 55.8922
7.07651 55.7783
7.12121 55.5138
7.16591 55.5029
7.21063 55.6189
7.25533 67.5783
7.30004 159.904
7.34475 86.7392
7.38945 56.3945
7.43416 54.8859
7.47889 54.7325
7.5236 55.1602
7.56831 55.7688
7.61303 57.0637
7.65774 57.3275
7.70247 56.4963
7.74719 56.4158
7.79191 57.0103
7.83663 57.2909
7.88135 57.9186
7.92607 59.1358
7.97081 59.9145
8.01553 60.9188
8.06026 62.8296
8.10498 64.3433
8.14971 72.666
8.19446 71.8471
8.23919 69.8652
8.28392 72.3276
8.32865 74.4961
8.37339 79.2475
8.41812 85.8953
8.46288 113.151
8.50761 173.648
8.55235 418.568
8.59709 1215.88
8.64183 2221.02
8.68658 952.467
8.73134 170.206
8.77609 100.301
8.82083 93.0543
8.86558 90.2256
8.91033 90.0599
8.9551 91.1414
8.99985 85.6753
9.04461 83.7689
9.08936 83.1255
9.13412 81.9625
9.17888 82.4554
9.22365 83.2235
9.26841 82.6173
9.31318 83.0198
9.35794 83.1897
9.4027 83.3888
9.44749 84.6035
9.49226 85.0166
9.53703 85.8779
9.5818 87.924
9.62657 91.9764
9.67134 97.7796
9.71614 94.1808
9.76091 94.5798
9.80569 96.9641
9.85047 100.6
9.89525 121.63
9.94005 135.486
9.98484 186.947
10.0296 363.851
10.0744 826.167
10.1192 1709.11
10.164 1588.54
10.2088 395.951
10.2536 125.899
10.2984 112.434
10.3432 114.103
10.388 105.374
10.4328 121.326
10.4776 166.3
10.5224 289.846
10.5672 511.076
10.612 501.592
10.6568 193.56
10.7017 95.5447
10.7465 86.4895
10.7913 83.2249
10.8361 81.5327
10.8809 79.2653
10.9257 78.3892
10.9706 78.8186
11.0154 74.8545
11.0602 72.9389
11.105 72.1975
11.1499 75.73
11.1947 81.4753
11.2395 74.0603
11.2844 70.5018
11.3292 67.6158
11.374 66.3818
11.4189 65.9031
11.4637 65.4619
11.5086 65.6546
11.5534 67.8889
11.5983 65.7361
11.6431 63.7103
11.688 63.0183
11.7328 62.9823
11.7777 62.9374
11.8225 62.7502
11.8674 62.6151
11.9122 63.1493
11.9571 63.2178
12.002 64.1783
12.0468 68.8459
12.0917 80.6721
12.1366 104.895
12.1814 153.407
12.2263 205.136
12.2712 165.502
12.3161 93.7925
12.3609 70.1304
12.4058 64.9365
12.4507 64.6672
12.4956 64.7422
12.5405 64.8662
12.5853 65.8228
12.6302 72.3532
12.6751 77.4112
12.72 70.2628
12.7649 68.0216
12.8098 68.7817
12.8547 69.9499
12.8996 71.3927
12.9445 72.8669
12.9894 74.4443
13.0343 76.0626
13.0792 79.6031
13.1242 89.1777
13.1691 115.225
13.214 153.707
13.2589 244.079
13.3038 373.728
13.3487 434.257
13.3937 263.285
13.4386 122.363
13.4835 107.364
13.5285 123.686
13.5734 163.416
13.6183 251.85
13.6633 349.912
13.7082 344.327
13.7531 184.831
13.7981 97.0961
13.843 82.2724
13.888 80.0671
13.9329 77.5201
13.9779 76.2216
14.0228 74.6385
14.0678 73.3812
14.1127 72.8828
14.1577 72.7966
14.2027 71.6373
14.2476 70.6981
14.2926 70.7314
14.3376 71.7217
14.3825 70.4617
14.4275 69.1843
14.4725 69.0848
14.5175 69.394
14.5624 69.5842
14.6074 71.3209
14.6524 72.007
14.6974 70.8731
14.7424 72.7518
14.7874 80.3514
14.8324 91.047
14.8774 112.798
14.9224 155.726
14.9674 209.215
15.0124 220.684
15.0574 148.666
15.1024 89.6232
15.1474 72.3765
15.1924 70.6427
15.2374 71.1648
15.2824 70.2773
15.3274 68.5302
15.3725 67.1114
15.4175 66.8728
15.4625 66.395
15.5076 66.5033
15.5526 66.6263
15.5976 66.2739
15.6426 67.5687
15.6877 73.3489
15.7327 81.4508
15.7778 97.3713
15.8228 128.385
15.8679 172.419
15.9129 195.396
15.958 155.53
16.003 95.511
16.0481 67.7508
16.0931 64.5307
16.1382 62.9102
16.1833 60.8883
16.2283 59.1641
16.2734 58.4428
16.3185 58.8921
16.3636 59.3427
16.4086 57.9327
16.4537 56.5575
16.4988 55.8656
16.5439 55.654
16.589 55.5348
16.6341 55.3257
16.6792 54.9681
16.7243 55.2538
16.7694 55.4356
16.8145 55.315
16.8596 55.6558
16.9047 56.773
16.9498 56.9218
16.9949 56.0244
17.04 56.0889
17.0851 57.5711
17.1302 59.282
17.1754 62.2922
17.2205 67.548
17.2656 74.9412
17.3108 82.5444
17.3559 82.1541
17.401 71.5135
17.4462 62.1865
17.4913 59.409
17.5365 59.5388
17.5815 59.5283
17.6268 59.9539
17.6718 60.7573
17.7171 61.3457
17.7622 61.6737
17.8074 62.3257
17.8525 64.8425
17.8977 69.5091
17.9428 74.9606
17.9881 83.8672
18.0331 101.092
18.0784 122.557
18.1237 141.534
18.1688 132.223
18.214 103.605
18.2591 86.6444
18.3044 90.9751
18.3495 101.204
18.3948 107.232
18.4399 96.5351
18.4852 77.6214
18.5303 66.1711
18.5756 62.5871
18.6207 61.6074
18.666 60.8511
18.7112 60.0738
18.7565 59.3586
18.8016 59.0513
18.8469 58.4111
18.892 58.0695
18.9374 57.6205
18.9825 57.3061
19.0278 57.0745
19.073 57.4033
19.1183 57.8739
19.1635 58.5283
19.2088 59.9233
19.254 62.8122
19.2993 66.9598
19.3447 73.0162
19.3898 77.2501
19.4352 72.3476
19.4804 63.1012
19.5257 56.9608
19.5709 54.5027
19.6163 54.2481
19.6615 53.8546
19.7068 53.7262
19.752 53.6018
19.7974 53.9492
19.8426 54.9563
19.888 55.457
19.9332 56.7296
19.9786 59.3933
20.0238 63.0353
20.0692 67.7556
20.1144 70.743
20.1598 68.4961
20.205 63.7591
20.2504 62.6055
20.2957 64.4799
20.3411 66.3314
20.3863 64.4794
20.4318 58.5075
20.477 53.7338
20.5224 51.7108
20.5677 51.3027
20.6131 50.4481
20.6586 49.9996
20.7038 49.7471
20.7493 49.3586
20.7945 49.3091
20.84 49.1305
20.8853 48.988
20.9307 48.9465
20.976 49.0063
21.0215 48.8922
21.0668 49.4409
21.1122 49.8671
21.1575 50.4189
21.203 51.2487
21.2483 51.7064
21.2938 51.9012
21.3391 50.3502
21.3846 49.1519
21.4299 48.5939
21.4754 48.7108
21.5207 48.9506
21.5662 49.0592
21.6116 49.743
21.6571 50.303
21.7024 51.352
21.7479 53.1427
21.7933 55.869
21.8388 59.3644
21.8843 63.2439
21.9297 65.1985
21.9752 63.5908
22.0206 60.0285
22.0661 56.9055
22.1115 56.3581
22.157 56.2149
22.2024 54.3218
22.248 51.747
22.2933 50.2091
22.3389 49.4013
22.3843 49.2507
22.4299 49.1317
22.4753 49.2706
22.5208 48.8246
22.5662 48.7022
22.6118 49.0615
22.6572 49.1301
22.7028 49.6211
22.7483 50.1052
22.7939 50.7977
22.8393 52.3902
22.8849 54.5714
22.9303 56.5508
22.9759 58.2682
23.0214 57.6065
23.067 54.7346
23.1126 51.4131
23.1581 49.4526
23.2037 49.0183
23.2492 49.1617
23.2948 49.1987
23.3403 49.3967
23.3859 50.2236
23.4314 51.2398
23.477 53.1389
23.5225 55.2347
23.5682 57.3955
23.6137 58.4373
23.6593 56.0297
23.7048 51.8253
23.7505 48.4265
23.796 46.7956
23.8417 46.1828
23.8872 45.7553
23.9329 45.4506
23.9784 45.055
24.0241 44.8645
24.0697 44.8245
24.1154 44.3961
24.1609 44.2696
24.2066 44.066
24.2522 44.0679
24.2979 43.8069
24.3434 43.4887
24.3892 43.403
24.4349 43.4012
24.4805 43.1533
24.5262 43.4546
24.5718 43.2251
24.6175 43.1619
24.6631 43.061
24.7089 42.6649
24.7545 42.6545
24.8002 42.535
24.8458 42.4583
24.8916 42.4015
24.9372 42.5478
24.983 42.8017
25.0286 43.1514
25.0744 43.6001
25.12 44.1504
25.1658 44.6684
25.2114 44.9179
25.2572 45.0556
25.3029 45.0666
25.3487 45.2043
25.3943 44.8705
25.4402 43.8374
25.4858 42.6441
25.5316 41.7262
25.5773 41.1773
25.6231 41.1836
25.669 40.7281
25.7147 40.7953
25.7605 40.7648
25.8062 40.8471
25.8521 40.9374
25.8977 40.8993
25.9436 41.2062
25.9893 41.2046
26.0352 41.9608
26.0809 41.9174
26.1268 42.1001
26.1725 41.7439
26.2184 41.0027
26.2641 40.5549
26.31 40.4719
26.3557 40.4423
26.4017 40.5834
26.4474 40.8135
26.4933 40.9434
26.5391 41.628
26.585 42.0068
26.6308 42.4256
26.6767 42.4948
26.7225 42.3361
26.7684 41.68
26.8142 41.1532
26.8601 40.7432
26.9059 40.3376
26.9519 39.7577
26.9979 39.5324
27.0437 39.1124
27.0896 38.9935
27.1354 39.0132
27.1814 38.9524
27.2272 38.7244
27.2732 38.802
27.3191 38.6436
27.3651 38.8896
27.4109 38.6929
27.4569 38.7314
27.5027 38.832
27.5488 38.9089
27.5946 38.603
27.6407 38.4888
27.6865 38.4185
27.7326 38.113
27.7784 38.1454
27.8245 38.0456
27.8703 38.2771
27.9164 38.6002
27.9623 38.8165
28.0084 38.9787
28.0543 39.3131
28.1003 39.3066
28.1462 39.1423
28.1923 38.7035
28.2384 38.2211
28.2843 37.7514
28.3304 37.4538
28.3764 36.8984
28.4225 36.6086
28.4684 36.5952
28.5145 36.2317
28.5605 36.2065
28.6066 35.9325
28.6526 35.8448
28.6987 35.8785
28.7447 35.6459
28.7908 35.6818
28.8368 35.6393
28.8829 35.6555
28.9289 35.646
28.9751 35.3728
29.0211 35.1036
29.0673 34.971
29.1133 34.7581
29.1595 34.6893
29.2055 34.6146
29.2517 34.5745
29.2977 34.4668
29.3439 34.5337
29.3899 34.5278
29.4361 34.3638
29.4824 34.1865
29.5284 34.1124
29.5746 33.6055
29.6207 33.4606
29.6669 33.2356
29.713 33.0881
29.7593 32.9506
29.8053 33.1079
29.8516 32.9898
29.8977 32.9196
29.9439 32.7781
29.99 32.7861
30.0363 32.7501
30.0824 32.7163
30.1287 32.6588
30.1748 32.5369
30.2211 32.7265
30.2673 32.4744
30.3136 32.6488
30.3597 32.446
30.406 32.4727
30.4522 32.2695
30.4985 32.3015
30.5447 32.3395
30.591 32.3926
30.6372 32.3749
30.6835 32.3586
30.7297 32.3698
30.7761 32.3514
30.8224 32.1568
30.8686 32.0592
30.915 31.8873
30.9612 31.7917
31.0076 31.5434
31.0538 31.3683
31.1002 31.2866
31.1464 31.2285
31.1928 31.1228
31.2391 31.1722
31.2855 31.0806
31.3317 31.1414
31.3781 31.1717
31.4244 31.21
31.4708 31.0935
31.5171 31.0099
31.5636 30.9671
31.6098 30.6513
31.6563 30.551
31.7026 30.4561
31.7491 30.3131
31.7953 30.3071
31.8418 30.3811
31.8881 30.3176
31.9346 30.3182
31.9809 30.2545
32.0275 30.1686
32.074 30.009
32.1203 29.876
32.1668 29.7398
32.2132 29.6826
32.2597 29.4681
32.306 29.3714
32.3526 29.2638
32.399 29.0564
32.4455 29.0327
32.4919 28.8663
32.5385 28.8329
32.5848 28.6756
32.6314 28.7058
32.6778 28.7025
32.7244 28.4769
32.7708 28.3823
32.8174 28.3381
32.8638 28.2237
32.9104 28.2616
32.9569 28.2742
33.0035 28.1454
33.0499 28.1067
33.0966 27.9496
33.143 28.0302
33.1897 27.9361
33.2361 27.8255
33.2828 27.7251
33.3293 27.5345
33.3759 27.6051
33.4226 27.4502
33.4691 27.3174
33.5158 27.2344
33.5623 27.1547
33.609 26.9919
33.6555 26.933
33.7022 26.7702
33.7487 26.7118
33.7954 26.7032
33.842 26.5974
33.8887 26.4968
33.9353 26.418
33.982 26.383
34.0286 26.244
34.0753 26.2123
34.1219 26.041
34.1687 26.0851
34.2152 25.9449
34.262 25.8494
34.3086 25.686
34.3554 25.6982
34.402 25.5549
34.4488 25.4735
34.4954 25.4378
34.5422 25.3979
34.5889 25.2382
34.6357 25.1606
34.6825 25.0333
34.7292 25.0429
34.776 24.9489
34.8227 24.8826
34.8695 24.8661
34.9162 24.6916
34.9631 24.6754
35.0098 24.6946
35.0566 24.4531
35.1033 24.4365
35.1502 24.3994
35.1969 24.3563
35.2438 24.2718
35.2906 24.1933
35.3375 24.1904
35.3842 24.1295
35.4311 24.2071
35.4779 24.1129
35.5248 24.0478
35.5716 23.9549
35.6185 23.9303
35.6653 23.7189
35.7123 23.7273
35.759 23.625
35.806 23.5576
35.8528 23.3657
35.8998 23.3328
35.9468 23.2472
35.9936 23.2247
36.0406 23.1111
36.0874 23.1073
36.1345 23.0421
36.1813 22.9484
36.2283 22.8969
36.2752 22.7121
36.3222 22.7982
36.3691 22.7002
36.4161 22.5876
36.463 22.5239
36.5101 22.5577
36.557 22.5063
36.6041 22.3025
36.651 22.3355
36.6981 22.2937
36.745 22.2307
36.7921 22.1606
36.839 22.0429
36.8861 21.9765
36.9331 21.8882
36.9802 21.8654
37.0272 21.6946
37.0743 21.6928
37.1213 21.606
37.1684 21.5422
37.2154 21.541
37.2626 21.4197
37.3098 21.3619
37.3568 21.2946
37.404 21.2293
37.451 21.1374
37.4982 21.1164
37.5452 20.953
37.5924 20.9881
37.6395 20.9969
37.6867 20.8525
37.7337 20.8078
37.781 20.6831
37.8281 20.6577
37.8753 20.5079
37.9224 20.4562
37.9697 20.4209
38.0168 20.3942
38.064 20.286
38.1111 20.2613
38.1584 20.1719
38.2056 20.0588
38.2529 20.0548
38.3 20.0132
38.3473 19.9695
38.3945 19.8616
38.4418 19.7728
38.489 19.7074
38.5363 19.5835
38.5837 19.5815
38.6309 19.558
38.6782 19.4676
38.7254 19.4204
38.7728 19.3205
38.82 19.2493
38.8674 19.1705
38.9146 19.215
38.9621 19.0807
39.0093 19.0495
39.0567 19.0558
39.104 18.8798
39.1514 18.8677
39.1987 18.7743
39.2461 18.7575
39.2934 18.7084
39.3409 18.5741
39.3882 18.5097
39.4356 18.46
39.483 18.409
39.5304 18.3972
39.5778 18.3076
39.6253 18.2561
39.6726 18.1912
39.7201 18.1778
39.7675 18.0969
39.815 18.0728
39.8624 17.9294
39.9099 17.9768
39.9575 17.8338
40.0049 17.7849
40.0525 17.7312
40.0999 17.6379
40.1474 17.646
40.1949 17.5862
40.2425 17.5047
40.2899 17.4935
40.3375 17.396
40.385 17.3129
40.4326 17.3208
40.48 17.2472
40.5277 17.2054
40.5752 17.1204
40.6228 17.0423
40.6703 17.0266
40.718 17.0461
40.7655 16.9266
40.8132 16.8578
40.8607 16.842
40.9084 16.8275
40.9559 16.6741
41.0036 16.7008
41.0512 16.6376
41.0989 16.5754
41.1465 16.5031
41.1942 16.458
41.242 16.3816
41.2896 16.3145
41.3373 16.2813
41.3849 16.2258
41.4327 16.1704
41.4803 16.0572
41.5281 16.0112
41.5758 15.9754
41.6236 15.9541
41.6712 15.885
41.7191 15.8584
41.7667 15.7783
41.8146 15.814
41.8622 15.6867
41.9101 15.6192
41.9578 15.5543
42.0057 15.4938
42.0534 15.525
42.1013 15.4619
42.149 15.3372
42.1969 15.3339
42.2446 15.2931
42.2925 15.2224
42.3403 15.2177
42.3882 15.1304
42.436 15.1726
42.4839 14.9987
42.5319 14.9973
42.5797 14.9679
42.6277 14.8467
42.6755 14.8049
42.7235 14.8188
42.7713 14.7413
42.8193 14.6504
42.8671 14.6623
42.9152 14.5667
42.963 14.512
43.0111 14.4762
43.0589 14.4328
43.107 14.3352
43.1549 14.2865
43.2029 14.3098
43.2508 14.2604
43.2989 14.1686
43.3468 14.1128
43.3949 14.0053
43.4429 14.0317
43.491 13.9767
43.5389 13.9262
43.5871 13.927
43.635 13.8423
43.6832 13.7263
43.7312 13.7383
43.7793 13.7055
43.8273 13.6724
43.8755 13.604
43.9237 13.6087
43.9717 13.5317
44.0199 13.4685
44.068 13.4513
44.1162 13.3657
44.1642 13.3638
44.2125 13.2471
44.2606 13.2236
44.3088 13.1195
44.3569 13.1292
44.4052 13.0822
44.4533 13.0619
44.5016 12.9624
44.5497 12.9807
44.598 12.9274
44.6461 12.8725
44.6945 12.808
44.7426 12.739
44.791 12.7478
44.8391 12.7002
44.8875 12.6354
44.9357 12.6292
44.984 12.5484
45.0322 12.4728
45.0806 12.5009
45.1288 12.4004
45.1773 12.3697
45.2257 12.3575
45.2739 12.2281
45.3224 12.2336
45.3706 12.2158
45.4191 12.1152
45.4673 12.1344
45.5158 12.0949
45.5641 12.0048
45.6126 11.9773
45.6609 11.9164
45.7094 11.8964
45.7577 11.8497
45.8063 11.8257
45.8546 11.7859
45.9031 11.7302
45.9515 11.7194
46.0001 11.6367
46.0484 11.6083
46.097 11.6031
46.1454 11.5213
46.194 11.4553
46.2424 11.3954
46.291 11.3777
46.3395 11.3364
46.3881 11.3155
46.4365 11.3086
46.4852 11.253
46.5337 11.2497
46.5823 11.1825
46.631 11.1161
46.6795 11.0537
46.7282 11.0568
46.7767 11.001
46.8254 10.9245
46.8739 10.8897
46.9226 10.8988
46.9712 10.8483
47.0199 10.7689
47.0685 10.7349
47.1173 10.6956
47.1658 10.6976
47.2146 10.6374
47.2632 10.5744
47.312 10.5376
47.3606 10.5015
47.4095 10.4434
47.4581 10.4585
47.5069 10.4082
47.5556 10.3471
47.6044 10.2978
47.6531 10.2834
47.702 10.2282
47.7507 10.1887
47.7996 10.1652
47.8483 10.1046
47.8972 10.0861
47.9461 10.0411
47.9948 9.9654
48.0438 9.98056
48.0925 9.97435
48.1415 9.90326
48.1902 9.85744
48.2392 9.8495
48.288 9.79674
48.337 9.74775
48.3858 9.73189
48.4348 9.71086
48.4837 9.69606
48.5327 9.63662
48.5815 9.54501
48.6306 9.58493
48.6795 9.54223
48.7285 9.49061
48.7774 9.46158
48.8265 9.41674
48.8754 9.38903
48.9245 9.3697
48.9734 9.31381
49.0226 9.31737
49.0715 9.25188
49.1206 9.20953
49.1696 9.15268
49.2188 9.12866
49.2679 9.09609
49.3169 9.0622
49.3661 9.05166
49.4151 8.97163
49.4643 8.97688
49.5134 8.92901
49.5626 8.86858
49.6117 8.88843
49.6609 8.83321
49.71 8.76322
49.7592 8.752
49.8083 8.70027
49.8576 8.67933
49.9067 8.65994
49.956 8.60686
50.0052 8.60302
50.0545 8.57544
50.1036 8.52207
50.153 8.49322
50.2022 8.4383
50.2515 8.41539
50.3007 8.34088
50.3501 8.34901
50.3993 8.31551
50.4487 8.26099
50.498 8.2694
50.5474 8.22313
50.5966 8.19866
50.6461 8.16126
50.6955 8.12791
50.7448 8.12763
50.7943 8.07606
50.8436 8.04816
50.8931 8.00939
50.9424 7.97171
50.9919 7.95172
51.0413 7.9361
51.0908 7.87746
51.1402 7.84234
51.1897 7.78995
51.2391 7.78855
51.2887 7.77565
51.3381 7.75668
51.3877 7.72304
51.4371 7.66579
51.4867 7.64228
51.5362 7.60335
51.5858 7.57604
51.6353 7.54574
51.6849 7.53653
51.7344 7.4736
51.7841 7.45445
51.8336 7.41014
51.8833 7.35448
51.9328 7.3607
51.9826 7.36486
52.0323 7.2991
52.0818 7.27426
52.1316 7.19619
52.1812 7.21308
52.231 7.18246
52.2806 7.14951
52.3304 7.12052
52.38 7.08925
52.4298 7.0694
52.4794 7.03362
52.5293 7.01344
52.5789 6.96452
52.6288 6.94519
52.6785 6.91579
52.7284 6.87033
52.7781 6.85555
52.828 6.86966
52.8777 6.77711
52.9276 6.75941
52.9774 6.74743
53.0273 6.71477
53.0771 6.6716
53.1271 6.68624
53.1769 6.62598
53.2269 6.62198
53.2767 6.58943
53.3267 6.53907
53.3765 6.5295
53.4266 6.49324
53.4766 6.48006
53.5265 6.3888
53.5765 6.39784
53.6264 6.37117
53.6765 6.3659
53.7264 6.37625
53.7765 6.29007
53.8265 6.26694
53.8766 6.23617
53.9266 6.21333
53.9767 6.18669
54.0267 6.16538
54.0769 6.1197
54.1269 6.05322
54.1771 6.08065
54.2271 6.02624
54.2773 5.98048
54.3274 5.97941
54.3776 5.95104
54.4277 5.91493
54.478 5.89002
54.528 5.8349
54.5783 5.82694
54.6285 5.78037
54.6788 5.70903
54.7289 5.69221
54.7792 5.68311
54.8296 5.58432
54.8798 5.55295
54.9301 5.51998
54.9803 5.51723
55.0307 5.48178
55.0809 5.38833
55.1314 5.37422
55.1816 5.34032
55.232 5.32483
55.2823 5.29804
55.3328 5.22006
55.383 5.14289
55.4335 5.09068
55.4838 5.01704
55.5344 4.98447
55.5847 4.98874
55.6352 4.95747
55.6856 4.84254
55.7361 4.90426