File: XRD/Ni3Fe_FD0111.xy
TT I
1.27165 8.35498
1.31627 7.63658
1.36089 7.72142
1.40551 6.68953
1.45013 6.71939
1.49476 6.52696
1.53938 6.42806
1.584 6.0576
1.62863 5.76413
1.67325 5.26572
1.71787 5.7344
1.7625 5.72785
1.80712 5.00431
1.85174 4.89151
1.89636 4.99474
1.94099 5.76369
1.98562 4.97519
2.03025 4.85991
2.07487 5.13311
2.11949 4.95264
2.16411 4.71413
2.20874 4.72405
2.25338 5.00685
2.298 4.98458
2.34263 3.9708
2.38725 4.29694
2.43188 3.69114
2.4765 4.51284
2.52115 4.29421
2.56577 4.0054
2.6104 4.83105
2.65503 4.87398
2.69965 5.11768
2.7443 5.61681
2.78893 6.38103
2.83356 6.67042
2.87818 7.90416
2.92281 8.26169
2.96744 9.35353
3.01209 10.2443
3.05672 10.8124
3.10135 11.9126
3.14599 12.81
3.19062 14.0387
3.23527 14.9279
3.2799 15.6552
3.32454 16.2855
3.36917 17.6091
3.4138 18.5603
3.45844 18.9627
3.50309 20.0922
3.54773 20.8644
3.59237 21.8128
3.637 22.0385
3.68164 23.0804
3.7263 23.8343
3.77094 24.563
3.81558 25.16
3.86022 26.1683
3.90486 27.5889
3.9495 28.3262
3.99416 29.3381
4.0388 30.5079
4.08344 31.3038
4.12809 32.0708
4.17273 33.6572
4.21738 35.0911
4.26204 36.0576
4.30669 37.5191
4.35133 39.6671
4.39598 40.8363
4.44063 42.4853
4.4853 44.5923
4.52995 46.7022
4.5746 49.0654
4.61925 50.9516
4.6639 53.3498
4.70855 55.9201
4.75322 59.5379
4.79788 62.3157
4.84253 65.8491
4.88719 70.1921
4.93184 75.4627
4.97652 83.252
5.02118 92.0751
5.06583 102.905
5.11049 121.621
5.15515 164.139
5.19981 616.006
5.24449 3768.9
5.28916 7226.83
5.33382 6893.37
5.37848 587.012
5.42315 179.109
5.46783 133.887
5.5125 117.468
5.55716 110.026
5.60183 103.629
5.6465 100.03
5.69117 98.4756
5.73586 96.1995
5.78053 96.256
5.8252 97.4371
5.86988 101.047
5.91455 109.18
5.95924 130.966
6.00392 314.385
6.0486 1421.65
6.09328 2376.95
6.13795 3902.22
6.18263 851.583
6.22733 136.53
6.27201 93.6028
6.3167 80.3693
6.36138 73.3911
6.40606 68.5997
6.45075 66.393
6.49545 64.0381
6.54014 62.0347
6.58483 60.7241
6.62952 59.4154
6.67421 58.4056
6.71892 56.764
6.76361 55.9598
6.8083 54.9936
6.853 54.3468
6.89769 53.8674
6.94239 53.6517
6.98711 53.0017
7.03181 52.5968
7.07651 52.0915
7.12121 52.2221
7.16591 51.8827
7.21063 51.3698
7.25533 51.511
7.30004 51.6105
7.34475 51.7512
7.38945 51.8377
7.43416 51.4701
7.47889 51.3875
7.5236 57.4048
7.56831 69.6976
7.61303 57.0734
7.65774 52.9665
7.70247 53.221
7.74719 53.7166
7.79191 54.459
7.83663 55.0271
7.88135 55.6715
7.92607 56.5326
7.97081 57.6681
8.01553 58.478
8.06026 59.7838
8.10498 61.3263
8.14971 63.2559
8.19446 64.7191
8.23919 67.406
8.28392 70.4609
8.32865 73.0287
8.37339 78.1423
8.41812 83.9514
8.46288 97.0148
8.50761 180.868
8.55235 632.634
8.59709 806.047
8.64183 1283.3
8.68658 1734.71
8.73134 503.042
8.77609 124.463
8.82083 99.0074
8.86558 91.6236
8.91033 87.539
8.9551 85.2377
8.99985 83.6911
9.04461 82.6514
9.08936 81.6953
9.13412 80.7316
9.17888 81.3049
9.22365 89.7529
9.26841 107.761
9.31318 90.7316
9.35794 82.1908
9.4027 81.768
9.44749 82.0623
9.49226 83.0258
9.53703 83.7324
9.5818 85.3178
9.62657 86.2063
9.67134 87.8362
9.71614 90.0428
9.76091 92.2581
9.80569 94.7577
9.85047 98.3904
9.89525 104.145
9.94005 115.453
9.98484 192.841
10.0296 572.48
10.0744 696.396
10.1192 866.741
10.164 1548.08
10.2088 1129.93
10.2536 251.497
10.2984 119.636
10.3432 108.933
10.388 104.946
10.4328 122.713
10.4776 222.449
10.5224 251.169
10.5672 287.412
10.612 460.177
10.6568 411.662
10.7017 151.838
10.7465 93.1358
10.7913 83.6139
10.8361 80.4449
10.8809 77.4519
10.9257 75.3138
10.9706 73.7093
11.0154 71.9944
11.0602 70.5122
11.105 69.5751
11.1499 68.2918
11.1947 67.1556
11.2395 66.2153
11.2844 65.4977
11.3292 64.6883
11.374 63.7911
11.4189 63.592
11.4637 62.7834
11.5086 61.8596
11.5534 61.7308
11.5983 61.6391
11.6431 61.3475
11.688 60.7201
11.7328 60.9278
11.7777 60.6395
11.8225 60.431
11.8674 60.7735
11.9122 62.245
11.9571 67.689
12.002 67.0679
12.0468 68.1762
12.0917 92.1062
12.1366 107.28
12.1814 109.24
12.2263 135.672
12.2712 186.688
12.3161 154.66
12.3609 79.0623
12.4058 64.2132
12.4507 62.8908
12.4956 62.5631
12.5405 62.4633
12.5853 63.0954
12.6302 63.07
12.6751 63.8138
12.72 64.2324
12.7649 65.4695
12.8098 66.2896
12.8547 67.5472
12.8996 69.0707
12.9445 70.649
12.9894 72.6012
13.0343 74.3889
13.0792 78.7894
13.1242 86.9949
13.1691 136.225
13.214 191.817
13.2589 191.77
13.3038 215.748
13.3487 314.877
13.3937 391.639
13.4386 238.401
13.4835 125.596
13.5285 159.128
13.5734 183.176
13.6183 176.927
13.6633 208.405
13.7082 303.676
13.7531 321.258
13.7981 172.422
13.843 90.2362
13.888 80.5354
13.9329 77.1483
13.9779 75.4656
14.0228 73.8028
14.0678 72.5253
14.1127 72.5221
14.1577 75.3871
14.2027 73.8074
14.2476 70.5847
14.2926 68.8739
14.3376 68.4434
14.3825 67.8702
14.4275 67.6273
14.4725 67.3182
14.5175 67.7146
14.5624 67.6624
14.6074 67.9052
14.6524 68.175
14.6974 69.0819
14.7424 70.7782
14.7874 80.689
14.8324 109.056
14.8774 120.926
14.9224 118.545
14.9674 133.023
15.0124 175.524
15.0574 207.673
15.1024 152.297
15.1474 85.4658
15.1924 71.4231
15.2374 68.8239
15.2824 67.3026
15.3274 66.4242
15.3725 65.7402
15.4175 65.7901
15.4625 65.1078
15.5076 64.7109
15.5526 64.6621
15.5976 65.0541
15.6426 65.9767
15.6877 73.6436
15.7327 96.4265
15.7778 107.725
15.8228 105.001
15.8679 112.744
15.9129 139.183
15.958 180.734
16.003 163.489
16.0481 95.8195
16.0931 67.5102
16.1382 62.1005
16.1833 59.93
16.2283 58.3975
16.2734 57.474
16.3185 56.7992
16.3636 55.9907
16.4086 55.3202
16.4537 54.9752
16.4988 54.6847
16.5439 54.4774
16.589 54.3018
16.6341 54.0809
16.6792 53.5086
16.7243 53.712
16.7694 53.5812
16.8145 53.575
16.8596 53.6258
16.9047 54.1534
16.9498 54.7768
16.9949 54.6226
17.04 54.8176
17.0851 56.1332
17.1302 60.7816
17.1754 64.1736
17.2205 63.8938
17.2656 64.6489
17.3108 69.111
17.3559 76.3246
17.401 81.1064
17.4462 72.9529
17.4913 62.1178
17.5365 58.5079
17.5815 58.5148
17.6268 58.7961
17.6718 59.2143
17.7171 59.5253
17.7622 60.7038
17.8074 61.7382
17.8525 63.3639
17.8977 71.8728
17.9428 84.4794
17.9881 88.1228
18.0331 86.8887
18.0784 91.3463
18.1237 105.893
18.1688 134.422
18.214 146.917
18.2591 117.166
18.3044 87.8578
18.3495 82.7088
18.3948 89.8462
18.4399 101.007
18.4852 98.2054
18.5303 79.4106
18.5756 65.5402
18.6207 62.0625
18.666 60.5006
18.7112 59.6322
18.7565 58.7567
18.8016 58.347
18.8469 57.5773
18.892 57.3204
18.9374 56.8572
18.9825 56.3828
19.0278 56.2164
19.073 56.3268
19.1183 56.9606
19.1635 59.3794
19.2088 61.6404
19.254 61.7302
19.2993 61.3838
19.3447 63.2175
19.3898 66.5008
19.4352 71.8918
19.4804 73.0993
19.5257 65.3305
19.5709 56.7136
19.6163 53.9285
19.6615 53.4741
19.7068 53.0699
19.752 52.7169
19.7974 53.0485
19.8426 54.3483
19.888 56.3632
19.9332 58.0246
19.9786 57.7625
20.0238 57.7645
20.0692 60.1373
20.1144 64.8744
20.1598 70.9826
20.205 71.4004
20.2504 65.7155
20.2957 60.3475
20.3411 59.7126
20.3863 62.9645
20.4318 64.3898
20.477 60.1397
20.5224 53.6962
20.5677 50.6761
20.6131 50.046
20.6586 49.4595
20.7038 49.3177
20.7493 48.7517
20.7945 49.0878
20.84 48.8068
20.8853 48.5042
20.9307 48.13
20.976 48.481
21.0215 48.5326
21.0668 48.9991
21.1122 49.0887
21.1575 48.9176
21.203 48.9539
21.2483 49.5292
21.2938 50.5155
21.3391 50.9263
21.3846 50.4248
21.4299 49.0851
21.4754 48.3364
21.5207 48.1954
21.5662 48.655
21.6116 49.05
21.6571 51.1624
21.7024 52.9463
21.7479 53.571
21.7933 53.4414
21.8388 54.3118
21.8843 56.784
21.9297 60.0289
21.9752 64.2357
22.0206 65.6306
22.0661 61.3999
22.1115 56.0615
22.157 54.6678
22.2024 55.6767
22.248 54.9995
22.2933 52.6016
22.3389 50.0871
22.3843 48.8797
22.4299 48.4734
22.4753 48.3278
22.5208 48.2739
22.5662 48.3614
22.6118 48.5034
22.6572 48.6703
22.7028 49.8598
22.7483 51.1557
22.7939 51.6238
22.8393 51.3399
22.8849 51.6
22.9303 52.1161
22.9759 53.4436
23.0214 55.6529
23.067 57.7292
23.1126 56.5792
23.1581 52.9316
23.2037 49.6374
23.2492 49.0221
23.2948 49.4288
23.3403 50.677
23.3859 51.6353
23.4314 51.4081
23.477 51.0917
23.5225 51.2569
23.5682 52.0758
23.6137 54.0705
23.6593 56.4577
23.7048 57.4516
23.7505 54.289
23.796 49.8196
23.8417 46.7225
23.8872 45.7075
23.9329 45.3706
23.9784 45.0424
24.0241 44.6792
24.0697 44.3322
24.1154 43.9436
24.1609 43.9299
24.2066 43.6788
24.2522 43.3972
24.2979 43.3107
24.3434 43.2412
24.3892 42.9609
24.4349 42.8804
24.4805 42.6986
24.5262 42.7896
24.5718 42.5119
24.6175 42.5763
24.6631 42.7809
24.7089 42.6569
24.7545 42.3838
24.8002 42.1875
24.8458 42.1595
24.8916 42.2077
24.9372 42.5986
24.983 42.56
25.0286 42.619
25.0744 43.1163
25.12 43.3605
25.1658 43.8013
25.2114 43.9247
25.2572 44.3135
25.3029 44.4021
25.3487 44.2919
25.3943 44.2706
25.4402 44.6311
25.4858 44.5411
25.5316 43.3386
25.5773 41.68
25.6231 41.0735
25.669 40.4685
25.7147 40.5442
25.7605 40.3939
25.8062 40.7473
25.8521 40.7973
25.8977 40.6253
25.9436 40.6301
25.9893 40.4213
26.0352 40.7144
26.0809 40.6272
26.1268 40.9977
26.1725 41.4448
26.2184 41.8009
26.2641 41.3532
26.31 40.8002
26.3557 40.6456
26.4017 40.4149
26.4474 40.6703
26.4933 40.5439
26.5391 40.7564
26.585 40.9788
26.6308 41.0575
26.6767 41.364
26.7225 42.109
26.7684 42.3129
26.8142 41.887
26.8601 41.0101
26.9059 40.5668
26.9519 40.1833
26.9979 39.9571
27.0437 39.3149
27.0896 38.9971
27.1354 38.7312
27.1814 38.7415
27.2272 38.6453
27.2732 38.7486
27.3191 38.4575
27.3651 38.4645
27.4109 38.3153
27.4569 38.2094
27.5027 38.2241
27.5488 38.4941
27.5946 38.2406
27.6407 38.3698
27.6865 38.5397
27.7326 38.4626
27.7784 38.2445
27.8245 38.1856
27.8703 38.0989
27.9164 38.0521
27.9623 38.145
28.0084 38.2447
28.0543 38.3671
28.1003 38.5305
28.1462 38.8428
28.1923 39.1275
28.2384 38.6545
28.2843 38.1807
28.3304 37.7251
28.3764 37.4321
28.4225 37.1461
28.4684 36.4891
28.5145 36.1843
28.5605 35.8898
28.6066 35.7615
28.6526 35.7519
28.6987 35.5772
28.7447 35.3716
28.7908 35.2566
28.8368 35.2227
28.8829 35.1936
28.9289 35.1301
28.9751 35.0405
29.0211 35.0169
29.0673 35.0136
29.1133 34.8951
29.1595 34.5116
29.2055 34.245
29.2517 34.2023
29.2977 33.9988
29.3439 33.9787
29.3899 33.8868
29.4361 33.8498
29.4824 34.0051
29.5284 33.8872
29.5746 33.6662
29.6207 33.4042
29.6669 33.1877
29.713 33.0007
29.7593 32.8392
29.8053 32.6592
29.8516 32.6906
29.8977 32.6663
29.9439 32.5608
29.99 32.4334
30.0363 32.4246
30.0824 32.413
30.1287 32.2531
30.1748 32.295
30.2211 32.2498
30.2673 32.1526
30.3136 32.4107
30.3597 32.3916
30.406 32.3147
30.4522 32.2148
30.4985 32.0217
30.5447 32.1152
30.591 31.9257
30.6372 31.9982
30.6835 31.9196
30.7297 31.8957
30.7761 32.0528
30.8224 32.1023
30.8686 32.1388
30.915 31.8476
30.9612 31.6347
31.0076 31.4452
31.0538 31.3158
31.1002 31.1506
31.1464 30.9809
31.1928 30.9178
31.2391 30.9492
31.2855 30.8111
31.3317 30.7326
31.3781 30.8516
31.4244 30.8294
31.4708 30.6556
31.5171 30.705
31.5636 30.8608
31.6098 30.7077
31.6563 30.543
31.7026 30.4718
31.7491 30.2446
31.7953 30.2323
31.8418 30.1743
31.8881 30.1306
31.9346 30.0978
31.9809 29.9622
32.0275 29.9488
32.074 29.9381
32.1203 29.7768
32.1668 29.6801
32.2132 29.5822
32.2597 29.3165
32.306 29.2464
32.3526 29.0636
32.399 28.8964
32.4455 28.7589
32.4919 28.6793
32.5385 28.5976
32.5848 28.5028
32.6314 28.4518
32.6778 28.4341
32.7244 28.316
32.7708 28.2086
32.8174 28.2233
32.8638 27.9476
32.9104 28.0894
32.9569 27.981
33.0035 27.8347
33.0499 27.9212
33.0966 27.6769
33.143 27.6857
33.1897 27.582
33.2361 27.5789
33.2828 27.5982
33.3293 27.3727
33.3759 27.4277
33.4226 27.3103
33.4691 27.1812
33.5158 27.128
33.5623 26.8795
33.609 26.7538
33.6555 26.5851
33.7022 26.6275
33.7487 26.4601
33.7954 26.4039
33.842 26.3156
33.8887 26.2895
33.9353 26.1907
33.982 26.1623
34.0286 26.1264
34.0753 26.0457
34.1219 25.8964
34.1687 25.7702
34.2152 25.7523
34.262 25.5395
34.3086 25.5911
34.3554 25.4648
34.402 25.3554
34.4488 25.3592
34.4954 25.26
34.5422 25.1364
34.5889 25.0047
34.6357 24.8673
34.6825 24.9213
34.7292 24.7935
34.776 24.6696
34.8227 24.7096
34.8695 24.5722
34.9162 24.5411
34.9631 24.4189
35.0098 24.4245
35.0566 24.2779
35.1033 24.2152
35.1502 24.2947
35.1969 24.1767
35.2438 24.0453
35.2906 24.0158
35.3375 24.0318
35.3842 23.8848
35.4311 23.898
35.4779 23.8648
35.5248 23.8036
35.5716 23.807
35.6185 23.7053
35.6653 23.6305
35.7123 23.6045
35.759 23.4298
35.806 23.3562
35.8528 23.2365
35.8998 23.2118
35.9468 23.0607
35.9936 23.0406
36.0406 22.9217
36.0874 22.8707
36.1345 22.8264
36.1813 22.7682
36.2283 22.7523
36.2752 22.6309
36.3222 22.6508
36.3691 22.5811
36.4161 22.4673
36.463 22.362
36.5101 22.4345
36.557 22.3375
36.6041 22.0987
36.651 22.1189
36.6981 22.1244
36.745 22.0392
36.7921 21.994
36.839 21.8279
36.8861 21.7247
36.9331 21.8185
36.9802 21.669
37.0272 21.5224
37.0743 21.4364
37.1213 21.4181
37.1684 21.3629
37.2154 21.3264
37.2626 21.1852
37.3098 21.1598
37.3568 21.181
37.404 21.0428
37.451 20.9506
37.4982 20.9229
37.5452 20.8205
37.5924 20.746
37.6395 20.84
37.6867 20.6196
37.7337 20.5633
37.781 20.4726
37.8281 20.5059
37.8753 20.3453
37.9224 20.3051
37.9697 20.1779
38.0168 20.1872
38.064 20.1391
38.1111 20.0628
38.1584 19.9902
38.2056 19.8654
38.2529 19.8417
38.3 19.798
38.3473 19.8414
38.3945 19.5912
38.4418 19.6635
38.489 19.5729
38.5363 19.4985
38.5837 19.4082
38.6309 19.3276
38.6782 19.3147
38.7254 19.324
38.7728 19.2242
38.82 19.1476
38.8674 19.1089
38.9146 19.0262
38.9621 18.8904
39.0093 18.8982
39.0567 18.8687
39.104 18.8012
39.1514 18.6629
39.1987 18.627
39.2461 18.6163
39.2934 18.4783
39.3409 18.4368
39.3882 18.3896
39.4356 18.324
39.483 18.2964
39.5304 18.286
39.5778 18.1789
39.6253 18.1228
39.6726 17.9988
39.7201 17.9919
39.7675 17.9437
39.815 17.9045
39.8624 17.8394
39.9099 17.8276
39.9575 17.6904
40.0049 17.6552
40.0525 17.6226
40.0999 17.5932
40.1474 17.5381
40.1949 17.458
40.2425 17.3537
40.2899 17.3198
40.3375 17.2611
40.385 17.1943
40.4326 17.1479
40.48 17.0834
40.5277 17.1499
40.5752 17.0218
40.6228 16.9332
40.6703 16.8386
40.718 16.8164
40.7655 16.8078
40.8132 16.7447
40.8607 16.706
40.9084 16.6693
40.9559 16.6241
41.0036 16.5779
41.0512 16.4825
41.0989 16.4844
41.1465 16.3773
41.1942 16.2643
41.242 16.2528
41.2896 16.1509
41.3373 16.1393
41.3849 16.1254
41.4327 16.0156
41.4803 15.8721
41.5281 16.0114
41.5758 15.8775
41.6236 15.8217
41.6712 15.7349
41.7191 15.7277
41.7667 15.6715
41.8146 15.6347
41.8622 15.5249
41.9101 15.5114
41.9578 15.4004
42.0057 15.3539
42.0534 15.3147
42.1013 15.2818
42.149 15.2494
42.1969 15.1822
42.2446 15.1186
42.2925 15.0798
42.3403 15.0843
42.3882 14.9947
42.436 14.9629
42.4839 14.8394
42.5319 14.8599
42.5797 14.795
42.6277 14.7661
42.6755 14.6802
42.7235 14.6074
42.7713 14.6067
42.8193 14.5207
42.8671 14.4906
42.9152 14.4344
42.963 14.4122
43.0111 14.3247
43.0589 14.2766
43.107 14.2107
43.1549 14.2123
43.2029 14.1269
43.2508 14.1367
43.2989 14.0067
43.3468 13.9431
43.3949 13.9549
43.4429 13.8932
43.491 13.828
43.5389 13.8254
43.5871 13.723
43.635 13.6447
43.6832 13.6966
43.7312 13.6111
43.7793 13.5702
43.8273 13.484
43.8755 13.4022
43.9237 13.4186
43.9717 13.4099
44.0199 13.3115
44.068 13.3378
44.1162 13.2397
44.1642 13.2351
44.2125 13.1906
44.2606 13.1136
44.3088 13.0438
44.3569 13.037
44.4052 12.9391
44.4533 12.8976
44.5016 12.8731
44.5497 12.8676
44.598 12.7748
44.6461 12.7825
44.6945 12.6988
44.7426 12.6222
44.791 12.5395
44.8391 12.5611
44.8875 12.5503
44.9357 12.4913
44.984 12.4238
45.0322 12.431
45.0806 12.3504
45.1288 12.274
45.1773 12.2353
45.2257 12.1969
45.2739 12.1491
45.3224 12.0855
45.3706 12.087
45.4191 12.0016
45.4673 11.9976
45.5158 11.9558
45.5641 11.9056
45.6126 11.8872
45.6609 11.8389
45.7094 11.7583
45.7577 11.7533
45.8063 11.6611
45.8546 11.6443
45.9031 11.6166
45.9515 11.5865
46.0001 11.549
46.0484 11.5098
46.097 11.5054
46.1454 11.4213
46.194 11.398
46.2424 11.3409
46.291 11.2896
46.3395 11.251
46.3881 11.1701
46.4365 11.1824
46.4852 11.1073
46.5337 11.094
46.5823 11.0762
46.631 10.9992
46.6795 10.9506
46.7282 10.938
46.7767 10.9109
46.8254 10.8432
46.8739 10.7891
46.9226 10.7392
46.9712 10.727
47.0199 10.6996
47.0685 10.6416
47.1173 10.5856
47.1658 10.5724
47.2146 10.4924
47.2632 10.4595
47.312 10.4588
47.3606 10.3968
47.4095 10.3566
47.4581 10.3481
47.5069 10.2693
47.5556 10.2357
47.6044 10.1924
47.6531 10.1838
47.702 10.1021
47.7507 10.0696
47.7996 10.0539
47.8483 10.0366
47.8972 10.0285
47.9461 9.94352
47.9948 9.91636
48.0438 9.85884
48.0925 9.86498
48.1415 9.78963
48.1902 9.77326
48.2392 9.73338
48.288 9.72982
48.337 9.69166
48.3858 9.6487
48.4348 9.60801
48.4837 9.61021
48.5327 9.55566
48.5815 9.53745
48.6306 9.45177
48.6795 9.47146
48.7285 9.37937
48.7774 9.3751
48.8265 9.33742
48.8754 9.26124
48.9245 9.26875
48.9734 9.19489
49.0226 9.21748
49.0715 9.15712
49.1206 9.13859
49.1696 9.12876
49.2188 9.07199
49.2679 9.02814
49.3169 8.96772
49.3661 8.94879
49.4151 8.90959
49.4643 8.88451
49.5134 8.87135
49.5626 8.7945
49.6117 8.79254
49.6609 8.76885
49.71 8.71346
49.7592 8.69783
49.8083 8.63007
49.8576 8.6241
49.9067 8.55366
49.956 8.57167
50.0052 8.52247
50.0545 8.51557
50.1036 8.43475
50.153 8.44348
50.2022 8.40433
50.2515 8.36128
50.3007 8.30656
50.3501 8.26065
50.3993 8.27803
50.4487 8.24239
50.498 8.20179
50.5474 8.13373
50.5966 8.10556
50.6461 8.10608
50.6955 8.08815
50.7448 8.07071
50.7943 8.03703
50.8436 8.00724
50.8931 7.95369
50.9424 7.94208
50.9919 7.88138
51.0413 7.86593
51.0908 7.81783
51.1402 7.79273
51.1897 7.7692
51.2391 7.74028
51.2887 7.71653
51.3381 7.6817
51.3877 7.63804
51.4371 7.60903
51.4867 7.56568
51.5362 7.56207
51.5858 7.55337
51.6353 7.44304
51.6849 7.44224
51.7344 7.44851
51.7841 7.41959
51.8336 7.36362
51.8833 7.30859
51.9328 7.29483
51.9826 7.25661
52.0323 7.26055
52.0818 7.22708
52.1316 7.16876
52.1812 7.15669
52.231 7.11405
52.2806 7.08758
52.3304 7.09197
52.38 7.02979
52.4298 6.97758
52.4794 6.98293
52.5293 6.91247
52.5789 6.93066
52.6288 6.83036
52.6785 6.82627
52.7284 6.82482
52.7781 6.82543
52.828 6.75939
52.8777 6.7663
52.9276 6.70356
52.9774 6.70375
53.0273 6.65552
53.0771 6.65459
53.1271 6.62903
53.1769 6.57847
53.2269 6.56019
53.2767 6.50924
53.3267 6.52901
53.3765 6.47375
53.4266 6.45182
53.4766 6.39985
53.5265 6.34239
53.5765 6.36389
53.6264 6.32942
53.6765 6.28008
53.7264 6.29508
53.7765 6.25199
53.8265 6.23799
53.8766 6.18413
53.9266 6.16431
53.9767 6.08116
54.0267 6.08263
54.0769 6.07591
54.1269 6.0409
54.1771 6.00308
54.2271 5.96086
54.2773 5.94269
54.3274 5.8621
54.3776 5.87424
54.4277 5.79202
54.478 5.75897
54.528 5.74001
54.5783 5.69001
54.6285 5.61752
54.6788 5.60141
54.7289 5.59934
54.7792 5.51121
54.8296 5.46319
54.8798 5.46001
54.9301 5.41246
54.9803 5.37366
55.0307 5.30937
55.0809 5.26695
55.1314 5.23186
55.1816 5.12817
55.232 5.09765
55.2823 5.0494
55.3328 5.05219
55.383 4.95606
55.4335 4.94697
55.4838 4.89992
55.5344 4.86285
55.5847 4.81417
55.6352 4.79272
55.6856 4.73432
55.7361 4.73791