File: XRD/Ni3Fe_FD0596.xy
TT I
1.27165 7.90849
1.31627 6.90958
1.36089 6.43583
1.40551 6.57518
1.45013 6.1853
1.49476 6.36784
1.53938 6.10346
1.584 5.84301
1.62863 5.63711
1.67325 5.1135
1.71787 5.32518
1.7625 4.92646
1.80712 4.69384
1.85174 5.2157
1.89636 4.16109
1.94099 5.02294
1.98562 4.32938
2.03025 4.6442
2.07487 4.77963
2.11949 4.89099
2.16411 4.44773
2.20874 8.42708
2.25338 11.0414
2.298 5.63024
2.34263 5.48031
2.38725 5.39326
2.43188 6.07137
2.4765 6.94024
2.52115 6.47744
2.56577 7.93367
2.6104 7.65209
2.65503 7.77911
2.69965 7.26267
2.7443 7.4867
2.78893 8.06309
2.83356 8.33574
2.87818 8.72299
2.92281 8.41541
2.96744 9.41662
3.01209 10.4791
3.05672 11.0828
3.10135 12.6671
3.14599 12.4063
3.19062 14.0915
3.23527 14.9706
3.2799 15.2652
3.32454 16.9737
3.36917 17.7626
3.4138 18.5829
3.45844 19.5088
3.50309 21.1033
3.54773 21.5883
3.59237 23.2588
3.637 50.1356
3.68164 37.3492
3.7263 25.6399
3.77094 25.8924
3.81558 26.5054
3.86022 27.59
3.90486 28.622
3.9495 29.5976
3.99416 30.7501
4.0388 31.6406
4.08344 33.0046
4.12809 34.0125
4.17273 36.3094
4.21738 39.5338
4.26204 120.175
4.30669 105.463
4.35133 44.3356
4.39598 43.8722
4.44063 48.4757
4.4853 55.4614
4.52995 55.6232
4.5746 55.8855
4.61925 53.7993
4.6639 55.6259
4.70855 58.8901
4.75322 62.6586
4.79788 67.3793
4.84253 68.4246
4.88719 74.4145
4.93184 77.3479
4.97652 82.0591
5.02118 88.5641
5.06583 96.4231
5.11049 109.259
5.15515 160.728
5.19981 479.11
5.24449 3226.08
5.28916 12169.6
5.33382 2751.16
5.37848 203.392
5.42315 132.893
5.46783 119.274
5.5125 112.1
5.55716 103.85
5.60183 99.2382
5.6465 97.3026
5.69117 95.743
5.73586 94.2087
5.78053 98.361
5.8252 97.5831
5.86988 100.076
5.91455 97.2566
5.95924 108.988
6.00392 276.826
6.0486 1106.73
6.09328 4407.47
6.13795 3320.8
6.18263 237.463
6.22733 92.8973
6.27201 81.6882
6.3167 85.7361
6.36138 75.5253
6.40606 70.171
6.45075 69.4859
6.49545 65.8167
6.54014 64.1114
6.58483 63.0114
6.62952 62.9141
6.67421 73.6774
6.71892 92.2913
6.76361 62.9126
6.8083 59.446
6.853 59.0076
6.89769 57.0221
6.94239 56.2588
6.98711 55.7935
7.03181 56.0511
7.07651 55.0015
7.12121 55.2158
7.16591 56.0113
7.21063 55.2967
7.25533 60.2253
7.30004 102.017
7.34475 68.5966
7.38945 55.3211
7.43416 54.1601
7.47889 53.7148
7.5236 54.5538
7.56831 55.5774
7.61303 55.9756
7.65774 56.1517
7.70247 56.7004
7.74719 56.6482
7.79191 56.8827
7.83663 57.1053
7.88135 58.0031
7.92607 58.9297
7.97081 59.9684
8.01553 61.536
8.06026 63.1033
8.10498 64.5644
8.14971 70.7284
8.19446 70.832
8.23919 70.122
8.28392 72.0424
8.32865 74.6802
8.37339 79.4678
8.41812 85.0576
8.46288 106.484
8.50761 197.447
8.55235 436.68
8.59709 1255.04
8.64183 2195.59
8.68658 931.073
8.73134 155.875
8.77609 99.9899
8.82083 93.5079
8.86558 92.4549
8.91033 91.8294
8.9551 89.9964
8.99985 85.8394
9.04461 84.3893
9.08936 84.3936
9.13412 83.3415
9.17888 82.9351
9.22365 83.0839
9.26841 83.1351
9.31318 85.3621
9.35794 86.076
9.4027 85.7787
9.44749 85.4043
9.49226 85.4589
9.53703 86.4018
9.5818 89.5499
9.62657 93.6397
9.67134 95.6351
9.71614 94.0537
9.76091 95.7997
9.80569 99.8537
9.85047 101.918
9.89525 112.787
9.94005 131.948
9.98484 211.174
10.0296 381.989
10.0744 874.344
10.1192 1714.21
10.164 1508.29
10.2088 363.749
10.2536 124.363
10.2984 110.526
10.3432 109.599
10.388 107.173
10.4328 127.547
10.4776 171.596
10.5224 301.6
10.5672 516.788
10.612 482.774
10.6568 189.476
10.7017 95.3871
10.7465 87.1905
10.7913 83.6319
10.8361 81.5119
10.8809 79.4208
10.9257 78.2902
10.9706 78.4206
11.0154 75.197
11.0602 73.185
11.105 71.8144
11.1499 72.7969
11.1947 74.8998
11.2395 70.5857
11.2844 69.1342
11.3292 67.1583
11.374 66.5828
11.4189 65.8936
11.4637 64.8693
11.5086 64.6149
11.5534 65.7466
11.5983 64.7451
11.6431 64.0325
11.688 62.9153
11.7328 63.1793
11.7777 62.8546
11.8225 62.9627
11.8674 62.7854
11.9122 63.3116
11.9571 63.4788
12.002 65.0135
12.0468 70.7318
12.0917 81.8053
12.1366 106.548
12.1814 157.448
12.2263 205.636
12.2712 163.307
12.3161 89.9623
12.3609 67.3738
12.4058 64.787
12.4507 64.4251
12.4956 64.9757
12.5405 65.1647
12.5853 65.6272
12.6302 68.6524
12.6751 71.4312
12.72 68.5072
12.7649 68.106
12.8098 69.08
12.8547 70.2859
12.8996 71.948
12.9445 73.5302
12.9894 75.0214
13.0343 76.8816
13.0792 81.4656
13.1242 95.7182
13.1691 117.258
13.214 158.042
13.2589 253.748
13.3038 379.192
13.3487 422.547
13.3937 251.713
13.4386 122.077
13.4835 111.227
13.5285 126.732
13.5734 168.337
13.6183 255.572
13.6633 348.893
13.7082 328.747
13.7531 179.947
13.7981 96.5959
13.843 82.2672
13.888 80.2831
13.9329 77.5023
13.9779 76.3596
14.0228 74.7494
14.0678 73.3748
14.1127 72.9256
14.1577 72.5305
14.2027 71.7739
14.2476 70.9139
14.2926 70.4087
14.3376 70.7634
14.3825 70.2382
14.4275 69.4081
14.4725 69.2262
14.5175 69.4303
14.5624 69.6521
14.6074 70.475
14.6524 71.1715
14.6974 71.253
14.7424 75.2668
14.7874 82.2204
14.8324 92.7015
14.8774 116.494
14.9224 159.45
14.9674 210.89
15.0124 213.054
15.0574 143.084
15.1024 88.3321
15.1474 72.4225
15.1924 70.5068
15.2374 69.9345
15.2824 69.2766
15.3274 68.1583
15.3725 67.3841
15.4175 67.1509
15.4625 66.5265
15.5076 66.4755
15.5526 66.4064
15.5976 66.3944
15.6426 69.4151
15.6877 75.0011
15.7327 82.7224
15.7778 99.272
15.8228 131.597
15.8679 173.249
15.9129 192.924
15.958 149.712
16.003 92.736
16.0481 67.1296
16.0931 63.4447
16.1382 61.8382
16.1833 60.5592
16.2283 59.1248
16.2734 58.4934
16.3185 58.326
16.3636 58.2487
16.4086 57.1845
16.4537 56.2109
16.4988 55.7144
16.5439 55.7706
16.589 55.3709
16.6341 55.3486
16.6792 55.0761
16.7243 54.9934
16.7694 55.0547
16.8145 54.956
16.8596 55.1654
16.9047 55.855
16.9498 56.0663
16.9949 55.6922
17.04 56.671
17.0851 57.9762
17.1302 59.5104
17.1754 62.6917
17.2205 68.1768
17.2656 75.4268
17.3108 82.7823
17.3559 82.2617
17.401 71.0798
17.4462 62.4356
17.4913 59.6487
17.5365 59.6793
17.5815 59.7271
17.6268 60.0098
17.6718 60.7039
17.7171 61.1896
17.7622 61.96
17.8074 63.2672
17.8525 66.4428
17.8977 69.9643
17.9428 75.7459
17.9881 85.7611
18.0331 103.055
18.0784 124.196
18.1237 141.359
18.1688 131.534
18.214 102.524
18.2591 87.1408
18.3044 92.0772
18.3495 101.035
18.3948 105.85
18.4399 95.2522
18.4852 76.7704
18.5303 65.8873
18.5756 62.4984
18.6207 61.6599
18.666 60.6077
18.7112 59.9852
18.7565 59.2214
18.8016 59.2446
18.8469 58.5343
18.892 58.1471
18.9374 57.7498
18.9825 57.2259
19.0278 57.2363
19.073 57.7151
19.1183 58.1566
19.1635 58.5111
19.2088 60.0727
19.254 63.0547
19.2993 67.3498
19.3447 72.6879
19.3898 75.9008
19.4352 71.6474
19.4804 62.8529
19.5257 56.7835
19.5709 54.4863
19.6163 54.1978
19.6615 54.2064
19.7068 53.5436
19.752 53.6576
19.7974 54.1774
19.8426 54.8443
19.888 55.2417
19.9332 57.0596
19.9786 59.8695
20.0238 63.4483
20.0692 67.9625
20.1144 70.2743
20.1598 68.0927
20.205 63.8648
20.2504 62.7447
20.2957 64.2176
20.3411 65.5202
20.3863 63.9754
20.4318 58.2029
20.477 53.3345
20.5224 51.4292
20.5677 50.9233
20.6131 50.4101
20.6586 49.8359
20.7038 49.7623
20.7493 49.5026
20.7945 49.2519
20.84 49.1257
20.8853 48.9932
20.9307 48.8325
20.976 49.0646
21.0215 48.8127
21.0668 49.4114
21.1122 49.9747
21.1575 50.5793
21.203 51.1951
21.2483 51.7764
21.2938 51.7181
21.3391 50.4183
21.3846 49.1495
21.4299 48.8091
21.4754 48.75
21.5207 49.0124
21.5662 49.5774
21.6116 49.8414
21.6571 50.4854
21.7024 51.3941
21.7479 53.4694
21.7933 56.3613
21.8388 59.6035
21.8843 63.161
21.9297 64.8924
21.9752 63.0921
22.0206 59.4294
22.0661 56.5713
22.1115 56.3288
22.157 56.0953
22.2024 54.388
22.248 51.5579
22.2933 49.9975
22.3389 49.3862
22.3843 49.1346
22.4299 49.0379
22.4753 49.0667
22.5208 48.884
22.5662 48.8935
22.6118 49.2833
22.6572 49.4495
22.7028 49.6443
22.7483 50.3638
22.7939 51.0284
22.8393 52.6577
22.8849 54.693
22.9303 56.5031
22.9759 58.1554
23.0214 57.5231
23.067 54.412
23.1126 51.1009
23.1581 49.3893
23.2037 49.2108
23.2492 49.2816
23.2948 49.3195
23.3403 49.5424
23.3859 50.2481
23.4314 51.5521
23.477 53.1933
23.5225 55.3944
23.5682 57.3521
23.6137 58.1978
23.6593 55.449
23.7048 51.5407
23.7505 48.2509
23.796 46.8282
23.8417 46.1089
23.8872 45.7345
23.9329 45.4063
23.9784 45.1509
24.0241 44.8451
24.0697 44.6251
24.1154 44.3109
24.1609 44.1417
24.2066 44.0297
24.2522 43.8832
24.2979 43.787
24.3434 43.4256
24.3892 43.3557
24.4349 43.369
24.4805 43.1421
24.5262 43.3368
24.5718 43.0239
24.6175 43.1605
24.6631 42.9681
24.7089 42.6356
24.7545 42.4792
24.8002 42.5801
24.8458 42.5764
24.8916 42.2004
24.9372 42.5208
24.983 42.9994
25.0286 43.3131
25.0744 43.7381
25.12 44.0096
25.1658 44.6643
25.2114 44.9269
25.2572 44.8459
25.3029 45.0543
25.3487 45.0087
25.3943 44.773
25.4402 43.4818
25.4858 42.5388
25.5316 41.5508
25.5773 41.2049
25.6231 41.1309
25.669 40.8383
25.7147 40.6051
25.7605 40.6906
25.8062 40.7554
25.8521 40.8952
25.8977 40.8292
25.9436 41.158
25.9893 41.2903
26.0352 41.7642
26.0809 41.918
26.1268 41.8794
26.1725 41.4255
26.2184 41.1245
26.2641 40.5669
26.31 40.354
26.3557 40.4436
26.4017 40.5337
26.4474 40.7731
26.4933 41.0661
26.5391 41.4512
26.585 41.9766
26.6308 42.3138
26.6767 42.4882
26.7225 42.1322
26.7684 41.6653
26.8142 41.031
26.8601 40.7208
26.9059 40.203
26.9519 39.6879
26.9979 39.3895
27.0437 39.1484
27.0896 39.0996
27.1354 39.0601
27.1814 38.8695
27.2272 38.7791
27.2732 38.7738
27.3191 38.5032
27.3651 38.6929
27.4109 38.5996
27.4569 38.8078
27.5027 38.8702
27.5488 38.8206
27.5946 38.6544
27.6407 38.5002
27.6865 38.5137
27.7326 38.1964
27.7784 38.1404
27.8245 38.1154
27.8703 38.2356
27.9164 38.4671
27.9623 38.8302
28.0084 38.9386
28.0543 39.4105
28.1003 39.2161
28.1462 39.0738
28.1923 38.574
28.2384 38.1281
28.2843 37.9321
28.3304 37.3627
28.3764 36.9427
28.4225 36.5323
28.4684 36.4922
28.5145 36.1985
28.5605 36.0676
28.6066 35.795
28.6526 35.8604
28.6987 35.8075
28.7447 35.7852
28.7908 35.6707
28.8368 35.6305
28.8829 35.535
28.9289 35.6312
28.9751 35.3272
29.0211 35.1174
29.0673 34.8169
29.1133 34.6375
29.1595 34.6184
29.2055 34.5628
29.2517 34.5092
29.2977 34.5753
29.3439 34.4688
29.3899 34.4219
29.4361 34.2953
29.4824 34.1293
29.5284 33.9534
29.5746 33.6213
29.6207 33.2402
29.6669 33.2069
29.713 33.2629
29.7593 32.9566
29.8053 33.0683
29.8516 33.0757
29.8977 32.9615
29.9439 32.7727
29.99 32.8064
30.0363 32.7978
30.0824 32.6302
30.1287 32.5693
30.1748 32.6945
30.2211 32.5949
30.2673 32.4657
30.3136 32.5512
30.3597 32.5284
30.406 32.3381
30.4522 32.2534
30.4985 32.2747
30.5447 32.4062
30.591 32.3817
30.6372 32.3836
30.6835 32.4329
30.7297 32.3866
30.7761 32.3531
30.8224 32.1404
30.8686 32.0171
30.915 31.7839
30.9612 31.7915
31.0076 31.4582
31.0538 31.3349
31.1002 31.3304
31.1464 31.1107
31.1928 31.0782
31.2391 31.1445
31.2855 31.1425
31.3317 31.0098
31.3781 31.1027
31.4244 31.0703
31.4708 31.028
31.5171 30.953
31.5636 30.8137
31.6098 30.6593
31.6563 30.5653
31.7026 30.3713
31.7491 30.3
31.7953 30.3678
31.8418 30.3556
31.8881 30.2841
31.9346 30.3351
31.9809 30.2577
32.0275 30.0479
32.074 29.9897
32.1203 29.8241
32.1668 29.6104
32.2132 29.5255
32.2597 29.4127
32.306 29.3454
32.3526 29.0541
32.399 29.0187
32.4455 28.8694
32.4919 28.8553
32.5385 28.8304
32.5848 28.6767
32.6314 28.7182
32.6778 28.6054
32.7244 28.3813
32.7708 28.3069
32.8174 28.3525
32.8638 28.2496
32.9104 28.2088
32.9569 28.2551
33.0035 28.0262
33.0499 27.9967
33.0966 27.9177
33.143 27.9932
33.1897 27.8422
33.2361 27.6942
33.2828 27.7749
33.3293 27.525
33.3759 27.4999
33.4226 27.3725
33.4691 27.2058
33.5158 27.1766
33.5623 27.1398
33.609 26.891
33.6555 26.8109
33.7022 26.7641
33.7487 26.6259
33.7954 26.5907
33.842 26.5401
33.8887 26.4866
33.9353 26.3661
33.982 26.3336
34.0286 26.23
34.0753 26.098
34.1219 25.9682
34.1687 25.9359
34.2152 25.9538
34.262 25.7638
34.3086 25.7834
34.3554 25.6607
34.402 25.5503
34.4488 25.5415
34.4954 25.3764
34.5422 25.3732
34.5889 25.2054
34.6357 25.0766
34.6825 25.0368
34.7292 25.0172
34.776 24.9315
34.8227 24.8006
34.8695 24.7846
34.9162 24.7019
34.9631 24.5842
35.0098 24.6578
35.0566 24.4814
35.1033 24.4377
35.1502 24.4549
35.1969 24.3177
35.2438 24.3061
35.2906 24.2958
35.3375 24.1737
35.3842 24.0732
35.4311 24.1137
35.4779 24.0459
35.5248 24.0662
35.5716 23.8059
35.6185 23.8213
35.6653 23.7616
35.7123 23.6184
35.759 23.5737
35.806 23.456
35.8528 23.417
35.8998 23.3178
35.9468 23.2734
35.9936 23.207
36.0406 23.221
36.0874 23.1944
36.1345 22.995
36.1813 22.9437
36.2283 22.8405
36.2752 22.7491
36.3222 22.7908
36.3691 22.6744
36.4161 22.626
36.463 22.5982
36.5101 22.5315
36.557 22.5227
36.6041 22.3729
36.651 22.2469
36.6981 22.2209
36.745 22.1888
36.7921 22.0482
36.839 22.017
36.8861 21.9587
36.9331 21.8586
36.9802 21.7993
37.0272 21.7663
37.0743 21.618
37.1213 21.6256
37.1684 21.5993
37.2154 21.4477
37.2626 21.4367
37.3098 21.3477
37.3568 21.1994
37.404 21.2539
37.451 21.058
37.4982 21.0896
37.5452 20.918
37.5924 20.8904
37.6395 20.9211
37.6867 20.8231
37.7337 20.6795
37.781 20.6588
37.8281 20.6019
37.8753 20.5275
37.9224 20.394
37.9697 20.3587
38.0168 20.3588
38.064 20.2883
38.1111 20.1712
38.1584 20.1798
38.2056 20.1242
38.2529 20.0667
38.3 19.986
38.3473 20.0038
38.3945 19.8018
38.4418 19.7372
38.489 19.632
38.5363 19.6596
38.5837 19.5802
38.6309 19.5015
38.6782 19.4461
38.7254 19.3276
38.7728 19.2825
38.82 19.263
38.8674 19.2472
38.9146 19.1554
38.9621 19.0808
39.0093 19.0209
39.0567 18.9592
39.104 18.897
39.1514 18.8485
39.1987 18.7684
39.2461 18.7705
39.2934 18.5712
39.3409 18.5466
39.3882 18.5056
39.4356 18.4323
39.483 18.3642
39.5304 18.354
39.5778 18.2845
39.6253 18.2496
39.6726 18.1659
39.7201 18.1614
39.7675 18.0511
39.815 18.0489
39.8624 17.9562
39.9099 17.9234
39.9575 17.8447
40.0049 17.8048
40.0525 17.7255
40.0999 17.7222
40.1474 17.6065
40.1949 17.5903
40.2425 17.4845
40.2899 17.4101
40.3375 17.3831
40.385 17.3336
40.4326 17.2913
40.48 17.2295
40.5277 17.2211
40.5752 17.1256
40.6228 17.085
40.6703 17.0468
40.718 17.0033
40.7655 16.8314
40.8132 16.8535
40.8607 16.7854
40.9084 16.7731
40.9559 16.6838
41.0036 16.6961
41.0512 16.5417
41.0989 16.5717
41.1465 16.4771
41.1942 16.4573
41.242 16.3506
41.2896 16.29
41.3373 16.201
41.3849 16.1472
41.4327 16.1282
41.4803 16.055
41.5281 16.0612
41.5758 15.9473
41.6236 15.9568
41.6712 15.8842
41.7191 15.8259
41.7667 15.7735
41.8146 15.702
41.8622 15.6674
41.9101 15.605
41.9578 15.4874
42.0057 15.567
42.0534 15.3863
42.1013 15.3957
42.149 15.3229
42.1969 15.254
42.2446 15.2552
42.2925 15.2304
42.3403 15.1245
42.3882 15.0917
42.436 15.0698
42.4839 14.9468
42.5319 14.9569
42.5797 14.8701
42.6277 14.8139
42.6755 14.7544
42.7235 14.7854
42.7713 14.6487
42.8193 14.6473
42.8671 14.6065
42.9152 14.5586
42.963 14.4812
43.0111 14.4401
43.0589 14.4299
43.107 14.3354
43.1549 14.3243
43.2029 14.2449
43.2508 14.2234
43.2989 14.0616
43.3468 14.0861
43.3949 14.0397
43.4429 14.0071
43.491 13.9441
43.5389 13.9328
43.5871 13.8756
43.635 13.7646
43.6832 13.7679
43.7312 13.6618
43.7793 13.6806
43.8273 13.6321
43.8755 13.6109
43.9237 13.5375
43.9717 13.5056
44.0199 13.3952
44.068 13.3931
44.1162 13.3117
44.1642 13.3086
44.2125 13.2779
44.2606 13.2395
44.3088 13.1253
44.3569 13.1063
44.4052 13.0511
44.4533 13.0317
44.5016 12.9385
44.5497 12.9287
44.598 12.9139
44.6461 12.8309
44.6945 12.7581
44.7426 12.6999
44.791 12.6457
44.8391 12.6518
44.8875 12.5808
44.9357 12.5602
44.984 12.5057
45.0322 12.4333
45.0806 12.427
45.1288 12.3797
45.1773 12.3453
45.2257 12.2726
45.2739 12.2181
45.3224 12.2368
45.3706 12.1822
45.4191 12.1101
45.4673 12.1089
45.5158 12.0531
45.5641 11.9724
45.6126 11.9683
45.6609 11.9004
45.7094 11.8179
45.7577 11.8538
45.8063 11.7696
45.8546 11.7888
45.9031 11.7171
45.9515 11.6241
46.0001 11.5742
46.0484 11.6556
46.097 11.5057
46.1454 11.5133
46.194 11.4704
46.2424 11.4171
46.291 11.3493
46.3395 11.3172
46.3881 11.2734
46.4365 11.2796
46.4852 11.177
46.5337 11.169
46.5823 11.1254
46.631 11.0866
46.6795 11.0294
46.7282 10.9808
46.7767 10.9389
46.8254 10.8874
46.8739 10.9107
46.9226 10.8565
46.9712 10.803
47.0199 10.7908
47.0685 10.7296
47.1173 10.7425
47.1658 10.6363
47.2146 10.6118
47.2632 10.5618
47.312 10.5562
47.3606 10.4612
47.4095 10.4439
47.4581 10.4399
47.5069 10.3412
47.5556 10.3316
47.6044 10.265
47.6531 10.2472
47.702 10.19
47.7507 10.188
47.7996 10.0986
47.8483 10.1081
47.8972 10.0327
47.9461 10.0344
47.9948 9.97285
48.0438 9.96037
48.0925 9.93365
48.1415 9.91742
48.1902 9.86558
48.2392 9.85109
48.288 9.76962
48.337 9.77086
48.3858 9.73573
48.4348 9.67308
48.4837 9.68537
48.5327 9.61417
48.5815 9.57349
48.6306 9.54687
48.6795 9.50006
48.7285 9.44158
48.7774 9.42096
48.8265 9.40263
48.8754 9.35056
48.9245 9.31146
48.9734 9.31517
49.0226 9.25042
49.0715 9.19503
49.1206 9.20675
49.1696 9.15163
49.2188 9.10417
49.2679 9.07899
49.3169 9.04521
49.3661 8.98873
49.4151 8.97774
49.4643 8.93384
49.5134 8.88526
49.5626 8.82761
49.6117 8.81415
49.6609 8.81043
49.71 8.7477
49.7592 8.73962
49.8083 8.68744
49.8576 8.70641
49.9067 8.63785
49.956 8.61229
50.0052 8.58494
50.0545 8.49912
50.1036 8.47667
50.153 8.46394
50.2022 8.44528
50.2515 8.39972
50.3007 8.33352
50.3501 8.34389
50.3993 8.28544
50.4487 8.29279
50.498 8.25383
50.5474 8.22429
50.5966 8.1624
50.6461 8.1669
50.6955 8.09725
50.7448 8.10185
50.7943 8.06476
50.8436 8.01152
50.8931 8.02852
50.9424 7.9739
50.9919 7.9268
51.0413 7.91519
51.0908 7.86343
51.1402 7.8807
51.1897 7.7879
51.2391 7.78381
51.2887 7.74041
51.3381 7.7121
51.3877 7.69348
51.4371 7.64009
51.4867 7.56362
51.5362 7.56145
51.5858 7.51842
51.6353 7.52755
51.6849 7.50542
51.7344 7.47449
51.7841 7.43127
51.8336 7.37226
51.8833 7.35786
51.9328 7.33929
51.9826 7.28292
52.0323 7.25514
52.0818 7.21511
52.1316 7.21127
52.1812 7.2095
52.231 7.11177
52.2806 7.17658
52.3304 7.11379
52.38 7.05404
52.4298 7.04263
52.4794 6.95798
52.5293 6.98929
52.5789 6.93917
52.6288 6.95792
52.6785 6.91143
52.7284 6.89025
52.7781 6.84119
52.828 6.81047
52.8777 6.75411
52.9276 6.76454
52.9774 6.72081
53.0273 6.69396
53.0771 6.65717
53.1271 6.65165
53.1769 6.6221
53.2269 6.58513
53.2767 6.51352
53.3267 6.55476
53.3765 6.5345
53.4266 6.4496
53.4766 6.44699
53.5265 6.44728
53.5765 6.42194
53.6264 6.36205
53.6765 6.33226
53.7264 6.29197
53.7765 6.27825
53.8265 6.25398
53.8766 6.21838
53.9266 6.18749
53.9767 6.15312
54.0267 6.12672
54.0769 6.1546
54.1269 6.1363
54.1771 6.03682
54.2271 6.06573
54.2773 6.00389
54.3274 5.9755
54.3776 5.91377
54.4277 5.90797
54.478 5.89026
54.528 5.84572
54.5783 5.74605
54.6285 5.75253
54.6788 5.67904
54.7289 5.64514
54.7792 5.64173
54.8296 5.5811
54.8798 5.57128
54.9301 5.51359
54.9803 5.49998
55.0307 5.47387
55.0809 5.42019
55.1314 5.36433
55.1816 5.34815
55.232 5.23971
55.2823 5.26163
55.3328 5.18
55.383 5.15548
55.4335 5.11234
55.4838 5.0416
55.5344 4.97202
55.5847 4.91329
55.6352 4.89635
55.6856 4.90082
55.7361 4.78594