File: XRD/Ni3Fe_FD0897.xy
TT I
1.27165 6.90493
1.31627 6.97581
1.36089 6.31101
1.40551 6.79264
1.45013 6.08574
1.49476 5.82384
1.53938 5.88771
1.584 4.90707
1.62863 5.35993
1.67325 4.878
1.71787 5.36851
1.7625 4.83172
1.80712 4.44566
1.85174 4.51459
1.89636 5.27283
1.94099 4.64141
1.98562 4.39685
2.03025 4.4048
2.07487 4.42343
2.11949 5.00559
2.16411 4.81299
2.20874 12.5682
2.25338 19.2503
2.298 6.3766
2.34263 5.31654
2.38725 6.07467
2.43188 6.49614
2.4765 7.3003
2.52115 7.6643
2.56577 7.62913
2.6104 8.43778
2.65503 8.32195
2.69965 8.40763
2.7443 8.68866
2.78893 8.72495
2.83356 8.61394
2.87818 8.63526
2.92281 9.44425
2.96744 9.13303
3.01209 10.2472
3.05672 10.9859
3.10135 12.6377
3.14599 13.2063
3.19062 14.2603
3.23527 15.3516
3.2799 15.675
3.32454 16.7352
3.36917 17.6814
3.4138 19.1945
3.45844 19.4755
3.50309 20.9494
3.54773 21.4017
3.59237 23.4872
3.637 76.5635
3.68164 49.765
3.7263 25.7904
3.77094 25.9072
3.81558 26.5675
3.86022 27.6051
3.90486 28.7402
3.9495 29.3457
3.99416 30.3929
4.0388 31.4925
4.08344 33.2284
4.12809 34.3002
4.17273 35.8049
4.21738 41.0012
4.26204 199.174
4.30669 176.511
4.35133 46.4583
4.39598 43.9901
4.44063 51.6471
4.4853 60.8474
4.52995 49.9779
4.5746 50.2401
4.61925 52.5068
4.6639 54.6355
4.70855 57.4113
4.75322 60.0422
4.79788 63.1366
4.84253 66.4839
4.88719 70.3382
4.93184 74.0681
4.97652 79.562
5.02118 85.2995
5.06583 92.5229
5.11049 103.044
5.15515 158.104
5.19981 315.148
5.24449 2640.48
5.28916 13658.1
5.33382 2546.85
5.37848 168.543
5.42315 122.955
5.46783 109.774
5.5125 103.301
5.55716 99.8208
5.60183 96.3572
5.6465 94.9326
5.69117 92.7885
5.73586 90.5064
5.78053 89.9113
5.8252 89.3395
5.86988 90.0266
5.91455 92.0148
5.95924 99.8667
6.00392 193.203
6.0486 894.486
6.09328 4519.35
6.13795 3047.34
6.18263 196.094
6.22733 87.9174
6.27201 79.9579
6.3167 93.687
6.36138 76.5307
6.40606 67.4015
6.45075 65.8574
6.49545 64.492
6.54014 62.5624
6.58483 61.5362
6.62952 60.9083
6.67421 85.6242
6.71892 121.71
6.76361 65.4529
6.8083 57.5986
6.853 56.465
6.89769 55.8973
6.94239 55.1843
6.98711 54.971
7.03181 54.4048
7.07651 54.1625
7.12121 53.8201
7.16591 54.2089
7.21063 54.3776
7.25533 66.1417
7.30004 147.524
7.34475 81.8052
7.38945 55.3401
7.43416 53.7119
7.47889 53.231
7.5236 53.6716
7.56831 53.9313
7.61303 55.473
7.65774 55.6487
7.70247 55.0764
7.74719 55.0471
7.79191 55.6677
7.83663 55.9609
7.88135 56.5363
7.92607 57.4802
7.97081 58.8457
8.01553 59.6648
8.06026 61.1866
8.10498 62.6632
8.14971 70.3546
8.19446 70.1196
8.23919 68.4223
8.28392 70.347
8.32865 72.7866
8.37339 76.6271
8.41812 83.3106
8.46288 107.15
8.50761 156.82
8.55235 354.734
8.59709 1184.3
8.64183 2281.76
8.68658 869.528
8.73134 143.62
8.77609 95.6747
8.82083 90.1447
8.86558 87.6171
8.91033 87.7402
8.9551 88.2171
8.99985 83.3829
9.04461 81.9186
9.08936 81.3434
9.13412 80.3938
9.17888 80.425
9.22365 81.0666
9.26841 80.8349
9.31318 81.0929
9.35794 81.189
9.4027 81.9576
9.44749 82.3596
9.49226 83.1849
9.53703 84.0379
9.5818 85.7717
9.62657 89.6324
9.67134 95.1131
9.71614 91.762
9.76091 92.5128
9.80569 95.1454
9.85047 97.8906
9.89525 117.411
9.94005 129.559
9.98484 169.013
10.0296 319.724
10.0744 794.134
10.1192 1845.49
10.164 1473.56
10.2088 334.371
10.2536 118.434
10.2984 108.721
10.3432 109.755
10.388 102.214
10.4328 115.459
10.4776 155.313
10.5224 282.209
10.5672 536.313
10.612 495.08
10.6568 180.592
10.7017 92.511
10.7465 84.428
10.7913 81.1636
10.8361 79.6031
10.8809 77.4745
10.9257 76.4547
10.9706 76.6748
11.0154 73.1847
11.0602 71.4285
11.105 70.678
11.1499 73.8332
11.1947 78.7244
11.2395 71.7486
11.2844 68.6974
11.3292 66.0192
11.374 64.7985
11.4189 64.2886
11.4637 63.6023
11.5086 64.0501
11.5534 66.1602
11.5983 64.0128
11.6431 62.4857
11.688 61.7522
11.7328 61.6487
11.7777 61.6662
11.8225 61.2717
11.8674 61.1318
11.9122 61.5158
11.9571 61.707
12.002 62.2363
12.0468 65.8834
12.0917 76.4684
12.1366 99.9372
12.1814 156.439
12.2263 220.357
12.2712 156.242
12.3161 87.4617
12.3609 67.2804
12.4058 63.078
12.4507 62.7425
12.4956 62.917
12.5405 63.2613
12.5853 64.314
12.6302 70.1513
12.6751 74.3282
12.72 68.1464
12.7649 66.3426
12.8098 67.074
12.8547 68.221
12.8996 69.8688
12.9445 70.8927
12.9894 72.4094
13.0343 74.3744
13.0792 77.4054
13.1242 86.3672
13.1691 107.483
13.214 142.576
13.2589 239.312
13.3038 391.623
13.3487 422.279
13.3937 235.5
13.4386 114.259
13.4835 101.786
13.5285 115.702
13.5734 153.136
13.6183 252.318
13.6633 368.624
13.7082 331.049
13.7531 165.751
13.7981 90.8737
13.843 79.6525
13.888 77.8523
13.9329 75.433
13.9779 74.376
14.0228 72.7249
14.0678 71.541
14.1127 70.7553
14.1577 70.8497
14.2027 69.8703
14.2476 69.0156
14.2926 68.9291
14.3376 69.6794
14.3825 68.6806
14.4275 67.4962
14.4725 67.2765
14.5175 67.4416
14.5624 67.7424
14.6074 69.4416
14.6524 70.0101
14.6974 69.1328
14.7424 70.5017
14.7874 76.6024
14.8324 86.0478
14.8774 107.957
14.9224 155.492
14.9674 219.567
15.0124 216.514
15.0574 135.84
15.1024 84.2298
15.1474 70.1088
15.1924 68.6247
15.2374 68.9307
15.2824 68.4823
15.3274 66.3024
15.3725 65.3667
15.4175 64.9486
15.4625 64.545
15.5076 64.8556
15.5526 64.7526
15.5976 64.7696
15.6426 65.5755
15.6877 70.6134
15.7327 77.2102
15.7778 92.1587
15.8228 126.468
15.8679 176.435
15.9129 195.647
15.958 149.057
16.003 88.7273
16.0481 65.3312
16.0931 62.6245
16.1382 60.8938
16.1833 59.245
16.2283 57.772
16.2734 57.0872
16.3185 57.0808
16.3636 57.6572
16.4086 56.255
16.4537 55.098
16.4988 54.0943
16.5439 54.4482
16.589 53.838
16.6341 53.9624
16.6792 53.4801
16.7243 53.7876
16.7694 53.8108
16.8145 53.6647
16.8596 53.9378
16.9047 55.2863
16.9498 55.4774
16.9949 54.6271
17.04 54.7461
17.0851 55.7171
17.1302 57.5709
17.1754 60.1798
17.2205 65.3374
17.2656 74.2813
17.3108 83.6662
17.3559 80.9025
17.401 67.9
17.4462 59.7701
17.4913 57.7736
17.5365 57.9486
17.5815 57.9659
17.6268 58.4242
17.6718 59.0249
17.7171 59.5574
17.7622 60.1626
17.8074 60.7691
17.8525 62.9885
17.8977 66.6345
17.9428 71.6686
17.9881 80.7457
18.0331 99.1809
18.0784 125.029
18.1237 139.152
18.1688 125.12
18.214 96.3801
18.2591 82.807
18.3044 90.3965
18.3495 101.677
18.3948 106.272
18.4399 91.689
18.4852 73.3858
18.5303 63.7086
18.5756 60.8209
18.6207 60.0048
18.666 59.1257
18.7112 58.5144
18.7565 57.7248
18.8016 57.5531
18.8469 56.9116
18.892 56.6679
18.9374 56.0837
18.9825 55.785
19.0278 55.9033
19.073 55.8669
19.1183 56.2342
19.1635 56.8578
19.2088 58.0967
19.254 60.916
19.2993 65.9029
19.3447 72.4121
19.3898 75.7188
19.4352 69.7181
19.4804 60.8428
19.5257 55.0207
19.5709 53.1996
19.6163 53.0327
19.6615 52.6479
19.7068 52.2996
19.752 52.3112
19.7974 52.3886
19.8426 53.1554
19.888 53.94
19.9332 55.0671
19.9786 57.801
20.0238 61.8506
20.0692 67.0682
20.1144 69.1365
20.1598 66.1276
20.205 61.2359
20.2504 61.108
20.2957 63.961
20.3411 65.4036
20.3863 62.5099
20.4318 56.0414
20.477 51.91
20.5224 50.433
20.5677 49.822
20.6131 49.3597
20.6586 48.7177
20.7038 48.6142
20.7493 48.1709
20.7945 47.966
20.84 47.9136
20.8853 47.6052
20.9307 47.6642
20.976 47.6465
21.0215 47.609
21.0668 48.0558
21.1122 48.4568
21.1575 49.2776
21.203 50.1046
21.2483 50.7306
21.2938 50.4204
21.3391 48.8713
21.3846 47.8496
21.4299 47.4532
21.4754 47.325
21.5207 47.6636
21.5662 48.0762
21.6116 48.2489
21.6571 48.7197
21.7024 49.8384
21.7479 51.5828
21.7933 54.5403
21.8388 58.5624
21.8843 62.8683
21.9297 63.9232
21.9752 61.3168
22.0206 57.543
22.0661 55.4843
22.1115 55.685
22.157 55.1423
22.2024 52.844
22.248 50.1382
22.2933 48.6969
22.3389 48.1204
22.3843 48.1596
22.4299 47.702
22.4753 48.0302
22.5208 47.8136
22.5662 47.5846
22.6118 47.8443
22.6572 47.94
22.7028 48.2101
22.7483 48.6916
22.7939 49.4525
22.8393 50.9665
22.8849 53.1812
22.9303 55.7798
22.9759 57.4979
23.0214 56.152
23.067 52.867
23.1126 49.6181
23.1581 47.9888
23.2037 47.7555
23.2492 47.7696
23.2948 47.9856
23.3403 47.9562
23.3859 48.8022
23.4314 49.7855
23.477 52.0404
23.5225 54.5683
23.5682 56.9478
23.6137 57.1905
23.6593 54.2509
23.7048 49.9209
23.7505 46.9992
23.796 45.586
23.8417 45.2072
23.8872 44.7178
23.9329 44.4053
23.9784 43.9951
24.0241 43.8629
24.0697 43.6352
24.1154 43.2881
24.1609 43.1451
24.2066 42.8494
24.2522 42.9638
24.2979 42.6231
24.3434 42.4556
24.3892 42.4016
24.4349 42.4276
24.4805 42.1935
24.5262 42.5146
24.5718 42.1651
24.6175 42.0268
24.6631 41.9142
24.7089 41.671
24.7545 41.6727
24.8002 41.4571
24.8458 41.4669
24.8916 41.2627
24.9372 41.5322
24.983 41.6896
25.0286 42.1568
25.0744 42.5668
25.12 43.1486
25.1658 43.8538
25.2114 43.9684
25.2572 44.0638
25.3029 44.2369
25.3487 44.2848
25.3943 43.6307
25.4402 42.5963
25.4858 41.4603
25.5316 40.6194
25.5773 40.065
25.6231 39.9675
25.669 39.5852
25.7147 39.6821
25.7605 39.6921
25.8062 39.8608
25.8521 39.8795
25.8977 39.93
25.9436 40.1319
25.9893 40.248
26.0352 40.9346
26.0809 41.0398
26.1268 41.0101
26.1725 40.513
26.2184 39.785
26.2641 39.3989
26.31 39.3691
26.3557 39.5037
26.4017 39.4103
26.4474 39.7021
26.4933 40.1228
26.5391 40.6557
26.585 41.2654
26.6308 41.4784
26.6767 41.4657
26.7225 41.1762
26.7684 40.6327
26.8142 40.0819
26.8601 39.6851
26.9059 39.2923
26.9519 38.7576
26.9979 38.4844
27.0437 38.1262
27.0896 37.9384
27.1354 38.0324
27.1814 37.9307
27.2272 37.8285
27.2732 37.8683
27.3191 37.6755
27.3651 37.7387
27.4109 37.7325
27.4569 37.8652
27.5027 37.9336
27.5488 38.0084
27.5946 37.6415
27.6407 37.3902
27.6865 37.4392
27.7326 37.2305
27.7784 37.1994
27.8245 37.1473
27.8703 37.2593
27.9164 37.5682
27.9623 37.8819
28.0084 38.1485
28.0543 38.4328
28.1003 38.2142
28.1462 38.1775
28.1923 37.7527
28.2384 37.1827
28.2843 36.9037
28.3304 36.4205
28.3764 35.9779
28.4225 35.7042
28.4684 35.6322
28.5145 35.2713
28.5605 35.1298
28.6066 34.9396
28.6526 35.0617
28.6987 34.9174
28.7447 34.8482
28.7908 34.8625
28.8368 34.8473
28.8829 34.6966
28.9289 34.7457
28.9751 34.4758
29.0211 34.2927
29.0673 34.1105
29.1133 33.951
29.1595 33.8283
29.2055 33.7238
29.2517 33.721
29.2977 33.7652
29.3439 33.724
29.3899 33.6646
29.4361 33.5245
29.4824 33.2283
29.5284 33.1019
29.5746 32.8469
29.6207 32.5205
29.6669 32.4377
29.713 32.3542
29.7593 32.332
29.8053 32.2944
29.8516 32.0591
29.8977 32.2453
29.9439 31.884
29.99 32.0158
30.0363 31.9132
30.0824 31.8021
30.1287 31.7295
30.1748 31.9168
30.2211 31.833
30.2673 31.5947
30.3136 31.7605
30.3597 31.701
30.406 31.5261
30.4522 31.4326
30.4985 31.4671
30.5447 31.6605
30.591 31.6347
30.6372 31.6521
30.6835 31.6173
30.7297 31.6254
30.7761 31.5816
30.8224 31.3477
30.8686 31.2293
30.915 31.013
30.9612 30.8293
31.0076 30.6812
31.0538 30.5343
31.1002 30.6
31.1464 30.441
31.1928 30.4217
31.2391 30.3523
31.2855 30.2785
31.3317 30.2563
31.3781 30.432
31.4244 30.3907
31.4708 30.2658
31.5171 30.3531
31.5636 30.1887
31.6098 29.8989
31.6563 29.7825
31.7026 29.6899
31.7491 29.5611
31.7953 29.6544
31.8418 29.602
31.8881 29.6214
31.9346 29.5757
31.9809 29.5621
32.0275 29.4557
32.074 29.3067
32.1203 29.0826
32.1668 28.9494
32.2132 28.8011
32.2597 28.6812
32.306 28.5507
32.3526 28.4526
32.399 28.4463
32.4455 28.2347
32.4919 28.2577
32.5385 28.0391
32.5848 28.0322
32.6314 28.0045
32.6778 27.8359
32.7244 27.7098
32.7708 27.6201
32.8174 27.6368
32.8638 27.492
32.9104 27.5431
32.9569 27.5034
33.0035 27.3527
33.0499 27.3795
33.0966 27.3653
33.143 27.269
33.1897 27.1883
33.2361 27.0472
33.2828 27.068
33.3293 26.8694
33.3759 26.8983
33.4226 26.7444
33.4691 26.6009
33.5158 26.5274
33.5623 26.427
33.609 26.2579
33.6555 26.2202
33.7022 26.0471
33.7487 26.052
33.7954 26.0408
33.842 25.9828
33.8887 25.8192
33.9353 25.8689
33.982 25.6873
34.0286 25.5698
34.0753 25.4759
34.1219 25.4695
34.1687 25.3811
34.2152 25.2812
34.262 25.1179
34.3086 25.1599
34.3554 25.0912
34.402 24.8903
34.4488 24.8404
34.4954 24.8087
34.5422 24.703
34.5889 24.6172
34.6357 24.5484
34.6825 24.4879
34.7292 24.3618
34.776 24.2516
34.8227 24.2114
34.8695 24.2126
34.9162 24.1273
34.9631 23.9558
35.0098 24.0159
35.0566 23.8252
35.1033 23.8793
35.1502 23.8148
35.1969 23.7353
35.2438 23.7139
35.2906 23.7035
35.3375 23.5878
35.3842 23.6133
35.4311 23.6064
35.4779 23.533
35.5248 23.4661
35.5716 23.2972
35.6185 23.2904
35.6653 23.1761
35.7123 23.1023
35.759 23.029
35.806 23.0082
35.8528 22.7853
35.8998 22.8355
35.9468 22.722
35.9936 22.6919
36.0406 22.595
36.0874 22.5825
36.1345 22.438
36.1813 22.4292
36.2283 22.2622
36.2752 22.2165
36.3222 22.3119
36.3691 22.1758
36.4161 22.0801
36.463 22.0576
36.5101 21.967
36.557 21.9258
36.6041 21.8273
36.651 21.8301
36.6981 21.7582
36.745 21.6396
36.7921 21.534
36.839 21.4702
36.8861 21.4383
36.9331 21.377
36.9802 21.2154
37.0272 21.2266
37.0743 21.1475
37.1213 21.1132
37.1684 20.9967
37.2154 20.977
37.2626 20.9196
37.3098 20.8159
37.3568 20.7381
37.404 20.6972
37.451 20.6235
37.4982 20.591
37.5452 20.4552
37.5924 20.4814
37.6395 20.4394
37.6867 20.3666
37.7337 20.1882
37.781 20.1952
37.8281 20.0859
37.8753 20.005
37.9224 19.9762
37.9697 19.873
38.0168 19.8718
38.064 19.8901
38.1111 19.7096
38.1584 19.6743
38.2056 19.634
38.2529 19.5052
38.3 19.4185
38.3473 19.4242
38.3945 19.328
38.4418 19.2394
38.489 19.1715
38.5363 19.1672
38.5837 19.1432
38.6309 19.1289
38.6782 19.0
38.7254 18.9509
38.7728 18.8532
38.82 18.7244
38.8674 18.7196
38.9146 18.6973
38.9621 18.6284
39.0093 18.5992
39.0567 18.5117
39.104 18.4721
39.1514 18.3399
39.1987 18.3326
39.2461 18.3378
39.2934 18.2555
39.3409 18.1183
39.3882 18.1277
39.4356 18.0553
39.483 17.9981
39.5304 17.95
39.5778 17.9304
39.6253 17.8171
39.6726 17.7772
39.7201 17.7169
39.7675 17.6524
39.815 17.6198
39.8624 17.5526
39.9099 17.5475
39.9575 17.4056
40.0049 17.3587
40.0525 17.3276
40.0999 17.2838
40.1474 17.2241
40.1949 17.1902
40.2425 17.0696
40.2899 17.0302
40.3375 17.039
40.385 16.9202
40.4326 16.8693
40.48 16.8224
40.5277 16.8194
40.5752 16.7606
40.6228 16.6313
40.6703 16.5618
40.718 16.554
40.7655 16.558
40.8132 16.5102
40.8607 16.4668
40.9084 16.3618
40.9559 16.3288
41.0036 16.3336
41.0512 16.2315
41.0989 16.2295
41.1465 16.1058
41.1942 16.0728
41.242 15.9901
41.2896 15.9844
41.3373 15.8799
41.3849 15.832
41.4327 15.7361
41.4803 15.6421
41.5281 15.6753
41.5758 15.6224
41.6236 15.5536
41.6712 15.4794
41.7191 15.3572
41.7667 15.4222
41.8146 15.3589
41.8622 15.2862
41.9101 15.2459
41.9578 15.1716
42.0057 15.1517
42.0534 15.1231
42.1013 15.0805
42.149 14.9946
42.1969 14.9552
42.2446 14.8852
42.2925 14.8728
42.3403 14.795
42.3882 14.8332
42.436 14.7229
42.4839 14.6472
42.5319 14.6477
42.5797 14.5468
42.6277 14.5141
42.6755 14.4793
42.7235 14.398
42.7713 14.3892
42.8193 14.3176
42.8671 14.2335
42.9152 14.2143
42.963 14.184
43.0111 14.1427
43.0589 14.0417
43.107 14.0414
43.1549 13.9935
43.2029 13.9399
43.2508 13.8719
43.2989 13.859
43.3468 13.7539
43.3949 13.7132
43.4429 13.686
43.491 13.6221
43.5389 13.5841
43.5871 13.5473
43.635 13.4171
43.6832 13.4443
43.7312 13.4352
43.7793 13.3414
43.8273 13.3664
43.8755 13.2904
43.9237 13.2076
43.9717 13.1936
44.0199 13.1214
44.068 13.104
44.1162 13.0647
44.1642 13.0317
44.2125 12.9815
44.2606 12.9056
44.3088 12.842
44.3569 12.8001
44.4052 12.7859
44.4533 12.7242
44.5016 12.6975
44.5497 12.6386
44.598 12.6078
44.6461 12.5762
44.6945 12.5201
44.7426 12.4634
44.791 12.4045
44.8391 12.3713
44.8875 12.3149
44.9357 12.3476
44.984 12.2308
45.0322 12.2065
45.0806 12.1879
45.1288 12.1222
45.1773 12.0655
45.2257 12.047
45.2739 11.9695
45.3224 11.943
45.3706 11.9093
45.4191 11.8618
45.4673 11.8346
45.5158 11.7395
45.5641 11.7312
45.6126 11.6649
45.6609 11.6143
45.7094 11.6226
45.7577 11.5814
45.8063 11.5094
45.8546 11.5363
45.9031 11.4619
45.9515 11.3845
46.0001 11.3812
46.0484 11.3167
46.097 11.3078
46.1454 11.2854
46.194 11.2415
46.2424 11.1408
46.291 11.1374
46.3395 11.0359
46.3881 11.0498
46.4365 11.0096
46.4852 10.9973
46.5337 10.9499
46.5823 10.9373
46.631 10.8876
46.6795 10.8131
46.7282 10.7654
46.7767 10.7563
46.8254 10.6704
46.8739 10.6229
46.9226 10.6278
46.9712 10.5649
47.0199 10.5057
47.0685 10.4912
47.1173 10.4554
47.1658 10.4183
47.2146 10.3718
47.2632 10.3369
47.312 10.2958
47.3606 10.2381
47.4095 10.2402
47.4581 10.183
47.5069 10.1353
47.5556 10.0995
47.6044 10.0579
47.6531 10.0642
47.702 9.98915
47.7507 9.93394
47.7996 9.88452
47.8483 9.90783
47.8972 9.83774
47.9461 9.84125
47.9948 9.7684
48.0438 9.73179
48.0925 9.72841
48.1415 9.66385
48.1902 9.60999
48.2392 9.58547
48.288 9.56889
48.337 9.52857
48.3858 9.48819
48.4348 9.45086
48.4837 9.44856
48.5327 9.39582
48.5815 9.34888
48.6306 9.34003
48.6795 9.29535
48.7285 9.31521
48.7774 9.23471
48.8265 9.21261
48.8754 9.14351
48.9245 9.14624
48.9734 9.10942
49.0226 9.1127
49.0715 9.00651
49.1206 8.99011
49.1696 8.94245
49.2188 8.89989
49.2679 8.91138
49.3169 8.85379
49.3661 8.80821
49.4151 8.79678
49.4643 8.73363
49.5134 8.70413
49.5626 8.65944
49.6117 8.66452
49.6609 8.65006
49.71 8.56225
49.7592 8.56628
49.8083 8.49447
49.8576 8.48639
49.9067 8.46803
49.956 8.41475
50.0052 8.41866
50.0545 8.37062
50.1036 8.33588
50.153 8.26504
50.2022 8.27206
50.2515 8.20206
50.3007 8.17227
50.3501 8.18219
50.3993 8.10143
50.4487 8.12325
50.498 8.08051
50.5474 8.04271
50.5966 8.00464
50.6461 8.00009
50.6955 7.97047
50.7448 7.91249
50.7943 7.88037
50.8436 7.82777
50.8931 7.79114
50.9424 7.80576
50.9919 7.76038
51.0413 7.71109
51.0908 7.68571
51.1402 7.66315
51.1897 7.63792
51.2391 7.63668
51.2887 7.59952
51.3381 7.51159
51.3877 7.53371
51.4371 7.48924
51.4867 7.46867
51.5362 7.44155
51.5858 7.3971
51.6353 7.37659
51.6849 7.32565
51.7344 7.32268
51.7841 7.27543
51.8336 7.23312
51.8833 7.21305
51.9328 7.17056
51.9826 7.12158
52.0323 7.109
52.0818 7.10898
52.1316 7.08183
52.1812 7.06775
52.231 6.97166
52.2806 6.96702
52.3304 6.94843
52.38 6.93665
52.4298 6.89902
52.4794 6.85108
52.5293 6.78021
52.5789 6.81837
52.6288 6.8094
52.6785 6.74707
52.7284 6.75116
52.7781 6.68649
52.828 6.68574
52.8777 6.61841
52.9276 6.60101
52.9774 6.59916
53.0273 6.61119
53.0771 6.53858
53.1271 6.54143
53.1769 6.47982
53.2269 6.46607
53.2767 6.43243
53.3267 6.40551
53.3765 6.36971
53.4266 6.35352
53.4766 6.33262
53.5265 6.27306
53.5765 6.28174
53.6264 6.22637
53.6765 6.22586
53.7264 6.20377
53.7765 6.15984
53.8265 6.13564
53.8766 6.07601
53.9266 6.05269
53.9767 6.04564
54.0267 6.02058
54.0769 6.00592
54.1269 5.90434
54.1771 5.90487
54.2271 5.91633
54.2773 5.82104
54.3274 5.83684
54.3776 5.78349
54.4277 5.82063
54.478 5.76691
54.528 5.68073
54.5783 5.65943
54.6285 5.65287
54.6788 5.62161
54.7289 5.54669
54.7792 5.52914
54.8296 5.43199
54.8798 5.43669
54.9301 5.40363
54.9803 5.33403
55.0307 5.36037
55.0809 5.25271
55.1314 5.27174
55.1816 5.17175
55.232 5.10722
55.2823 5.08172
55.3328 5.0921
55.383 4.99196
55.4335 4.98228
55.4838 4.87973
55.5344 4.90879
55.5847 4.80643
55.6352 4.83203
55.6856 4.79214
55.7361 4.76271