File: XRD/Ni3Fe_FD0010.xy
TT I
1.27165 36.0476
1.31627 36.2824
1.36089 35.9903
1.40551 32.8046
1.45013 32.7183
1.49476 31.7088
1.53938 30.822
1.584 29.2301
1.62863 28.6148
1.67325 27.8522
1.71787 26.8584
1.7625 26.753
1.80712 26.4031
1.85174 25.7475
1.89636 25.5868
1.94099 25.8522
1.98562 26.0007
2.03025 26.0883
2.07487 25.9116
2.11949 26.5021
2.16411 25.9667
2.20874 26.372
2.25338 25.9044
2.298 26.6689
2.34263 26.4229
2.38725 25.9224
2.43188 26.7357
2.4765 26.1116
2.52115 26.5887
2.56577 27.3365
2.6104 28.1231
2.65503 28.9298
2.69965 30.0423
2.7443 31.4364
2.78893 34.1294
2.83356 36.9723
2.87818 40.2429
2.92281 44.5768
2.96744 50.233
3.01209 58.2481
3.05672 66.1669
3.10135 77.0952
3.14599 83.6988
3.19062 86.5106
3.23527 81.1828
3.2799 71.291
3.32454 59.7011
3.36917 51.378
3.4138 45.416
3.45844 41.7921
3.50309 40.3632
3.54773 39.4305
3.59237 39.5993
3.637 40.6952
3.68164 40.9798
3.7263 41.7503
3.77094 41.3324
3.81558 41.1439
3.86022 41.7569
3.90486 42.8017
3.9495 43.8814
3.99416 45.1779
4.0388 47.9941
4.08344 51.3188
4.12809 54.6015
4.17273 59.8429
4.21738 67.027
4.26204 73.4129
4.30669 78.3184
4.35133 80.2557
4.39598 77.0321
4.44063 72.8269
4.4853 69.5208
4.52995 65.344
4.5746 61.1036
4.61925 58.2814
4.6639 55.4242
4.70855 55.2079
4.75322 56.125
4.79788 57.5254
4.84253 60.9544
4.88719 64.8389
4.93184 70.1423
4.97652 78.7379
5.02118 91.6382
5.06583 114.604
5.11049 136.622
5.15515 173.527
5.19981 253.709
5.24449 489.338
5.28916 1006.56
5.33382 2632.03
5.37848 4079.92
5.42315 1506.93
5.46783 427.64
5.5125 231.221
5.55716 164.014
5.60183 129.134
5.6465 113.855
5.69117 106.134
5.73586 100.277
5.78053 95.4006
5.8252 95.1534
5.86988 98.5853
5.91455 106.919
5.95924 123.229
6.00392 159.514
6.0486 241.291
6.09328 405.13
6.13795 693.053
6.18263 1248.83
6.22733 898.496
6.27201 365.994
6.3167 183.738
6.36138 115.857
6.40606 86.7622
6.45075 73.7206
6.49545 65.1555
6.54014 59.7955
6.58483 56.4348
6.62952 54.682
6.67421 53.8122
6.71892 53.1118
6.76361 53.2859
6.8083 52.5802
6.853 51.2366
6.89769 50.4647
6.94239 49.2753
6.98711 48.3463
7.03181 48.4794
7.07651 48.7036
7.12121 50.13
7.16591 51.9484
7.21063 54.1406
7.25533 57.4409
7.30004 63.6687
7.34475 69.7013
7.38945 72.0944
7.43416 68.1928
7.47889 63.9195
7.5236 64.3918
7.56831 91.7206
7.61303 168.54
7.65774 101.643
7.70247 52.8451
7.74719 44.1861
7.79191 41.7099
7.83663 39.9146
7.88135 39.472
7.92607 39.1711
7.97081 39.3443
8.01553 39.343
8.06026 40.1569
8.10498 40.4754
8.14971 41.7241
8.19446 42.7953
8.23919 44.3276
8.28392 46.214
8.32865 47.5935
8.37339 51.3663
8.41812 55.3887
8.46288 62.011
8.50761 72.258
8.55235 93.1578
8.59709 141.792
8.64183 197.752
8.68658 308.255
8.73134 630.77
8.77609 759.596
8.82083 369.606
8.86558 163.586
8.91033 104.483
8.9551 81.4382
8.99985 71.2708
9.04461 64.9756
9.08936 61.3007
9.13412 58.9959
9.17888 59.2138
9.22365 64.5229
9.26841 101.89
9.31318 240.629
9.35794 203.948
9.4027 80.2438
9.44749 56.4541
9.49226 51.7868
9.53703 49.8597
9.5818 49.3761
9.62657 49.3722
9.67134 49.6396
9.71614 51.1487
9.76091 51.9456
9.80569 53.3127
9.85047 55.7076
9.89525 59.2706
9.94005 63.5106
9.98484 71.9884
10.0296 87.7245
10.0744 121.292
10.1192 167.851
10.164 211.872
10.2088 376.478
10.2536 739.2
10.2984 717.103
10.3432 337.543
10.388 155.905
10.4328 102.568
10.4776 84.5235
10.5224 82.1023
10.5672 88.6287
10.612 94.052
10.6568 125.398
10.7017 231.253
10.7465 300.014
10.7913 192.913
10.8361 90.519
10.8809 58.2126
10.9257 49.1827
10.9706 46.0294
11.0154 43.4681
11.0602 42.4949
11.105 41.8581
11.1499 40.838
11.1947 40.4608
11.2395 40.2438
11.2844 40.2713
11.3292 40.0306
11.374 39.4873
11.4189 39.4611
11.4637 38.6784
11.5086 37.981
11.5534 37.7555
11.5983 37.7022
11.6431 37.4323
11.688 37.4557
11.7328 37.2652
11.7777 37.2214
11.8225 37.1404
11.8674 37.7332
11.9122 39.0038
11.9571 43.4018
12.002 64.5413
12.0468 96.3216
12.0917 76.2121
12.1366 49.6745
12.1814 46.1589
12.2263 47.8999
12.2712 51.7769
12.3161 63.0991
12.3609 86.171
12.4058 98.3401
12.4507 76.4294
12.4956 55.8311
12.5405 46.4347
12.5853 42.4498
12.6302 40.315
12.6751 39.3907
12.72 39.4211
12.7649 39.6601
12.8098 39.7135
12.8547 39.4337
12.8996 39.2403
12.9445 39.2249
12.9894 39.4627
13.0343 39.9479
13.0792 41.1159
13.1242 43.5669
13.1691 52.8295
13.214 61.779
13.2589 61.58
13.3038 65.7922
13.3487 70.2326
13.3937 82.9382
13.4386 119.603
13.4835 196.557
13.5285 229.232
13.5734 159.875
13.6183 103.052
13.6633 85.3689
13.7082 79.4341
13.7531 88.0002
13.7981 127.983
13.843 202.732
13.888 203.432
13.9329 119.811
13.9779 71.2405
14.0228 53.8892
14.0678 46.5519
14.1127 43.8693
14.1577 45.0722
14.2027 56.7566
14.2476 84.5075
14.2926 84.288
14.3376 53.5764
14.3825 40.7086
14.4275 38.0123
14.4725 36.9792
14.5175 36.4358
14.5624 35.92
14.6074 35.9191
14.6524 35.8698
14.6974 36.0205
14.7424 36.6239
14.7874 36.98
14.8324 38.4188
14.8774 40.4595
14.9224 44.3061
14.9674 47.7403
15.0124 49.7289
15.0574 54.7712
15.1024 69.3463
15.1474 102.44
15.1924 133.783
15.2374 115.396
15.2824 76.4997
15.3274 53.9589
15.3725 45.1113
15.4175 41.4109
15.4625 39.411
15.5076 37.9803
15.5526 37.4815
15.5976 37.397
15.6426 37.037
15.6877 37.2939
15.7327 37.7556
15.7778 39.3014
15.8228 42.4656
15.8679 45.6242
15.9129 47.1833
15.958 50.4629
16.003 59.3097
16.0481 81.3712
16.0931 118.459
16.1382 135.308
16.1833 109.266
16.2283 72.8522
16.2734 50.032
16.3185 41.0313
16.3636 37.2401
16.4086 34.9236
16.4537 33.6926
16.4988 32.6611
16.5439 32.4565
16.589 31.8155
16.6341 31.3869
16.6792 30.9146
16.7243 30.8625
16.7694 30.7793
16.8145 30.7352
16.8596 30.7098
16.9047 30.9318
16.9498 31.5275
16.9949 33.7122
17.04 38.4026
17.0851 40.0712
17.1302 35.5674
17.1754 32.7004
17.2205 32.3386
17.2656 32.803
17.3108 33.5397
17.3559 33.4915
17.401 34.4327
17.4462 37.0895
17.4913 42.4204
17.5365 50.6808
17.5815 52.1839
17.6268 44.6271
17.6718 37.8316
17.7171 35.0128
17.7622 34.1549
17.8074 34.5304
17.8525 37.6508
17.8977 41.5087
17.9428 41.3567
17.9881 38.2491
18.0331 38.9431
18.0784 40.8129
18.1237 41.9993
18.1688 43.034
18.214 47.1272
18.2591 56.1615
18.3044 77.4062
18.3495 103.428
18.3948 105.908
18.4399 80.5268
18.4852 60.8921
18.5303 57.3929
18.5756 64.8468
18.6207 77.6061
18.666 76.0568
18.7112 61.5427
18.7565 47.4045
18.8016 39.6755
18.8469 36.0821
18.892 34.4986
18.9374 33.3996
18.9825 32.989
19.0278 32.3971
19.073 32.4055
19.1183 32.0761
19.1635 31.9177
19.2088 32.2295
19.254 32.8058
19.2993 33.6545
19.3447 34.7336
19.3898 37.3364
19.4352 43.3152
19.4804 48.9296
19.5257 47.6214
19.5709 45.5795
19.6163 49.2266
19.6615 50.5396
19.7068 44.7803
19.752 38.2905
19.7974 34.4915
19.8426 32.43
19.888 31.4843
19.9332 30.9049
19.9786 31.1223
20.0238 31.0668
20.0692 31.6486
20.1144 31.5918
20.1598 32.1873
20.205 32.8967
20.2504 35.281
20.2957 39.2467
20.3411 45.2476
20.3863 48.8481
20.4318 45.4686
20.477 40.4162
20.5224 39.5097
20.5677 42.9261
20.6131 46.1678
20.6586 43.5401
20.7038 37.1617
20.7493 32.8112
20.7945 30.9433
20.84 30.6977
20.8853 32.3241
20.9307 33.8761
20.976 32.9754
21.0215 30.002
21.0668 28.4545
21.1122 27.9833
21.1575 27.8173
21.203 27.8115
21.2483 27.6686
21.2938 27.8364
21.3391 27.7355
21.3846 27.7858
21.4299 28.5553
21.4754 29.7854
21.5207 31.8053
21.5662 32.6049
21.6116 31.7711
21.6571 30.253
21.7024 29.2539
21.7479 29.0176
21.7933 29.1391
21.8388 29.6452
21.8843 30.0076
21.9297 30.3146
21.9752 30.9257
22.0206 32.2909
22.0661 34.3751
22.1115 38.0988
22.157 44.0049
22.2024 50.5454
22.248 51.6606
22.2933 47.6323
22.3389 43.4208
22.3843 41.1578
22.4299 40.5674
22.4753 38.5909
22.5208 34.7294
22.5662 31.996
22.6118 30.5206
22.6572 29.4779
22.7028 29.2514
22.7483 29.0441
22.7939 28.9546
22.8393 29.3482
22.8849 30.2261
22.9303 31.5568
22.9759 31.9589
23.0214 31.176
23.067 30.716
23.1126 31.1421
23.1581 32.6407
23.2037 36.1945
23.2492 41.4817
23.2948 44.8356
23.3403 42.3289
23.3859 36.9139
23.4314 33.4479
23.477 32.3678
23.5225 32.9821
23.5682 34.4956
23.6137 35.1526
23.6593 33.6137
23.7048 32.4041
23.7505 32.8813
23.796 35.0722
23.8417 39.592
23.8872 45.3882
23.9329 46.91
23.9784 42.3392
24.0241 35.5432
24.0697 31.7127
24.1154 29.744
24.1609 28.7973
24.2066 28.4933
24.2522 27.9735
24.2979 27.2878
24.3434 26.5059
24.3892 26.1041
24.4349 26.0171
24.4805 25.729
24.5262 25.6788
24.5718 25.5235
24.6175 25.5323
24.6631 25.6345
24.7089 25.7258
24.7545 26.4581
24.8002 27.2518
24.8458 27.8748
24.8916 27.1556
24.9372 26.526
24.983 26.0441
25.0286 25.7362
25.0744 25.4997
25.12 25.4042
25.1658 25.5305
25.2114 25.6531
25.2572 25.9224
25.3029 26.3565
25.3487 27.0684
25.3943 27.9189
25.4402 29.125
25.4858 30.4009
25.5316 30.8
25.5773 30.627
25.6231 31.4285
25.669 32.8268
25.7147 33.316
25.7605 31.4152
25.8062 28.725
25.8521 27.1404
25.8977 26.3102
25.9436 26.4482
25.9893 26.6614
26.0352 26.6168
26.0809 25.6754
26.1268 25.2101
26.1725 25.0461
26.2184 25.1407
26.2641 25.5139
26.31 25.7974
26.3557 26.7034
26.4017 27.9084
26.4474 29.2451
26.4933 29.1287
26.5391 28.0777
26.585 26.8746
26.6308 26.075
26.6767 25.6756
26.7225 25.5132
26.7684 25.7414
26.8142 26.0317
26.8601 26.5892
26.9059 27.8183
26.9519 29.4733
26.9979 31.5922
27.0437 32.2737
27.0896 31.7438
27.1354 30.8682
27.1814 29.7657
27.2272 28.4203
27.2732 26.8323
27.3191 25.5824
27.3651 24.8982
27.4109 24.5205
27.4569 24.4024
27.5027 24.1195
27.5488 24.0297
27.5946 24.1621
27.6407 24.2608
27.6865 24.3308
27.7326 24.284
27.7784 24.437
27.8245 24.597
27.8703 25.3481
27.9164 25.8879
27.9623 25.6108
28.0084 25.1687
28.0543 24.8231
28.1003 24.8701
28.1462 25.3221
28.1923 25.9384
28.2384 26.1755
28.2843 26.1882
28.3304 26.4506
28.3764 27.8886
28.4225 29.452
28.4684 30.0188
28.5145 28.9412
28.5605 28.1687
28.6066 27.6831
28.6526 27.0815
28.6987 26.2647
28.7447 25.0527
28.7908 24.1197
28.8368 23.4406
28.8829 22.9439
28.9289 22.6475
28.9751 22.4627
29.0211 22.3681
29.0673 22.331
29.1133 22.2209
29.1595 22.2925
29.2055 22.7233
29.2517 23.1892
29.2977 23.3886
29.3439 23.2498
29.3899 22.6517
29.4361 22.228
29.4824 21.8444
29.5284 21.6551
29.5746 21.5901
29.6207 21.6367
29.6669 21.9107
29.713 22.1205
29.7593 22.6457
29.8053 23.0036
29.8516 22.7596
29.8977 22.2985
29.9439 21.5335
29.99 21.238
30.0363 20.9107
30.0824 20.9696
30.1287 20.9437
30.1748 21.0678
30.2211 21.2236
30.2673 21.3545
30.3136 21.3386
30.3597 21.1177
30.406 20.8662
30.4522 20.7376
30.4985 20.7299
30.5447 21.0884
30.591 21.3298
30.6372 21.5147
30.6835 21.4592
30.7297 21.2807
30.7761 20.9757
30.8224 20.9176
30.8686 20.8708
30.915 20.9452
30.9612 21.1973
31.0076 21.7248
31.0538 22.4351
31.1002 23.3118
31.1464 23.5603
31.1928 23.4402
31.2391 23.1586
31.2855 22.6466
31.3317 21.9984
31.3781 21.4293
31.4244 20.9227
31.4708 20.6494
31.5171 20.4397
31.5636 20.3299
31.6098 20.3527
31.6563 20.4057
31.7026 20.631
31.7491 20.7123
31.7953 21.0121
31.8418 21.3826
31.8881 21.8675
31.9346 22.0256
31.9809 21.5856
32.0275 21.0608
32.074 20.6659
32.1203 20.3819
32.1668 20.4935
32.2132 20.468
32.2597 20.6798
32.306 20.9046
32.3526 21.2013
32.399 21.4089
32.4455 21.2937
32.4919 20.9143
32.5385 20.55
32.5848 20.1198
32.6314 19.8247
32.6778 19.4581
32.7244 19.2131
32.7708 18.949
32.8174 18.7829
32.8638 18.6092
32.9104 18.6217
32.9569 18.6728
33.0035 18.5488
33.0499 18.5911
33.0966 18.7633
33.143 18.8286
33.1897 18.8146
33.2361 18.5443
33.2828 18.4515
33.3293 18.3379
33.3759 18.3346
33.4226 18.3154
33.4691 18.5653
33.5158 18.6991
33.5623 19.0215
33.609 19.1895
33.6555 19.349
33.7022 19.4475
33.7487 19.333
33.7954 19.2732
33.842 18.7739
33.8887 18.3413
33.9353 18.0286
33.982 17.8561
34.0286 17.7516
34.0753 17.7043
34.1219 17.6488
34.1687 17.5575
34.2152 17.6169
34.262 17.5145
34.3086 17.7387
34.3554 17.7666
34.402 17.575
34.4488 17.3862
34.4954 17.256
34.5422 17.1865
34.5889 17.0437
34.6357 17.021
34.6825 16.9888
34.7292 17.0306
34.776 17.1607
34.8227 17.068
34.8695 16.9275
34.9162 16.8644
34.9631 16.6127
35.0098 16.5481
35.0566 16.4007
35.1033 16.331
35.1502 16.2583
35.1969 16.2395
35.2438 16.2051
35.2906 16.2027
35.3375 16.2381
35.3842 16.3091
35.4311 16.2934
35.4779 16.2774
35.5248 16.2867
35.5716 16.2232
35.6185 16.2891
35.6653 16.21
35.7123 16.3979
35.759 16.4802
35.806 16.667
35.8528 16.8614
35.8998 17.0177
35.9468 17.1048
35.9936 17.173
36.0406 16.925
36.0874 16.7333
36.1345 16.4887
36.1813 16.1726
36.2283 15.9057
36.2752 15.7772
36.3222 15.6924
36.3691 15.6114
36.4161 15.5306
36.463 15.5671
36.5101 15.6608
36.557 15.6958
36.6041 15.707
36.651 15.8666
36.6981 15.7362
36.745 15.6116
36.7921 15.3995
36.839 15.2572
36.8861 15.2899
36.9331 15.3171
36.9802 15.3327
37.0272 15.4147
37.0743 15.3977
37.1213 15.4292
37.1684 15.2992
37.2154 15.1915
37.2626 15.078
37.3098 14.8241
37.3568 14.7694
37.404 14.7222
37.451 14.6038
37.4982 14.5785
37.5452 14.4664
37.5924 14.3947
37.6395 14.4797
37.6867 14.4529
37.7337 14.3608
37.781 14.3264
37.8281 14.298
37.8753 14.2069
37.9224 14.0986
37.9697 14.1038
38.0168 14.0777
38.064 14.0508
38.1111 14.1088
38.1584 14.1242
38.2056 14.1243
38.2529 14.0694
38.3 13.8947
38.3473 13.9038
38.3945 13.7361
38.4418 13.6307
38.489 13.5679
38.5363 13.5301
38.5837 13.5158
38.6309 13.4259
38.6782 13.5266
38.7254 13.4415
38.7728 13.5315
38.82 13.5443
38.8674 13.4706
38.9146 13.3981
38.9621 13.317
39.0093 13.2696
39.0567 13.2314
39.104 13.2105
39.1514 13.1931
39.1987 13.3414
39.2461 13.2785
39.2934 13.197
39.3409 13.044
39.3882 12.9034
39.4356 12.8325
39.483 12.7496
39.5304 12.7161
39.5778 12.7187
39.6253 12.6793
39.6726 12.5587
39.7201 12.5595
39.7675 12.4965
39.815 12.5419
39.8624 12.519
39.9099 12.5136
39.9575 12.4181
40.0049 12.3876
40.0525 12.32
40.0999 12.3829
40.1474 12.2875
40.1949 12.3101
40.2425 12.3263
40.2899 12.3829
40.3375 12.3508
40.385 12.3324
40.4326 12.33
40.48 12.2127
40.5277 12.2036
40.5752 12.0801
40.6228 12.0168
40.6703 12.0337
40.718 11.9795
40.7655 11.9059
40.8132 11.8979
40.8607 11.9372
40.9084 11.8938
40.9559 11.849
41.0036 11.8415
41.0512 11.7303
41.0989 11.7364
41.1465 11.6863
41.1942 11.7768
41.242 11.7616
41.2896 11.7295
41.3373 11.6669
41.3849 11.6462
41.4327 11.5556
41.4803 11.4696
41.5281 11.4055
41.5758 11.3481
41.6236 11.2714
41.6712 11.1859
41.7191 11.1676
41.7667 11.1903
41.8146 11.1317
41.8622 11.1098
41.9101 11.0654
41.9578 11.0161
42.0057 10.9741
42.0534 10.9944
42.1013 10.9515
42.149 10.9864
42.1969 10.9277
42.2446 10.9627
42.2925 10.9778
42.3403 10.9215
42.3882 10.8807
42.436 10.7761
42.4839 10.778
42.5319 10.6754
42.5797 10.5481
42.6277 10.4763
42.6755 10.5281
42.7235 10.4635
42.7713 10.4271
42.8193 10.3789
42.8671 10.4152
42.9152 10.3312
42.963 10.3126
43.0111 10.2493
43.0589 10.2097
43.107 10.1821
43.1549 10.128
43.2029 10.0647
43.2508 10.0651
43.2989 10.0089
43.3468 9.93592
43.3949 9.93403
43.4429 9.91022
43.491 9.85689
43.5389 9.82814
43.5871 9.81805
43.635 9.75147
43.6832 9.77152
43.7312 9.68462
43.7793 9.67995
43.8273 9.6321
43.8755 9.61142
43.9237 9.59074
43.9717 9.59655
44.0199 9.55145
44.068 9.52772
44.1162 9.54746
44.1642 9.53485
44.2125 9.53208
44.2606 9.46787
44.3088 9.43283
44.3569 9.38271
44.4052 9.37007
44.4533 9.29577
44.5016 9.26075
44.5497 9.26467
44.598 9.21042
44.6461 9.19157
44.6945 9.14074
44.7426 9.1322
44.791 9.16812
44.8391 9.08934
44.8875 9.02924
44.9357 9.04388
44.984 8.97781
45.0322 8.94454
45.0806 8.94538
45.1288 8.94664
45.1773 8.91911
45.2257 8.87166
45.2739 8.80757
45.3224 8.80476
45.3706 8.72815
45.4191 8.72453
45.4673 8.64148
45.5158 8.66604
45.5641 8.63016
45.6126 8.60571
45.6609 8.53884
45.7094 8.57095
45.7577 8.52719
45.8063 8.45566
45.8546 8.49647
45.9031 8.43652
45.9515 8.3913
46.0001 8.3864
46.0484 8.36417
46.097 8.34069
46.1454 8.32576
46.194 8.33212
46.2424 8.22565
46.291 8.17835
46.3395 8.21356
46.3881 8.14707
46.4365 8.10659
46.4852 8.08523
46.5337 8.07552
46.5823 8.04545
46.631 8.02299
46.6795 8.00942
46.7282 7.97184
46.7767 7.94805
46.8254 7.89692
46.8739 7.86117
46.9226 7.82841
46.9712 7.80463
47.0199 7.78129
47.0685 7.76779
47.1173 7.72967
47.1658 7.70613
47.2146 7.68079
47.2632 7.6126
47.312 7.59542
47.3606 7.58229
47.4095 7.53584
47.4581 7.53098
47.5069 7.51388
47.5556 7.48743
47.6044 7.4683
47.6531 7.42736
47.702 7.39103
47.7507 7.39206
47.7996 7.31287
47.8483 7.30933
47.8972 7.29091
47.9461 7.25877
47.9948 7.24463
48.0438 7.21047
48.0925 7.17714
48.1415 7.14035
48.1902 7.14409
48.2392 7.11625
48.288 7.09106
48.337 7.05197
48.3858 7.0092
48.4348 6.99512
48.4837 7.00135
48.5327 6.98054
48.5815 6.93585
48.6306 6.91283
48.6795 6.92226
48.7285 6.85467
48.7774 6.85467
48.8265 6.84834
48.8754 6.78659
48.9245 6.78787
48.9734 6.72345
49.0226 6.73989
49.0715 6.7062
49.1206 6.66474
49.1696 6.62183
49.2188 6.6136
49.2679 6.61443
49.3169 6.52584
49.3661 6.53533
49.4151 6.50637
49.4643 6.51776
49.5134 6.46024
49.5626 6.46041
49.6117 6.44481
49.6609 6.40007
49.71 6.39999
49.7592 6.35327
49.8083 6.36047
49.8576 6.29472
49.9067 6.31495
49.956 6.27002
50.0052 6.2476
50.0545 6.21704
50.1036 6.24116
50.153 6.20882
50.2022 6.19327
50.2515 6.16773
50.3007 6.13656
50.3501 6.09428
50.3993 6.0896
50.4487 6.09317
50.498 6.04282
50.5474 6.01212
50.5966 5.99713
50.6461 5.99126
50.6955 5.99374
50.7448 5.95869
50.7943 5.90473
50.8436 5.88686
50.8931 5.86127
50.9424 5.86456
50.9919 5.8416
51.0413 5.79803
51.0908 5.73725
51.1402 5.76837
51.1897 5.7365
51.2391 5.71443
51.2887 5.68817
51.3381 5.6285
51.3877 5.64851
51.4371 5.63131
51.4867 5.59258
51.5362 5.60463
51.5858 5.57832
51.6353 5.51511
51.6849 5.51625
51.7344 5.51412
51.7841 5.49062
51.8336 5.47733
51.8833 5.42214
51.9328 5.40871
51.9826 5.37966
52.0323 5.36915
52.0818 5.32294
52.1316 5.30835
52.1812 5.30513
52.231 5.31836
52.2806 5.25972
52.3304 5.25154
52.38 5.23558
52.4298 5.17567
52.4794 5.17077
52.5293 5.13758
52.5789 5.13108
52.6288 5.08403
52.6785 5.07602
52.7284 5.05676
52.7781 5.10373
52.828 5.06891
52.8777 5.00262
52.9276 4.99264
52.9774 5.011
53.0273 4.96518
53.0771 4.91776
53.1271 4.9227
53.1769 4.90291
53.2269 4.85529
53.2767 4.86309
53.3267 4.84731
53.3765 4.79293
53.4266 4.77482
53.4766 4.78879
53.5265 4.72952
53.5765 4.72686
53.6264 4.70604
53.6765 4.70308
53.7264 4.65884
53.7765 4.64318
53.8265 4.63043
53.8766 4.60275
53.9266 4.58294
53.9767 4.55718
54.0267 4.5675
54.0769 4.49397
54.1269 4.48956
54.1771 4.47487
54.2271 4.4802
54.2773 4.41946
54.3274 4.41098
54.3776 4.38561
54.4277 4.33596
54.478 4.29679
54.528 4.25173
54.5783 4.22908
54.6285 4.21513
54.6788 4.13788
54.7289 4.14285
54.7792 4.15123
54.8296 4.05043
54.8798 4.0292
54.9301 4.05249
54.9803 3.98509
55.0307 4.00924
55.0809 3.89964
55.1314 3.95265
55.1816 3.89151
55.232 3.82523
55.2823 3.79693
55.3328 3.71402
55.383 3.71742
55.4335 3.68024
55.4838 3.65224
55.5344 3.59553
55.5847 3.52945
55.6352 3.58268
55.6856 3.59147
55.7361 3.54759