File: XRD/Ni3Fe_FD0721.xy
TT I
1.27165 7.3852
1.31627 6.64029
1.36089 7.02616
1.40551 5.76175
1.45013 6.70958
1.49476 5.99138
1.53938 5.73545
1.584 5.17874
1.62863 4.9854
1.67325 5.28192
1.71787 4.98677
1.7625 5.15665
1.80712 4.97204
1.85174 4.85226
1.89636 4.67606
1.94099 5.60358
1.98562 4.61878
2.03025 4.64836
2.07487 4.69031
2.11949 4.68578
2.16411 4.85724
2.20874 11.8057
2.25338 16.8425
2.298 5.81293
2.34263 5.39766
2.38725 5.6414
2.43188 6.247
2.4765 6.89032
2.52115 6.56626
2.56577 8.31936
2.6104 8.35524
2.65503 7.88563
2.69965 8.13429
2.7443 8.72254
2.78893 7.87603
2.83356 8.00725
2.87818 8.75361
2.92281 9.18478
2.96744 9.61222
3.01209 10.8
3.05672 11.2496
3.10135 12.2312
3.14599 13.0781
3.19062 14.5695
3.23527 15.1549
3.2799 16.0502
3.32454 16.7444
3.36917 17.2678
3.4138 18.8322
3.45844 19.6424
3.50309 20.6405
3.54773 21.4593
3.59237 23.4161
3.637 72.5448
3.68164 47.3513
3.7263 25.6184
3.77094 26.1079
3.81558 26.7433
3.86022 27.48
3.90486 28.9123
3.9495 29.644
3.99416 30.9779
4.0388 31.8723
4.08344 33.5953
4.12809 34.5033
4.17273 36.4642
4.21738 41.494
4.26204 187.156
4.30669 159.009
4.35133 46.3096
4.39598 44.0811
4.44063 51.8151
4.4853 59.2258
4.52995 51.6825
4.5746 52.3397
4.61925 53.4312
4.6639 55.4391
4.70855 58.4188
4.75322 61.2063
4.79788 64.7336
4.84253 67.2454
4.88719 72.5661
4.93184 75.8049
4.97652 81.1881
5.02118 86.8451
5.06583 94.8631
5.11049 105.813
5.15515 160.49
5.19981 355.378
5.24449 2944.33
5.28916 12583.9
5.33382 2833.5
5.37848 190.038
5.42315 128.965
5.46783 114.931
5.5125 107.458
5.55716 102.423
5.60183 98.6234
5.6465 96.4129
5.69117 94.5255
5.73586 92.406
5.78053 93.2557
5.8252 92.6694
5.86988 93.3619
5.91455 94.3676
5.95924 101.935
6.00392 214.109
6.0486 981.028
6.09328 4434.59
6.13795 3198.52
6.18263 234.347
6.22733 92.0953
6.27201 82.3596
6.3167 93.4247
6.36138 77.3559
6.40606 69.1701
6.45075 67.9157
6.49545 65.1136
6.54014 64.0336
6.58483 62.504
6.62952 62.7416
6.67421 84.0518
6.71892 115.281
6.76361 65.1998
6.8083 58.6996
6.853 57.8232
6.89769 56.8788
6.94239 56.3246
6.98711 55.7423
7.03181 55.3805
7.07651 54.942
7.12121 55.2656
7.16591 55.6969
7.21063 55.3132
7.25533 66.1012
7.30004 137.949
7.34475 78.7933
7.38945 55.7638
7.43416 54.1509
7.47889 54.2868
7.5236 54.2861
7.56831 55.4455
7.61303 56.3173
7.65774 56.2744
7.70247 56.209
7.74719 55.8889
7.79191 56.3613
7.83663 56.7915
7.88135 57.7009
7.92607 58.9466
7.97081 59.8741
8.01553 60.9432
8.06026 62.2627
8.10498 64.0665
8.14971 71.4579
8.19446 71.0378
8.23919 69.3327
8.28392 71.6495
8.32865 73.9895
8.37339 78.3323
8.41812 84.8439
8.46288 107.116
8.50761 166.01
8.55235 393.777
8.59709 1224.27
8.64183 2129.86
8.68658 942.178
8.73134 168.492
8.77609 98.7547
8.82083 92.6224
8.86558 90.0558
8.91033 90.3261
8.9551 90.3716
8.99985 84.8219
9.04461 83.4984
9.08936 82.9864
9.13412 82.174
9.17888 82.01
9.22365 82.6232
9.26841 81.7755
9.31318 82.6071
9.35794 83.5435
9.4027 83.4801
9.44749 84.3357
9.49226 84.9716
9.53703 85.4596
9.5818 88.0651
9.62657 92.1482
9.67134 96.4496
9.71614 93.2002
9.76091 93.7034
9.80569 97.2508
9.85047 100.096
9.89525 117.954
9.94005 128.682
9.98484 179.508
10.0296 349.159
10.0744 836.367
10.1192 1732.68
10.164 1591.24
10.2088 408.311
10.2536 126.458
10.2984 111.601
10.3432 111.029
10.388 104.08
10.4328 119.338
10.4776 161.291
10.5224 290.082
10.5672 500.384
10.612 494.331
10.6568 204.418
10.7017 96.5557
10.7465 86.3571
10.7913 82.9118
10.8361 80.9588
10.8809 79.1182
10.9257 77.8744
10.9706 77.9033
11.0154 74.6171
11.0602 72.7953
11.105 71.5825
11.1499 74.5724
11.1947 78.7127
11.2395 71.9692
11.2844 69.3241
11.3292 66.7242
11.374 66.2087
11.4189 65.6222
11.4637 64.6284
11.5086 64.9404
11.5534 66.7053
11.5983 64.618
11.6431 63.3877
11.688 62.6715
11.7328 62.7515
11.7777 62.6999
11.8225 62.1983
11.8674 62.1036
11.9122 62.6823
11.9571 63.0237
12.002 63.3674
12.0468 67.7808
12.0917 79.0452
12.1366 104.406
12.1814 153.88
12.2263 197.565
12.2712 160.844
12.3161 94.3737
12.3609 68.8745
12.4058 64.3242
12.4507 64.156
12.4956 64.3247
12.5405 64.3626
12.5853 65.4498
12.6302 70.6354
12.6751 74.4989
12.72 68.9777
12.7649 67.7102
12.8098 68.1097
12.8547 69.5845
12.8996 70.9782
12.9445 72.3749
12.9894 74.1616
13.0343 76.0046
13.0792 78.9923
13.1242 88.9219
13.1691 111.36
13.214 150.359
13.2589 245.501
13.3038 369.015
13.3487 409.825
13.3937 262.711
13.4386 126.196
13.4835 106.076
13.5285 120.806
13.5734 161.826
13.6183 254.897
13.6633 344.733
13.7082 326.95
13.7531 184.47
13.7981 97.5321
13.843 81.6879
13.888 79.5452
13.9329 77.1487
13.9779 75.4762
14.0228 74.3439
14.0678 73.1457
14.1127 72.3876
14.1577 72.1935
14.2027 71.2302
14.2476 70.2117
14.2926 70.1183
14.3376 70.9441
14.3825 69.8873
14.4275 68.927
14.4725 68.6153
14.5175 68.4944
14.5624 68.9074
14.6074 70.5121
14.6524 70.8843
14.6974 70.4115
14.7424 72.2266
14.7874 78.8417
14.8324 89.5186
14.8774 112.848
14.9224 157.343
14.9674 207.342
15.0124 213.64
15.0574 147.228
15.1024 90.5247
15.1474 72.3957
15.1924 70.203
15.2374 70.3348
15.2824 69.3052
15.3274 67.5377
15.3725 66.6381
15.4175 66.0995
15.4625 66.1266
15.5076 66.0005
15.5526 65.9505
15.5976 65.7163
15.6426 66.7624
15.6877 72.4281
15.7327 80.0503
15.7778 96.0975
15.8228 129.04
15.8679 170.764
15.9129 188.248
15.958 154.152
16.003 96.8421
16.0481 68.2982
16.0931 63.6939
16.1382 61.9141
16.1833 60.4368
16.2283 58.7847
16.2734 58.3159
16.3185 58.2714
16.3636 58.5957
16.4086 57.1842
16.4537 56.0325
16.4988 55.4529
16.5439 55.3448
16.589 55.1273
16.6341 54.8079
16.6792 54.4113
16.7243 54.7873
16.7694 54.6495
16.8145 54.4554
16.8596 55.0247
16.9047 56.1872
16.9498 56.2558
16.9949 55.5252
17.04 55.8023
17.0851 56.98
17.1302 58.6445
17.1754 61.7381
17.2205 67.1796
17.2656 74.4054
17.3108 82.1927
17.3559 81.2937
17.401 70.6832
17.4462 62.063
17.4913 59.0884
17.5365 59.0525
17.5815 58.989
17.6268 59.6707
17.6718 59.9851
17.7171 60.5979
17.7622 61.1743
17.8074 61.8263
17.8525 64.4271
17.8977 68.3499
17.9428 73.8433
17.9881 83.3238
18.0331 101.8
18.0784 122.741
18.1237 138.297
18.1688 130.532
18.214 103.936
18.2591 87.3465
18.3044 91.0791
18.3495 99.5903
18.3948 104.482
18.4399 95.6229
18.4852 77.2842
18.5303 66.009
18.5756 62.1131
18.6207 61.1639
18.666 60.0941
18.7112 59.4125
18.7565 58.8462
18.8016 58.45
18.8469 58.0394
18.892 57.4481
18.9374 57.1799
18.9825 56.7173
19.0278 56.7041
19.073 56.7893
19.1183 57.4008
19.1635 58.1463
19.2088 59.2377
19.254 62.3772
19.2993 66.7531
19.3447 72.7686
19.3898 75.236
19.4352 71.1886
19.4804 62.9629
19.5257 56.578
19.5709 54.1164
19.6163 53.8006
19.6615 53.6049
19.7068 53.3222
19.752 53.25
19.7974 53.748
19.8426 54.2359
19.888 54.8206
19.9332 56.2151
19.9786 58.9226
20.0238 62.6351
20.0692 67.0359
20.1144 69.0889
20.1598 67.7963
20.205 63.6657
20.2504 62.381
20.2957 63.8228
20.3411 64.9892
20.3863 63.2658
20.4318 58.0459
20.477 53.5233
20.5224 51.5594
20.5677 50.6542
20.6131 50.2292
20.6586 49.6183
20.7038 49.443
20.7493 49.0567
20.7945 48.8303
20.84 48.6394
20.8853 48.6503
20.9307 48.3457
20.976 48.6542
21.0215 48.4437
21.0668 48.9085
21.1122 49.2857
21.1575 50.2086
21.203 50.6305
21.2483 51.2269
21.2938 51.4335
21.3391 49.8105
21.3846 48.944
21.4299 48.5538
21.4754 48.3203
21.5207 48.4431
21.5662 48.8377
21.6116 49.2592
21.6571 49.9442
21.7024 50.7516
21.7479 52.682
21.7933 55.5794
21.8388 59.1748
21.8843 62.6257
21.9297 64.4129
21.9752 62.9896
22.0206 59.625
22.0661 56.7344
22.1115 55.9345
22.157 55.637
22.2024 54.1515
22.248 51.4228
22.2933 49.8078
22.3389 49.0285
22.3843 48.8723
22.4299 48.6833
22.4753 48.7282
22.5208 48.3901
22.5662 48.4536
22.6118 48.6461
22.6572 48.6715
22.7028 49.1665
22.7483 49.7119
22.7939 50.3141
22.8393 52.0187
22.8849 54.3423
22.9303 56.175
22.9759 57.4133
23.0214 57.1769
23.067 54.4648
23.1126 51.0332
23.1581 49.0107
23.2037 48.7511
23.2492 48.7452
23.2948 48.5813
23.3403 49.0621
23.3859 49.7159
23.4314 50.9275
23.477 52.8039
23.5225 54.9729
23.5682 56.8189
23.6137 57.414
23.6593 55.1715
23.7048 51.5842
23.7505 48.0791
23.796 46.5611
23.8417 46.0602
23.8872 45.5433
23.9329 45.1171
23.9784 44.8654
24.0241 44.555
24.0697 44.3309
24.1154 44.1482
24.1609 43.9307
24.2066 43.5762
24.2522 43.6781
24.2979 43.4057
24.3434 43.2194
24.3892 43.1076
24.4349 43.0421
24.4805 42.8561
24.5262 43.0432
24.5718 42.7873
24.6175 42.7811
24.6631 42.7967
24.7089 42.4133
24.7545 42.3435
24.8002 42.2824
24.8458 42.2016
24.8916 41.9473
24.9372 42.1386
24.983 42.352
25.0286 42.9079
25.0744 43.2788
25.12 43.6698
25.1658 44.1615
25.2114 44.5722
25.2572 44.7149
25.3029 44.8819
25.3487 44.7256
25.3943 44.3299
25.4402 43.4015
25.4858 42.2965
25.5316 41.4005
25.5773 40.8677
25.6231 40.8025
25.669 40.5334
25.7147 40.5213
25.7605 40.3137
25.8062 40.4207
25.8521 40.6444
25.8977 40.4815
25.9436 40.8213
25.9893 40.9444
26.0352 41.5042
26.0809 41.474
26.1268 41.4909
26.1725 41.2351
26.2184 40.8301
26.2641 40.2567
26.31 39.9361
26.3557 40.0905
26.4017 40.0452
26.4474 40.3572
26.4933 40.6476
26.5391 41.1808
26.585 41.6383
26.6308 42.089
26.6767 42.0256
26.7225 41.7727
26.7684 41.4575
26.8142 40.8977
26.8601 40.3731
26.9059 39.8413
26.9519 39.4915
26.9979 39.1157
27.0437 38.781
27.0896 38.7282
27.1354 38.7111
27.1814 38.484
27.2272 38.486
27.2732 38.4799
27.3191 38.1857
27.3651 38.4464
27.4109 38.2705
27.4569 38.491
27.5027 38.329
27.5488 38.4595
27.5946 38.3403
27.6407 38.0688
27.6865 38.0794
27.7326 37.7795
27.7784 37.76
27.8245 37.7478
27.8703 37.9648
27.9164 38.1858
27.9623 38.3473
28.0084 38.7521
28.0543 38.9869
28.1003 39.0088
28.1462 38.7218
28.1923 38.3262
28.2384 37.9256
28.2843 37.6037
28.3304 37.0081
28.3764 36.7596
28.4225 36.2917
28.4684 36.2262
28.5145 36.0321
28.5605 35.8208
28.6066 35.5532
28.6526 35.6159
28.6987 35.5138
28.7447 35.4096
28.7908 35.3418
28.8368 35.3895
28.8829 35.4343
28.9289 35.4399
28.9751 35.0194
29.0211 34.8528
29.0673 34.6531
29.1133 34.5942
29.1595 34.3595
29.2055 34.2836
29.2517 34.3335
29.2977 34.3307
29.3439 34.2625
29.3899 34.1045
29.4361 33.9408
29.4824 33.7968
29.5284 33.6375
29.5746 33.4163
29.6207 33.086
29.6669 33.0388
29.713 32.9434
29.7593 32.7422
29.8053 32.822
29.8516 32.7812
29.8977 32.7817
29.9439 32.5814
29.99 32.5783
30.0363 32.3674
30.0824 32.5185
30.1287 32.38
30.1748 32.4312
30.2211 32.3875
30.2673 32.1696
30.3136 32.3614
30.3597 32.2387
30.406 32.1913
30.4522 32.077
30.4985 31.9967
30.5447 32.0505
30.591 32.1472
30.6372 32.2279
30.6835 32.1121
30.7297 32.1457
30.7761 32.0701
30.8224 31.9388
30.8686 31.7416
30.915 31.5464
30.9612 31.479
31.0076 31.3301
31.0538 31.1951
31.1002 30.9488
31.1464 30.8715
31.1928 30.8205
31.2391 30.9648
31.2855 30.8893
31.3317 30.7614
31.3781 30.8954
31.4244 30.8375
31.4708 30.8589
31.5171 30.6868
31.5636 30.6562
31.6098 30.4102
31.6563 30.3323
31.7026 30.2266
31.7491 30.1271
31.7953 30.201
31.8418 30.126
31.8881 30.2014
31.9346 30.0356
31.9809 30.014
32.0275 29.8312
32.074 29.7682
32.1203 29.558
32.1668 29.5165
32.2132 29.2822
32.2597 29.301
32.306 29.1601
32.3526 29.0107
32.399 28.8864
32.4455 28.7313
32.4919 28.6399
32.5385 28.6263
32.5848 28.3793
32.6314 28.3972
32.6778 28.3909
32.7244 28.2
32.7708 28.0738
32.8174 28.1479
32.8638 28.0257
32.9104 28.0614
32.9569 27.932
33.0035 27.804
33.0499 27.8783
33.0966 27.7454
33.143 27.7211
33.1897 27.6534
33.2361 27.515
33.2828 27.5103
33.3293 27.2997
33.3759 27.4272
33.4226 27.1134
33.4691 27.0125
33.5158 27.0112
33.5623 26.887
33.609 26.6794
33.6555 26.67
33.7022 26.5827
33.7487 26.4839
33.7954 26.3868
33.842 26.2962
33.8887 26.2911
33.9353 26.1539
33.982 26.1324
34.0286 26.0588
34.0753 25.8765
34.1219 25.8899
34.1687 25.7915
34.2152 25.7863
34.262 25.631
34.3086 25.5163
34.3554 25.5351
34.402 25.2789
34.4488 25.2698
34.4954 25.2467
34.5422 25.0919
34.5889 24.9744
34.6357 24.8706
34.6825 24.8797
34.7292 24.8316
34.776 24.6939
34.8227 24.6618
34.8695 24.6126
34.9162 24.5109
34.9631 24.4531
35.0098 24.4436
35.0566 24.3384
35.1033 24.2071
35.1502 24.3011
35.1969 24.2035
35.2438 24.1167
35.2906 24.0622
35.3375 24.0942
35.3842 23.943
35.4311 23.9693
35.4779 23.8754
35.5248 23.8254
35.5716 23.6634
35.6185 23.5756
35.6653 23.6178
35.7123 23.4886
35.759 23.3862
35.806 23.2863
35.8528 23.1641
35.8998 23.1315
35.9468 23.1752
35.9936 23.0669
36.0406 23.0144
36.0874 22.9306
36.1345 22.7882
36.1813 22.8138
36.2283 22.6546
36.2752 22.582
36.3222 22.6193
36.3691 22.5831
36.4161 22.3911
36.463 22.3574
36.5101 22.3581
36.557 22.2941
36.6041 22.1357
36.651 22.1554
36.6981 22.1009
36.745 22.0275
36.7921 21.8995
36.839 21.7949
36.8861 21.7658
36.9331 21.7233
36.9802 21.6256
37.0272 21.6014
37.0743 21.5236
37.1213 21.4691
37.1684 21.3602
37.2154 21.3049
37.2626 21.3179
37.3098 21.1658
37.3568 21.1541
37.404 21.0938
37.451 20.94
37.4982 20.8883
37.5452 20.7595
37.5924 20.7927
37.6395 20.7744
37.6867 20.6939
37.7337 20.5492
37.781 20.4898
37.8281 20.4181
37.8753 20.3627
37.9224 20.2875
37.9697 20.2958
38.0168 20.145
38.064 20.1042
38.1111 20.012
38.1584 19.9169
38.2056 19.916
38.2529 19.8689
38.3 19.8307
38.3473 19.7962
38.3945 19.6207
38.4418 19.6344
38.489 19.5516
38.5363 19.4749
38.5837 19.4339
38.6309 19.3703
38.6782 19.3548
38.7254 19.2298
38.7728 19.2153
38.82 19.063
38.8674 19.095
38.9146 19.0288
38.9621 18.9521
39.0093 18.8591
39.0567 18.8348
39.104 18.6956
39.1514 18.6457
39.1987 18.641
39.2461 18.606
39.2934 18.5198
39.3409 18.3782
39.3882 18.3925
39.4356 18.3186
39.483 18.2602
39.5304 18.2379
39.5778 18.2701
39.6253 18.1212
39.6726 18.0453
39.7201 17.989
39.7675 17.9915
39.815 17.9121
39.8624 17.8433
39.9099 17.8426
39.9575 17.7384
40.0049 17.6853
40.0525 17.5727
40.0999 17.5542
40.1474 17.474
40.1949 17.4634
40.2425 17.3383
40.2899 17.3189
40.3375 17.2858
40.385 17.1533
40.4326 17.1612
40.48 17.0786
40.5277 17.0232
40.5752 17.0088
40.6228 16.8995
40.6703 16.8632
40.718 16.8634
40.7655 16.8115
40.8132 16.7249
40.8607 16.7404
40.9084 16.6093
40.9559 16.5487
41.0036 16.5194
41.0512 16.4448
41.0989 16.4415
41.1465 16.3901
41.1942 16.2881
41.242 16.1735
41.2896 16.2034
41.3373 16.0936
41.3849 16.0866
41.4327 16.0664
41.4803 15.9825
41.5281 15.9561
41.5758 15.8405
41.6236 15.8409
41.6712 15.7394
41.7191 15.6841
41.7667 15.6865
41.8146 15.6151
41.8622 15.593
41.9101 15.4676
41.9578 15.394
42.0057 15.3744
42.0534 15.337
42.1013 15.3178
42.149 15.2457
42.1969 15.2027
42.2446 15.1572
42.2925 15.0773
42.3403 15.005
42.3882 14.9913
42.436 14.9379
42.4839 14.886
42.5319 14.8651
42.5797 14.7902
42.6277 14.7228
42.6755 14.686
42.7235 14.654
42.7713 14.5579
42.8193 14.5365
42.8671 14.5092
42.9152 14.4542
42.963 14.333
43.0111 14.3158
43.0589 14.3028
43.107 14.2267
43.1549 14.2116
43.2029 14.154
43.2508 14.0772
43.2989 14.0288
43.3468 13.9524
43.3949 13.9633
43.4429 13.9424
43.491 13.834
43.5389 13.7935
43.5871 13.7955
43.635 13.7338
43.6832 13.6823
43.7312 13.6412
43.7793 13.5585
43.8273 13.5317
43.8755 13.4524
43.9237 13.4111
43.9717 13.3861
44.0199 13.3284
44.068 13.2962
44.1162 13.286
44.1642 13.2087
44.2125 13.1625
44.2606 13.0743
44.3088 13.0635
44.3569 13.0077
44.4052 12.9814
44.4533 12.8747
44.5016 12.8554
44.5497 12.8631
44.598 12.8199
44.6461 12.767
44.6945 12.7271
44.7426 12.6836
44.791 12.5873
44.8391 12.5968
44.8875 12.5534
44.9357 12.4825
44.984 12.4644
45.0322 12.3837
45.0806 12.3894
45.1288 12.3142
45.1773 12.2342
45.2257 12.263
45.2739 12.2033
45.3224 12.153
45.3706 12.1132
45.4191 12.014
45.4673 12.0268
45.5158 11.9341
45.5641 11.9001
45.6126 11.9005
45.6609 11.8601
45.7094 11.7812
45.7577 11.7255
45.8063 11.6476
45.8546 11.6832
45.9031 11.6208
45.9515 11.5944
46.0001 11.5735
46.0484 11.4954
46.097 11.5019
46.1454 11.4198
46.194 11.358
46.2424 11.346
46.291 11.3259
46.3395 11.28
46.3881 11.2222
46.4365 11.1692
46.4852 11.154
46.5337 11.061
46.5823 11.0854
46.631 10.9667
46.6795 11.0009
46.7282 10.9473
46.7767 10.8707
46.8254 10.8613
46.8739 10.8277
46.9226 10.746
46.9712 10.7201
47.0199 10.7088
47.0685 10.6837
47.1173 10.6385
47.1658 10.5693
47.2146 10.5562
47.2632 10.4723
47.312 10.4432
47.3606 10.4125
47.4095 10.373
47.4581 10.3572
47.5069 10.2908
47.5556 10.2788
47.6044 10.196
47.6531 10.1676
47.702 10.1327
47.7507 10.0855
47.7996 10.0466
47.8483 10.0196
47.8972 9.99916
47.9461 9.94522
47.9948 9.90272
48.0438 9.90433
48.0925 9.83312
48.1415 9.82547
48.1902 9.79225
48.2392 9.76766
48.288 9.72626
48.337 9.67056
48.3858 9.64652
48.4348 9.62022
48.4837 9.59189
48.5327 9.5493
48.5815 9.48533
48.6306 9.50841
48.6795 9.4558
48.7285 9.37038
48.7774 9.3817
48.8265 9.34976
48.8754 9.28831
48.9245 9.27076
48.9734 9.20432
49.0226 9.22875
49.0715 9.15923
49.1206 9.09919
49.1696 9.10237
49.2188 9.04982
49.2679 9.02484
49.3169 8.96567
49.3661 8.93376
49.4151 8.93487
49.4643 8.89265
49.5134 8.85078
49.5626 8.83437
49.6117 8.81092
49.6609 8.79918
49.71 8.69495
49.7592 8.71996
49.8083 8.62078
49.8576 8.60791
49.9067 8.54155
49.956 8.55026
50.0052 8.49176
50.0545 8.49586
50.1036 8.44988
50.153 8.40379
50.2022 8.41183
50.2515 8.35143
50.3007 8.30787
50.3501 8.30245
50.3993 8.26702
50.4487 8.2206
50.498 8.1758
50.5474 8.16159
50.5966 8.14202
50.6461 8.09962
50.6955 8.10499
50.7448 8.10305
50.7943 8.01959
50.8436 7.94655
50.8931 7.92553
50.9424 7.95142
50.9919 7.86495
51.0413 7.86226
51.0908 7.81811
51.1402 7.78843
51.1897 7.75918
51.2391 7.76245
51.2887 7.70127
51.3381 7.64224
51.3877 7.64855
51.4371 7.59797
51.4867 7.57594
51.5362 7.53507
51.5858 7.49613
51.6353 7.4478
51.6849 7.40086
51.7344 7.39529
51.7841 7.37114
51.8336 7.33128
51.8833 7.32039
51.9328 7.27089
51.9826 7.27567
52.0323 7.23289
52.0818 7.20238
52.1316 7.13089
52.1812 7.17936
52.231 7.10405
52.2806 7.09198
52.3304 7.08011
52.38 7.00648
52.4298 6.96399
52.4794 6.98683
52.5293 6.9505
52.5789 6.89223
52.6288 6.87389
52.6785 6.81639
52.7284 6.83007
52.7781 6.80045
52.828 6.74369
52.8777 6.72625
52.9276 6.73226
52.9774 6.69838
53.0273 6.64088
53.0771 6.65102
53.1271 6.60102
53.1769 6.58136
53.2269 6.55941
53.2767 6.50245
53.3267 6.52977
53.3765 6.46345
53.4266 6.42274
53.4766 6.41451
53.5265 6.39695
53.5765 6.3835
53.6264 6.32779
53.6765 6.27885
53.7264 6.2459
53.7765 6.29106
53.8265 6.2394
53.8766 6.16901
53.9266 6.12983
53.9767 6.12423
54.0267 6.13128
54.0769 6.0753
54.1269 6.05217
54.1771 6.0214
54.2271 6.0053
54.2773 5.94288
54.3274 5.95865
54.3776 5.89943
54.4277 5.84407
54.478 5.82506
54.528 5.84333
54.5783 5.78217
54.6285 5.70677
54.6788 5.65864
54.7289 5.64765
54.7792 5.55549
54.8296 5.49042
54.8798 5.45764
54.9301 5.48549
54.9803 5.45629
55.0307 5.44165
55.0809 5.36024
55.1314 5.38852
55.1816 5.3065
55.232 5.25296
55.2823 5.21508
55.3328 5.15312
55.383 5.1266
55.4335 5.11849
55.4838 5.02779
55.5344 4.98172
55.5847 4.93072
55.6352 4.90334
55.6856 4.88452
55.7361 4.86708