File: XRD/Ni3Fe_FD0120.xy
TT I
1.27165 7.70955
1.31627 7.28696
1.36089 6.7253
1.40551 6.63994
1.45013 6.4164
1.49476 6.61564
1.53938 6.25335
1.584 6.11704
1.62863 5.68848
1.67325 6.16819
1.71787 5.70274
1.7625 5.50165
1.80712 5.17579
1.85174 5.03491
1.89636 4.8274
1.94099 5.58966
1.98562 5.14364
2.03025 4.81596
2.07487 4.83817
2.11949 5.028
2.16411 4.84304
2.20874 4.2837
2.25338 5.26265
2.298 5.04793
2.34263 4.37306
2.38725 3.9037
2.43188 3.75252
2.4765 4.51873
2.52115 4.53142
2.56577 4.7177
2.6104 4.8162
2.65503 4.95486
2.69965 5.33261
2.7443 5.94261
2.78893 6.36102
2.83356 7.29055
2.87818 7.48939
2.92281 8.13719
2.96744 9.54125
3.01209 9.79056
3.05672 11.224
3.10135 12.5231
3.14599 13.2228
3.19062 14.4534
3.23527 14.7445
3.2799 16.2536
3.32454 16.6023
3.36917 17.3331
3.4138 18.5234
3.45844 19.1008
3.50309 20.2274
3.54773 20.5751
3.59237 21.3817
3.637 22.2187
3.68164 23.2548
3.7263 23.9427
3.77094 24.5633
3.81558 25.5473
3.86022 26.4035
3.90486 27.4587
3.9495 28.3023
3.99416 29.2444
4.0388 30.1726
4.08344 31.0098
4.12809 32.6141
4.17273 33.5948
4.21738 35.1167
4.26204 35.7861
4.30669 37.3543
4.35133 39.1428
4.39598 40.4538
4.44063 42.5459
4.4853 44.482
4.52995 46.7408
4.5746 48.8527
4.61925 50.84
4.6639 53.3167
4.70855 56.0182
4.75322 59.1722
4.79788 62.0448
4.84253 65.3365
4.88719 70.0963
4.93184 75.5167
4.97652 82.5845
5.02118 90.7294
5.06583 102.191
5.11049 119.601
5.15515 160.062
5.19981 595.137
5.24449 3777.59
5.28916 7571.61
5.33382 6788.17
5.37848 539.946
5.42315 172.437
5.46783 130.699
5.5125 115.763
5.55716 108.281
5.60183 102.209
5.6465 99.312
5.69117 97.8269
5.73586 95.8388
5.78053 95.7902
5.8252 96.3012
5.86988 99.4171
5.91455 106.835
5.95924 128.198
6.00392 305.363
6.0486 1406.98
6.09328 2475.28
6.13795 3858.99
6.18263 766.449
6.22733 130.203
6.27201 91.32
6.3167 79.1332
6.36138 72.8072
6.40606 68.2762
6.45075 66.2191
6.49545 63.5879
6.54014 62.0243
6.58483 60.6793
6.62952 59.212
6.67421 58.0519
6.71892 56.9456
6.76361 56.2747
6.8083 54.7521
6.853 54.3382
6.89769 54.1757
6.94239 53.5482
6.98711 52.9802
7.03181 52.4334
7.07651 52.403
7.12121 52.0034
7.16591 51.7023
7.21063 51.3608
7.25533 51.3852
7.30004 51.5817
7.34475 51.5388
7.38945 51.6635
7.43416 51.3058
7.47889 51.7615
7.5236 56.1254
7.56831 67.3056
7.61303 55.845
7.65774 53.2704
7.70247 53.4653
7.74719 53.6121
7.79191 54.1534
7.83663 54.5684
7.88135 55.5869
7.92607 56.2629
7.97081 57.7476
8.01553 58.4401
8.06026 59.9112
8.10498 61.2503
8.14971 63.0194
8.19446 64.763
8.23919 67.1869
8.28392 70.0704
8.32865 72.8311
8.37339 77.541
8.41812 83.3508
8.46288 95.7264
8.50761 177.917
8.55235 618.691
8.59709 827.824
8.64183 1351.8
8.68658 1724.4
8.73134 466.985
8.77609 120.948
8.82083 97.8642
8.86558 91.2236
8.91033 87.2487
8.9551 84.4593
8.99985 83.5899
9.04461 82.4969
9.08936 81.5749
9.13412 80.7229
9.17888 80.6861
9.22365 88.1236
9.26841 103.342
9.31318 89.1052
9.35794 81.6996
9.4027 81.3878
9.44749 82.0867
9.49226 82.82
9.53703 83.386
9.5818 85.1401
9.62657 86.0985
9.67134 87.7234
9.71614 89.9904
9.76091 92.118
9.80569 94.9113
9.85047 97.7475
9.89525 103.218
9.94005 113.997
9.98484 189.946
10.0296 563.556
10.0744 706.324
10.1192 918.18
10.164 1570.33
10.2088 1070.58
10.2536 237.207
10.2984 118.195
10.3432 107.834
10.388 104.164
10.4328 121.716
10.4776 219.944
10.5224 253.603
10.5672 299.521
10.612 462.761
10.6568 396.575
10.7017 143.58
10.7465 91.7808
10.7913 83.4308
10.8361 79.9531
10.8809 77.2753
10.9257 75.1479
10.9706 73.6451
11.0154 71.9219
11.0602 70.6583
11.105 69.6071
11.1499 68.0911
11.1947 66.9588
11.2395 65.9959
11.2844 65.5738
11.3292 64.7925
11.374 63.9412
11.4189 63.509
11.4637 62.7739
11.5086 62.0958
11.5534 61.4068
11.5983 61.2711
11.6431 61.617
11.688 60.897
11.7328 60.8332
11.7777 60.4716
11.8225 60.3738
11.8674 60.7231
11.9122 62.1884
11.9571 66.5919
12.002 66.3649
12.0468 67.6521
12.0917 91.3
12.1366 106.973
12.1814 110.991
12.2263 139.392
12.2712 186.581
12.3161 146.616
12.3609 76.6924
12.4058 63.6325
12.4507 62.589
12.4956 62.4386
12.5405 62.2625
12.5853 62.8805
12.6302 63.1164
12.6751 63.7025
12.72 64.4242
12.7649 65.3653
12.8098 66.2918
12.8547 67.3145
12.8996 69.2603
12.9445 70.3951
12.9894 72.3689
13.0343 74.2517
13.0792 78.4948
13.1242 86.2257
13.1691 134.155
13.214 188.775
13.2589 195.229
13.3038 224.815
13.3487 325.788
13.3937 384.612
13.4386 226.802
13.4835 122.897
13.5285 156.825
13.5734 181.97
13.6183 181.062
13.6633 217.309
13.7082 310.932
13.7531 314.356
13.7981 165.744
13.843 89.1286
13.888 79.9892
13.9329 76.913
13.9779 75.367
14.0228 73.7682
14.0678 71.9169
14.1127 72.1424
14.1577 74.8058
14.2027 73.0875
14.2476 70.0305
14.2926 68.6678
14.3376 68.3635
14.3825 67.7431
14.4275 67.4008
14.4725 67.4006
14.5175 67.5098
14.5624 67.5099
14.6074 67.9863
14.6524 68.3351
14.6974 69.1502
14.7424 70.7208
14.7874 80.3167
14.8324 107.989
14.8774 120.005
14.9224 120.707
14.9674 136.953
15.0124 179.747
15.0574 205.393
15.1024 147.6
15.1474 84.2148
15.1924 70.9651
15.2374 68.434
15.2824 67.0875
15.3274 66.3483
15.3725 65.8429
15.4175 65.646
15.4625 64.8505
15.5076 64.6545
15.5526 64.6577
15.5976 64.8088
15.6426 65.8038
15.6877 73.2912
15.7327 95.8103
15.7778 107.265
15.8228 106.446
15.8679 116.069
15.9129 143.877
15.958 182.413
16.003 158.556
16.0481 92.97
16.0931 66.6388
16.1382 61.441
16.1833 59.7637
16.2283 58.3508
16.2734 57.4671
16.3185 56.895
16.3636 56.0043
16.4086 55.2772
16.4537 54.9351
16.4988 54.4504
16.5439 54.3836
16.589 54.0096
16.6341 53.8045
16.6792 53.3265
16.7243 53.857
16.7694 53.6801
16.8145 53.4099
16.8596 53.6319
16.9047 53.9935
16.9498 54.4286
16.9949 54.4398
17.04 54.7964
17.0851 56.1682
17.1302 60.8248
17.1754 63.7735
17.2205 64.1351
17.2656 65.116
17.3108 69.6343
17.3559 76.8918
17.401 81.0113
17.4462 72.0228
17.4913 61.4072
17.5365 58.7007
17.5815 58.3645
17.6268 58.8276
17.6718 59.2685
17.7171 59.4255
17.7622 60.5077
17.8074 61.6725
17.8525 63.2395
17.8977 71.5147
17.9428 83.905
17.9881 87.8696
18.0331 87.7206
18.0784 92.9712
18.1237 108.092
18.1688 135.817
18.214 144.48
18.2591 114.313
18.3044 87.2356
18.3495 83.6401
18.3948 91.4066
18.4399 101.136
18.4852 96.8291
18.5303 77.9167
18.5756 64.9541
18.6207 61.7836
18.666 60.3365
18.7112 59.3412
18.7565 58.479
18.8016 58.2547
18.8469 57.6509
18.892 57.3572
18.9374 56.8503
18.9825 56.4406
19.0278 55.9872
19.073 56.1204
19.1183 56.7639
19.1635 59.2835
19.2088 61.573
19.254 61.4418
19.2993 61.7839
19.3447 63.3262
19.3898 67.0229
19.4352 71.9992
19.4804 72.3825
19.5257 64.3078
19.5709 56.2503
19.6163 53.8308
19.6615 53.3659
19.7068 52.8622
19.752 52.642
19.7974 53.0278
19.8426 54.1043
19.888 56.2906
19.9332 57.6734
19.9786 57.8495
20.0238 57.9464
20.0692 60.3941
20.1144 65.3037
20.1598 71.0209
20.205 71.0451
20.2504 65.3013
20.2957 60.2291
20.3411 60.185
20.3863 63.497
20.4318 64.1878
20.477 59.76
20.5224 53.4789
20.5677 50.5101
20.6131 49.7275
20.6586 49.3839
20.7038 49.1709
20.7493 48.6776
20.7945 48.7535
20.84 48.691
20.8853 48.1549
20.9307 48.0256
20.976 48.4214
21.0215 48.4953
21.0668 48.9237
21.1122 48.9397
21.1575 48.7395
21.203 48.9826
21.2483 49.378
21.2938 50.4735
21.3391 50.8273
21.3846 50.069
21.4299 49.0067
21.4754 48.2126
21.5207 48.3606
21.5662 48.2931
21.6116 49.0204
21.6571 50.9129
21.7024 52.6014
21.7479 53.5773
21.7933 53.4223
21.8388 54.565
21.8843 57.1657
21.9297 60.2938
21.9752 64.4178
22.0206 65.1416
22.0661 60.7334
22.1115 55.9324
22.157 54.6838
22.2024 55.7826
22.248 55.0522
22.2933 52.4569
22.3389 49.8051
22.3843 48.6954
22.4299 48.4943
22.4753 48.4786
22.5208 48.3542
22.5662 48.1733
22.6118 48.2962
22.6572 48.4673
22.7028 49.805
22.7483 50.9922
22.7939 51.4536
22.8393 51.2714
22.8849 51.6118
22.9303 52.1745
22.9759 53.7073
23.0214 56.0153
23.067 57.624
23.1126 56.0028
23.1581 52.3585
23.2037 49.7094
23.2492 48.9058
23.2948 49.2217
23.3403 50.4206
23.3859 51.3953
23.4314 51.2914
23.477 51.0198
23.5225 51.3038
23.5682 52.2409
23.6137 54.438
23.6593 56.9003
23.7048 57.1302
23.7505 53.7083
23.796 49.1143
23.8417 46.6234
23.8872 45.6962
23.9329 45.2291
23.9784 44.8146
24.0241 44.6399
24.0697 44.2857
24.1154 43.9
24.1609 43.7868
24.2066 43.5884
24.2522 43.3804
24.2979 43.2314
24.3434 43.0043
24.3892 42.9105
24.4349 42.8754
24.4805 42.5419
24.5262 42.5553
24.5718 42.5849
24.6175 42.6748
24.6631 42.6667
24.7089 42.6193
24.7545 42.3918
24.8002 42.1415
24.8458 42.0322
24.8916 42.0611
24.9372 42.32
24.983 42.3841
25.0286 42.5099
25.0744 43.0052
25.12 43.3708
25.1658 43.8033
25.2114 43.9385
25.2572 44.3982
25.3029 44.2908
25.3487 44.2281
25.3943 44.2494
25.4402 44.5166
25.4858 44.2791
25.5316 42.9975
25.5773 41.3705
25.6231 40.9406
25.669 40.4847
25.7147 40.3508
25.7605 40.3128
25.8062 40.4772
25.8521 40.744
25.8977 40.6556
25.9436 40.5457
25.9893 40.4689
26.0352 40.5922
26.0809 40.68
26.1268 41.1195
26.1725 41.5285
26.2184 41.6136
26.2641 41.1788
26.31 40.772
26.3557 40.4322
26.4017 40.3606
26.4474 40.511
26.4933 40.543
26.5391 40.6472
26.585 40.8222
26.6308 41.2081
26.6767 41.4185
26.7225 42.0503
26.7684 42.1776
26.8142 41.8392
26.8601 41.0544
26.9059 40.4866
26.9519 40.0825
26.9979 39.7452
27.0437 39.2144
27.0896 38.953
27.1354 38.8473
27.1814 38.6768
27.2272 38.6747
27.2732 38.5976
27.3191 38.4349
27.3651 38.4304
27.4109 38.2704
27.4569 38.165
27.5027 38.1826
27.5488 38.2843
27.5946 38.2741
27.6407 38.417
27.6865 38.4394
27.7326 38.2523
27.7784 38.3007
27.8245 38.0671
27.8703 37.9727
27.9164 38.1843
27.9623 38.0604
28.0084 38.2234
28.0543 38.4811
28.1003 38.5785
28.1462 38.9218
28.1923 39.056
28.2384 38.623
28.2843 38.0798
28.3304 37.5914
28.3764 37.3495
28.4225 36.8537
28.4684 36.4841
28.5145 36.1501
28.5605 35.8793
28.6066 35.6494
28.6526 35.6377
28.6987 35.527
28.7447 35.377
28.7908 35.2307
28.8368 35.1559
28.8829 35.1099
28.9289 35.0763
28.9751 35.016
29.0211 34.9956
29.0673 34.9153
29.1133 34.7313
29.1595 34.4358
29.2055 34.1995
29.2517 34.199
29.2977 34.0937
29.3439 33.9213
29.3899 33.851
29.4361 33.8752
29.4824 33.8276
29.5284 33.8277
29.5746 33.7123
29.6207 33.2791
29.6669 33.1528
29.713 32.8151
29.7593 32.822
29.8053 32.7527
29.8516 32.5647
29.8977 32.7434
29.9439 32.5373
29.99 32.442
30.0363 32.3288
30.0824 32.446
30.1287 32.1847
30.1748 32.1883
30.2211 32.1564
30.2673 32.0552
30.3136 32.3301
30.3597 32.3107
30.406 32.2783
30.4522 32.0809
30.4985 31.9471
30.5447 31.9893
30.591 31.8225
30.6372 31.9325
30.6835 31.7962
30.7297 31.9851
30.7761 32.0492
30.8224 32.0509
30.8686 32.0128
30.915 31.8061
30.9612 31.504
31.0076 31.3739
31.0538 31.2711
31.1002 31.1803
31.1464 30.9047
31.1928 31.0006
31.2391 30.8508
31.2855 30.7929
31.3317 30.7397
31.3781 30.8196
31.4244 30.6515
31.4708 30.6899
31.5171 30.6073
31.5636 30.8037
31.6098 30.7754
31.6563 30.5588
31.7026 30.4961
31.7491 30.1651
31.7953 30.1211
31.8418 30.0188
31.8881 30.1034
31.9346 30.0137
31.9809 29.8253
32.0275 29.8314
32.074 29.9412
32.1203 29.6907
32.1668 29.6618
32.2132 29.4582
32.2597 29.2799
32.306 29.1673
32.3526 28.955
32.399 28.8746
32.4455 28.6958
32.4919 28.5754
32.5385 28.5495
32.5848 28.362
32.6314 28.4241
32.6778 28.3593
32.7244 28.2359
32.7708 28.0524
32.8174 28.0965
32.8638 27.9739
32.9104 27.9778
32.9569 27.9386
33.0035 27.8286
33.0499 27.795
33.0966 27.6522
33.143 27.6082
33.1897 27.5222
33.2361 27.6097
33.2828 27.502
33.3293 27.2986
33.3759 27.3908
33.4226 27.1538
33.4691 27.1
33.5158 27.101
33.5623 26.8936
33.609 26.7593
33.6555 26.5875
33.7022 26.5508
33.7487 26.4206
33.7954 26.4683
33.842 26.2675
33.8887 26.2066
33.9353 26.221
33.982 26.0949
34.0286 26.0259
34.0753 25.9417
34.1219 25.8272
34.1687 25.812
34.2152 25.6265
34.262 25.4928
34.3086 25.4098
34.3554 25.45
34.402 25.2731
34.4488 25.2228
34.4954 25.2239
34.5422 25.0756
34.5889 25.0377
34.6357 24.9179
34.6825 24.8599
34.7292 24.8067
34.776 24.5947
34.8227 24.6694
34.8695 24.549
34.9162 24.5366
34.9631 24.4178
35.0098 24.4279
35.0566 24.3008
35.1033 24.2981
35.1502 24.1853
35.1969 24.1158
35.2438 24.075
35.2906 23.9406
35.3375 23.8882
35.3842 23.8928
35.4311 23.8356
35.4779 23.77
35.5248 23.8123
35.5716 23.7096
35.6185 23.6987
35.6653 23.6621
35.7123 23.5374
35.759 23.4913
35.806 23.2762
35.8528 23.2139
35.8998 23.1698
35.9468 22.9992
35.9936 22.9289
36.0406 22.9036
36.0874 22.9044
36.1345 22.8856
36.1813 22.7988
36.2283 22.6522
36.2752 22.5884
36.3222 22.6981
36.3691 22.5308
36.4161 22.3981
36.463 22.3884
36.5101 22.3907
36.557 22.3047
36.6041 22.0598
36.651 22.1063
36.6981 22.0964
36.745 22.0228
36.7921 21.9573
36.839 21.9044
36.8861 21.7726
36.9331 21.6222
36.9802 21.6286
37.0272 21.505
37.0743 21.415
37.1213 21.3628
37.1684 21.3269
37.2154 21.2061
37.2626 21.1984
37.3098 21.136
37.3568 21.0945
37.404 21.0412
37.451 20.8916
37.4982 20.8998
37.5452 20.7343
37.5924 20.722
37.6395 20.7609
37.6867 20.6104
37.7337 20.5697
37.781 20.4297
37.8281 20.4985
37.8753 20.3573
37.9224 20.2318
37.9697 20.2488
38.0168 20.1106
38.064 20.056
38.1111 20.0543
38.1584 19.9173
38.2056 19.8719
38.2529 19.8339
38.3 19.7666
38.3473 19.7277
38.3945 19.5837
38.4418 19.5521
38.489 19.524
38.5363 19.412
38.5837 19.4103
38.6309 19.2931
38.6782 19.2594
38.7254 19.1909
38.7728 19.1666
38.82 19.0342
38.8674 19.0671
38.9146 18.9842
38.9621 18.8998
39.0093 18.811
39.0567 18.7958
39.104 18.6847
39.1514 18.6744
39.1987 18.5946
39.2461 18.5471
39.2934 18.5029
39.3409 18.3981
39.3882 18.3154
39.4356 18.2923
39.483 18.1876
39.5304 18.1887
39.5778 18.2067
39.6253 18.1356
39.6726 18.0114
39.7201 18.0065
39.7675 17.8908
39.815 17.8868
39.8624 17.8087
39.9099 17.8099
39.9575 17.693
40.0049 17.6139
40.0525 17.5466
40.0999 17.4843
40.1474 17.4789
40.1949 17.4092
40.2425 17.427
40.2899 17.3468
40.3375 17.2238
40.385 17.2156
40.4326 17.136
40.48 17.0754
40.5277 17.03
40.5752 17.0008
40.6228 16.8808
40.6703 16.9136
40.718 16.8038
40.7655 16.7513
40.8132 16.7386
40.8607 16.6896
40.9084 16.6462
40.9559 16.5605
41.0036 16.5465
41.0512 16.4344
41.0989 16.4142
41.1465 16.3023
41.1942 16.2841
41.242 16.1658
41.2896 16.1618
41.3373 16.0903
41.3849 16.0582
41.4327 16.0182
41.4803 15.8936
41.5281 15.8899
41.5758 15.824
41.6236 15.7793
41.6712 15.6816
41.7191 15.6471
41.7667 15.6378
41.8146 15.6265
41.8622 15.5478
41.9101 15.4548
41.9578 15.3445
42.0057 15.4173
42.0534 15.33
42.1013 15.2964
42.149 15.2132
42.1969 15.1382
42.2446 15.1186
42.2925 15.0952
42.3403 15.0439
42.3882 14.9914
42.436 14.9231
42.4839 14.7937
42.5319 14.8226
42.5797 14.7786
42.6277 14.7286
42.6755 14.7116
42.7235 14.5879
42.7713 14.5818
42.8193 14.547
42.8671 14.5124
42.9152 14.4724
42.963 14.3783
43.0111 14.2925
43.0589 14.2706
43.107 14.2036
43.1549 14.159
43.2029 14.1177
43.2508 14.0875
43.2989 14.0295
43.3468 13.9537
43.3949 13.8689
43.4429 13.8973
43.491 13.8319
43.5389 13.8109
43.5871 13.7055
43.635 13.6748
43.6832 13.6417
43.7312 13.5831
43.7793 13.4757
43.8273 13.4889
43.8755 13.4652
43.9237 13.4551
43.9717 13.3765
44.0199 13.331
44.068 13.3065
44.1162 13.2162
44.1642 13.2074
44.2125 13.1631
44.2606 13.0889
44.3088 13.053
44.3569 12.9687
44.4052 12.9481
44.4533 12.8649
44.5016 12.8546
44.5497 12.8046
44.598 12.7674
44.6461 12.7327
44.6945 12.7253
44.7426 12.6638
44.791 12.5668
44.8391 12.5736
44.8875 12.4977
44.9357 12.4613
44.984 12.4408
45.0322 12.3604
45.0806 12.3054
45.1288 12.2892
45.1773 12.2219
45.2257 12.2137
45.2739 12.1848
45.3224 12.1215
45.3706 12.048
45.4191 11.9631
45.4673 11.9892
45.5158 11.9515
45.5641 11.8596
45.6126 11.8695
45.6609 11.7995
45.7094 11.7807
45.7577 11.712
45.8063 11.67
45.8546 11.6205
45.9031 11.5716
45.9515 11.5656
46.0001 11.5367
46.0484 11.4595
46.097 11.4634
46.1454 11.3779
46.194 11.3831
46.2424 11.3162
46.291 11.298
46.3395 11.2191
46.3881 11.1846
46.4365 11.1606
46.4852 11.1195
46.5337 11.0542
46.5823 11.0196
46.631 10.9886
46.6795 10.9434
46.7282 10.8794
46.7767 10.8876
46.8254 10.8323
46.8739 10.792
46.9226 10.6946
46.9712 10.6885
47.0199 10.6526
47.0685 10.6013
47.1173 10.5715
47.1658 10.5486
47.2146 10.5563
47.2632 10.4444
47.312 10.4607
47.3606 10.4176
47.4095 10.354
47.4581 10.3079
47.5069 10.2992
47.5556 10.2339
47.6044 10.1821
47.6531 10.1709
47.702 10.1002
47.7507 10.1183
47.7996 10.0505
47.8483 9.98448
47.8972 10.0032
47.9461 9.9829
47.9948 9.91506
48.0438 9.85649
48.0925 9.83392
48.1415 9.77855
48.1902 9.75657
48.2392 9.80119
48.288 9.73645
48.337 9.66795
48.3858 9.64847
48.4348 9.60421
48.4837 9.59896
48.5327 9.56022
48.5815 9.49389
48.6306 9.42449
48.6795 9.45051
48.7285 9.36633
48.7774 9.38813
48.8265 9.33174
48.8754 9.29175
48.9245 9.25808
48.9734 9.20611
49.0226 9.20565
49.0715 9.16171
49.1206 9.09095
49.1696 9.07494
49.2188 9.04534
49.2679 9.03662
49.3169 8.94289
49.3661 8.96248
49.4151 8.88966
49.4643 8.87809
49.5134 8.78523
49.5626 8.78002
49.6117 8.77207
49.6609 8.76884
49.71 8.72207
49.7592 8.68418
49.8083 8.60515
49.8576 8.60976
49.9067 8.53913
49.956 8.55277
50.0052 8.49439
50.0545 8.49475
50.1036 8.47923
50.153 8.40282
50.2022 8.36517
50.2515 8.33346
50.3007 8.30878
50.3501 8.29865
50.3993 8.25401
50.4487 8.24331
50.498 8.18906
50.5474 8.14656
50.5966 8.12625
50.6461 8.12735
50.6955 8.07051
50.7448 8.04682
50.7943 8.02567
50.8436 7.96499
50.8931 7.92435
50.9424 7.87919
50.9919 7.89258
51.0413 7.847
51.0908 7.83681
51.1402 7.80491
51.1897 7.76539
51.2391 7.73693
51.2887 7.66983
51.3381 7.64989
51.3877 7.60552
51.4371 7.62247
51.4867 7.57302
51.5362 7.53977
51.5858 7.49304
51.6353 7.46919
51.6849 7.4401
51.7344 7.42308
51.7841 7.4118
51.8336 7.37692
51.8833 7.30176
51.9328 7.27141
51.9826 7.21604
52.0323 7.20593
52.0818 7.23348
52.1316 7.16612
52.1812 7.18186
52.231 7.09121
52.2806 7.02156
52.3304 7.02236
52.38 7.00391
52.4298 7.0117
52.4794 6.99502
52.5293 6.90924
52.5789 6.89466
52.6288 6.87103
52.6785 6.84399
52.7284 6.83947
52.7781 6.81065
52.828 6.71926
52.8777 6.74402
52.9276 6.68758
52.9774 6.6874
53.0273 6.7039
53.0771 6.65244
53.1271 6.61025
53.1769 6.58603
53.2269 6.54061
53.2767 6.50829
53.3267 6.49289
53.3765 6.47784
53.4266 6.42501
53.4766 6.38816
53.5265 6.34812
53.5765 6.36563
53.6264 6.31493
53.6765 6.30801
53.7264 6.22482
53.7765 6.23025
53.8265 6.20385
53.8766 6.18503
53.9266 6.14125
53.9767 6.12135
54.0267 6.09491
54.0769 6.09624
54.1269 6.03813
54.1771 5.99085
54.2271 5.97807
54.2773 5.92045
54.3274 5.89162
54.3776 5.84154
54.4277 5.78466
54.478 5.75233
54.528 5.7491
54.5783 5.7065
54.6285 5.6743
54.6788 5.55407
54.7289 5.54924
54.7792 5.52667
54.8296 5.484
54.8798 5.37462
54.9301 5.42191
54.9803 5.38671
55.0307 5.32294
55.0809 5.23543
55.1314 5.26626
55.1816 5.18059
55.232 5.12136
55.2823 5.03494
55.3328 5.01486
55.383 4.94607
55.4335 4.88355
55.4838 4.86546
55.5344 4.84076
55.5847 4.80217
55.6352 4.82779
55.6856 4.73341
55.7361 4.72683