File: XRD/Ni3Fe_FD0491.xy
TT I
1.27165 7.14004
1.31627 6.74891
1.36089 6.51018
1.40551 5.55421
1.45013 6.63245
1.49476 6.23358
1.53938 5.8107
1.584 5.62654
1.62863 5.81301
1.67325 4.88457
1.71787 4.63067
1.7625 5.01099
1.80712 5.24989
1.85174 5.0927
1.89636 5.11608
1.94099 4.30969
1.98562 4.61947
2.03025 4.39339
2.07487 4.40409
2.11949 4.92385
2.16411 4.98879
2.20874 11.3002
2.25338 18.0773
2.298 6.01431
2.34263 5.3897
2.38725 5.34272
2.43188 5.45691
2.4765 6.30075
2.52115 6.33348
2.56577 6.52561
2.6104 6.63997
2.65503 7.37165
2.69965 7.62432
2.7443 7.11977
2.78893 7.49026
2.83356 8.11794
2.87818 8.45007
2.92281 8.90809
2.96744 9.23954
3.01209 9.9176
3.05672 11.0699
3.10135 12.0986
3.14599 13.2665
3.19062 14.45
3.23527 15.3164
3.2799 15.7786
3.32454 16.9481
3.36917 17.988
3.4138 18.7323
3.45844 19.7818
3.50309 21.1422
3.54773 21.833
3.59237 23.2105
3.637 75.3657
3.68164 49.8636
3.7263 26.4109
3.77094 26.456
3.81558 26.78
3.86022 28.1097
3.90486 28.6568
3.9495 29.6315
3.99416 31.0684
4.0388 32.1614
4.08344 33.9927
4.12809 35.1091
4.17273 37.6881
4.21738 42.2627
4.26204 195.918
4.30669 168.336
4.35133 47.506
4.39598 45.1864
4.44063 52.7891
4.4853 61.5832
4.52995 51.7518
4.5746 52.3336
4.61925 54.3189
4.6639 56.0782
4.70855 59.5124
4.75322 61.5845
4.79788 65.1355
4.84253 68.81
4.88719 72.9088
4.93184 76.5182
4.97652 82.3692
5.02118 88.7989
5.06583 97.0041
5.11049 109.923
5.15515 171.731
5.19981 437.043
5.24449 3232.35
5.28916 11816.8
5.33382 3172.58
5.37848 205.226
5.42315 134.116
5.46783 117.857
5.5125 109.131
5.55716 104.466
5.60183 100.561
5.6465 98.7349
5.69117 96.1576
5.73586 94.5268
5.78053 93.891
5.8252 94.0584
5.86988 95.0679
5.91455 97.2916
5.95924 107.101
6.00392 243.649
6.0486 1103.42
6.09328 4205.85
6.13795 3512.69
6.18263 286.391
6.22733 96.8926
6.27201 85.199
6.3167 97.4345
6.36138 79.2037
6.40606 70.0095
6.45075 68.2448
6.49545 66.6366
6.54014 64.8463
6.58483 63.9714
6.62952 63.594
6.67421 87.4933
6.71892 123.341
6.76361 66.7057
6.8083 59.2705
6.853 58.4468
6.89769 57.4841
6.94239 56.9666
6.98711 56.397
7.03181 56.0175
7.07651 56.1726
7.12121 55.6793
7.16591 55.904
7.21063 56.2937
7.25533 68.1427
7.30004 147.605
7.34475 83.3259
7.38945 56.6244
7.43416 55.0368
7.47889 54.7003
7.5236 55.1665
7.56831 56.2317
7.61303 57.5943
7.65774 57.4193
7.70247 57.0391
7.74719 57.0286
7.79191 57.2203
7.83663 57.5562
7.88135 58.3855
7.92607 59.6851
7.97081 60.4237
8.01553 61.5161
8.06026 63.6287
8.10498 64.8071
8.14971 72.6917
8.19446 72.1815
8.23919 70.5586
8.28392 72.8619
8.32865 75.4748
8.37339 79.7269
8.41812 86.4922
8.46288 112.148
8.50761 183.237
8.55235 434.113
8.59709 1212.34
8.64183 2105.63
8.68658 1064.55
8.73134 184.738
8.77609 102.522
8.82083 94.424
8.86558 91.3438
8.91033 91.2499
8.9551 91.1592
8.99985 86.6069
9.04461 84.842
9.08936 84.2888
9.13412 83.1222
9.17888 83.5902
9.22365 83.803
9.26841 83.4435
9.31318 84.3072
9.35794 84.2718
9.4027 84.6856
9.44749 84.9702
9.49226 85.8091
9.53703 86.9441
9.5818 89.0237
9.62657 93.0217
9.67134 98.1267
9.71614 95.0004
9.76091 95.8817
9.80569 98.3058
9.85047 101.517
9.89525 121.451
9.94005 134.275
9.98484 195.531
10.0296 381.68
10.0744 861.751
10.1192 1659.72
10.164 1648.08
10.2088 454.771
10.2536 135.901
10.2984 114.534
10.3432 114.396
10.388 106.861
10.4328 124.629
10.4776 170.035
10.5224 295.131
10.5672 497.408
10.612 503.093
10.6568 220.335
10.7017 99.8315
10.7465 87.8518
10.7913 84.6916
10.8361 82.416
10.8809 80.2504
10.9257 79.2723
10.9706 79.2952
11.0154 75.8507
11.0602 73.8965
11.105 72.772
11.1499 75.9232
11.1947 80.8879
11.2395 73.7736
11.2844 70.6901
11.3292 68.1263
11.374 67.1759
11.4189 66.6304
11.4637 65.9553
11.5086 66.0442
11.5534 68.0092
11.5983 65.8942
11.6431 64.4558
11.688 63.699
11.7328 63.4529
11.7777 63.5736
11.8225 63.1795
11.8674 63.4269
11.9122 63.4937
11.9571 63.7613
12.002 64.5576
12.0468 70.1238
12.0917 82.2473
12.1366 107.346
12.1814 155.61
12.2263 200.224
12.2712 170.59
12.3161 99.2466
12.3609 70.6817
12.4058 65.7098
12.4507 65.2223
12.4956 65.1475
12.5405 65.5412
12.5853 66.3766
12.6302 72.4735
12.6751 76.6144
12.72 70.2097
12.7649 68.7568
12.8098 69.2205
12.8547 70.6664
12.8996 71.8827
12.9445 73.4384
12.9894 75.2047
13.0343 77.0742
13.0792 80.6933
13.1242 92.1837
13.1691 117.878
13.214 157.159
13.2589 246.238
13.3038 359.768
13.3487 416.26
13.3937 277.151
13.4386 131.059
13.4835 110.195
13.5285 126.763
13.5734 167.135
13.6183 250.381
13.6633 329.384
13.7082 338.645
13.7531 202.327
13.7981 103.129
13.843 83.371
13.888 80.9209
13.9329 78.4462
13.9779 77.088
14.0228 75.5069
14.0678 73.929
14.1127 73.7588
14.1577 73.4242
14.2027 72.2508
14.2476 71.3623
14.2926 71.5048
14.3376 72.1179
14.3825 70.9809
14.4275 70.1482
14.4725 69.6929
14.5175 70.1875
14.5624 70.375
14.6074 71.9258
14.6524 72.4162
14.6974 71.4762
14.7424 73.7606
14.7874 81.4514
14.8324 92.4951
14.8774 115.447
14.9224 156.306
14.9674 198.936
15.0124 212.506
15.0574 156.444
15.1024 95.7941
15.1474 73.8296
15.1924 71.4923
15.2374 71.5253
15.2824 70.811
15.3274 69.1301
15.3725 67.8285
15.4175 67.4774
15.4625 67.1937
15.5076 67.1991
15.5526 67.1685
15.5976 66.876
15.6426 68.4292
15.6877 74.6294
15.7327 82.651
15.7778 98.8244
15.8228 129.887
15.8679 167.834
15.9129 187.999
15.958 157.993
16.003 101.378
16.0481 69.7877
16.0931 65.1988
16.1382 63.185
16.1833 61.3293
16.2283 59.8322
16.2734 59.2701
16.3185 59.4515
16.3636 59.5777
16.4086 58.4554
16.4537 56.9505
16.4988 56.4783
16.5439 56.3004
16.589 56.0564
16.6341 55.6722
16.6792 55.3793
16.7243 55.5822
16.7694 55.7209
16.8145 55.45
16.8596 56.15
16.9047 57.1584
16.9498 57.3916
16.9949 56.4981
17.04 56.9172
17.0851 58.1522
17.1302 59.938
17.1754 63.0486
17.2205 68.4016
17.2656 74.961
17.3108 81.2369
17.3559 81.977
17.401 72.9574
17.4462 63.7304
17.4913 60.3109
17.5365 60.0256
17.5815 59.9953
17.6268 60.4867
17.6718 61.1687
17.7171 61.6881
17.7622 62.2387
17.8074 63.2097
17.8525 66.0441
17.8977 70.0926
17.9428 75.9825
17.9881 85.1288
18.0331 101.999
18.0784 120.39
18.1237 136.304
18.1688 134.188
18.214 108.363
18.2591 90.4087
18.3044 91.8317
18.3495 99.7229
18.3948 104.947
18.4399 98.5805
18.4852 80.3927
18.5303 67.6381
18.5756 63.3219
18.6207 62.201
18.666 61.1816
18.7112 60.6108
18.7565 60.0071
18.8016 59.5906
18.8469 58.9578
18.892 58.6982
18.9374 58.185
18.9825 57.958
19.0278 57.6115
19.073 57.866
19.1183 58.3215
19.1635 59.3146
19.2088 60.6972
19.254 63.2236
19.2993 67.463
19.3447 72.5733
19.3898 75.7475
19.4352 73.2482
19.4804 64.8727
19.5257 57.7169
19.5709 55.0577
19.6163 54.7008
19.6615 54.4414
19.7068 54.2062
19.752 54.0996
19.7974 54.5185
19.8426 55.5006
19.888 55.9646
19.9332 57.4651
19.9786 60.0738
20.0238 63.3546
20.0692 67.3121
20.1144 69.7351
20.1598 69.5617
20.205 65.4758
20.2504 63.5073
20.2957 64.1768
20.3411 65.3349
20.3863 64.791
20.4318 59.8271
20.477 54.778
20.5224 52.5941
20.5677 51.6042
20.6131 50.9216
20.6586 50.4629
20.7038 50.5169
20.7493 49.7107
20.7945 49.8383
20.84 49.5326
20.8853 49.5818
20.9307 49.5192
20.976 49.4099
21.0215 49.5809
21.0668 49.7394
21.1122 50.2402
21.1575 50.8775
21.203 51.5212
21.2483 51.8829
21.2938 52.1953
21.3391 50.9556
21.3846 49.7017
21.4299 49.2366
21.4754 49.1724
21.5207 49.3708
21.5662 49.6497
21.6116 49.9775
21.6571 50.7991
21.7024 51.6651
21.7479 53.7201
21.7933 56.497
21.8388 59.6998
21.8843 62.7396
21.9297 64.7077
21.9752 64.1209
22.0206 60.8966
22.0661 57.3538
22.1115 56.397
22.157 56.4642
22.2024 55.2493
22.248 52.3686
22.2933 50.6706
22.3389 49.9882
22.3843 49.7156
22.4299 49.5684
22.4753 49.5445
22.5208 49.2543
22.5662 49.148
22.6118 49.527
22.6572 49.6645
22.7028 50.0794
22.7483 50.64
22.7939 51.3791
22.8393 52.9592
22.8849 54.6841
22.9303 56.3832
22.9759 57.9705
23.0214 57.723
23.067 55.6642
23.1126 52.2685
23.1581 50.0641
23.2037 49.5505
23.2492 49.6013
23.2948 49.6632
23.3403 50.0078
23.3859 50.6428
23.4314 51.7927
23.477 53.336
23.5225 55.2978
23.5682 57.0126
23.6137 57.9546
23.6593 56.4358
23.7048 52.8434
23.7505 49.346
23.796 47.5023
23.8417 46.8071
23.8872 46.199
23.9329 45.9734
23.9784 45.7194
24.0241 45.4243
24.0697 45.1249
24.1154 44.702
24.1609 44.6347
24.2066 44.4023
24.2522 44.2897
24.2979 44.1206
24.3434 43.9985
24.3892 43.8824
24.4349 43.8358
24.4805 43.736
24.5262 43.8057
24.5718 43.4979
24.6175 43.4503
24.6631 43.497
24.7089 43.1844
24.7545 43.1505
24.8002 43.0003
24.8458 42.8913
24.8916 42.7475
24.9372 42.8977
24.983 43.2415
25.0286 43.5363
25.0744 44.0282
25.12 44.5085
25.1658 44.7838
25.2114 45.2314
25.2572 45.4546
25.3029 45.4614
25.3487 45.2684
25.3943 45.0672
25.4402 44.309
25.4858 43.3605
25.5316 42.2032
25.5773 41.5058
25.6231 41.4589
25.669 41.094
25.7147 41.2255
25.7605 41.0131
25.8062 41.1847
25.8521 41.4067
25.8977 41.1942
25.9436 41.546
25.9893 41.4728
26.0352 41.9976
26.0809 42.064
26.1268 42.2971
26.1725 42.035
26.2184 41.5441
26.2641 41.0282
26.31 40.7123
26.3557 40.6644
26.4017 40.7872
26.4474 41.0454
26.4933 41.4739
26.5391 41.7849
26.585 42.2934
26.6308 42.5322
26.6767 42.7376
26.7225 42.529
26.7684 42.2645
26.8142 41.5568
26.8601 41.0216
26.9059 40.7085
26.9519 39.9566
26.9979 39.7524
27.0437 39.4544
27.0896 39.3217
27.1354 39.3823
27.1814 39.1834
27.2272 39.104
27.2732 39.1311
27.3191 38.8535
27.3651 39.1927
27.4109 39.0006
27.4569 39.1173
27.5027 39.0453
27.5488 39.1768
27.5946 39.0036
27.6407 38.7275
27.6865 38.8536
27.7326 38.4898
27.7784 38.4527
27.8245 38.4464
27.8703 38.6144
27.9164 38.9195
27.9623 38.9515
28.0084 39.2628
28.0543 39.4539
28.1003 39.5026
28.1462 39.3148
28.1923 39.0587
28.2384 38.448
28.2843 38.3166
28.3304 37.6272
28.3764 37.3797
28.4225 36.9998
28.4684 36.7456
28.5145 36.5503
28.5605 36.4786
28.6066 36.3433
28.6526 36.1823
28.6987 36.1196
28.7447 36.1336
28.7908 36.0361
28.8368 35.9307
28.8829 35.928
28.9289 35.8535
28.9751 35.7246
29.0211 35.4798
29.0673 35.3813
29.1133 35.1341
29.1595 34.9634
29.2055 34.939
29.2517 34.8963
29.2977 34.8853
29.3439 34.7586
29.3899 34.653
29.4361 34.6278
29.4824 34.5228
29.5284 34.3049
29.5746 33.9352
29.6207 33.6417
29.6669 33.6791
29.713 33.485
29.7593 33.3549
29.8053 33.4883
29.8516 33.2995
29.8977 33.2472
29.9439 33.146
29.99 33.0702
30.0363 32.9352
30.0824 33.0605
30.1287 32.8893
30.1748 32.9571
30.2211 32.8774
30.2673 32.8496
30.3136 32.8796
30.3597 32.8414
30.406 32.6947
30.4522 32.6089
30.4985 32.5035
30.5447 32.5936
30.591 32.6066
30.6372 32.5636
30.6835 32.6826
30.7297 32.6521
30.7761 32.6826
30.8224 32.5024
30.8686 32.3443
30.915 32.1502
30.9612 31.9093
31.0076 31.7692
31.0538 31.7446
31.1002 31.6075
31.1464 31.441
31.1928 31.4168
31.2391 31.4971
31.2855 31.3758
31.3317 31.2896
31.3781 31.5519
31.4244 31.2972
31.4708 31.2654
31.5171 31.2258
31.5636 31.2257
31.6098 30.9892
31.6563 30.8389
31.7026 30.6523
31.7491 30.6055
31.7953 30.6727
31.8418 30.5579
31.8881 30.61
31.9346 30.512
31.9809 30.4685
32.0275 30.3002
32.074 30.2548
32.1203 30.0202
32.1668 29.9636
32.2132 29.8223
32.2597 29.6488
32.306 29.6334
32.3526 29.4543
32.399 29.3264
32.4455 29.2057
32.4919 29.1331
32.5385 29.0361
32.5848 28.9729
32.6314 28.9347
32.6778 28.854
32.7244 28.7409
32.7708 28.6385
32.8174 28.5858
32.8638 28.4541
32.9104 28.4923
32.9569 28.4811
33.0035 28.2973
33.0499 28.3236
33.0966 28.1837
33.143 28.16
33.1897 28.1751
33.2361 28.0633
33.2828 27.8858
33.3293 27.8518
33.3759 27.8159
33.4226 27.6323
33.4691 27.6012
33.5158 27.4564
33.5623 27.305
33.609 27.1816
33.6555 27.1152
33.7022 27.0351
33.7487 26.9162
33.7954 26.8354
33.842 26.7324
33.8887 26.6834
33.9353 26.6799
33.982 26.4903
34.0286 26.4475
34.0753 26.4174
34.1219 26.3468
34.1687 26.2076
34.2152 26.1775
34.262 26.0435
34.3086 25.9562
34.3554 25.953
34.402 25.8005
34.4488 25.6908
34.4954 25.6221
34.5422 25.5848
34.5889 25.4401
34.6357 25.3428
34.6825 25.3204
34.7292 25.1846
34.776 25.144
34.8227 25.109
34.8695 25.0564
34.9162 24.9335
34.9631 24.8353
35.0098 24.8749
35.0566 24.7136
35.1033 24.6045
35.1502 24.6597
35.1969 24.5889
35.2438 24.5489
35.2906 24.4791
35.3375 24.3958
35.3842 24.2966
35.4311 24.3198
35.4779 24.274
35.5248 24.2019
35.5716 24.1518
35.6185 24.0947
35.6653 23.9337
35.7123 23.9004
35.759 23.8095
35.806 23.7091
35.8528 23.6491
35.8998 23.5456
35.9468 23.4398
35.9936 23.4631
36.0406 23.3303
36.0874 23.3823
36.1345 23.2472
36.1813 23.2089
36.2283 23.0426
36.2752 22.9673
36.3222 23.0046
36.3691 22.9368
36.4161 22.8479
36.463 22.8451
36.5101 22.7642
36.557 22.7525
36.6041 22.4903
36.651 22.5195
36.6981 22.4157
36.745 22.3714
36.7921 22.3338
36.839 22.2333
36.8861 22.1676
36.9331 22.0892
36.9802 22.0082
37.0272 21.9201
37.0743 21.8469
37.1213 21.8155
37.1684 21.7046
37.2154 21.6586
37.2626 21.5622
37.3098 21.5217
37.3568 21.4496
37.404 21.4001
37.451 21.3379
37.4982 21.2847
37.5452 21.1639
37.5924 21.1043
37.6395 21.1413
37.6867 20.981
37.7337 20.9269
37.781 20.8581
37.8281 20.8039
37.8753 20.6782
37.9224 20.583
37.9697 20.5708
38.0168 20.5186
38.064 20.4559
38.1111 20.4549
38.1584 20.28
38.2056 20.1894
38.2529 20.253
38.3 20.1245
38.3473 20.1004
38.3945 20.0082
38.4418 19.9762
38.489 19.8935
38.5363 19.7832
38.5837 19.7061
38.6309 19.6971
38.6782 19.6506
38.7254 19.5331
38.7728 19.4287
38.82 19.4014
38.8674 19.3871
38.9146 19.3076
38.9621 19.2534
39.0093 19.2018
39.0567 19.121
39.104 19.0736
39.1514 18.9929
39.1987 18.9313
39.2461 18.8701
39.2934 18.9405
39.3409 18.7458
39.3882 18.7008
39.4356 18.6267
39.483 18.5702
39.5304 18.4988
39.5778 18.4445
39.6253 18.4255
39.6726 18.3183
39.7201 18.391
39.7675 18.2123
39.815 18.1638
39.8624 18.1321
39.9099 18.1243
39.9575 17.9611
40.0049 17.9631
40.0525 17.8936
40.0999 17.8846
40.1474 17.7561
40.1949 17.7556
40.2425 17.6659
40.2899 17.6245
40.3375 17.5773
40.385 17.4712
40.4326 17.4954
40.48 17.3909
40.5277 17.3531
40.5752 17.3382
40.6228 17.2082
40.6703 17.1539
40.718 17.1259
40.7655 17.0821
40.8132 17.002
40.8607 16.9805
40.9084 16.8862
40.9559 16.88
41.0036 16.8034
41.0512 16.8115
41.0989 16.6975
41.1465 16.6368
41.1942 16.5874
41.242 16.4921
41.2896 16.4921
41.3373 16.419
41.3849 16.4014
41.4327 16.3619
41.4803 16.2249
41.5281 16.1884
41.5758 16.1271
41.6236 16.0715
41.6712 16.0289
41.7191 15.962
41.7667 15.923
41.8146 15.9034
41.8622 15.7991
41.9101 15.7635
41.9578 15.6952
42.0057 15.6174
42.0534 15.5975
42.1013 15.5314
42.149 15.4676
42.1969 15.4278
42.2446 15.3646
42.2925 15.3278
42.3403 15.2964
42.3882 15.2508
42.436 15.2104
42.4839 15.1292
42.5319 15.1047
42.5797 15.0102
42.6277 14.9971
42.6755 14.9297
42.7235 14.8101
42.7713 14.8407
42.8193 14.7683
42.8671 14.7142
42.9152 14.6872
42.963 14.6216
43.0111 14.5494
43.0589 14.6033
43.107 14.4733
43.1549 14.4121
43.2029 14.3855
43.2508 14.3002
43.2989 14.2922
43.3468 14.2072
43.3949 14.1778
43.4429 14.1037
43.491 14.0633
43.5389 14.0026
43.5871 14.028
43.635 13.9607
43.6832 13.9054
43.7312 13.7952
43.7793 13.8271
43.8273 13.7751
43.8755 13.6955
43.9237 13.6778
43.9717 13.582
44.0199 13.5641
44.068 13.5107
44.1162 13.467
44.1642 13.4456
44.2125 13.3945
44.2606 13.3417
44.3088 13.2696
44.3569 13.2669
44.4052 13.2024
44.4533 13.1397
44.5016 13.0956
44.5497 13.016
44.598 13.0338
44.6461 12.9497
44.6945 12.9255
44.7426 12.8326
44.791 12.7554
44.8391 12.8046
44.8875 12.6923
44.9357 12.6921
44.984 12.6516
45.0322 12.6143
45.0806 12.5671
45.1288 12.5166
45.1773 12.4658
45.2257 12.4067
45.2739 12.3536
45.3224 12.3442
45.3706 12.2885
45.4191 12.2542
45.4673 12.1859
45.5158 12.1754
45.5641 12.0668
45.6126 12.1062
45.6609 12.0158
45.7094 12.0005
45.7577 11.94
45.8063 11.8698
45.8546 11.8379
45.9031 11.7757
45.9515 11.7884
46.0001 11.7076
46.0484 11.6846
46.097 11.6425
46.1454 11.5909
46.194 11.5462
46.2424 11.5444
46.291 11.4392
46.3395 11.4161
46.3881 11.3473
46.4365 11.376
46.4852 11.3075
46.5337 11.2775
46.5823 11.1918
46.631 11.1531
46.6795 11.1643
46.7282 11.0946
46.7767 11.0826
46.8254 11.0261
46.8739 11.0259
46.9226 10.9171
46.9712 10.9192
47.0199 10.8792
47.0685 10.8229
47.1173 10.7526
47.1658 10.7566
47.2146 10.7392
47.2632 10.6411
47.312 10.6178
47.3606 10.6086
47.4095 10.5353
47.4581 10.4682
47.5069 10.4508
47.5556 10.4799
47.6044 10.3694
47.6531 10.3405
47.702 10.2827
47.7507 10.2671
47.7996 10.2543
47.8483 10.2188
47.8972 10.1526
47.9461 10.1313
47.9948 10.0782
48.0438 10.0682
48.0925 10.0603
48.1415 10.0055
48.1902 9.93564
48.2392 9.91945
48.288 9.90693
48.337 9.86958
48.3858 9.76592
48.4348 9.75925
48.4837 9.76202
48.5327 9.70122
48.5815 9.6941
48.6306 9.63029
48.6795 9.61354
48.7285 9.57509
48.7774 9.55585
48.8265 9.49714
48.8754 9.48729
48.9245 9.42386
48.9734 9.37245
49.0226 9.34926
49.0715 9.2896
49.1206 9.28403
49.1696 9.24167
49.2188 9.17725
49.2679 9.19219
49.3169 9.15893
49.3661 9.09007
49.4151 9.10324
49.4643 9.01492
49.5134 9.03334
49.5626 8.97146
49.6117 8.93857
49.6609 8.8819
49.71 8.83979
49.7592 8.8304
49.8083 8.77584
49.8576 8.76343
49.9067 8.72659
49.956 8.69528
50.0052 8.67689
50.0545 8.60809
50.1036 8.57401
50.153 8.55485
50.2022 8.51659
50.2515 8.46633
50.3007 8.43921
50.3501 8.40851
50.3993 8.39255
50.4487 8.37297
50.498 8.32724
50.5474 8.3006
50.5966 8.25638
50.6461 8.21978
50.6955 8.20826
50.7448 8.19403
50.7943 8.14919
50.8436 8.0974
50.8931 8.10611
50.9424 8.02935
50.9919 7.98767
51.0413 7.98722
51.0908 7.95495
51.1402 7.94275
51.1897 7.88093
51.2391 7.84429
51.2887 7.81332
51.3381 7.77786
51.3877 7.76336
51.4371 7.72748
51.4867 7.66749
51.5362 7.64661
51.5858 7.61871
51.6353 7.6029
51.6849 7.51774
51.7344 7.5635
51.7841 7.5303
51.8336 7.49997
51.8833 7.43216
51.9328 7.38887
51.9826 7.36758
52.0323 7.35259
52.0818 7.30075
52.1316 7.25175
52.1812 7.24889
52.231 7.21987
52.2806 7.18908
52.3304 7.14129
52.38 7.08014
52.4298 7.05302
52.4794 7.08508
52.5293 7.02738
52.5789 6.98408
52.6288 7.01843
52.6785 6.97224
52.7284 6.94589
52.7781 6.91689
52.828 6.87655
52.8777 6.84188
52.9276 6.86033
52.9774 6.80028
53.0273 6.77016
53.0771 6.74969
53.1271 6.69427
53.1769 6.66429
53.2269 6.62972
53.2767 6.61664
53.3267 6.6195
53.3765 6.61732
53.4266 6.53725
53.4766 6.49524
53.5265 6.46869
53.5765 6.43982
53.6264 6.41071
53.6765 6.39073
53.7264 6.39785
53.7765 6.37259
53.8265 6.29854
53.8766 6.28432
53.9266 6.26047
53.9767 6.20816
54.0267 6.21318
54.0769 6.19254
54.1269 6.14513
54.1771 6.113
54.2271 6.08586
54.2773 6.05335
54.3274 6.04337
54.3776 6.01544
54.4277 5.98785
54.478 5.9243
54.528 5.84807
54.5783 5.86551
54.6285 5.80926
54.6788 5.77997
54.7289 5.74505
54.7792 5.65725
54.8296 5.66099
54.8798 5.60164
54.9301 5.57145
54.9803 5.5433
55.0307 5.49321
55.0809 5.50898
55.1314 5.42365
55.1816 5.39278
55.232 5.29652
55.2823 5.28923
55.3328 5.21882
55.383 5.17662
55.4335 5.14073
55.4838 5.10139
55.5344 5.04038
55.5847 5.03034
55.6352 4.90729
55.6856 4.90529
55.7361 4.89307