File: XRD/Ni3Fe_FD0751.xy
TT I
1.27165 7.11898
1.31627 6.46777
1.36089 6.87582
1.40551 4.52972
1.45013 5.72617
1.49476 6.14943
1.53938 5.68322
1.584 5.16271
1.62863 4.89371
1.67325 5.08239
1.71787 4.7477
1.7625 4.69472
1.80712 5.21672
1.85174 4.65837
1.89636 4.90179
1.94099 5.6288
1.98562 4.78735
2.03025 4.47037
2.07487 4.43175
2.11949 4.92282
2.16411 4.91102
2.20874 15.2213
2.25338 24.8246
2.298 5.85649
2.34263 5.70167
2.38725 6.11453
2.43188 6.60211
2.4765 6.97866
2.52115 7.35249
2.56577 7.64452
2.6104 7.79771
2.65503 7.8786
2.69965 8.58181
2.7443 8.55513
2.78893 8.29327
2.83356 8.40687
2.87818 9.14
2.92281 8.94645
2.96744 9.55593
3.01209 9.98792
3.05672 11.2581
3.10135 11.8912
3.14599 12.6251
3.19062 14.7633
3.23527 15.0383
3.2799 15.2766
3.32454 16.7909
3.36917 17.8731
3.4138 19.0824
3.45844 20.1477
3.50309 20.8333
3.54773 21.8817
3.59237 24.5532
3.637 101.104
3.68164 63.7139
3.7263 26.7414
3.77094 26.1571
3.81558 26.4953
3.86022 27.5138
3.90486 28.9663
3.9495 29.5384
3.99416 30.868
4.0388 32.5094
4.08344 33.8173
4.12809 35.1537
4.17273 37.0102
4.21738 43.5083
4.26204 273.58
4.30669 242.896
4.35133 49.0761
4.39598 44.5767
4.44063 55.4437
4.4853 67.5745
4.52995 50.0255
4.5746 51.3829
4.61925 53.1026
4.6639 55.4122
4.70855 57.9794
4.75322 60.2182
4.79788 63.1562
4.84253 66.8818
4.88719 70.7493
4.93184 74.2527
4.97652 80.0174
5.02118 86.01
5.06583 92.826
5.11049 103.281
5.15515 174.46
5.19981 313.159
5.24449 2571.79
5.28916 12863.3
5.33382 2975.05
5.37848 186.603
5.42315 128.599
5.46783 112.894
5.5125 105.726
5.55716 101.061
5.60183 97.618
5.6465 95.8687
5.69117 93.4954
5.73586 91.1857
5.78053 90.0612
5.8252 90.1556
5.86988 90.3454
5.91455 92.7494
5.95924 98.4212
6.00392 183.637
6.0486 860.044
6.09328 4326.57
6.13795 3188.54
6.18263 234.898
6.22733 92.3019
6.27201 83.0028
6.3167 104.942
6.36138 81.2609
6.40606 68.8125
6.45075 66.6583
6.49545 65.2444
6.54014 63.7772
6.58483 62.8028
6.62952 62.5062
6.67421 97.7606
6.71892 154.067
6.76361 70.1802
6.8083 58.4719
6.853 57.4094
6.89769 56.5999
6.94239 56.546
6.98711 56.0832
7.03181 55.3933
7.07651 55.3902
7.12121 55.2995
7.16591 55.2147
7.21063 55.4704
7.25533 72.2267
7.30004 196.31
7.34475 96.4663
7.38945 56.7083
7.43416 54.8426
7.47889 54.195
7.5236 54.8391
7.56831 55.1088
7.61303 56.9826
7.65774 57.4649
7.70247 55.7905
7.74719 55.9737
7.79191 56.402
7.83663 56.5043
7.88135 57.9164
7.92607 58.2687
7.97081 59.1313
8.01553 60.4406
8.06026 61.9467
8.10498 63.6774
8.14971 73.675
8.19446 72.7186
8.23919 68.8082
8.28392 71.3053
8.32865 73.411
8.37339 77.2637
8.41812 84.4281
8.46288 115.09
8.50761 151.874
8.55235 352.122
8.59709 1135.78
8.64183 2155.01
8.68658 1016.34
8.73134 163.197
8.77609 99.0212
8.82083 91.7378
8.86558 88.7604
8.91033 89.5057
8.9551 91.7384
8.99985 85.2313
9.04461 82.9094
9.08936 82.2272
9.13412 81.1901
9.17888 81.4826
9.22365 82.2968
9.26841 81.2688
9.31318 81.6266
9.35794 81.8259
9.4027 82.4956
9.44749 83.2369
9.49226 83.8123
9.53703 85.1213
9.5818 86.5111
9.62657 91.497
9.67134 99.0127
9.71614 93.2118
9.76091 93.3292
9.80569 95.7728
9.85047 99.0146
9.89525 124.968
9.94005 137.248
9.98484 161.497
10.0296 313.913
10.0744 775.105
10.1192 1758.0
10.164 1634.92
10.2088 403.439
10.2536 126.517
10.2984 113.442
10.3432 115.166
10.388 103.8
10.4328 113.5
10.4776 152.766
10.5224 272.362
10.5672 511.493
10.612 523.149
10.6568 209.883
10.7017 96.8524
10.7465 86.186
10.7913 82.4363
10.8361 80.5512
10.8809 78.585
10.9257 78.1874
10.9706 79.1372
11.0154 74.5326
11.0602 72.7143
11.105 71.44
11.1499 76.6253
11.1947 84.8343
11.2395 75.0145
11.2844 70.4006
11.3292 67.2475
11.374 65.7487
11.4189 65.2108
11.4637 64.876
11.5086 65.4847
11.5534 68.1472
11.5983 65.684
11.6431 63.2021
11.688 62.6515
11.7328 62.5452
11.7777 62.5266
11.8225 61.9529
11.8674 62.0879
11.9122 62.6565
11.9571 62.6092
12.002 63.0974
12.0468 66.4196
12.0917 76.6425
12.1366 99.5494
12.1814 150.075
12.2263 203.211
12.2712 171.11
12.3161 100.166
12.3609 71.0381
12.4058 64.467
12.4507 64.2559
12.4956 64.0329
12.5405 64.2716
12.5853 65.3268
12.6302 73.7642
12.6751 80.1631
12.72 70.121
12.7649 67.4915
12.8098 67.9575
12.8547 69.2312
12.8996 70.3838
12.9445 71.8474
12.9894 73.4499
13.0343 74.7918
13.0792 78.0095
13.1242 85.4387
13.1691 106.709
13.214 141.667
13.2589 230.474
13.3038 373.534
13.3487 425.196
13.3937 268.427
13.4386 126.335
13.4835 102.536
13.5285 115.284
13.5734 151.361
13.6183 241.203
13.6633 345.701
13.7082 340.271
13.7531 187.705
13.7981 97.5602
13.843 81.3522
13.888 78.7947
13.9329 76.4486
13.9779 75.1174
14.0228 73.9599
14.0678 72.3202
14.1127 72.3601
14.1577 72.1602
14.2027 70.9284
14.2476 69.9875
14.2926 70.3392
14.3376 71.544
14.3825 70.1248
14.4275 68.3373
14.4725 68.1607
14.5175 68.1105
14.5624 68.5416
14.6074 70.8825
14.6524 71.4347
14.6974 69.7818
14.7424 70.9001
14.7874 76.5456
14.8324 85.8109
14.8774 107.253
14.9224 149.698
14.9674 206.999
15.0124 220.76
15.0574 152.497
15.1024 92.1869
15.1474 72.3389
15.1924 70.1749
15.2374 71.0391
15.2824 70.5422
15.3274 67.9126
15.3725 66.5639
15.4175 66.1637
15.4625 65.6683
15.5076 66.0893
15.5526 66.114
15.5976 65.057
15.6426 65.8432
15.6877 70.3204
15.7327 77.43
15.7778 91.9156
15.8228 123.211
15.8679 168.741
15.9129 193.627
15.958 157.107
16.003 99.1251
16.0481 68.5979
16.0931 64.5693
16.1382 62.5127
16.1833 60.3972
16.2283 58.6529
16.2734 58.1512
16.3185 58.5349
16.3636 59.4073
16.4086 57.7181
16.4537 55.9179
16.4988 55.2889
16.5439 55.1647
16.589 54.7064
16.6341 54.6294
16.6792 53.9325
16.7243 54.5045
16.7694 54.6989
16.8145 54.6416
16.8596 55.1013
16.9047 56.7354
16.9498 56.8721
16.9949 55.2616
17.04 55.2881
17.0851 56.2347
17.1302 57.9883
17.1754 60.7976
17.2205 65.7988
17.2656 73.699
17.3108 83.5587
17.3559 82.9982
17.401 71.0218
17.4462 61.7409
17.4913 58.7225
17.5365 58.6878
17.5815 58.7008
17.6268 59.0865
17.6718 59.9307
17.7171 60.5148
17.7622 60.7914
17.8074 61.3096
17.8525 63.0662
17.8977 66.7344
17.9428 71.9548
17.9881 80.4636
18.0331 97.4345
18.0784 119.931
18.1237 138.719
18.1688 130.237
18.214 102.965
18.2591 85.6524
18.3044 89.7491
18.3495 99.7713
18.3948 105.852
18.4399 96.1998
18.4852 77.656
18.5303 65.8189
18.5756 61.8144
18.6207 61.0059
18.666 59.9445
18.7112 59.3988
18.7565 58.5835
18.8016 58.2045
18.8469 57.6897
18.892 57.1782
18.9374 56.9296
18.9825 56.62
19.0278 56.6156
19.073 56.6032
19.1183 57.0766
19.1635 57.7627
19.2088 59.0228
19.254 61.374
19.2993 65.7014
19.3447 72.3347
19.3898 76.3015
19.4352 72.1948
19.4804 63.322
19.5257 56.4389
19.5709 53.8961
19.6163 53.5376
19.6615 53.3963
19.7068 52.911
19.752 52.9928
19.7974 53.2313
19.8426 53.834
19.888 54.3745
19.9332 55.7439
19.9786 58.0998
20.0238 61.8134
20.0692 66.7465
20.1144 69.2898
20.1598 67.7154
20.205 63.041
20.2504 61.4953
20.2957 63.4759
20.3411 65.6269
20.3863 63.9122
20.4318 58.1996
20.477 53.5693
20.5224 51.5439
20.5677 50.8194
20.6131 50.1043
20.6586 49.449
20.7038 49.2683
20.7493 48.9368
20.7945 48.7978
20.84 48.5373
20.8853 48.4565
20.9307 48.1394
20.976 48.3451
21.0215 48.2207
21.0668 48.7473
21.1122 49.1553
21.1575 49.7369
21.203 50.49
21.2483 51.0585
21.2938 51.0443
21.3391 49.6393
21.3846 48.6543
21.4299 48.0463
21.4754 48.194
21.5207 48.1299
21.5662 48.3211
21.6116 48.5417
21.6571 49.3019
21.7024 50.3323
21.7479 52.097
21.7933 54.6703
21.8388 58.5673
21.8843 62.1005
21.9297 64.0596
21.9752 62.9167
22.0206 59.2425
22.0661 56.2903
22.1115 55.7068
22.157 55.5738
22.2024 54.0346
22.248 51.2798
22.2933 49.5719
22.3389 48.8808
22.3843 48.7322
22.4299 48.6719
22.4753 48.6186
22.5208 48.4854
22.5662 48.1364
22.6118 48.3771
22.6572 48.4786
22.7028 48.7866
22.7483 49.0997
22.7939 49.8451
22.8393 51.5694
22.8849 53.7034
22.9303 55.7591
22.9759 57.6039
23.0214 57.1376
23.067 54.2242
23.1126 50.9252
23.1581 49.1394
23.2037 48.6048
23.2492 48.4928
23.2948 48.392
23.3403 48.5933
23.3859 49.2218
23.4314 50.3367
23.477 52.3183
23.5225 54.4209
23.5682 56.8239
23.6137 57.6185
23.6593 55.4489
23.7048 51.5306
23.7505 48.0563
23.796 46.4184
23.8417 45.7269
23.8872 45.3828
23.9329 44.911
23.9784 44.6262
24.0241 44.3739
24.0697 44.2047
24.1154 43.9993
24.1609 43.7751
24.2066 43.6644
24.2522 43.5145
24.2979 43.2927
24.3434 43.0948
24.3892 42.9264
24.4349 43.0078
24.4805 42.7666
24.5262 42.8396
24.5718 42.6849
24.6175 42.6661
24.6631 42.5105
24.7089 42.3739
24.7545 42.1965
24.8002 42.07
24.8458 41.8184
24.8916 41.8111
24.9372 41.9758
24.983 42.2279
25.0286 42.5033
25.0744 42.8511
25.12 43.5017
25.1658 44.0913
25.2114 44.4213
25.2572 44.5827
25.3029 44.5396
25.3487 44.7893
25.3943 44.4098
25.4402 43.3152
25.4858 42.3539
25.5316 41.4152
25.5773 40.5975
25.6231 40.6418
25.669 40.2804
25.7147 40.2621
25.7605 40.2037
25.8062 40.3473
25.8521 40.3845
25.8977 40.2911
25.9436 40.5234
25.9893 40.7698
26.0352 41.2031
26.0809 41.3272
26.1268 41.4742
26.1725 41.3104
26.2184 40.5035
26.2641 40.0538
26.31 39.8854
26.3557 39.8184
26.4017 39.8022
26.4474 40.1572
26.4933 40.5024
26.5391 40.8246
26.585 41.3877
26.6308 41.8783
26.6767 41.8381
26.7225 41.6878
26.7684 41.2463
26.8142 40.7247
26.8601 40.2131
26.9059 39.7996
26.9519 39.2252
26.9979 39.1026
27.0437 38.6306
27.0896 38.5297
27.1354 38.5821
27.1814 38.3911
27.2272 38.3593
27.2732 38.2786
27.3191 38.023
27.3651 38.1983
27.4109 38.135
27.4569 38.2308
27.5027 38.4235
27.5488 38.4226
27.5946 38.1514
27.6407 38.0229
27.6865 37.9704
27.7326 37.6035
27.7784 37.6744
27.8245 37.5963
27.8703 37.7151
27.9164 38.027
27.9623 38.1005
28.0084 38.5068
28.0543 38.9767
28.1003 38.8125
28.1462 38.6585
28.1923 38.2943
28.2384 37.7841
28.2843 37.453
28.3304 36.8657
28.3764 36.6068
28.4225 36.279
28.4684 36.106
28.5145 35.8248
28.5605 35.6529
28.6066 35.4987
28.6526 35.3587
28.6987 35.3599
28.7447 35.324
28.7908 35.2279
28.8368 35.3608
28.8829 35.2683
28.9289 35.1777
28.9751 35.1389
29.0211 34.829
29.0673 34.4753
29.1133 34.3637
29.1595 34.1577
29.2055 34.1366
29.2517 34.1382
29.2977 34.1368
29.3439 34.0048
29.3899 34.0294
29.4361 33.8897
29.4824 33.8288
29.5284 33.5486
29.5746 33.2386
29.6207 32.9529
29.6669 33.0028
29.713 32.914
29.7593 32.7542
29.8053 32.7139
29.8516 32.7138
29.8977 32.5676
29.9439 32.5668
29.99 32.362
30.0363 32.2581
30.0824 32.4647
30.1287 32.3208
30.1748 32.1815
30.2211 32.2268
30.2673 32.0711
30.3136 32.1816
30.3597 32.0777
30.406 32.047
30.4522 31.8486
30.4985 31.8802
30.5447 31.877
30.591 31.8698
30.6372 31.9985
30.6835 31.9911
30.7297 32.0525
30.7761 32.0134
30.8224 31.7642
30.8686 31.6985
30.915 31.4379
30.9612 31.3488
31.0076 31.198
31.0538 31.043
31.1002 30.9675
31.1464 30.7918
31.1928 30.7602
31.2391 30.7527
31.2855 30.7735
31.3317 30.7362
31.3781 30.788
31.4244 30.7843
31.4708 30.715
31.5171 30.5419
31.5636 30.5265
31.6098 30.271
31.6563 30.2074
31.7026 30.0519
31.7491 29.9393
31.7953 29.9947
31.8418 29.965
31.8881 30.0014
31.9346 29.9365
31.9809 29.9233
32.0275 29.7283
32.074 29.7136
32.1203 29.4445
32.1668 29.3036
32.2132 29.2461
32.2597 29.046
32.306 28.9602
32.3526 28.8881
32.399 28.7185
32.4455 28.6717
32.4919 28.6256
32.5385 28.5526
32.5848 28.2942
32.6314 28.3664
32.6778 28.217
32.7244 28.1032
32.7708 28.0315
32.8174 28.0329
32.8638 27.8496
32.9104 27.9335
32.9569 27.7338
33.0035 27.6748
33.0499 27.7096
33.0966 27.6113
33.143 27.6818
33.1897 27.5256
33.2361 27.5142
33.2828 27.4148
33.3293 27.2721
33.3759 27.1735
33.4226 27.0834
33.4691 27.0435
33.5158 26.9754
33.5623 26.7774
33.609 26.5642
33.6555 26.4719
33.7022 26.4835
33.7487 26.371
33.7954 26.3993
33.842 26.2188
33.8887 26.2072
33.9353 26.0772
33.982 26.0402
34.0286 25.9857
34.0753 25.8355
34.1219 25.7373
34.1687 25.7441
34.2152 25.6215
34.262 25.5254
34.3086 25.3862
34.3554 25.4274
34.402 25.2585
34.4488 25.1578
34.4954 25.1768
34.5422 24.9592
34.5889 24.9018
34.6357 24.8269
34.6825 24.6729
34.7292 24.6967
34.776 24.6698
34.8227 24.5881
34.8695 24.5082
34.9162 24.5191
34.9631 24.3753
35.0098 24.3789
35.0566 24.1854
35.1033 24.2143
35.1502 24.1085
35.1969 24.0305
35.2438 24.0069
35.2906 23.9545
35.3375 23.9598
35.3842 23.8892
35.4311 23.8431
35.4779 23.812
35.5248 23.7162
35.5716 23.6091
35.6185 23.5097
35.6653 23.5598
35.7123 23.3296
35.759 23.3511
35.806 23.3091
35.8528 23.1012
35.8998 23.1473
35.9468 22.9434
35.9936 23.0051
36.0406 22.9312
36.0874 22.8974
36.1345 22.7618
36.1813 22.6953
36.2283 22.6035
36.2752 22.4849
36.3222 22.601
36.3691 22.4307
36.4161 22.3188
36.463 22.3604
36.5101 22.3475
36.557 22.1988
36.6041 22.024
36.651 22.1112
36.6981 21.9509
36.745 21.9842
36.7921 21.8888
36.839 21.7318
36.8861 21.7602
36.9331 21.6364
36.9802 21.5606
37.0272 21.4843
37.0743 21.4493
37.1213 21.4083
37.1684 21.25
37.2154 21.1649
37.2626 21.094
37.3098 21.0551
37.3568 21.0026
37.404 20.9525
37.451 20.9144
37.4982 20.8304
37.5452 20.7051
37.5924 20.6553
37.6395 20.712
37.6867 20.5094
37.7337 20.5597
37.781 20.4166
37.8281 20.3293
37.8753 20.2738
37.9224 20.2365
37.9697 20.2595
38.0168 20.0871
38.064 19.9831
38.1111 19.9856
38.1584 19.9029
38.2056 19.8925
38.2529 19.7707
38.3 19.7505
38.3473 19.759
38.3945 19.6026
38.4418 19.5771
38.489 19.5181
38.5363 19.3997
38.5837 19.3489
38.6309 19.3446
38.6782 19.1584
38.7254 19.0978
38.7728 19.1408
38.82 19.0227
38.8674 18.9738
38.9146 18.9404
38.9621 18.8343
39.0093 18.8503
39.0567 18.7726
39.104 18.7642
39.1514 18.5795
39.1987 18.5681
39.2461 18.4993
39.2934 18.4908
39.3409 18.3948
39.3882 18.2912
39.4356 18.2693
39.483 18.2055
39.5304 18.1525
39.5778 18.1503
39.6253 18.0415
39.6726 18.0237
39.7201 17.9795
39.7675 17.8939
39.815 17.8439
39.8624 17.7302
39.9099 17.7379
39.9575 17.6825
40.0049 17.6234
40.0525 17.5057
40.0999 17.5101
40.1474 17.4169
40.1949 17.3481
40.2425 17.3737
40.2899 17.3209
40.3375 17.2254
40.385 17.1251
40.4326 17.0882
40.48 16.9963
40.5277 17.0457
40.5752 17.0155
40.6228 16.8857
40.6703 16.7948
40.718 16.7688
40.7655 16.7504
40.8132 16.6479
40.8607 16.6584
40.9084 16.5329
40.9559 16.5345
41.0036 16.5258
41.0512 16.4531
41.0989 16.4017
41.1465 16.3024
41.1942 16.3112
41.242 16.1578
41.2896 16.1521
41.3373 16.0642
41.3849 16.054
41.4327 16.0506
41.4803 15.9345
41.5281 15.8937
41.5758 15.8132
41.6236 15.7788
41.6712 15.6919
41.7191 15.6547
41.7667 15.5796
41.8146 15.5918
41.8622 15.4992
41.9101 15.4669
41.9578 15.3699
42.0057 15.3522
42.0534 15.3207
42.1013 15.2837
42.149 15.2049
42.1969 15.1442
42.2446 15.1155
42.2925 15.0972
42.3403 14.9958
42.3882 14.9209
42.436 14.9095
42.4839 14.8551
42.5319 14.7901
42.5797 14.7212
42.6277 14.7032
42.6755 14.6668
42.7235 14.5666
42.7713 14.5647
42.8193 14.523
42.8671 14.4732
42.9152 14.3824
42.963 14.3685
43.0111 14.2989
43.0589 14.2582
43.107 14.229
43.1549 14.1622
43.2029 14.0832
43.2508 14.0511
43.2989 14.0431
43.3468 13.9506
43.3949 13.8744
43.4429 13.8922
43.491 13.8058
43.5389 13.8295
43.5871 13.7153
43.635 13.668
43.6832 13.5917
43.7312 13.5364
43.7793 13.5256
43.8273 13.4918
43.8755 13.477
43.9237 13.461
43.9717 13.3661
44.0199 13.3333
44.068 13.3337
44.1162 13.2021
44.1642 13.2055
44.2125 13.1618
44.2606 13.09
44.3088 12.9853
44.3569 12.9805
44.4052 12.9584
44.4533 12.8675
44.5016 12.8562
44.5497 12.8284
44.598 12.7354
44.6461 12.6773
44.6945 12.6631
44.7426 12.6152
44.791 12.5788
44.8391 12.5427
44.8875 12.5071
44.9357 12.4792
44.984 12.4025
45.0322 12.4047
45.0806 12.2996
45.1288 12.2936
45.1773 12.2525
45.2257 12.1775
45.2739 12.1276
45.3224 12.1133
45.3706 12.0685
45.4191 11.973
45.4673 11.9616
45.5158 11.9082
45.5641 11.8926
45.6126 11.845
45.6609 11.813
45.7094 11.78
45.7577 11.7721
45.8063 11.6328
45.8546 11.6196
45.9031 11.6235
45.9515 11.5652
46.0001 11.5259
46.0484 11.4674
46.097 11.4256
46.1454 11.4577
46.194 11.3917
46.2424 11.2956
46.291 11.2552
46.3395 11.2214
46.3881 11.1673
46.4365 11.1613
46.4852 11.1052
46.5337 11.0386
46.5823 11.0617
46.631 10.9595
46.6795 10.9235
46.7282 10.8945
46.7767 10.8581
46.8254 10.7906
46.8739 10.8036
46.9226 10.7517
46.9712 10.6983
47.0199 10.6647
47.0685 10.6012
47.1173 10.6204
47.1658 10.5519
47.2146 10.5078
47.2632 10.4822
47.312 10.459
47.3606 10.3967
47.4095 10.3497
47.4581 10.3199
47.5069 10.2655
47.5556 10.2609
47.6044 10.1787
47.6531 10.152
47.702 10.0764
47.7507 10.0747
47.7996 10.0202
47.8483 10.024
47.8972 9.99562
47.9461 9.94784
47.9948 9.88445
48.0438 9.84311
48.0925 9.82429
48.1415 9.84775
48.1902 9.76449
48.2392 9.72691
48.288 9.69459
48.337 9.66708
48.3858 9.6109
48.4348 9.56535
48.4837 9.55126
48.5327 9.522
48.5815 9.49571
48.6306 9.48081
48.6795 9.4393
48.7285 9.4009
48.7774 9.33549
48.8265 9.31722
48.8754 9.24369
48.9245 9.2614
48.9734 9.16102
49.0226 9.14941
49.0715 9.18021
49.1206 9.09424
49.1696 9.08816
49.2188 9.02208
49.2679 8.98548
49.3169 8.9817
49.3661 8.93158
49.4151 8.86475
49.4643 8.85857
49.5134 8.84907
49.5626 8.7947
49.6117 8.75016
49.6609 8.74594
49.71 8.67337
49.7592 8.64277
49.8083 8.60191
49.8576 8.59316
49.9067 8.56994
49.956 8.51274
50.0052 8.48701
50.0545 8.46642
50.1036 8.39989
50.153 8.37795
50.2022 8.42507
50.2515 8.33663
50.3007 8.29784
50.3501 8.3027
50.3993 8.24907
50.4487 8.23849
50.498 8.18119
50.5474 8.15066
50.5966 8.09931
50.6461 8.0705
50.6955 8.06796
50.7448 8.04675
50.7943 7.99827
50.8436 7.9643
50.8931 7.92383
50.9424 7.92691
50.9919 7.85112
51.0413 7.83745
51.0908 7.80387
51.1402 7.75567
51.1897 7.722
51.2391 7.70734
51.2887 7.68185
51.3381 7.63881
51.3877 7.65244
51.4371 7.57966
51.4867 7.54405
51.5362 7.55631
51.5858 7.51415
51.6353 7.46018
51.6849 7.43866
51.7344 7.37359
51.7841 7.36141
51.8336 7.34653
51.8833 7.33412
51.9328 7.2491
51.9826 7.26368
52.0323 7.19831
52.0818 7.15937
52.1316 7.13492
52.1812 7.13018
52.231 7.07088
52.2806 7.08182
52.3304 7.03293
52.38 6.99229
52.4298 6.99124
52.4794 6.95049
52.5293 6.90314
52.5789 6.93009
52.6288 6.89335
52.6785 6.83
52.7284 6.81582
52.7781 6.77906
52.828 6.77829
52.8777 6.69909
52.9276 6.69611
52.9774 6.66782
53.0273 6.62674
53.0771 6.60762
53.1271 6.60012
53.1769 6.53523
53.2269 6.50794
53.2767 6.47301
53.3267 6.49747
53.3765 6.4796
53.4266 6.45469
53.4766 6.41811
53.5265 6.34194
53.5765 6.33455
53.6264 6.29113
53.6765 6.3026
53.7264 6.2621
53.7765 6.21929
53.8265 6.18825
53.8766 6.19346
53.9266 6.17429
53.9767 6.13043
54.0267 6.10874
54.0769 6.11386
54.1269 6.04095
54.1771 5.99153
54.2271 5.94457
54.2773 5.92716
54.3274 5.9048
54.3776 5.86209
54.4277 5.85539
54.478 5.84443
54.528 5.77503
54.5783 5.72389
54.6285 5.68513
54.6788 5.67915
54.7289 5.61102
54.7792 5.59301
54.8296 5.5093
54.8798 5.51194
54.9301 5.41753
54.9803 5.44161
55.0307 5.34783
55.0809 5.36128
55.1314 5.29943
55.1816 5.2705
55.232 5.22473
55.2823 5.18535
55.3328 5.12464
55.383 5.03162
55.4335 5.02973
55.4838 4.98324
55.5344 4.92676
55.5847 4.93376
55.6352 4.86447
55.6856 4.87294
55.7361 4.77831