File: XRD/Ni3Fe_FD0855.xy
TT I
1.27165 7.31753
1.31627 6.74249
1.36089 6.77398
1.40551 6.12636
1.45013 6.09506
1.49476 5.75776
1.53938 5.55586
1.584 4.91536
1.62863 5.03347
1.67325 4.66774
1.71787 4.74596
1.7625 5.04762
1.80712 4.79186
1.85174 5.1149
1.89636 4.84039
1.94099 4.80151
1.98562 4.68678
2.03025 4.34604
2.07487 4.60134
2.11949 4.79647
2.16411 4.91921
2.20874 14.0678
2.25338 22.3342
2.298 6.16287
2.34263 5.35374
2.38725 6.25983
2.43188 5.96382
2.4765 7.25736
2.52115 7.18613
2.56577 8.3485
2.6104 8.32023
2.65503 7.83824
2.69965 8.50966
2.7443 8.57356
2.78893 8.61045
2.83356 8.87463
2.87818 9.09177
2.92281 8.88425
2.96744 9.91452
3.01209 10.2731
3.05672 11.341
3.10135 12.2301
3.14599 13.148
3.19062 14.5925
3.23527 15.4332
3.2799 15.699
3.32454 16.9132
3.36917 17.8405
3.4138 18.7299
3.45844 19.3534
3.50309 20.7187
3.54773 21.4765
3.59237 24.0476
3.637 89.6612
3.68164 57.3052
3.7263 26.2556
3.77094 26.0098
3.81558 26.3826
3.86022 27.621
3.90486 28.5574
3.9495 29.2414
3.99416 30.7498
4.0388 31.6265
4.08344 33.2835
4.12809 34.3875
4.17273 36.7418
4.21738 42.4453
4.26204 241.914
4.30669 212.904
4.35133 48.142
4.39598 44.1433
4.44063 53.4208
4.4853 64.6147
4.52995 49.9831
4.5746 50.7046
4.61925 52.6853
4.6639 54.9745
4.70855 57.4131
4.75322 60.3297
4.79788 62.9355
4.84253 66.282
4.88719 70.2829
4.93184 73.7678
4.97652 79.2444
5.02118 85.1276
5.06583 92.5603
5.11049 102.518
5.15515 163.996
5.19981 296.389
5.24449 2494.54
5.28916 12486.6
5.33382 2711.78
5.37848 176.496
5.42315 124.896
5.46783 111.613
5.5125 104.051
5.55716 100.392
5.60183 96.732
5.6465 95.4441
5.69117 92.8349
5.73586 90.7295
5.78053 90.1169
5.8252 89.2997
5.86988 90.1264
5.91455 91.448
5.95924 97.756
6.00392 176.729
6.0486 837.243
6.09328 4374.61
6.13795 3243.8
6.18263 223.387
6.22733 90.7897
6.27201 81.8672
6.3167 100.674
6.36138 79.7231
6.40606 68.2346
6.45075 66.3807
6.49545 64.3981
6.54014 63.0047
6.58483 62.2384
6.62952 62.3382
6.67421 92.5475
6.71892 138.84
6.76361 67.9434
6.8083 57.9726
6.853 56.8703
6.89769 56.2376
6.94239 56.1277
6.98711 55.0477
7.03181 54.7304
7.07651 54.3882
7.12121 54.5027
7.16591 54.6619
7.21063 55.2004
7.25533 70.1882
7.30004 173.287
7.34475 89.4505
7.38945 55.9838
7.43416 53.8843
7.47889 54.0725
7.5236 54.3118
7.56831 54.9686
7.61303 56.7159
7.65774 56.7187
7.70247 55.3857
7.74719 55.6729
7.79191 56.044
7.83663 56.6273
7.88135 57.338
7.92607 57.8392
7.97081 58.9727
8.01553 60.0224
8.06026 61.3517
8.10498 63.1513
8.14971 72.1622
8.19446 71.2569
8.23919 68.6717
8.28392 70.8088
8.32865 72.9064
8.37339 77.003
8.41812 83.7647
8.46288 110.36
8.50761 147.192
8.55235 344.244
8.59709 1135.94
8.64183 2224.81
8.68658 929.054
8.73134 170.202
8.77609 97.6468
8.82083 91.3984
8.86558 88.3967
8.91033 88.7129
8.9551 90.489
8.99985 84.3468
9.04461 82.7341
9.08936 81.7595
9.13412 80.8592
9.17888 80.7514
9.22365 82.0598
9.26841 80.9585
9.31318 81.1253
9.35794 81.5775
9.4027 82.1437
9.44749 82.7441
9.49226 83.5876
9.53703 84.4957
9.5818 86.0309
9.62657 90.6262
9.67134 97.0821
9.71614 92.5468
9.76091 92.2985
9.80569 94.847
9.85047 98.4389
9.89525 121.513
9.94005 131.95
9.98484 159.711
10.0296 309.109
10.0744 784.804
10.1192 1768.12
10.164 1569.47
10.2088 397.481
10.2536 124.316
10.2984 111.471
10.3432 113.131
10.388 102.666
10.4328 112.824
10.4776 151.335
10.5224 275.472
10.5672 530.271
10.612 503.867
10.6568 201.087
10.7017 95.6728
10.7465 85.485
10.7913 82.2509
10.8361 79.8938
10.8809 78.18
10.9257 77.4018
10.9706 77.8618
11.0154 73.9504
11.0602 72.1503
11.105 71.0167
11.1499 75.225
11.1947 82.364
11.2395 73.3616
11.2844 69.2538
11.3292 66.3281
11.374 65.4053
11.4189 64.6896
11.4637 63.9819
11.5086 64.8647
11.5534 67.2934
11.5983 64.4902
11.6431 62.8981
11.688 62.1417
11.7328 62.0755
11.7777 62.0525
11.8225 61.8474
11.8674 61.7518
11.9122 61.9446
11.9571 62.0304
12.002 62.5711
12.0468 65.7567
12.0917 75.8016
12.1366 99.0869
12.1814 154.215
12.2263 212.109
12.2712 168.224
12.3161 94.8167
12.3609 69.5744
12.4058 63.869
12.4507 63.5873
12.4956 63.521
12.5405 63.8587
12.5853 64.6084
12.6302 72.1305
12.6751 77.2999
12.72 68.864
12.7649 66.7606
12.8098 67.3967
12.8547 68.7049
12.8996 69.9496
12.9445 71.3411
12.9894 72.9673
13.0343 74.4528
13.0792 77.5526
13.1242 84.8265
13.1691 105.736
13.214 140.565
13.2589 233.862
13.3038 375.685
13.3487 423.09
13.3937 256.851
13.4386 121.389
13.4835 101.251
13.5285 114.692
13.5734 152.524
13.6183 249.395
13.6633 360.328
13.7082 334.893
13.7531 182.062
13.7981 96.1486
13.843 80.5584
13.888 78.4934
13.9329 75.8953
13.9779 74.8896
14.0228 73.5987
14.0678 71.987
14.1127 71.6598
14.1577 71.4185
14.2027 70.1818
14.2476 69.5382
14.2926 69.4847
14.3376 70.6567
14.3825 69.3601
14.4275 67.8658
14.4725 67.5739
14.5175 67.9419
14.5624 67.944
14.6074 69.988
14.6524 70.5236
14.6974 69.2719
14.7424 70.4994
14.7874 75.6865
14.8324 85.4766
14.8774 106.87
14.9224 152.724
14.9674 211.866
15.0124 216.856
15.0574 146.972
15.1024 89.7531
15.1474 71.2604
15.1924 69.4277
15.2374 70.0193
15.2824 69.3826
15.3274 67.0767
15.3725 66.0317
15.4175 65.349
15.4625 65.1308
15.5076 65.4461
15.5526 65.45
15.5976 64.8761
15.6426 65.2018
15.6877 69.8843
15.7327 76.5412
15.7778 91.4086
15.8228 124.722
15.8679 171.877
15.9129 194.08
15.958 153.143
16.003 93.2076
16.0481 67.1518
16.0931 63.6016
16.1382 61.736
16.1833 59.6611
16.2283 58.2213
16.2734 57.8775
16.3185 57.9148
16.3636 58.6599
16.4086 57.1195
16.4537 55.5373
16.4988 54.7113
16.5439 54.623
16.589 54.4427
16.6341 54.2523
16.6792 53.7795
16.7243 54.2109
16.7694 54.2992
16.8145 54.1227
16.8596 54.4795
16.9047 56.0159
16.9498 56.2922
16.9949 54.9238
17.04 54.8421
17.0851 56.1638
17.1302 57.448
17.1754 60.596
17.2205 65.5569
17.2656 74.049
17.3108 82.7096
17.3559 81.322
17.401 70.1953
17.4462 61.1179
17.4913 58.2273
17.5365 58.3861
17.5815 58.4808
17.6268 58.75
17.6718 59.3536
17.7171 59.9682
17.7622 60.4309
17.8074 60.748
17.8525 62.5864
17.8977 66.375
17.9428 71.4055
17.9881 80.2902
18.0331 98.5857
18.0784 121.474
18.1237 137.817
18.1688 127.348
18.214 100.605
18.2591 84.6985
18.3044 90.1308
18.3495 100.394
18.3948 104.525
18.4399 93.7378
18.4852 76.2062
18.5303 64.8689
18.5756 61.2408
18.6207 60.513
18.666 59.5873
18.7112 58.9994
18.7565 58.1289
18.8016 57.8036
18.8469 57.2347
18.892 56.8317
18.9374 56.4864
18.9825 56.2552
19.0278 56.0915
19.073 56.1858
19.1183 56.4445
19.1635 57.1003
19.2088 58.4797
19.254 60.9115
19.2993 66.0026
19.3447 72.2076
19.3898 75.7212
19.4352 70.8441
19.4804 62.2419
19.5257 55.9206
19.5709 53.7487
19.6163 53.2806
19.6615 53.0051
19.7068 52.4255
19.752 52.5474
19.7974 53.1158
19.8426 53.6482
19.888 54.2129
19.9332 55.4866
19.9786 58.0174
20.0238 61.5162
20.0692 66.6994
20.1144 68.8967
20.1598 66.9184
20.205 62.3379
20.2504 61.4437
20.2957 63.7501
20.3411 64.9509
20.3863 63.013
20.4318 57.3661
20.477 53.0195
20.5224 51.0067
20.5677 50.3213
20.6131 49.5323
20.6586 49.0566
20.7038 48.9356
20.7493 48.4027
20.7945 48.4509
20.84 48.076
20.8853 47.9401
20.9307 47.757
20.976 48.2297
21.0215 47.956
21.0668 48.1437
21.1122 48.8379
21.1575 49.6514
21.203 50.2156
21.2483 50.8583
21.2938 50.7442
21.3391 49.3897
21.3846 48.4526
21.4299 47.7799
21.4754 47.8269
21.5207 47.8073
21.5662 48.0526
21.6116 48.3462
21.6571 49.0643
21.7024 50.088
21.7479 51.6768
21.7933 54.5223
21.8388 58.3893
21.8843 62.2109
21.9297 63.6753
21.9752 62.0402
22.0206 58.4844
22.0661 56.0034
22.1115 55.6609
22.157 55.0971
22.2024 53.3619
22.248 50.7689
22.2933 49.2263
22.3389 48.4247
22.3843 48.3757
22.4299 48.2052
22.4753 48.2545
22.5208 47.9573
22.5662 47.8237
22.6118 48.0624
22.6572 48.1067
22.7028 48.6192
22.7483 48.7787
22.7939 49.5578
22.8393 51.2566
22.8849 53.4304
22.9303 55.8218
22.9759 57.316
23.0214 56.4247
23.067 53.7241
23.1126 50.5193
23.1581 48.6144
23.2037 48.1434
23.2492 48.0301
23.2948 48.1231
23.3403 48.3549
23.3859 48.9712
23.4314 50.1171
23.477 51.8799
23.5225 54.2616
23.5682 56.6924
23.6137 57.2919
23.6593 54.8162
23.7048 50.8885
23.7505 47.7054
23.796 46.1256
23.8417 45.3933
23.8872 44.9266
23.9329 44.6468
23.9784 44.2952
24.0241 44.1873
24.0697 43.838
24.1154 43.605
24.1609 43.4579
24.2066 43.3851
24.2522 43.2151
24.2979 42.8746
24.3434 42.8646
24.3892 42.5912
24.4349 42.6464
24.4805 42.3293
24.5262 42.6347
24.5718 42.411
24.6175 42.4502
24.6631 42.1335
24.7089 41.9775
24.7545 41.9385
24.8002 41.6717
24.8458 41.6731
24.8916 41.4418
24.9372 41.6385
24.983 41.9062
25.0286 42.2654
25.0744 42.8555
25.12 43.139
25.1658 43.7308
25.2114 44.1417
25.2572 44.2017
25.3029 44.4129
25.3487 44.3077
25.3943 44.0765
25.4402 42.9602
25.4858 41.9457
25.5316 40.9601
25.5773 40.2768
25.6231 40.4066
25.669 39.9811
25.7147 39.968
25.7605 39.8299
25.8062 40.0405
25.8521 40.1484
25.8977 40.0128
25.9436 40.2896
25.9893 40.5581
26.0352 41.0157
26.0809 41.0517
26.1268 41.0553
26.1725 40.748
26.2184 40.2836
26.2641 39.6702
26.31 39.5877
26.3557 39.4924
26.4017 39.5942
26.4474 39.8573
26.4933 40.207
26.5391 40.7299
26.585 41.1399
26.6308 41.5228
26.6767 41.6446
26.7225 41.4231
26.7684 40.8328
26.8142 40.3116
26.8601 39.8648
26.9059 39.4707
26.9519 38.8534
26.9979 38.668
27.0437 38.3527
27.0896 38.2266
27.1354 38.2281
27.1814 38.1104
27.2272 38.0884
27.2732 38.0281
27.3191 37.7766
27.3651 37.8897
27.4109 37.8169
27.4569 37.9821
27.5027 38.0442
27.5488 38.0995
27.5946 37.7941
27.6407 37.6769
27.6865 37.6164
27.7326 37.4026
27.7784 37.4318
27.8245 37.2285
27.8703 37.4919
27.9164 37.7913
27.9623 37.8661
28.0084 38.2588
28.0543 38.648
28.1003 38.4563
28.1462 38.3504
28.1923 38.1622
28.2384 37.4437
28.2843 37.13
28.3304 36.7701
28.3764 36.266
28.4225 35.9498
28.4684 35.786
28.5145 35.4835
28.5605 35.349
28.6066 35.1969
28.6526 35.2477
28.6987 35.2412
28.7447 35.0465
28.7908 35.0157
28.8368 34.9707
28.8829 34.9798
28.9289 34.8892
28.9751 34.6793
29.0211 34.4608
29.0673 34.2022
29.1133 34.1639
29.1595 33.9632
29.2055 33.7731
29.2517 33.912
29.2977 33.9273
29.3439 33.912
29.3899 33.8445
29.4361 33.7239
29.4824 33.4891
29.5284 33.2963
29.5746 33.0711
29.6207 32.6762
29.6669 32.5505
29.713 32.5449
29.7593 32.4219
29.8053 32.4012
29.8516 32.4061
29.8977 32.4616
29.9439 32.1158
29.99 32.1843
30.0363 32.022
30.0824 32.0261
30.1287 31.951
30.1748 32.0884
30.2211 31.9996
30.2673 31.8379
30.3136 31.9499
30.3597 31.8291
30.406 31.7177
30.4522 31.6053
30.4985 31.5518
30.5447 31.7623
30.591 31.7617
30.6372 31.7797
30.6835 31.7338
30.7297 31.8151
30.7761 31.7581
30.8224 31.5801
30.8686 31.4728
30.915 31.2761
30.9612 31.0677
31.0076 30.8396
31.0538 30.7485
31.1002 30.7553
31.1464 30.4983
31.1928 30.5012
31.2391 30.5742
31.2855 30.4741
31.3317 30.3565
31.3781 30.4927
31.4244 30.5807
31.4708 30.4455
31.5171 30.4499
31.5636 30.3507
31.6098 30.1345
31.6563 29.9208
31.7026 29.8961
31.7491 29.7165
31.7953 29.8291
31.8418 29.7891
31.8881 29.793
31.9346 29.8293
31.9809 29.5591
32.0275 29.5377
32.074 29.4299
32.1203 29.2337
32.1668 29.1959
32.2132 28.952
32.2597 28.8417
32.306 28.7816
32.3526 28.6668
32.399 28.5625
32.4455 28.3331
32.4919 28.2872
32.5385 28.2613
32.5848 28.1066
32.6314 28.1231
32.6778 28.0916
32.7244 27.9219
32.7708 27.8092
32.8174 27.8125
32.8638 27.5562
32.9104 27.6822
32.9569 27.6514
33.0035 27.4794
33.0499 27.4757
33.0966 27.4575
33.143 27.4965
33.1897 27.3016
33.2361 27.2131
33.2828 27.2986
33.3293 27.0307
33.3759 26.9692
33.4226 26.8329
33.4691 26.7989
33.5158 26.6761
33.5623 26.5594
33.609 26.3921
33.6555 26.3636
33.7022 26.2891
33.7487 26.2098
33.7954 26.1925
33.842 26.0905
33.8887 25.9664
33.9353 25.968
33.982 25.822
34.0286 25.7374
34.0753 25.683
34.1219 25.5613
34.1687 25.5863
34.2152 25.4957
34.262 25.3715
34.3086 25.2612
34.3554 25.1886
34.402 25.1107
34.4488 25.0016
34.4954 24.9714
34.5422 24.8798
34.5889 24.7521
34.6357 24.6777
34.6825 24.6461
34.7292 24.5543
34.776 24.3978
34.8227 24.435
34.8695 24.3578
34.9162 24.3052
34.9631 24.1932
35.0098 24.2402
35.0566 24.0668
35.1033 23.9631
35.1502 23.9725
35.1969 23.8624
35.2438 23.8769
35.2906 23.8125
35.3375 23.7584
35.3842 23.6501
35.4311 23.6509
35.4779 23.6815
35.5248 23.6265
35.5716 23.5422
35.6185 23.3981
35.6653 23.2471
35.7123 23.2862
35.759 23.1161
35.806 23.0653
35.8528 22.9943
35.8998 22.9507
35.9468 22.8632
35.9936 22.74
36.0406 22.6735
36.0874 22.7261
36.1345 22.6233
36.1813 22.496
36.2283 22.5033
36.2752 22.3578
36.3222 22.3349
36.3691 22.2859
36.4161 22.1531
36.463 22.1985
36.5101 22.1408
36.557 22.0385
36.6041 21.9079
36.651 21.8894
36.6981 21.8297
36.745 21.849
36.7921 21.6934
36.839 21.6146
36.8861 21.5145
36.9331 21.4409
36.9802 21.3295
37.0272 21.3189
37.0743 21.2657
37.1213 21.1687
37.1684 21.159
37.2154 21.0559
37.2626 21.0032
37.3098 20.9084
37.3568 20.8855
37.404 20.7834
37.451 20.6476
37.4982 20.6626
37.5452 20.5917
37.5924 20.5833
37.6395 20.5706
37.6867 20.4885
37.7337 20.3025
37.781 20.2207
37.8281 20.2421
37.8753 20.1379
37.9224 20.087
37.9697 20.0634
38.0168 20.0379
38.064 19.878
38.1111 19.809
38.1584 19.7419
38.2056 19.6918
38.2529 19.703
38.3 19.5382
38.3473 19.5494
38.3945 19.4002
38.4418 19.4363
38.489 19.3762
38.5363 19.2611
38.5837 19.1997
38.6309 19.1269
38.6782 19.0738
38.7254 19.0298
38.7728 18.9743
38.82 18.8892
38.8674 18.8503
38.9146 18.8194
38.9621 18.7719
39.0093 18.7122
39.0567 18.6957
39.104 18.5658
39.1514 18.472
39.1987 18.4753
39.2461 18.3757
39.2934 18.3962
39.3409 18.2748
39.3882 18.1246
39.4356 18.164
39.483 18.1124
39.5304 18.0613
39.5778 18.0198
39.6253 17.9778
39.6726 17.8134
39.7201 17.888
39.7675 17.789
39.815 17.7496
39.8624 17.6321
39.9099 17.625
39.9575 17.5206
40.0049 17.4839
40.0525 17.4249
40.0999 17.3845
40.1474 17.3196
40.1949 17.2236
40.2425 17.1832
40.2899 17.1109
40.3375 17.0741
40.385 17.0314
40.4326 16.9701
40.48 16.9038
40.5277 16.9289
40.5752 16.8295
40.6228 16.6705
40.6703 16.7636
40.718 16.6536
40.7655 16.6335
40.8132 16.5225
40.8607 16.5452
40.9084 16.5079
40.9559 16.4192
41.0036 16.3261
41.0512 16.2987
41.0989 16.3009
41.1465 16.2712
41.1942 16.1624
41.242 16.0083
41.2896 16.0094
41.3373 15.9767
41.3849 15.8885
41.4327 15.8906
41.4803 15.8333
41.5281 15.7498
41.5758 15.6712
41.6236 15.601
41.6712 15.5904
41.7191 15.5388
41.7667 15.4489
41.8146 15.4949
41.8622 15.4212
41.9101 15.3533
41.9578 15.234
42.0057 15.284
42.0534 15.1434
42.1013 15.14
42.149 15.0656
42.1969 15.0893
42.2446 15.0335
42.2925 14.9211
42.3403 14.9154
42.3882 14.868
42.436 14.7924
42.4839 14.7535
42.5319 14.7205
42.5797 14.6607
42.6277 14.6012
42.6755 14.5268
42.7235 14.4615
42.7713 14.5213
42.8193 14.3912
42.8671 14.3388
42.9152 14.3198
42.963 14.2219
43.0111 14.1847
43.0589 14.1158
43.107 14.0425
43.1549 14.0593
43.2029 14.0144
43.2508 13.9573
43.2989 13.9166
43.3468 13.8951
43.3949 13.8023
43.4429 13.7729
43.491 13.7244
43.5389 13.6947
43.5871 13.6342
43.635 13.5701
43.6832 13.5283
43.7312 13.431
43.7793 13.4683
43.8273 13.4046
43.8755 13.3774
43.9237 13.3153
43.9717 13.254
44.0199 13.1916
44.068 13.1848
44.1162 13.0867
44.1642 13.0556
44.2125 13.0213
44.2606 13.039
44.3088 12.9183
44.3569 12.9074
44.4052 12.8285
44.4533 12.7933
44.5016 12.7742
44.5497 12.7314
44.598 12.6552
44.6461 12.6191
44.6945 12.5945
44.7426 12.501
44.791 12.4851
44.8391 12.4469
44.8875 12.4173
44.9357 12.3689
44.984 12.3001
45.0322 12.2766
45.0806 12.2324
45.1288 12.1882
45.1773 12.1443
45.2257 12.1007
45.2739 12.0013
45.3224 12.0027
45.3706 12.0001
45.4191 11.9226
45.4673 11.887
45.5158 11.8743
45.5641 11.8061
45.6126 11.7479
45.6609 11.6985
45.7094 11.6716
45.7577 11.6307
45.8063 11.5783
45.8546 11.5846
45.9031 11.5281
45.9515 11.4772
46.0001 11.4184
46.0484 11.3687
46.097 11.3504
46.1454 11.3412
46.194 11.2762
46.2424 11.2292
46.291 11.1645
46.3395 11.1638
46.3881 11.0997
46.4365 11.0794
46.4852 11.046
46.5337 11.0127
46.5823 10.973
46.631 10.8862
46.6795 10.8451
46.7282 10.8422
46.7767 10.7752
46.8254 10.7658
46.8739 10.7024
46.9226 10.6446
46.9712 10.6309
47.0199 10.5477
47.0685 10.5263
47.1173 10.5376
47.1658 10.4608
47.2146 10.4131
47.2632 10.4222
47.312 10.3275
47.3606 10.2819
47.4095 10.2848
47.4581 10.2444
47.5069 10.2422
47.5556 10.1901
47.6044 10.1117
47.6531 10.0982
47.702 10.0096
47.7507 10.0564
47.7996 9.96131
47.8483 9.93831
47.8972 9.90405
47.9461 9.86559
47.9948 9.80187
48.0438 9.82066
48.0925 9.77747
48.1415 9.73366
48.1902 9.6569
48.2392 9.67229
48.288 9.65816
48.337 9.59614
48.3858 9.55772
48.4348 9.5286
48.4837 9.49758
48.5327 9.45393
48.5815 9.44428
48.6306 9.3936
48.6795 9.33732
48.7285 9.30539
48.7774 9.30626
48.8265 9.22583
48.8754 9.18098
48.9245 9.20035
48.9734 9.15029
49.0226 9.10033
49.0715 9.07893
49.1206 9.05837
49.1696 9.01609
49.2188 9.00754
49.2679 8.9183
49.3169 8.91005
49.3661 8.87084
49.4151 8.82455
49.4643 8.82748
49.5134 8.74099
49.5626 8.71467
49.6117 8.72015
49.6609 8.67557
49.71 8.6053
49.7592 8.62758
49.8083 8.55912
49.8576 8.54515
49.9067 8.47702
49.956 8.48169
50.0052 8.38788
50.0545 8.40156
50.1036 8.34891
50.153 8.31592
50.2022 8.27698
50.2515 8.23637
50.3007 8.19576
50.3501 8.20934
50.3993 8.14761
50.4487 8.13234
50.498 8.1295
50.5474 8.05416
50.5966 8.0293
50.6461 8.01844
50.6955 7.99704
50.7448 7.98205
50.7943 7.93091
50.8436 7.89495
50.8931 7.84725
50.9424 7.82592
50.9919 7.79451
51.0413 7.77579
51.0908 7.74904
51.1402 7.71204
51.1897 7.68844
51.2391 7.6884
51.2887 7.6044
51.3381 7.5858
51.3877 7.54984
51.4371 7.51301
51.4867 7.45136
51.5362 7.4766
51.5858 7.41612
51.6353 7.39815
51.6849 7.40223
51.7344 7.35752
51.7841 7.32661
51.8336 7.26918
51.8833 7.24238
51.9328 7.24455
51.9826 7.16425
52.0323 7.14492
52.0818 7.13038
52.1316 7.04005
52.1812 7.11985
52.231 7.06305
52.2806 7.02532
52.3304 7.00881
52.38 6.95172
52.4298 6.93856
52.4794 6.9023
52.5293 6.87416
52.5789 6.81716
52.6288 6.8187
52.6785 6.77216
52.7284 6.75687
52.7781 6.74983
52.828 6.73144
52.8777 6.69284
52.9276 6.67583
52.9774 6.64495
53.0273 6.60707
53.0771 6.60162
53.1271 6.5803
53.1769 6.49819
53.2269 6.50597
53.2767 6.46164
53.3267 6.40634
53.3765 6.38185
53.4266 6.35531
53.4766 6.34024
53.5265 6.30026
53.5765 6.29151
53.6264 6.30465
53.6765 6.23735
53.7264 6.21471
53.7765 6.22202
53.8265 6.15006
53.8766 6.10069
53.9266 6.09392
53.9767 6.07004
54.0267 6.01936
54.0769 6.02657
54.1269 5.96838
54.1771 5.97113
54.2271 5.94063
54.2773 5.87996
54.3274 5.89414
54.3776 5.84236
54.4277 5.76447
54.478 5.75633
54.528 5.75089
54.5783 5.70899
54.6285 5.60806
54.6788 5.669
54.7289 5.55681
54.7792 5.53466
54.8296 5.49504
54.8798 5.4366
54.9301 5.41521
54.9803 5.41782
55.0307 5.36325
55.0809 5.28726
55.1314 5.27901
55.1816 5.20814
55.232 5.1764
55.2823 5.13723
55.3328 5.09586
55.383 5.01423
55.4335 4.98361
55.4838 4.97473
55.5344 4.88961
55.5847 4.85425
55.6352 4.82703
55.6856 4.78438
55.7361 4.76227