File: XRD/Ni3Fe_FD0730.xy
TT I
1.27165 7.37963
1.31627 6.5611
1.36089 6.41395
1.40551 5.51286
1.45013 6.28771
1.49476 6.42298
1.53938 5.53106
1.584 4.95446
1.62863 5.64541
1.67325 5.01203
1.71787 4.80087
1.7625 4.6457
1.80712 4.842
1.85174 5.4037
1.89636 4.85358
1.94099 4.84463
1.98562 4.8387
2.03025 4.17072
2.07487 4.73416
2.11949 4.76042
2.16411 5.10716
2.20874 13.0026
2.25338 20.6601
2.298 5.97634
2.34263 5.86367
2.38725 6.31417
2.43188 5.95799
2.4765 7.07715
2.52115 6.80058
2.56577 7.74266
2.6104 8.2137
2.65503 7.82491
2.69965 7.87071
2.7443 8.18082
2.78893 7.98738
2.83356 8.25307
2.87818 8.19877
2.92281 8.61157
2.96744 9.1856
3.01209 10.4472
3.05672 11.492
3.10135 12.0571
3.14599 12.8371
3.19062 14.4527
3.23527 15.2505
3.2799 16.2397
3.32454 16.6703
3.36917 17.6981
3.4138 19.1127
3.45844 19.4137
3.50309 20.9095
3.54773 21.6162
3.59237 23.7123
3.637 84.1204
3.68164 54.2431
3.7263 25.8641
3.77094 26.0724
3.81558 26.5329
3.86022 27.2121
3.90486 28.9443
3.9495 30.0423
3.99416 31.0825
4.0388 32.3231
4.08344 33.1581
4.12809 35.0968
4.17273 36.8292
4.21738 41.9169
4.26204 224.846
4.30669 196.811
4.35133 47.7757
4.39598 44.7672
4.44063 53.4997
4.4853 63.5963
4.52995 50.0597
4.5746 50.78
4.61925 53.2415
4.6639 55.5894
4.70855 57.9064
4.75322 60.6067
4.79788 63.728
4.84253 67.1026
4.88719 70.9488
4.93184 74.9883
4.97652 80.5398
5.02118 86.1546
5.06583 94.1411
5.11049 104.95
5.15515 164.99
5.19981 327.613
5.24449 2810.06
5.28916 12587.6
5.33382 2849.32
5.37848 184.957
5.42315 128.373
5.46783 113.448
5.5125 105.111
5.55716 101.45
5.60183 98.2143
5.6465 96.5274
5.69117 93.5479
5.73586 91.8576
5.78053 91.3926
5.8252 91.2821
5.86988 91.2426
5.91455 94.0779
5.95924 100.575
6.00392 195.619
6.0486 931.123
6.09328 4530.43
6.13795 3165.84
6.18263 234.076
6.22733 92.3868
6.27201 82.6195
6.3167 98.4394
6.36138 78.7896
6.40606 68.7886
6.45075 66.9181
6.49545 65.377
6.54014 63.458
6.58483 62.7949
6.62952 62.579
6.67421 90.6857
6.71892 133.005
6.76361 67.1745
6.8083 58.3178
6.853 57.3782
6.89769 56.6227
6.94239 56.1221
6.98711 55.4597
7.03181 55.1127
7.07651 54.7493
7.12121 55.006
7.16591 55.0549
7.21063 55.5204
7.25533 69.1498
7.30004 163.214
7.34475 86.0365
7.38945 56.1351
7.43416 54.4611
7.47889 54.4232
7.5236 54.5885
7.56831 55.3674
7.61303 56.8135
7.65774 57.0323
7.70247 56.0034
7.74719 55.8742
7.79191 56.3356
7.83663 56.7684
7.88135 57.3885
7.92607 58.9806
7.97081 59.4384
8.01553 60.5076
8.06026 62.0881
8.10498 63.8092
8.14971 72.2923
8.19446 71.279
8.23919 69.4531
8.28392 71.6
8.32865 73.7014
8.37339 77.8604
8.41812 84.4701
8.46288 110.244
8.50761 155.868
8.55235 370.712
8.59709 1175.86
8.64183 2150.15
8.68658 965.333
8.73134 163.763
8.77609 99.3349
8.82083 92.1308
8.86558 89.4219
8.91033 89.7176
8.9551 90.5522
8.99985 84.9183
9.04461 83.2774
9.08936 82.531
9.13412 81.6575
9.17888 81.7916
9.22365 82.4124
9.26841 81.9
9.31318 82.0372
9.35794 82.898
9.4027 82.9119
9.44749 83.7671
9.49226 84.2413
9.53703 85.0731
9.5818 87.0572
9.62657 91.3854
9.67134 97.2407
9.71614 93.1696
9.76091 93.2411
9.80569 96.2693
9.85047 99.524
9.89525 121.476
9.94005 131.568
9.98484 169.112
10.0296 332.977
10.0744 819.894
10.1192 1784.34
10.164 1591.5
10.2088 408.72
10.2536 126.462
10.2984 112.241
10.3432 112.969
10.388 103.87
10.4328 115.965
10.4776 157.496
10.5224 286.017
10.5672 522.861
10.612 511.035
10.6568 205.226
10.7017 96.4727
10.7465 86.539
10.7913 83.1412
10.8361 81.2366
10.8809 78.6328
10.9257 78.0491
10.9706 78.2545
11.0154 74.6911
11.0602 72.8044
11.105 71.6581
11.1499 75.6172
11.1947 81.6059
11.2395 73.2019
11.2844 69.7377
11.3292 66.9181
11.374 65.7643
11.4189 65.7225
11.4637 64.7626
11.5086 65.1922
11.5534 67.502
11.5983 65.0795
11.6431 63.7909
11.688 62.5423
11.7328 62.5478
11.7777 62.7287
11.8225 62.2537
11.8674 62.2041
11.9122 62.5714
11.9571 62.5914
12.002 63.2455
12.0468 66.9125
12.0917 77.5232
12.1366 102.028
12.1814 154.379
12.2263 200.052
12.2712 161.857
12.3161 96.2725
12.3609 69.8625
12.4058 64.3253
12.4507 64.1696
12.4956 64.1991
12.5405 64.4816
12.5853 65.3189
12.6302 72.1456
12.6751 76.831
12.72 69.2672
12.7649 67.8041
12.8098 68.1134
12.8547 69.3432
12.8996 70.4863
12.9445 71.9975
12.9894 73.7649
13.0343 75.5192
13.0792 78.3728
13.1242 86.5583
13.1691 109.012
13.214 146.377
13.2589 241.142
13.3038 370.956
13.3487 411.986
13.3937 262.597
13.4386 126.411
13.4835 103.981
13.5285 118.259
13.5734 157.341
13.6183 249.898
13.6633 347.381
13.7082 331.916
13.7531 184.888
13.7981 97.2908
13.843 81.4462
13.888 79.2881
13.9329 76.4698
13.9779 75.5172
14.0228 74.1637
14.0678 72.7992
14.1127 72.5851
14.1577 72.2849
14.2027 71.277
14.2476 70.1186
14.2926 70.2858
14.3376 71.2293
14.3825 69.7919
14.4275 68.514
14.4725 68.2646
14.5175 68.5606
14.5624 68.8548
14.6074 70.6212
14.6524 70.9024
14.6974 70.1929
14.7424 71.5312
14.7874 77.5281
14.8324 87.8643
14.8774 110.352
14.9224 154.766
14.9674 208.014
15.0124 214.379
15.0574 148.877
15.1024 90.9172
15.1474 71.932
15.1924 70.2601
15.2374 70.7336
15.2824 69.7584
15.3274 67.6767
15.3725 66.8562
15.4175 66.2306
15.4625 65.8278
15.5076 65.8534
15.5526 65.9423
15.5976 65.6638
15.6426 66.0319
15.6877 71.5332
15.7327 78.5844
15.7778 94.3724
15.8228 127.858
15.8679 173.038
15.9129 191.535
15.958 153.768
16.003 97.4312
16.0481 68.2532
16.0931 64.3388
16.1382 62.1784
16.1833 60.4079
16.2283 58.6952
16.2734 58.2932
16.3185 58.3098
16.3636 58.8079
16.4086 57.3244
16.4537 56.3673
16.4988 55.3325
16.5439 55.3961
16.589 54.8104
16.6341 54.739
16.6792 54.3359
16.7243 54.8117
16.7694 54.8158
16.8145 54.5127
16.8596 55.1088
16.9047 56.1125
16.9498 56.5292
16.9949 55.4563
17.04 55.3607
17.0851 56.6871
17.1302 58.2622
17.1754 61.2918
17.2205 66.5999
17.2656 74.7481
17.3108 82.5639
17.3559 81.5999
17.401 70.5018
17.4462 62.0871
17.4913 58.9595
17.5365 58.974
17.5815 58.9828
17.6268 59.3526
17.6718 60.1263
17.7171 60.5724
17.7622 61.0793
17.8074 61.7016
17.8525 63.8452
17.8977 67.6142
17.9428 73.1728
17.9881 82.4085
18.0331 100.1
18.0784 122.698
18.1237 138.787
18.1688 130.14
18.214 102.827
18.2591 86.8046
18.3044 91.1307
18.3495 100.031
18.3948 104.571
18.4399 94.957
18.4852 76.8636
18.5303 65.7883
18.5756 62.0907
18.6207 61.1854
18.666 60.2304
18.7112 59.6585
18.7565 58.8247
18.8016 58.3739
18.8469 57.9355
18.892 57.4903
18.9374 56.9948
18.9825 56.8886
19.0278 56.7042
19.073 56.8541
19.1183 57.2183
19.1635 57.8074
19.2088 59.2103
19.254 61.97
19.2993 66.6521
19.3447 73.04
19.3898 75.9048
19.4352 71.3299
19.4804 62.7807
19.5257 56.5958
19.5709 54.1753
19.6163 53.7042
19.6615 53.5327
19.7068 53.1601
19.752 53.1844
19.7974 53.49
19.8426 54.2559
19.888 54.8633
19.9332 56.0264
19.9786 58.4406
20.0238 62.4528
20.0692 67.2511
20.1144 69.6718
20.1598 67.8974
20.205 63.4689
20.2504 62.3149
20.2957 63.8148
20.3411 65.368
20.3863 63.3641
20.4318 58.153
20.477 53.5421
20.5224 51.4577
20.5677 50.7482
20.6131 50.2576
20.6586 49.3751
20.7038 49.3309
20.7493 48.884
20.7945 48.7613
20.84 48.6286
20.8853 48.543
20.9307 48.415
20.976 48.5547
21.0215 48.1997
21.0668 48.8806
21.1122 49.39
21.1575 49.8923
21.203 50.855
21.2483 51.2173
21.2938 51.1479
21.3391 49.9016
21.3846 48.8626
21.4299 48.2745
21.4754 48.2515
21.5207 48.2943
21.5662 48.5685
21.6116 48.9679
21.6571 49.5299
21.7024 50.6935
21.7479 52.4088
21.7933 55.3006
21.8388 58.7888
21.8843 62.6655
21.9297 64.2831
21.9752 62.9492
22.0206 59.3093
22.0661 56.5556
22.1115 55.9552
22.157 55.7786
22.2024 54.0887
22.248 51.438
22.2933 49.6279
22.3389 48.9099
22.3843 48.9014
22.4299 48.6153
22.4753 48.5583
22.5208 48.4932
22.5662 48.3441
22.6118 48.4254
22.6572 48.5169
22.7028 48.8454
22.7483 49.4701
22.7939 50.1191
22.8393 51.855
22.8849 54.2497
22.9303 56.1444
22.9759 57.5331
23.0214 56.9511
23.067 54.2548
23.1126 51.1674
23.1581 49.2098
23.2037 48.6588
23.2492 48.6186
23.2948 48.6677
23.3403 48.7368
23.3859 49.4878
23.4314 50.5399
23.477 52.4395
23.5225 54.8036
23.5682 56.7873
23.6137 57.577
23.6593 55.0693
23.7048 51.5097
23.7505 48.2131
23.796 46.4536
23.8417 45.617
23.8872 45.2808
23.9329 44.8962
23.9784 44.6196
24.0241 44.5366
24.0697 44.4233
24.1154 44.0184
24.1609 43.8549
24.2066 43.7622
24.2522 43.5773
24.2979 43.3037
24.3434 43.1076
24.3892 42.9324
24.4349 43.1274
24.4805 42.7932
24.5262 42.9222
24.5718 42.8026
24.6175 42.627
24.6631 42.7287
24.7089 42.3882
24.7545 42.3419
24.8002 42.0291
24.8458 41.928
24.8916 41.8797
24.9372 41.9253
24.983 42.4465
25.0286 42.726
25.0744 43.2136
25.12 43.6814
25.1658 44.2594
25.2114 44.6559
25.2572 44.4835
25.3029 44.8163
25.3487 44.6436
25.3943 44.3173
25.4402 43.2472
25.4858 42.4256
25.5316 41.3297
25.5773 40.7794
25.6231 40.717
25.669 40.4373
25.7147 40.3452
25.7605 40.3846
25.8062 40.3151
25.8521 40.5341
25.8977 40.3584
25.9436 40.5533
25.9893 40.9138
26.0352 41.4285
26.0809 41.4132
26.1268 41.5004
26.1725 41.1123
26.2184 40.7
26.2641 40.1325
26.31 40.0192
26.3557 39.8657
26.4017 39.9057
26.4474 40.3382
26.4933 40.6531
26.5391 41.1349
26.585 41.5363
26.6308 41.9456
26.6767 41.9898
26.7225 41.8325
26.7684 41.328
26.8142 40.8792
26.8601 40.3182
26.9059 39.8889
26.9519 39.2484
26.9979 39.1478
27.0437 38.6597
27.0896 38.6374
27.1354 38.6633
27.1814 38.4262
27.2272 38.3572
27.2732 38.5212
27.3191 38.2557
27.3651 38.2252
27.4109 38.1889
27.4569 38.4155
27.5027 38.456
27.5488 38.3914
27.5946 38.2364
27.6407 37.9664
27.6865 37.9218
27.7326 37.5893
27.7784 37.7745
27.8245 37.6499
27.8703 37.9442
27.9164 38.1892
27.9623 38.3878
28.0084 38.5949
28.0543 39.0341
28.1003 38.9169
28.1462 38.7191
28.1923 38.4083
28.2384 37.7307
28.2843 37.6024
28.3304 37.0161
28.3764 36.5232
28.4225 36.2788
28.4684 36.0033
28.5145 35.9075
28.5605 35.8012
28.6066 35.4345
28.6526 35.5261
28.6987 35.6163
28.7447 35.3012
28.7908 35.3088
28.8368 35.292
28.8829 35.3489
28.9289 35.2372
28.9751 34.9979
29.0211 34.8339
29.0673 34.5981
29.1133 34.4672
29.1595 34.3049
29.2055 34.2318
29.2517 34.1916
29.2977 34.2852
29.3439 34.2024
29.3899 34.1875
29.4361 34.0323
29.4824 33.8592
29.5284 33.6149
29.5746 33.2595
29.6207 33.0193
29.6669 32.9975
29.713 33.0087
29.7593 32.6695
29.8053 32.8617
29.8516 32.728
29.8977 32.781
29.9439 32.5249
29.99 32.6141
30.0363 32.413
30.0824 32.3878
30.1287 32.2513
30.1748 32.3943
30.2211 32.3348
30.2673 32.2375
30.3136 32.2317
30.3597 32.1425
30.406 32.1243
30.4522 32.006
30.4985 31.8596
30.5447 32.0573
30.591 32.0253
30.6372 32.0925
30.6835 32.1053
30.7297 32.1973
30.7761 32.0888
30.8224 31.7505
30.8686 31.7428
30.915 31.494
30.9612 31.4248
31.0076 31.3123
31.0538 31.0288
31.1002 31.1413
31.1464 30.8972
31.1928 30.8702
31.2391 30.8518
31.2855 30.6607
31.3317 30.8189
31.3781 30.8346
31.4244 30.7583
31.4708 30.632
31.5171 30.6698
31.5636 30.6083
31.6098 30.4355
31.6563 30.2907
31.7026 30.2086
31.7491 30.0525
31.7953 30.0318
31.8418 30.1399
31.8881 30.1357
31.9346 29.9065
31.9809 29.9294
32.0275 29.8993
32.074 29.7507
32.1203 29.5752
32.1668 29.4001
32.2132 29.2463
32.2597 29.1393
32.306 29.0809
32.3526 28.9248
32.399 28.8646
32.4455 28.6761
32.4919 28.6129
32.5385 28.5562
32.5848 28.3998
32.6314 28.3935
32.6778 28.2696
32.7244 28.2735
32.7708 28.072
32.8174 28.009
32.8638 27.8804
32.9104 27.9402
32.9569 27.9365
33.0035 27.7617
33.0499 27.6612
33.0966 27.6516
33.143 27.7448
33.1897 27.6481
33.2361 27.5331
33.2828 27.5567
33.3293 27.3404
33.3759 27.2606
33.4226 27.1552
33.4691 27.0118
33.5158 26.9047
33.5623 26.8613
33.609 26.6822
33.6555 26.619
33.7022 26.4457
33.7487 26.4442
33.7954 26.4272
33.842 26.3231
33.8887 26.2207
33.9353 26.2742
33.982 26.0326
34.0286 25.9897
34.0753 25.9193
34.1219 25.9002
34.1687 25.7661
34.2152 25.8456
34.262 25.6295
34.3086 25.5158
34.3554 25.4842
34.402 25.329
34.4488 25.2133
34.4954 25.1728
34.5422 25.0344
34.5889 24.9829
34.6357 24.8802
34.6825 24.8577
34.7292 24.7806
34.776 24.7052
34.8227 24.6318
34.8695 24.5491
34.9162 24.5435
34.9631 24.4011
35.0098 24.4862
35.0566 24.3202
35.1033 24.1888
35.1502 24.1628
35.1969 24.1457
35.2438 24.1128
35.2906 24.034
35.3375 24.0399
35.3842 24.0153
35.4311 23.9313
35.4779 23.864
35.5248 23.8386
35.5716 23.6644
35.6185 23.6607
35.6653 23.5014
35.7123 23.4793
35.759 23.3572
35.806 23.2782
35.8528 23.1743
35.8998 23.1288
35.9468 23.0072
35.9936 22.9988
36.0406 22.9851
36.0874 22.9789
36.1345 22.8587
36.1813 22.7426
36.2283 22.5161
36.2752 22.5012
36.3222 22.6315
36.3691 22.5252
36.4161 22.3619
36.463 22.3781
36.5101 22.3309
36.557 22.2197
36.6041 22.1335
36.651 22.1073
36.6981 22.0219
36.745 22.0058
36.7921 21.8988
36.839 21.8016
36.8861 21.7049
36.9331 21.7285
36.9802 21.6293
37.0272 21.5325
37.0743 21.4479
37.1213 21.3778
37.1684 21.3289
37.2154 21.2904
37.2626 21.2507
37.3098 21.1037
37.3568 21.0896
37.404 21.0246
37.451 20.9764
37.4982 20.9628
37.5452 20.783
37.5924 20.8229
37.6395 20.7599
37.6867 20.637
37.7337 20.5666
37.781 20.4616
37.8281 20.4239
37.8753 20.324
37.9224 20.3112
37.9697 20.225
38.0168 20.1118
38.064 20.0993
38.1111 20.0378
38.1584 19.9846
38.2056 19.8556
38.2529 19.8073
38.3 19.7791
38.3473 19.768
38.3945 19.5848
38.4418 19.5982
38.489 19.5635
38.5363 19.4737
38.5837 19.4569
38.6309 19.3681
38.6782 19.3054
38.7254 19.1079
38.7728 19.2411
38.82 19.0484
38.8674 19.0734
38.9146 18.9987
38.9621 18.9324
39.0093 18.898
39.0567 18.8042
39.104 18.6891
39.1514 18.7157
39.1987 18.6045
39.2461 18.5364
39.2934 18.5358
39.3409 18.4
39.3882 18.3634
39.4356 18.3037
39.483 18.281
39.5304 18.2253
39.5778 18.1611
39.6253 18.1149
39.6726 18.0858
39.7201 18.0543
39.7675 17.9967
39.815 17.8802
39.8624 17.8584
39.9099 17.7786
39.9575 17.6715
40.0049 17.6939
40.0525 17.5695
40.0999 17.548
40.1474 17.5027
40.1949 17.4072
40.2425 17.3667
40.2899 17.3212
40.3375 17.3027
40.385 17.2192
40.4326 17.1627
40.48 17.1212
40.5277 17.0559
40.5752 17.0226
40.6228 16.925
40.6703 16.906
40.718 16.8273
40.7655 16.8196
40.8132 16.7016
40.8607 16.7115
40.9084 16.6627
40.9559 16.5874
41.0036 16.4732
41.0512 16.4639
41.0989 16.3974
41.1465 16.2802
41.1942 16.3493
41.242 16.1754
41.2896 16.1524
41.3373 16.1421
41.3849 16.097
41.4327 16.0349
41.4803 15.9233
41.5281 15.9021
41.5758 15.7885
41.6236 15.7866
41.6712 15.7422
41.7191 15.6726
41.7667 15.6201
41.8146 15.5779
41.8622 15.5768
41.9101 15.5139
41.9578 15.4221
42.0057 15.4042
42.0534 15.3405
42.1013 15.205
42.149 15.2151
42.1969 15.1891
42.2446 15.1426
42.2925 15.0974
42.3403 15.0023
42.3882 15.0096
42.436 14.9805
42.4839 14.8274
42.5319 14.8216
42.5797 14.7435
42.6277 14.7302
42.6755 14.6664
42.7235 14.6656
42.7713 14.6378
42.8193 14.523
42.8671 14.532
42.9152 14.4813
42.963 14.3546
43.0111 14.3342
43.0589 14.2619
43.107 14.2447
43.1549 14.1707
43.2029 14.1346
43.2508 14.1126
43.2989 14.0173
43.3468 13.9476
43.3949 13.9546
43.4429 13.9168
43.491 13.8547
43.5389 13.8296
43.5871 13.7495
43.635 13.7194
43.6832 13.6852
43.7312 13.5502
43.7793 13.5528
43.8273 13.5057
43.8755 13.4441
43.9237 13.4125
43.9717 13.4207
44.0199 13.3988
44.068 13.2875
44.1162 13.2207
44.1642 13.2122
44.2125 13.1692
44.2606 13.1086
44.3088 13.0324
44.3569 13.0417
44.4052 12.9811
44.4533 12.976
44.5016 12.8435
44.5497 12.8351
44.598 12.8256
44.6461 12.7519
44.6945 12.6896
44.7426 12.6268
44.791 12.5065
44.8391 12.6048
44.8875 12.5624
44.9357 12.5279
44.984 12.4425
45.0322 12.345
45.0806 12.3683
45.1288 12.3018
45.1773 12.227
45.2257 12.2328
45.2739 12.1781
45.3224 12.1491
45.3706 12.1087
45.4191 11.9927
45.4673 12.0177
45.5158 11.9786
45.5641 11.9338
45.6126 11.9016
45.6609 11.827
45.7094 11.7233
45.7577 11.7248
45.8063 11.713
45.8546 11.6205
45.9031 11.6197
45.9515 11.5922
46.0001 11.5395
46.0484 11.5086
46.097 11.4428
46.1454 11.4256
46.194 11.3627
46.2424 11.3294
46.291 11.3386
46.3395 11.2656
46.3881 11.1742
46.4365 11.2319
46.4852 11.1416
46.5337 11.0879
46.5823 11.0784
46.631 11.0053
46.6795 10.9698
46.7282 10.9364
46.7767 10.8673
46.8254 10.8314
46.8739 10.7892
46.9226 10.7352
46.9712 10.7171
47.0199 10.7046
47.0685 10.6572
47.1173 10.6114
47.1658 10.542
47.2146 10.5166
47.2632 10.5165
47.312 10.4764
47.3606 10.4221
47.4095 10.3591
47.4581 10.3467
47.5069 10.2865
47.5556 10.2633
47.6044 10.2054
47.6531 10.1913
47.702 10.1241
47.7507 10.0831
47.7996 10.0399
47.8483 10.0353
47.8972 9.97531
47.9461 9.96806
47.9948 9.90774
48.0438 9.88122
48.0925 9.85093
48.1415 9.85006
48.1902 9.77511
48.2392 9.76849
48.288 9.67085
48.337 9.66589
48.3858 9.64016
48.4348 9.61269
48.4837 9.61813
48.5327 9.54593
48.5815 9.50424
48.6306 9.50094
48.6795 9.45914
48.7285 9.37728
48.7774 9.36442
48.8265 9.33042
48.8754 9.28567
48.9245 9.29091
48.9734 9.25333
49.0226 9.20918
49.0715 9.1566
49.1206 9.11894
49.1696 9.09198
49.2188 9.05621
49.2679 8.99652
49.3169 8.93652
49.3661 8.94422
49.4151 8.91311
49.4643 8.8675
49.5134 8.82614
49.5626 8.76866
49.6117 8.76005
49.6609 8.74013
49.71 8.69957
49.7592 8.67633
49.8083 8.61631
49.8576 8.63377
49.9067 8.62208
49.956 8.56652
50.0052 8.48957
50.0545 8.50587
50.1036 8.47584
50.153 8.42185
50.2022 8.4057
50.2515 8.31885
50.3007 8.28443
50.3501 8.26973
50.3993 8.2011
50.4487 8.20677
50.498 8.18117
50.5474 8.15284
50.5966 8.12445
50.6461 8.06697
50.6955 8.08126
50.7448 8.01746
50.7943 8.0274
50.8436 7.96498
50.8931 7.93051
50.9424 7.93146
50.9919 7.88648
51.0413 7.84974
51.0908 7.82087
51.1402 7.78576
51.1897 7.74041
51.2391 7.73965
51.2887 7.68922
51.3381 7.65243
51.3877 7.64511
51.4371 7.58538
51.4867 7.57653
51.5362 7.54258
51.5858 7.51384
51.6353 7.4759
51.6849 7.44266
51.7344 7.4236
51.7841 7.33543
51.8336 7.37298
51.8833 7.31177
51.9328 7.27636
51.9826 7.24895
52.0323 7.20814
52.0818 7.18187
52.1316 7.12405
52.1812 7.14775
52.231 7.1037
52.2806 7.08864
52.3304 7.03082
52.38 7.05164
52.4298 7.00582
52.4794 6.97457
52.5293 6.96254
52.5789 6.90318
52.6288 6.85792
52.6785 6.84496
52.7284 6.78424
52.7781 6.76806
52.828 6.76149
52.8777 6.7088
52.9276 6.68772
52.9774 6.70261
53.0273 6.70312
53.0771 6.62456
53.1271 6.60347
53.1769 6.55318
53.2269 6.55444
53.2767 6.50389
53.3267 6.46293
53.3765 6.47663
53.4266 6.4396
53.4766 6.41924
53.5265 6.40081
53.5765 6.3903
53.6264 6.31834
53.6765 6.32158
53.7264 6.26368
53.7765 6.27442
53.8265 6.20886
53.8766 6.1258
53.9266 6.1405
53.9767 6.10161
54.0267 6.13168
54.0769 6.10866
54.1269 6.04686
54.1771 6.03019
54.2271 5.96537
54.2773 5.9345
54.3274 5.91314
54.3776 5.89105
54.4277 5.88543
54.478 5.80333
54.528 5.7802
54.5783 5.67929
54.6285 5.70047
54.6788 5.68398
54.7289 5.59778
54.7792 5.64389
54.8296 5.48895
54.8798 5.52235
54.9301 5.43508
54.9803 5.4469
55.0307 5.44985
55.0809 5.41917
55.1314 5.31735
55.1816 5.27592
55.232 5.22376
55.2823 5.16486
55.3328 5.12959
55.383 5.06738
55.4335 5.02732
55.4838 4.99313
55.5344 4.94006
55.5847 4.88673
55.6352 4.85744
55.6856 4.80165
55.7361 4.79263