File: XRD/Ni3Fe_FD0935.xy
TT I
1.27165 6.66261
1.31627 6.34048
1.36089 6.59927
1.40551 6.39388
1.45013 6.06275
1.49476 6.57298
1.53938 5.74482
1.584 5.24209
1.62863 5.33847
1.67325 5.08076
1.71787 4.83548
1.7625 4.54362
1.80712 4.82704
1.85174 4.76687
1.89636 4.54423
1.94099 4.89656
1.98562 5.2059
2.03025 4.8041
2.07487 4.96615
2.11949 4.27882
2.16411 4.72869
2.20874 8.35438
2.25338 9.80694
2.298 5.86855
2.34263 5.6311
2.38725 5.99053
2.43188 6.60035
2.4765 7.79667
2.52115 7.47702
2.56577 7.87773
2.6104 8.87587
2.65503 8.6211
2.69965 8.86344
2.7443 8.52965
2.78893 8.32406
2.83356 8.45764
2.87818 8.38465
2.92281 9.29878
2.96744 9.9048
3.01209 10.2979
3.05672 11.5863
3.10135 12.342
3.14599 13.4004
3.19062 14.5965
3.23527 15.1777
3.2799 15.7535
3.32454 16.9683
3.36917 17.5437
3.4138 18.6231
3.45844 19.5869
3.50309 20.7299
3.54773 21.4854
3.59237 23.2068
3.637 43.9937
3.68164 34.2228
3.7263 25.1143
3.77094 25.4811
3.81558 26.2561
3.86022 27.2559
3.90486 28.36
3.9495 29.4836
3.99416 30.3863
4.0388 31.3171
4.08344 32.867
4.12809 33.8425
4.17273 35.197
4.21738 38.4547
4.26204 104.738
4.30669 90.6843
4.35133 43.7552
4.39598 43.3492
4.44063 47.4299
4.4853 52.5072
4.52995 58.5632
4.5746 59.1375
4.61925 53.4454
4.6639 54.9254
4.70855 57.9499
4.75322 61.5575
4.79788 69.0357
4.84253 68.2879
4.88719 75.9325
4.93184 76.2468
4.97652 80.3397
5.02118 86.1995
5.06583 93.5516
5.11049 104.932
5.15515 153.573
5.19981 372.891
5.24449 2783.44
5.28916 13467.5
5.33382 2651.75
5.37848 195.883
5.42315 129.833
5.46783 120.678
5.5125 113.432
5.55716 101.45
5.60183 97.0069
5.6465 95.2567
5.69117 93.6082
5.73586 92.2156
5.78053 99.6069
5.8252 99.5834
5.86988 102.672
5.91455 94.2871
5.95924 102.189
6.00392 229.337
6.0486 915.649
6.09328 4692.58
6.13795 2972.75
6.18263 190.757
6.22733 87.9151
6.27201 78.9952
6.3167 81.3262
6.36138 72.6897
6.40606 69.4864
6.45075 70.2096
6.49545 64.652
6.54014 62.675
6.58483 62.0087
6.62952 62.5279
6.67421 70.2592
6.71892 83.2954
6.76361 60.8506
6.8083 59.6003
6.853 60.3711
6.89769 55.7389
6.94239 55.4131
6.98711 54.74
7.03181 55.6385
7.07651 53.7049
7.12121 54.1923
7.16591 55.7989
7.21063 54.9991
7.25533 59.2551
7.30004 89.2488
7.34475 64.5353
7.38945 54.0026
7.43416 52.748
7.47889 53.0618
7.5236 53.7119
7.56831 54.4038
7.61303 54.6057
7.65774 55.4255
7.70247 56.3939
7.74719 55.807
7.79191 55.734
7.83663 55.8751
7.88135 56.6645
7.92607 57.7783
7.97081 58.7934
8.01553 60.2328
8.06026 61.694
8.10498 63.477
8.14971 70.4903
8.19446 70.3051
8.23919 68.505
8.28392 70.7171
8.32865 73.2595
8.37339 77.5327
8.41812 82.369
8.46288 99.8194
8.50761 171.192
8.55235 367.187
8.59709 1209.96
8.64183 2244.72
8.68658 828.053
8.73134 139.608
8.77609 95.8617
8.82083 91.5302
8.86558 92.848
8.91033 92.5637
8.9551 88.9747
8.99985 84.295
9.04461 83.3956
9.08936 84.2487
9.13412 82.3657
9.17888 81.3477
9.22365 81.231
9.26841 81.2362
9.31318 84.7978
9.35794 87.2636
9.4027 85.8193
9.44749 84.6938
9.49226 83.3502
9.53703 85.0841
9.5818 89.3408
9.62657 94.656
9.67134 94.8853
9.71614 91.6503
9.76091 94.2467
9.80569 99.2381
9.85047 101.038
9.89525 109.71
9.94005 123.959
9.98484 184.35
10.0296 330.623
10.0744 834.338
10.1192 1851.16
10.164 1457.5
10.2088 320.474
10.2536 118.147
10.2984 107.199
10.3432 106.224
10.388 103.428
10.4328 119.424
10.4776 158.116
10.5224 292.413
10.5672 551.369
10.612 481.323
10.6568 175.304
10.7017 91.7785
10.7465 85.1343
10.7913 81.9361
10.8361 79.824
10.8809 77.7653
10.9257 77.2776
10.9706 77.3554
11.0154 74.7114
11.0602 71.6946
11.105 70.2561
11.1499 70.8259
11.1947 71.7838
11.2395 68.5668
11.2844 67.144
11.3292 65.9354
11.374 65.1854
11.4189 64.6422
11.4637 63.9263
11.5086 63.6882
11.5534 64.0746
11.5983 62.9617
11.6431 62.2118
11.688 61.6818
11.7328 61.6393
11.7777 61.6651
11.8225 61.7969
11.8674 61.4247
11.9122 61.8241
11.9571 62.026
12.002 63.7792
12.0468 67.7851
12.0917 77.1871
12.1366 102.493
12.1814 158.935
12.2263 209.199
12.2712 153.352
12.3161 85.1489
12.3609 65.4174
12.4058 62.9724
12.4507 63.1992
12.4956 63.8976
12.5405 64.0972
12.5853 63.9852
12.6302 66.4575
12.6751 69.1022
12.72 66.9791
12.7649 66.704
12.8098 67.5825
12.8547 68.9135
12.8996 70.4178
12.9445 72.3263
12.9894 73.6219
13.0343 74.8954
13.0792 79.6239
13.1242 91.1283
13.1691 109.048
13.214 146.054
13.2589 247.597
13.3038 392.772
13.3487 418.159
13.3937 225.506
13.4386 114.214
13.4835 103.934
13.5285 117.823
13.5734 158.231
13.6183 259.807
13.6633 373.971
13.7082 322.404
13.7531 165.864
13.7981 91.7132
13.843 80.2888
13.888 78.4922
13.9329 76.1913
13.9779 74.7425
14.0228 73.2697
14.0678 72.1232
14.1127 71.2496
14.1577 70.9209
14.2027 70.1206
14.2476 69.1678
14.2926 69.0367
14.3376 68.9722
14.3825 68.5454
14.4275 67.9556
14.4725 67.6274
14.5175 68.0543
14.5624 67.8601
14.6074 68.7127
14.6524 69.0581
14.6974 69.4759
14.7424 72.8737
14.7874 78.1651
14.8324 87.5178
14.8774 110.829
14.9224 159.931
14.9674 218.877
15.0124 211.601
15.0574 135.416
15.1024 83.6395
15.1474 70.3504
15.1924 69.0853
15.2374 68.2659
15.2824 67.2566
15.3274 66.407
15.3725 65.7331
15.4175 65.1464
15.4625 64.8272
15.5076 64.81
15.5526 64.5631
15.5976 64.6943
15.6426 66.9314
15.6877 71.4465
15.7327 78.5052
15.7778 94.1825
15.8228 128.992
15.8679 178.25
15.9129 194.899
15.958 144.679
16.003 86.4741
16.0481 64.5392
16.0931 61.8011
16.1382 60.2664
16.1833 59.1044
16.2283 57.841
16.2734 57.191
16.3185 56.8209
16.3636 56.6789
16.4086 55.6962
16.4537 54.9075
16.4988 54.627
16.5439 54.6425
16.589 54.1203
16.6341 53.9484
16.6792 53.6054
16.7243 53.8577
16.7694 53.861
16.8145 53.8185
16.8596 53.9071
16.9047 54.6278
16.9498 54.5336
16.9949 54.2321
17.04 55.0601
17.0851 56.334
17.1302 57.6026
17.1754 60.5694
17.2205 66.2879
17.2656 74.4052
17.3108 82.8479
17.3559 79.8972
17.401 67.4074
17.4462 59.8818
17.4913 58.2214
17.5365 58.2514
17.5815 58.1229
17.6268 58.8663
17.6718 59.2376
17.7171 59.8958
17.7622 60.3235
17.8074 61.6166
17.8525 64.1146
17.8977 67.1817
17.9428 72.1656
17.9881 81.8669
18.0331 101.233
18.0784 126.409
18.1237 140.448
18.1688 124.828
18.214 96.2776
18.2591 83.5564
18.3044 90.9586
18.3495 101.844
18.3948 105.513
18.4399 90.502
18.4852 72.7144
18.5303 63.6043
18.5756 60.8916
18.6207 60.1236
18.666 59.2425
18.7112 58.6654
18.7565 57.8809
18.8016 57.4696
18.8469 56.9874
18.892 56.8942
18.9374 56.202
18.9825 56.0583
19.0278 56.019
19.073 55.9706
19.1183 56.0605
19.1635 56.6222
19.2088 58.4328
19.254 61.1206
19.2993 66.3259
19.3447 72.3185
19.3898 74.7255
19.4352 69.2515
19.4804 60.2566
19.5257 54.8085
19.5709 53.1599
19.6163 52.9781
19.6615 52.7066
19.7068 52.3927
19.752 52.482
19.7974 52.836
19.8426 53.4346
19.888 54.0038
19.9332 55.2431
19.9786 58.3137
20.0238 62.4658
20.0692 67.5645
20.1144 69.3229
20.1598 66.1998
20.205 61.4493
20.2504 61.3305
20.2957 64.2415
20.3411 65.0707
20.3863 62.1971
20.4318 55.9689
20.477 51.6677
20.5224 50.0154
20.5677 49.8305
20.6131 49.2555
20.6586 48.7755
20.7038 48.65
20.7493 48.0961
20.7945 48.19
20.84 47.929
20.8853 47.9664
20.9307 47.8772
20.976 48.0648
21.0215 47.8347
21.0668 48.0386
21.1122 48.6398
21.1575 49.6474
21.203 50.277
21.2483 50.7679
21.2938 50.4792
21.3391 48.9732
21.3846 47.8155
21.4299 47.6675
21.4754 47.7055
21.5207 47.8182
21.5662 48.3406
21.6116 48.4799
21.6571 49.0621
21.7024 50.0902
21.7479 51.9432
21.7933 54.8745
21.8388 59.0947
21.8843 62.9891
21.9297 64.1698
21.9752 61.2004
22.0206 57.3982
22.0661 55.514
22.1115 55.7289
22.157 55.1222
22.2024 52.6135
22.248 49.9787
22.2933 48.8352
22.3389 48.0068
22.3843 47.912
22.4299 47.9235
22.4753 47.7654
22.5208 47.7023
22.5662 47.6819
22.6118 47.9888
22.6572 48.1367
22.7028 48.4233
22.7483 48.8186
22.7939 49.6562
22.8393 51.3205
22.8849 53.5795
22.9303 56.0067
22.9759 57.2439
23.0214 56.0787
23.067 52.8036
23.1126 49.6741
23.1581 48.0018
23.2037 47.8921
23.2492 48.0045
23.2948 47.9465
23.3403 48.3633
23.3859 48.9358
23.4314 50.0627
23.477 52.1453
23.5225 54.7974
23.5682 56.8348
23.6137 57.2497
23.6593 53.9202
23.7048 49.704
23.7505 47.039
23.796 45.7765
23.8417 45.2187
23.8872 44.6614
23.9329 44.4338
23.9784 44.1957
24.0241 43.8507
24.0697 43.5598
24.1154 43.394
24.1609 43.1817
24.2066 43.0474
24.2522 42.9592
24.2979 42.6753
24.3434 42.6366
24.3892 42.3075
24.4349 42.3705
24.4805 42.277
24.5262 42.3906
24.5718 42.3336
24.6175 42.391
24.6631 41.9449
24.7089 41.6723
24.7545 41.6175
24.8002 41.469
24.8458 41.54
24.8916 41.4972
24.9372 41.6903
24.983 42.0083
25.0286 42.174
25.0744 42.7611
25.12 43.0495
25.1658 43.799
25.2114 43.9665
25.2572 44.1259
25.3029 44.3774
25.3487 44.3374
25.3943 43.8176
25.4402 42.4235
25.4858 41.5192
25.5316 40.4976
25.5773 40.2857
25.6231 40.2156
25.669 39.8407
25.7147 39.8138
25.7605 39.8234
25.8062 39.7855
25.8521 39.7731
25.8977 39.9414
25.9436 40.242
25.9893 40.3775
26.0352 40.9847
26.0809 41.0416
26.1268 41.0799
26.1725 40.6336
26.2184 40.118
26.2641 39.5678
26.31 39.4382
26.3557 39.4373
26.4017 39.3209
26.4474 39.8144
26.4933 40.2654
26.5391 40.7176
26.585 41.2667
26.6308 41.5687
26.6767 41.567
26.7225 41.1701
26.7684 40.6284
26.8142 40.1218
26.8601 39.7788
26.9059 39.2645
26.9519 38.7602
26.9979 38.4584
27.0437 38.1583
27.0896 37.9624
27.1354 38.1206
27.1814 38.0726
27.2272 37.8316
27.2732 38.0829
27.3191 37.6719
27.3651 37.8866
27.4109 37.8373
27.4569 37.9473
27.5027 38.0433
27.5488 37.8956
27.5946 37.655
27.6407 37.567
27.6865 37.3464
27.7326 37.1084
27.7784 37.1612
27.8245 37.1754
27.8703 37.4067
27.9164 37.6344
27.9623 37.836
28.0084 38.1828
28.0543 38.6951
28.1003 38.3424
28.1462 38.0727
28.1923 37.7712
28.2384 37.2234
28.2843 36.9884
28.3304 36.5504
28.3764 35.9184
28.4225 35.7158
28.4684 35.5898
28.5145 35.3635
28.5605 35.3419
28.6066 35.0194
28.6526 34.973
28.6987 35.0626
28.7447 34.8601
28.7908 34.8481
28.8368 34.8696
28.8829 34.7928
28.9289 34.7786
28.9751 34.5336
29.0211 34.2769
29.0673 34.0362
29.1133 34.0102
29.1595 33.887
29.2055 33.7757
29.2517 33.7164
29.2977 33.7306
29.3439 33.6754
29.3899 33.6839
29.4361 33.6539
29.4824 33.3169
29.5284 33.1284
29.5746 32.7835
29.6207 32.6093
29.6669 32.4767
29.713 32.3578
29.7593 32.2305
29.8053 32.3006
29.8516 32.3168
29.8977 32.1725
29.9439 32.0925
29.99 32.2328
30.0363 31.9351
30.0824 31.917
30.1287 31.8395
30.1748 31.9397
30.2211 31.821
30.2673 31.7996
30.3136 31.7732
30.3597 31.7636
30.406 31.5825
30.4522 31.4988
30.4985 31.5556
30.5447 31.6804
30.591 31.6209
30.6372 31.7805
30.6835 31.6409
30.7297 31.7335
30.7761 31.6135
30.8224 31.4843
30.8686 31.3185
30.915 31.0847
30.9612 30.9455
31.0076 30.7236
31.0538 30.5672
31.1002 30.5342
31.1464 30.3331
31.1928 30.3935
31.2391 30.4095
31.2855 30.3377
31.3317 30.3342
31.3781 30.3849
31.4244 30.3955
31.4708 30.3495
31.5171 30.319
31.5636 30.2745
31.6098 30.0055
31.6563 29.7556
31.7026 29.6625
31.7491 29.4883
31.7953 29.6834
31.8418 29.6986
31.8881 29.6933
31.9346 29.5038
31.9809 29.5161
32.0275 29.3373
32.074 29.2797
32.1203 29.1084
32.1668 29.0527
32.2132 28.9087
32.2597 28.7686
32.306 28.7127
32.3526 28.483
32.399 28.4944
32.4455 28.3489
32.4919 28.2353
32.5385 28.1249
32.5848 28.0209
32.6314 28.0557
32.6778 27.9583
32.7244 27.8287
32.7708 27.6461
32.8174 27.7004
32.8638 27.5366
32.9104 27.6108
32.9569 27.4644
33.0035 27.3817
33.0499 27.4241
33.0966 27.3164
33.143 27.2809
33.1897 27.202
33.2361 27.1196
33.2828 27.1318
33.3293 26.9293
33.3759 26.9079
33.4226 26.772
33.4691 26.5592
33.5158 26.6237
33.5623 26.4876
33.609 26.2589
33.6555 26.2188
33.7022 26.128
33.7487 26.0395
33.7954 26.0275
33.842 25.8763
33.8887 25.8181
33.9353 25.8402
33.982 25.7069
34.0286 25.5982
34.0753 25.5606
34.1219 25.416
34.1687 25.3866
34.2152 25.3686
34.262 25.1968
34.3086 25.1158
34.3554 25.0581
34.402 24.9529
34.4488 24.8872
34.4954 24.8119
34.5422 24.7244
34.5889 24.639
34.6357 24.5411
34.6825 24.4421
34.7292 24.4416
34.776 24.3022
34.8227 24.3215
34.8695 24.1414
34.9162 24.2478
34.9631 24.0045
35.0098 24.0505
35.0566 23.9311
35.1033 23.9006
35.1502 23.8561
35.1969 23.8219
35.2438 23.6694
35.2906 23.6762
35.3375 23.7067
35.3842 23.6112
35.4311 23.5988
35.4779 23.5861
35.5248 23.4742
35.5716 23.3321
35.6185 23.3126
35.6653 23.2414
35.7123 23.1899
35.759 23.142
35.806 22.9275
35.8528 22.8465
35.8998 22.8622
35.9468 22.7526
35.9936 22.6635
36.0406 22.5338
36.0874 22.6184
36.1345 22.5165
36.1813 22.4874
36.2283 22.2882
36.2752 22.2659
36.3222 22.256
36.3691 22.2253
36.4161 22.0747
36.463 22.0359
36.5101 22.0164
36.557 21.9348
36.6041 21.8594
36.651 21.8217
36.6981 21.7167
36.745 21.6811
36.7921 21.5469
36.839 21.4586
36.8861 21.4755
36.9331 21.3519
36.9802 21.3306
37.0272 21.1863
37.0743 21.1551
37.1213 21.1564
37.1684 20.9826
37.2154 21.005
37.2626 20.9419
37.3098 20.8811
37.3568 20.7746
37.404 20.7146
37.451 20.644
37.4982 20.5287
37.5452 20.4301
37.5924 20.379
37.6395 20.5034
37.6867 20.3105
37.7337 20.2234
37.781 20.2221
37.8281 20.1629
37.8753 20.101
37.9224 19.9944
37.9697 19.9916
38.0168 19.8984
38.064 19.7789
38.1111 19.7541
38.1584 19.6017
38.2056 19.6559
38.2529 19.6089
38.3 19.4594
38.3473 19.5444
38.3945 19.3867
38.4418 19.3312
38.489 19.2828
38.5363 19.1756
38.5837 19.1142
38.6309 19.0793
38.6782 18.9769
38.7254 18.8857
38.7728 18.9004
38.82 18.8257
38.8674 18.767
38.9146 18.7058
38.9621 18.6079
39.0093 18.5961
39.0567 18.5532
39.104 18.4591
39.1514 18.323
39.1987 18.2939
39.2461 18.3353
39.2934 18.2912
39.3409 18.2021
39.3882 18.0745
39.4356 18.0314
39.483 17.9918
39.5304 17.9184
39.5778 17.88
39.6253 17.8233
39.6726 17.7429
39.7201 17.6918
39.7675 17.6686
39.815 17.626
39.8624 17.5822
39.9099 17.5378
39.9575 17.4111
40.0049 17.4301
40.0525 17.3452
40.0999 17.3044
40.1474 17.2098
40.1949 17.1232
40.2425 17.1359
40.2899 17.0662
40.3375 16.9721
40.385 16.9334
40.4326 16.9029
40.48 16.8105
40.5277 16.7805
40.5752 16.7276
40.6228 16.6481
40.6703 16.628
40.718 16.537
40.7655 16.5483
40.8132 16.4882
40.8607 16.462
40.9084 16.4176
40.9559 16.336
41.0036 16.2927
41.0512 16.2118
41.0989 16.1634
41.1465 16.0912
41.1942 16.0285
41.242 15.9866
41.2896 15.9053
41.3373 15.9019
41.3849 15.8721
41.4327 15.7831
41.4803 15.6843
41.5281 15.6915
41.5758 15.629
41.6236 15.5693
41.6712 15.5275
41.7191 15.498
41.7667 15.4242
41.8146 15.3623
41.8622 15.2852
41.9101 15.2799
41.9578 15.182
42.0057 15.0985
42.0534 15.1375
42.1013 15.0455
42.149 15.0069
42.1969 14.9502
42.2446 14.8929
42.2925 14.8401
42.3403 14.7935
42.3882 14.7694
42.436 14.698
42.4839 14.6724
42.5319 14.6429
42.5797 14.5729
42.6277 14.4836
42.6755 14.4508
42.7235 14.4024
42.7713 14.3971
42.8193 14.3015
42.8671 14.2751
42.9152 14.2208
42.963 14.1913
43.0111 14.1248
43.0589 14.0337
43.107 14.0028
43.1549 13.9796
43.2029 13.9028
43.2508 13.9198
43.2989 13.8821
43.3468 13.7675
43.3949 13.7715
43.4429 13.7322
43.491 13.6939
43.5389 13.5831
43.5871 13.5598
43.635 13.5384
43.6832 13.4983
43.7312 13.413
43.7793 13.3693
43.8273 13.3383
43.8755 13.2311
43.9237 13.254
43.9717 13.1626
44.0199 13.1655
44.068 13.0916
44.1162 13.0347
44.1642 13.0132
44.2125 12.9632
44.2606 12.9498
44.3088 12.879
44.3569 12.8138
44.4052 12.781
44.4533 12.7049
44.5016 12.625
44.5497 12.6516
44.598 12.5881
44.6461 12.5233
44.6945 12.5287
44.7426 12.4745
44.791 12.4284
44.8391 12.3995
44.8875 12.3453
44.9357 12.2955
44.984 12.2698
45.0322 12.2263
45.0806 12.1593
45.1288 12.1025
45.1773 12.1116
45.2257 12.0358
45.2739 12.0187
45.3224 11.932
45.3706 11.9406
45.4191 11.8859
45.4673 11.8021
45.5158 11.7375
45.5641 11.6885
45.6126 11.6887
45.6609 11.6729
45.7094 11.5782
45.7577 11.5987
45.8063 11.5103
45.8546 11.4987
45.9031 11.429
45.9515 11.4017
46.0001 11.3193
46.0484 11.334
46.097 11.3014
46.1454 11.2606
46.194 11.2355
46.2424 11.173
46.291 11.1404
46.3395 11.0938
46.3881 11.0005
46.4365 11.0045
46.4852 10.9334
46.5337 10.9203
46.5823 10.9299
46.631 10.8767
46.6795 10.8405
46.7282 10.7936
46.7767 10.7121
46.8254 10.6849
46.8739 10.6347
46.9226 10.5962
46.9712 10.5863
47.0199 10.5058
47.0685 10.4655
47.1173 10.429
47.1658 10.4311
47.2146 10.3821
47.2632 10.3218
47.312 10.2959
47.3606 10.2315
47.4095 10.2125
47.4581 10.2348
47.5069 10.1268
47.5556 10.1219
47.6044 10.085
47.6531 10.036
47.702 9.98032
47.7507 9.94738
47.7996 9.92802
47.8483 9.8655
47.8972 9.87152
47.9461 9.82495
47.9948 9.79869
48.0438 9.74578
48.0925 9.73297
48.1415 9.66193
48.1902 9.64211
48.2392 9.60283
48.288 9.56426
48.337 9.56263
48.3858 9.47527
48.4348 9.49009
48.4837 9.47364
48.5327 9.4354
48.5815 9.37516
48.6306 9.35734
48.6795 9.32584
48.7285 9.27567
48.7774 9.22134
48.8265 9.14905
48.8754 9.14475
48.9245 9.1115
48.9734 9.07372
49.0226 9.04919
49.0715 9.0078
49.1206 8.99253
49.1696 8.94724
49.2188 8.93791
49.2679 8.8472
49.3169 8.8388
49.3661 8.81313
49.4151 8.78628
49.4643 8.77197
49.5134 8.72086
49.5626 8.64496
49.6117 8.58548
49.6609 8.62374
49.71 8.53534
49.7592 8.54385
49.8083 8.50883
49.8576 8.45077
49.9067 8.46096
49.956 8.42695
50.0052 8.41772
50.0545 8.37774
50.1036 8.31786
50.153 8.29905
50.2022 8.25237
50.2515 8.2331
50.3007 8.19467
50.3501 8.1533
50.3993 8.12519
50.4487 8.11756
50.498 8.07582
50.5474 8.06325
50.5966 8.00842
50.6461 7.98385
50.6955 7.92206
50.7448 7.92701
50.7943 7.87009
50.8436 7.84847
50.8931 7.82632
50.9424 7.81312
50.9919 7.76936
51.0413 7.70515
51.0908 7.68766
51.1402 7.66251
51.1897 7.60954
51.2391 7.62494
51.2887 7.57319
51.3381 7.51625
51.3877 7.50484
51.4371 7.44927
51.4867 7.44072
51.5362 7.42297
51.5858 7.38573
51.6353 7.32256
51.6849 7.31724
51.7344 7.27388
51.7841 7.27544
51.8336 7.25611
51.8833 7.2178
51.9328 7.18445
51.9826 7.1331
52.0323 7.10568
52.0818 7.11647
52.1316 7.04074
52.1812 7.01266
52.231 7.02088
52.2806 6.97207
52.3304 6.92183
52.38 6.90396
52.4298 6.89535
52.4794 6.89054
52.5293 6.82046
52.5789 6.78871
52.6288 6.79168
52.6785 6.73863
52.7284 6.7492
52.7781 6.72038
52.828 6.66786
52.8777 6.61582
52.9276 6.6064
52.9774 6.55036
53.0273 6.58294
53.0771 6.54903
53.1271 6.5097
53.1769 6.46452
53.2269 6.45402
53.2767 6.38984
53.3267 6.41639
53.3765 6.3631
53.4266 6.33343
53.4766 6.30436
53.5265 6.28783
53.5765 6.26972
53.6264 6.24954
53.6765 6.23742
53.7264 6.16683
53.7765 6.17256
53.8265 6.12755
53.8766 6.11629
53.9266 6.02943
53.9767 6.03841
54.0267 6.04446
54.0769 6.00822
54.1269 5.95333
54.1771 5.8852
54.2271 5.86998
54.2773 5.87183
54.3274 5.89896
54.3776 5.80735
54.4277 5.77686
54.478 5.7233
54.528 5.73194
54.5783 5.68816
54.6285 5.58956
54.6788 5.57219
54.7289 5.51593
54.7792 5.48747
54.8296 5.47062
54.8798 5.42624
54.9301 5.38145
54.9803 5.36397
55.0307 5.34647
55.0809 5.26726
55.1314 5.26927
55.1816 5.156
55.232 5.12762
55.2823 5.14608
55.3328 5.0501
55.383 4.97366
55.4335 4.99138
55.4838 4.93804
55.5344 4.89881
55.5847 4.8574
55.6352 4.83052
55.6856 4.77365
55.7361 4.71678