File: XRD/Ni3Fe_FD0142.xy
TT I
1.27165 7.99833
1.31627 6.82662
1.36089 6.85636
1.40551 6.40281
1.45013 6.7201
1.49476 6.22818
1.53938 5.84502
1.584 5.9518
1.62863 6.11668
1.67325 5.73474
1.71787 5.52018
1.7625 5.36107
1.80712 5.34203
1.85174 4.59953
1.89636 5.23979
1.94099 5.01759
1.98562 4.57955
2.03025 4.49079
2.07487 5.02212
2.11949 5.39471
2.16411 4.65499
2.20874 4.88251
2.25338 4.12839
2.298 4.25032
2.34263 4.03021
2.38725 4.16487
2.43188 4.7992
2.4765 4.66032
2.52115 4.06728
2.56577 4.21932
2.6104 5.15484
2.65503 4.9219
2.69965 5.61639
2.7443 5.88857
2.78893 5.83153
2.83356 6.91895
2.87818 7.88386
2.92281 8.53
2.96744 9.56049
3.01209 10.2068
3.05672 10.8296
3.10135 12.0617
3.14599 13.242
3.19062 13.7751
3.23527 14.8486
3.2799 15.6377
3.32454 16.7986
3.36917 17.7246
3.4138 18.6453
3.45844 19.1694
3.50309 20.5588
3.54773 21.0484
3.59237 21.7106
3.637 22.1845
3.68164 23.4757
3.7263 23.6986
3.77094 25.0202
3.81558 25.6395
3.86022 26.2187
3.90486 27.7572
3.9495 28.6393
3.99416 29.493
4.0388 30.5082
4.08344 31.6715
4.12809 32.3135
4.17273 33.7612
4.21738 35.4051
4.26204 36.2303
4.30669 37.3133
4.35133 39.6577
4.39598 40.9218
4.44063 42.5522
4.4853 44.8912
4.52995 47.039
4.5746 48.9338
4.61925 51.225
4.6639 53.6188
4.70855 56.2095
4.75322 59.5277
4.79788 62.381
4.84253 65.6126
4.88719 70.0376
4.93184 74.6497
4.97652 82.4609
5.02118 90.3871
5.06583 101.507
5.11049 116.996
5.15515 155.626
5.19981 558.133
5.24449 3761.4
5.28916 8166.23
5.33382 6351.64
5.37848 472.629
5.42315 165.057
5.46783 127.685
5.5125 113.914
5.55716 107.408
5.60183 101.946
5.6465 98.903
5.69117 97.0583
5.73586 94.7272
5.78053 95.1817
5.8252 95.4861
5.86988 98.4485
5.91455 105.466
5.95924 124.282
6.00392 290.327
6.0486 1379.53
6.09328 2663.43
6.13795 4050.65
6.18263 734.053
6.22733 124.248
6.27201 89.2935
6.3167 78.1554
6.36138 71.9384
6.40606 68.3725
6.45075 66.2414
6.49545 63.9703
6.54014 62.1938
6.58483 60.5264
6.62952 59.5468
6.67421 58.0065
6.71892 56.9068
6.76361 56.5823
6.8083 55.1433
6.853 54.619
6.89769 54.5184
6.94239 53.884
6.98711 53.0854
7.03181 52.5483
7.07651 52.4353
7.12121 52.4263
7.16591 51.8859
7.21063 51.904
7.25533 51.6001
7.30004 51.8563
7.34475 52.086
7.38945 52.2147
7.43416 51.7657
7.47889 51.6026
7.5236 55.8809
7.56831 63.8688
7.61303 55.4634
7.65774 53.2813
7.70247 53.8475
7.74719 53.8357
7.79191 54.6476
7.83663 54.5961
7.88135 55.7242
7.92607 56.7034
7.97081 57.8955
8.01553 59.1209
8.06026 60.1224
8.10498 61.5153
8.14971 63.5874
8.19446 64.9589
8.23919 67.3557
8.28392 70.3352
8.32865 73.1965
8.37339 77.9065
8.41812 83.4878
8.46288 95.065
8.50761 172.435
8.55235 604.307
8.59709 868.328
8.64183 1443.19
8.68658 1644.87
8.73134 420.037
8.77609 117.186
8.82083 97.0199
8.86558 90.9475
8.91033 87.2256
8.9551 84.7815
8.99985 83.3607
9.04461 82.6141
9.08936 81.8528
9.13412 80.7672
9.17888 81.0807
9.22365 86.9843
9.26841 98.4875
9.31318 86.9288
9.35794 82.212
9.4027 81.4394
9.44749 82.33
9.49226 82.9766
9.53703 84.1239
9.5818 85.648
9.62657 86.5179
9.67134 87.9796
9.71614 90.4368
9.76091 92.5319
9.80569 95.3382
9.85047 98.7336
9.89525 103.563
9.94005 113.434
9.98484 185.211
10.0296 546.923
10.0744 727.638
10.1192 999.308
10.164 1636.3
10.2088 1014.04
10.2536 222.582
10.2984 116.466
10.3432 107.606
10.388 104.183
10.4328 120.953
10.4776 215.378
10.5224 259.22
10.5672 324.217
10.612 486.182
10.6568 388.201
10.7017 136.799
10.7465 90.516
10.7913 83.467
10.8361 80.4541
10.8809 77.5488
10.9257 75.312
10.9706 74.0765
11.0154 72.2802
11.0602 70.8019
11.105 69.804
11.1499 68.4533
11.1947 67.421
11.2395 66.4477
11.2844 65.6935
11.3292 64.7875
11.374 63.9901
11.4189 63.6111
11.4637 63.0689
11.5086 62.3451
11.5534 61.7753
11.5983 61.8998
11.6431 61.6459
11.688 61.226
11.7328 60.9326
11.7777 60.9123
11.8225 60.7261
11.8674 60.9865
11.9122 62.3287
11.9571 66.1086
12.002 65.3692
12.0468 67.2941
12.0917 90.1516
12.1366 107.239
12.1814 116.086
12.2263 147.561
12.2712 192.654
12.3161 140.956
12.3609 75.5799
12.4058 63.825
12.4507 62.9113
12.4956 62.7174
12.5405 62.7909
12.5853 63.4556
12.6302 63.3233
12.6751 64.1803
12.72 64.878
12.7649 65.976
12.8098 66.4684
12.8547 67.9379
12.8996 69.4771
12.9445 70.9398
12.9894 72.7073
13.0343 74.7295
13.0792 79.0916
13.1242 86.0323
13.1691 132.798
13.214 186.845
13.2589 201.616
13.3038 239.804
13.3487 342.586
13.3937 382.656
13.4386 216.198
13.4835 120.35
13.5285 154.43
13.5734 181.439
13.6183 189.3
13.6633 231.706
13.7082 327.472
13.7531 307.953
13.7981 155.405
13.843 88.5817
13.888 80.3033
13.9329 77.17
13.9779 75.7389
14.0228 74.0739
14.0678 72.4026
14.1127 72.3508
14.1577 73.8601
14.2027 72.4357
14.2476 70.1941
14.2926 68.7577
14.3376 68.4255
14.3825 68.3319
14.4275 67.9568
14.4725 67.8406
14.5175 68.0129
14.5624 67.7353
14.6074 68.126
14.6524 68.5999
14.6974 69.5029
14.7424 70.8315
14.7874 80.275
14.8324 106.931
14.8774 120.542
14.9224 125.146
14.9674 145.076
15.0124 188.064
15.0574 204.656
15.1024 140.516
15.1474 82.1877
15.1924 71.0943
15.2374 68.7855
15.2824 67.6945
15.3274 66.5122
15.3725 66.1476
15.4175 65.7731
15.4625 65.4029
15.5076 64.9168
15.5526 65.4164
15.5976 65.2706
15.6426 66.1562
15.6877 73.3417
15.7327 94.5495
15.7778 107.118
15.8228 109.306
15.8679 121.924
15.9129 151.233
15.958 184.163
16.003 154.379
16.0481 89.7541
16.0931 66.2384
16.1382 61.6804
16.1833 59.9911
16.2283 58.5043
16.2734 57.7004
16.3185 57.0502
16.3636 56.3799
16.4086 55.6661
16.4537 55.2213
16.4988 54.7663
16.5439 54.6955
16.589 54.4812
16.6341 54.2595
16.6792 53.7568
16.7243 53.906
16.7694 53.7943
16.8145 53.7494
16.8596 54.0988
16.9047 54.4349
16.9498 54.604
16.9949 54.5156
17.04 55.0148
17.0851 56.269
17.1302 60.6959
17.1754 64.0468
17.2205 64.6911
17.2656 66.5744
17.3108 71.4864
17.3559 78.3927
17.401 80.6772
17.4462 70.9567
17.4913 61.3518
17.5365 58.8897
17.5815 58.6597
17.6268 58.9403
17.6718 59.363
17.7171 59.8062
17.7622 60.936
17.8074 61.9531
17.8525 63.4466
17.8977 71.6297
17.9428 83.4421
17.9881 88.2303
18.0331 89.9165
18.0784 96.5958
18.1237 112.614
18.1688 138.796
18.214 141.913
18.2591 111.467
18.3044 87.961
18.3495 85.7331
18.3948 93.9537
18.4399 102.631
18.4852 95.301
18.5303 76.8191
18.5756 64.7938
18.6207 61.7772
18.666 60.6467
18.7112 59.5618
18.7565 58.9126
18.8016 58.3949
18.8469 57.8349
18.892 57.3957
18.9374 56.9747
18.9825 56.9029
19.0278 56.5378
19.073 56.3574
19.1183 57.2139
19.1635 59.2478
19.2088 61.5965
19.254 62.1113
19.2993 62.5338
19.3447 64.694
19.3898 68.4329
19.4352 73.412
19.4804 72.2223
19.5257 63.9401
19.5709 56.2393
19.6163 54.0599
19.6615 53.4141
19.7068 53.0911
19.752 53.0091
19.7974 53.129
19.8426 54.3331
19.888 56.7155
19.9332 58.014
19.9786 58.2523
20.0238 58.6416
20.0692 61.3428
20.1144 66.3709
20.1598 71.8479
20.205 70.5662
20.2504 65.0676
20.2957 60.6816
20.3411 60.9823
20.3863 64.1321
20.4318 64.1553
20.477 59.2082
20.5224 53.1815
20.5677 50.9038
20.6131 49.9408
20.6586 49.527
20.7038 49.403
20.7493 49.0557
20.7945 48.9492
20.84 48.9224
20.8853 48.589
20.9307 48.284
20.976 48.562
21.0215 48.6751
21.0668 49.1606
21.1122 49.2301
21.1575 49.365
21.203 49.513
21.2483 49.9425
21.2938 51.1173
21.3391 51.1364
21.3846 50.3833
21.4299 49.0443
21.4754 48.5871
21.5207 48.4944
21.5662 48.6255
21.6116 49.1501
21.6571 51.0869
21.7024 52.9279
21.7479 53.8871
21.7933 54.1099
21.8388 55.5511
21.8843 57.8784
21.9297 61.5132
21.9752 65.4876
22.0206 65.3862
22.0661 60.5111
22.1115 56.1202
22.157 55.1254
22.2024 56.0173
22.248 54.903
22.2933 52.4514
22.3389 49.895
22.3843 49.0903
22.4299 48.7202
22.4753 48.687
22.5208 48.5364
22.5662 48.5319
22.6118 48.656
22.6572 48.7177
22.7028 50.0835
22.7483 51.2507
22.7939 51.6661
22.8393 51.8065
22.8849 52.2294
22.9303 53.0536
22.9759 54.5567
23.0214 56.7863
23.067 58.196
23.1126 55.891
23.1581 52.1797
23.2037 49.6973
23.2492 49.1478
23.2948 49.4816
23.3403 50.7027
23.3859 51.6083
23.4314 51.6264
23.477 51.6152
23.5225 52.1786
23.5682 53.1828
23.6137 55.2521
23.6593 57.4806
23.7048 57.1454
23.7505 53.2694
23.796 49.0531
23.8417 46.8861
23.8872 45.8355
23.9329 45.3877
23.9784 45.0478
24.0241 44.7119
24.0697 44.4423
24.1154 44.2549
24.1609 44.0079
24.2066 43.7024
24.2522 43.7068
24.2979 43.4564
24.3434 43.4223
24.3892 43.1852
24.4349 43.0506
24.4805 42.7965
24.5262 42.8814
24.5718 42.7822
24.6175 42.7829
24.6631 42.8608
24.7089 42.7174
24.7545 42.5156
24.8002 42.3525
24.8458 42.2994
24.8916 42.2585
24.9372 42.6384
24.983 42.7082
25.0286 42.7925
25.0744 43.274
25.12 43.5701
25.1658 43.9798
25.2114 44.4166
25.2572 44.7716
25.3029 44.6496
25.3487 44.5486
25.3943 44.6256
25.4402 44.6786
25.4858 44.3306
25.5316 42.9268
25.5773 41.6187
25.6231 41.131
25.669 40.648
25.7147 40.5956
25.7605 40.5938
25.8062 40.8543
25.8521 40.9675
25.8977 40.7853
25.9436 40.8367
25.9893 40.8227
26.0352 41.0705
26.0809 41.1191
26.1268 41.4314
26.1725 41.696
26.2184 41.9078
26.2641 41.2552
26.31 40.8344
26.3557 40.6465
26.4017 40.6356
26.4474 40.6976
26.4933 40.7966
26.5391 40.9729
26.585 41.2225
26.6308 41.5242
26.6767 41.7509
26.7225 42.5101
26.7684 42.4572
26.8142 41.9311
26.8601 41.2042
26.9059 40.7102
26.9519 40.3717
26.9979 39.8047
27.0437 39.398
27.0896 39.1419
27.1354 39.0165
27.1814 38.794
27.2272 38.8013
27.2732 38.7669
27.3191 38.5932
27.3651 38.5281
27.4109 38.5009
27.4569 38.4698
27.5027 38.4825
27.5488 38.5612
27.5946 38.5902
27.6407 38.5735
27.6865 38.5762
27.7326 38.4072
27.7784 38.3874
27.8245 38.1834
27.8703 38.1547
27.9164 38.3294
27.9623 38.2054
28.0084 38.5908
28.0543 38.7905
28.1003 38.896
28.1462 39.1613
28.1923 39.2401
28.2384 38.7078
28.2843 38.2304
28.3304 37.8454
28.3764 37.466
28.4225 36.9709
28.4684 36.5951
28.5145 36.1552
28.5605 36.0975
28.6066 35.8647
28.6526 35.8399
28.6987 35.7413
28.7447 35.4529
28.7908 35.4156
28.8368 35.4074
28.8829 35.3658
28.9289 35.4245
28.9751 35.2647
29.0211 35.2393
29.0673 35.0747
29.1133 34.9317
29.1595 34.588
29.2055 34.4966
29.2517 34.3291
29.2977 34.4016
29.3439 34.235
29.3899 34.2172
29.4361 34.15
29.4824 34.1489
29.5284 34.1389
29.5746 33.742
29.6207 33.4632
29.6669 33.2725
29.713 33.0138
29.7593 32.8842
29.8053 32.9918
29.8516 32.8322
29.8977 32.8991
29.9439 32.6639
29.99 32.6974
30.0363 32.4418
30.0824 32.6419
30.1287 32.2852
30.1748 32.3957
30.2211 32.2525
30.2673 32.368
30.3136 32.5665
30.3597 32.5749
30.406 32.438
30.4522 32.3342
30.4985 32.1895
30.5447 32.2129
30.591 32.1287
30.6372 32.2747
30.6835 32.0758
30.7297 32.3044
30.7761 32.337
30.8224 32.1852
30.8686 32.1927
30.915 31.9764
30.9612 31.9091
31.0076 31.574
31.0538 31.4984
31.1002 31.3396
31.1464 31.2589
31.1928 31.0732
31.2391 31.2308
31.2855 30.9984
31.3317 30.8976
31.3781 30.9861
31.4244 30.9606
31.4708 30.8829
31.5171 30.8868
31.5636 30.9451
31.6098 30.8355
31.6563 30.7765
31.7026 30.6558
31.7491 30.3812
31.7953 30.3725
31.8418 30.1994
31.8881 30.2341
31.9346 30.2368
31.9809 30.1691
32.0275 30.1096
32.074 30.0795
32.1203 29.9288
32.1668 29.8605
32.2132 29.522
32.2597 29.4997
32.306 29.3598
32.3526 29.0807
32.399 29.101
32.4455 28.8769
32.4919 28.8308
32.5385 28.8467
32.5848 28.5189
32.6314 28.6118
32.6778 28.5613
32.7244 28.3751
32.7708 28.2636
32.8174 28.3356
32.8638 28.2392
32.9104 28.2436
32.9569 28.1487
33.0035 28.0175
33.0499 27.9038
33.0966 27.8011
33.143 27.8459
33.1897 27.7862
33.2361 27.7633
33.2828 27.7423
33.3293 27.4742
33.3759 27.5853
33.4226 27.4546
33.4691 27.2471
33.5158 27.2222
33.5623 27.0819
33.609 26.8303
33.6555 26.7621
33.7022 26.7269
33.7487 26.4859
33.7954 26.6382
33.842 26.4263
33.8887 26.3588
33.9353 26.4671
33.982 26.1719
34.0286 26.2049
34.0753 26.0925
34.1219 26.0465
34.1687 25.926
34.2152 25.8961
34.262 25.7359
34.3086 25.5676
34.3554 25.6683
34.402 25.5223
34.4488 25.3964
34.4954 25.395
34.5422 25.2592
34.5889 25.1758
34.6357 25.0619
34.6825 25.012
34.7292 24.866
34.776 24.8161
34.8227 24.7721
34.8695 24.6882
34.9162 24.6814
34.9631 24.5673
35.0098 24.5193
35.0566 24.3322
35.1033 24.2667
35.1502 24.3492
35.1969 24.2137
35.2438 24.2279
35.2906 24.1171
35.3375 24.0549
35.3842 24.0255
35.4311 23.994
35.4779 23.9507
35.5248 24.0549
35.5716 23.9106
35.6185 23.8037
35.6653 23.719
35.7123 23.6555
35.759 23.5673
35.806 23.4919
35.8528 23.3963
35.8998 23.3235
35.9468 23.1672
35.9936 23.1963
36.0406 23.0158
36.0874 23.0419
36.1345 22.9566
36.1813 22.9398
36.2283 22.7538
36.2752 22.7606
36.3222 22.7961
36.3691 22.6616
36.4161 22.587
36.463 22.5158
36.5101 22.4576
36.557 22.4142
36.6041 22.3372
36.651 22.3005
36.6981 22.2342
36.745 22.129
36.7921 22.0703
36.839 21.9455
36.8861 21.8862
36.9331 21.8638
36.9802 21.7251
37.0272 21.6786
37.0743 21.5473
37.1213 21.5073
37.1684 21.4453
37.2154 21.4381
37.2626 21.3707
37.3098 21.2633
37.3568 21.1896
37.404 21.1897
37.451 21.0988
37.4982 20.9832
37.5452 20.7964
37.5924 20.822
37.6395 20.9142
37.6867 20.749
37.7337 20.7052
37.781 20.6354
37.8281 20.6184
37.8753 20.4507
37.9224 20.3508
37.9697 20.3236
38.0168 20.2591
38.064 20.1876
38.1111 20.1622
38.1584 20.084
38.2056 19.9935
38.2529 19.893
38.3 19.8467
38.3473 19.8423
38.3945 19.7868
38.4418 19.7841
38.489 19.7279
38.5363 19.6015
38.5837 19.5395
38.6309 19.4124
38.6782 19.3699
38.7254 19.2537
38.7728 19.265
38.82 19.205
38.8674 19.1453
38.9146 19.126
38.9621 19.0404
39.0093 18.9702
39.0567 18.966
39.104 18.9114
39.1514 18.73
39.1987 18.7387
39.2461 18.6632
39.2934 18.6314
39.3409 18.4762
39.3882 18.454
39.4356 18.3594
39.483 18.3769
39.5304 18.3374
39.5778 18.2875
39.6253 18.2052
39.6726 18.144
39.7201 18.165
39.7675 18.0209
39.815 17.9342
39.8624 17.8276
39.9099 17.9033
39.9575 17.7636
40.0049 17.7278
40.0525 17.6725
40.0999 17.6877
40.1474 17.6022
40.1949 17.5442
40.2425 17.4301
40.2899 17.3902
40.3375 17.3538
40.385 17.3141
40.4326 17.2215
40.48 17.2014
40.5277 17.1447
40.5752 17.1017
40.6228 16.9631
40.6703 16.965
40.718 16.8864
40.7655 16.887
40.8132 16.7699
40.8607 16.7414
40.9084 16.8334
40.9559 16.6796
41.0036 16.6184
41.0512 16.575
41.0989 16.538
41.1465 16.455
41.1942 16.3869
41.242 16.2847
41.2896 16.2588
41.3373 16.2276
41.3849 16.1469
41.4327 16.0839
41.4803 16.0609
41.5281 15.9859
41.5758 15.9511
41.6236 15.8842
41.6712 15.8222
41.7191 15.7864
41.7667 15.729
41.8146 15.6973
41.8622 15.6116
41.9101 15.5882
41.9578 15.5091
42.0057 15.5369
42.0534 15.4302
42.1013 15.3947
42.149 15.3073
42.1969 15.2278
42.2446 15.1583
42.2925 15.195
42.3403 15.087
42.3882 15.0439
42.436 15.0227
42.4839 14.9271
42.5319 14.9247
42.5797 14.8518
42.6277 14.8494
42.6755 14.7397
42.7235 14.6781
42.7713 14.6838
42.8193 14.6006
42.8671 14.5596
42.9152 14.4785
42.963 14.4456
43.0111 14.3951
43.0589 14.3369
43.107 14.3048
43.1549 14.224
43.2029 14.1797
43.2508 14.1839
43.2989 14.0894
43.3468 14.0428
43.3949 13.9927
43.4429 14.0096
43.491 13.8999
43.5389 13.8881
43.5871 13.8254
43.635 13.7649
43.6832 13.676
43.7312 13.6676
43.7793 13.5915
43.8273 13.5913
43.8755 13.5125
43.9237 13.4936
43.9717 13.4996
44.0199 13.4326
44.068 13.3461
44.1162 13.2971
44.1642 13.2941
44.2125 13.2304
44.2606 13.1506
44.3088 13.1358
44.3569 13.06
44.4052 13.0421
44.4533 12.9871
44.5016 12.9314
44.5497 12.8765
44.598 12.8416
44.6461 12.768
44.6945 12.769
44.7426 12.6612
44.791 12.649
44.8391 12.6331
44.8875 12.5858
44.9357 12.557
44.984 12.5293
45.0322 12.4379
45.0806 12.3611
45.1288 12.3835
45.1773 12.3156
45.2257 12.2618
45.2739 12.2684
45.3224 12.185
45.3706 12.1345
45.4191 12.0618
45.4673 12.0704
45.5158 12.0283
45.5641 11.9681
45.6126 11.8809
45.6609 11.8486
45.7094 11.8492
45.7577 11.8273
45.8063 11.7181
45.8546 11.7277
45.9031 11.6399
45.9515 11.6369
46.0001 11.6005
46.0484 11.5553
46.097 11.5387
46.1454 11.4736
46.194 11.4301
46.2424 11.3883
46.291 11.3268
46.3395 11.3225
46.3881 11.2075
46.4365 11.2298
46.4852 11.2192
46.5337 11.1693
46.5823 11.122
46.631 11.0681
46.6795 11.0271
46.7282 10.982
46.7767 10.9523
46.8254 10.8941
46.8739 10.8517
46.9226 10.794
46.9712 10.782
47.0199 10.7157
47.0685 10.6858
47.1173 10.6754
47.1658 10.6083
47.2146 10.5714
47.2632 10.5623
47.312 10.5199
47.3606 10.4558
47.4095 10.4088
47.4581 10.3999
47.5069 10.3667
47.5556 10.3073
47.6044 10.2642
47.6531 10.2213
47.702 10.1704
47.7507 10.1256
47.7996 10.0731
47.8483 10.1116
47.8972 10.0882
47.9461 10.0437
47.9948 9.95312
48.0438 9.93637
48.0925 9.90935
48.1415 9.86158
48.1902 9.8434
48.2392 9.83939
48.288 9.7757
48.337 9.72054
48.3858 9.68183
48.4348 9.68689
48.4837 9.6588
48.5327 9.63113
48.5815 9.55008
48.6306 9.55859
48.6795 9.48638
48.7285 9.4344
48.7774 9.40243
48.8265 9.41176
48.8754 9.31653
48.9245 9.3053
48.9734 9.25407
49.0226 9.25599
49.0715 9.18312
49.1206 9.1709
49.1696 9.14894
49.2188 9.12148
49.2679 9.01689
49.3169 9.00359
49.3661 8.99279
49.4151 8.97934
49.4643 8.94171
49.5134 8.89469
49.5626 8.83168
49.6117 8.8175
49.6609 8.80395
49.71 8.74395
49.7592 8.71826
49.8083 8.70289
49.8576 8.66134
49.9067 8.62741
49.956 8.61336
50.0052 8.57359
50.0545 8.4937
50.1036 8.48145
50.153 8.46647
50.2022 8.45479
50.2515 8.36327
50.3007 8.32075
50.3501 8.34371
50.3993 8.30827
50.4487 8.27559
50.498 8.21853
50.5474 8.19474
50.5966 8.1714
50.6461 8.14308
50.6955 8.12036
50.7448 8.11478
50.7943 8.05304
50.8436 8.00385
50.8931 8.00646
50.9424 7.96059
50.9919 7.93237
51.0413 7.90795
51.0908 7.85235
51.1402 7.86315
51.1897 7.82153
51.2391 7.7637
51.2887 7.72946
51.3381 7.68823
51.3877 7.66447
51.4371 7.66633
51.4867 7.58665
51.5362 7.58947
51.5858 7.534
51.6353 7.51276
51.6849 7.47845
51.7344 7.47304
51.7841 7.4437
51.8336 7.41578
51.8833 7.36017
51.9328 7.32592
51.9826 7.27749
52.0323 7.26755
52.0818 7.20935
52.1316 7.19158
52.1812 7.1674
52.231 7.14822
52.2806 7.12313
52.3304 7.08861
52.38 7.02355
52.4298 7.04015
52.4794 7.01686
52.5293 6.95391
52.5789 6.94099
52.6288 6.90624
52.6785 6.87414
52.7284 6.87695
52.7781 6.84509
52.828 6.8253
52.8777 6.73421
52.9276 6.7327
52.9774 6.73034
53.0273 6.7058
53.0771 6.64689
53.1271 6.67693
53.1769 6.57989
53.2269 6.59753
53.2767 6.55759
53.3267 6.53358
53.3765 6.4461
53.4266 6.49138
53.4766 6.45069
53.5265 6.38074
53.5765 6.39639
53.6264 6.34107
53.6765 6.35241
53.7264 6.31002
53.7765 6.29181
53.8265 6.22074
53.8766 6.19658
53.9266 6.18061
53.9767 6.20361
54.0267 6.13322
54.0769 6.1095
54.1269 6.04975
54.1771 6.01166
54.2271 6.00974
54.2773 5.96554
54.3274 5.96454
54.3776 5.88446
54.4277 5.87999
54.478 5.79014
54.528 5.82277
54.5783 5.74398
54.6285 5.66299
54.6788 5.63556
54.7289 5.63757
54.7792 5.54465
54.8296 5.52488
54.8798 5.45759
54.9301 5.39331
54.9803 5.41433
55.0307 5.33676
55.0809 5.30025
55.1314 5.27398
55.1816 5.20728
55.232 5.1943
55.2823 5.12743
55.3328 5.03479
55.383 5.03505
55.4335 4.98766
55.4838 4.86716
55.5344 4.87296
55.5847 4.82323
55.6352 4.8241
55.6856 4.76368
55.7361 4.76462