File: XRD/Ni3Fe_FD0614.xy
TT I
1.27165 7.38566
1.31627 6.759
1.36089 6.59115
1.40551 5.98578
1.45013 5.64521
1.49476 5.9549
1.53938 6.01143
1.584 5.345
1.62863 5.62737
1.67325 5.36393
1.71787 4.76247
1.7625 5.25035
1.80712 4.96517
1.85174 4.71819
1.89636 5.04306
1.94099 4.77941
1.98562 4.39186
2.03025 4.79882
2.07487 4.38579
2.11949 4.22723
2.16411 5.16751
2.20874 12.8333
2.25338 20.7124
2.298 5.4162
2.34263 4.72372
2.38725 5.66828
2.43188 6.2837
2.4765 7.09293
2.52115 6.51562
2.56577 7.78654
2.6104 7.46855
2.65503 7.21851
2.69965 8.05481
2.7443 8.26499
2.78893 8.30602
2.83356 8.37393
2.87818 8.02368
2.92281 8.54226
2.96744 9.51347
3.01209 10.1692
3.05672 11.3371
3.10135 12.064
3.14599 13.2001
3.19062 14.0642
3.23527 15.0188
3.2799 15.8359
3.32454 16.8277
3.36917 18.0021
3.4138 19.4678
3.45844 20.2264
3.50309 20.9283
3.54773 21.59
3.59237 24.227
3.637 85.6641
3.68164 55.4668
3.7263 26.3501
3.77094 25.9936
3.81558 26.7148
3.86022 27.2821
3.90486 29.2001
3.9495 30.0564
3.99416 30.7323
4.0388 32.2609
4.08344 33.8515
4.12809 35.4477
4.17273 37.3053
4.21738 42.8463
4.26204 229.32
4.30669 194.863
4.35133 48.2584
4.39598 44.7903
4.44063 53.7166
4.4853 64.0185
4.52995 50.7555
4.5746 51.3886
4.61925 53.4638
4.6639 55.8083
4.70855 58.0979
4.75322 60.8094
4.79788 63.8911
4.84253 67.5677
4.88719 71.8086
4.93184 75.486
4.97652 80.9858
5.02118 87.5889
5.06583 95.0694
5.11049 106.548
5.15515 170.008
5.19981 359.741
5.24449 2943.43
5.28916 12531.8
5.33382 2971.97
5.37848 193.603
5.42315 130.477
5.46783 114.054
5.5125 107.062
5.55716 103.206
5.60183 99.2136
5.6465 97.5889
5.69117 95.0366
5.73586 93.3946
5.78053 92.2671
5.8252 91.9889
5.86988 92.0411
5.91455 94.8369
5.95924 103.07
6.00392 209.759
6.0486 990.778
6.09328 4372.59
6.13795 3492.97
6.18263 254.266
6.22733 94.3783
6.27201 83.8368
6.3167 100.145
6.36138 80.2183
6.40606 69.3719
6.45075 67.4499
6.49545 65.7621
6.54014 64.2548
6.58483 63.3301
6.62952 63.0163
6.67421 92.3698
6.71892 135.372
6.76361 67.8498
6.8083 58.7318
6.853 57.6236
6.89769 56.9547
6.94239 57.2688
6.98711 56.0284
7.03181 55.5464
7.07651 55.5186
7.12121 55.4801
7.16591 55.722
7.21063 55.6623
7.25533 69.9499
7.30004 167.075
7.34475 87.2335
7.38945 56.6145
7.43416 54.8452
7.47889 54.8434
7.5236 55.0846
7.56831 55.4534
7.61303 57.2541
7.65774 57.5956
7.70247 56.3909
7.74719 56.5994
7.79191 56.9823
7.83663 57.3033
7.88135 58.0768
7.92607 59.1249
7.97081 60.1812
8.01553 61.5622
8.06026 62.4068
8.10498 64.4291
8.14971 72.762
8.19446 72.0596
8.23919 69.8741
8.28392 72.4784
8.32865 74.2752
8.37339 78.899
8.41812 85.8005
8.46288 112.4
8.50761 165.038
8.55235 396.209
8.59709 1207.17
8.64183 2201.14
8.68658 1001.63
8.73134 187.915
8.77609 100.958
8.82083 93.3081
8.86558 90.298
8.91033 90.3505
8.9551 91.6052
8.99985 85.6443
9.04461 84.1694
9.08936 83.1406
9.13412 82.7866
9.17888 82.4711
9.22365 83.1338
9.26841 82.5398
9.31318 83.2749
9.35794 83.2428
9.4027 83.3967
9.44749 84.5875
9.49226 85.2089
9.53703 85.9558
9.5818 87.8578
9.62657 92.3003
9.67134 98.2035
9.71614 94.1315
9.76091 94.653
9.80569 97.3646
9.85047 100.432
9.89525 122.96
9.94005 134.311
9.98484 177.63
10.0296 345.928
10.0744 831.572
10.1192 1698.11
10.164 1561.44
10.2088 414.881
10.2536 128.999
10.2984 113.573
10.3432 114.809
10.388 105.015
10.4328 119.138
10.4776 162.507
10.5224 289.132
10.5672 509.986
10.612 491.33
10.6568 204.978
10.7017 97.4838
10.7465 87.4691
10.7913 83.8534
10.8361 81.7583
10.8809 79.3291
10.9257 78.6911
10.9706 78.825
11.0154 75.1613
11.0602 73.2439
11.105 72.2977
11.1499 76.2944
11.1947 82.2473
11.2395 73.9332
11.2844 70.3714
11.3292 67.5655
11.374 66.5396
11.4189 65.9749
11.4637 65.2519
11.5086 65.8208
11.5534 68.1419
11.5983 65.7416
11.6431 63.9502
11.688 63.2538
11.7328 63.364
11.7777 63.1965
11.8225 62.7527
11.8674 62.7771
11.9122 63.3095
11.9571 63.4524
12.002 63.7977
12.0468 68.0352
12.0917 79.4705
12.1366 104.067
12.1814 153.535
12.2263 199.986
12.2712 166.964
12.3161 97.456
12.3609 70.8591
12.4058 65.1124
12.4507 64.3352
12.4956 64.531
12.5405 64.6735
12.5853 65.7741
12.6302 73.0669
12.6751 77.7836
12.72 69.9469
12.7649 68.2651
12.8098 68.9565
12.8547 70.274
12.8996 71.2614
12.9445 72.5956
12.9894 74.4955
13.0343 76.1996
13.0792 79.1528
13.1242 88.2919
13.1691 112.491
13.214 150.896
13.2589 242.393
13.3038 368.543
13.3487 420.628
13.3937 269.845
13.4386 128.068
13.4835 106.204
13.5285 121.741
13.5734 161.161
13.6183 250.516
13.6633 344.919
13.7082 338.424
13.7531 191.657
13.7981 99.436
13.843 82.336
13.888 79.9845
13.9329 77.7288
13.9779 76.4791
14.0228 74.949
14.0678 73.5164
14.1127 72.9964
14.1577 72.9452
14.2027 71.7327
14.2476 70.7555
14.2926 70.8997
14.3376 71.6968
14.3825 70.648
14.4275 69.3508
14.4725 69.0303
14.5175 69.2556
14.5624 69.6295
14.6074 71.2488
14.6524 71.9497
14.6974 70.9253
14.7424 72.2177
14.7874 79.1674
14.8324 89.7572
14.8774 112.276
14.9224 156.342
14.9674 204.824
15.0124 212.721
15.0574 152.156
15.1024 93.4608
15.1474 73.0613
15.1924 70.8768
15.2374 71.273
15.2824 70.5882
15.3274 68.3656
15.3725 67.3447
15.4175 66.7604
15.4625 66.3015
15.5076 66.6846
15.5526 66.7156
15.5976 66.1197
15.6426 67.3708
15.6877 72.6556
15.7327 80.5951
15.7778 96.2062
15.8228 127.969
15.8679 169.2
15.9129 190.439
15.958 155.14
16.003 98.1767
16.0481 69.2371
16.0931 65.0531
16.1382 62.9351
16.1833 61.1117
16.2283 59.4561
16.2734 58.6801
16.3185 58.9628
16.3636 59.8218
16.4086 57.9818
16.4537 56.6588
16.4988 55.9678
16.5439 55.791
16.589 55.5965
16.6341 55.3149
16.6792 54.9229
16.7243 55.3058
16.7694 55.2673
16.8145 55.3818
16.8596 55.5686
16.9047 56.865
16.9498 57.1788
16.9949 56.0365
17.04 56.2093
17.0851 57.4598
17.1302 58.912
17.1754 62.3661
17.2205 67.1592
17.2656 74.746
17.3108 82.3159
17.3559 82.0262
17.401 72.3841
17.4462 62.9689
17.4913 59.6685
17.5365 59.4919
17.5815 59.6093
17.6268 59.7752
17.6718 60.9066
17.7171 61.2616
17.7622 61.7519
17.8074 62.1067
17.8525 64.6488
17.8977 68.6003
17.9428 74.2004
17.9881 83.344
18.0331 101.228
18.0784 122.045
18.1237 139.094
18.1688 131.676
18.214 105.4
18.2591 88.3286
18.3044 91.6796
18.3495 100.257
18.3948 105.525
18.4399 96.9549
18.4852 78.8654
18.5303 67.0564
18.5756 62.7232
18.6207 61.6716
18.666 60.7036
18.7112 60.2296
18.7565 59.3941
18.8016 59.0732
18.8469 58.3828
18.892 58.1585
18.9374 57.6181
18.9825 57.3176
19.0278 57.1898
19.073 57.2618
19.1183 57.6803
19.1635 58.4894
19.2088 59.9384
19.254 62.7131
19.2993 67.1682
19.3447 72.8261
19.3898 76.0238
19.4352 72.4135
19.4804 64.1055
19.5257 57.1948
19.5709 54.4785
19.6163 54.2485
19.6615 53.8378
19.7068 53.7936
19.752 53.566
19.7974 53.7591
19.8426 54.8299
19.888 55.4604
19.9332 56.4592
19.9786 59.1151
20.0238 63.0238
20.0692 67.3943
20.1144 69.6039
20.1598 68.4791
20.205 64.1213
20.2504 62.8611
20.2957 64.1376
20.3411 65.7672
20.3863 64.2706
20.4318 58.9298
20.477 54.2349
20.5224 52.0455
20.5677 51.2989
20.6131 50.4075
20.6586 49.9797
20.7038 49.8138
20.7493 49.3823
20.7945 49.3369
20.84 49.1441
20.8853 49.0417
20.9307 48.7919
20.976 48.8285
21.0215 48.9812
21.0668 49.2946
21.1122 49.7836
21.1575 50.6906
21.203 51.1563
21.2483 51.5088
21.2938 51.5433
21.3391 50.5021
21.3846 49.2603
21.4299 48.7034
21.4754 48.6774
21.5207 48.8733
21.5662 49.0608
21.6116 49.5033
21.6571 50.122
21.7024 51.0683
21.7479 53.1908
21.7933 55.8007
21.8388 59.2759
21.8843 62.8363
21.9297 64.4022
21.9752 63.361
22.0206 60.0025
22.0661 57.1573
22.1115 56.41
22.157 56.1976
22.2024 54.502
22.248 51.8581
22.2933 50.3295
22.3389 49.3871
22.3843 49.2922
22.4299 49.1548
22.4753 49.1061
22.5208 48.8006
22.5662 48.621
22.6118 48.9881
22.6572 49.2074
22.7028 49.565
22.7483 49.9784
22.7939 50.7585
22.8393 52.2426
22.8849 54.5035
22.9303 56.3728
22.9759 57.8171
23.0214 57.4381
23.067 55.0306
23.1126 51.583
23.1581 49.5507
23.2037 49.1414
23.2492 49.1358
23.2948 49.0148
23.3403 49.4641
23.3859 50.1039
23.4314 51.1163
23.477 53.0951
23.5225 55.2528
23.5682 57.1176
23.6137 57.7316
23.6593 55.8496
23.7048 52.1471
23.7505 48.8012
23.796 46.9974
23.8417 46.301
23.8872 45.7949
23.9329 45.5144
23.9784 45.2397
24.0241 45.0257
24.0697 44.7642
24.1154 44.4676
24.1609 44.3792
24.2066 44.012
24.2522 44.0107
24.2979 43.8022
24.3434 43.6355
24.3892 43.4879
24.4349 43.3617
24.4805 43.2413
24.5262 43.3871
24.5718 43.2325
24.6175 43.2599
24.6631 43.1117
24.7089 42.725
24.7545 42.668
24.8002 42.4989
24.8458 42.6018
24.8916 42.2744
24.9372 42.3756
24.983 42.621
25.0286 43.1231
25.0744 43.5921
25.12 43.9703
25.1658 44.6391
25.2114 44.8878
25.2572 45.0753
25.3029 45.203
25.3487 45.1427
25.3943 44.8222
25.4402 43.7642
25.4858 42.851
25.5316 41.6897
25.5773 41.179
25.6231 41.1461
25.669 40.6382
25.7147 40.7475
25.7605 40.6648
25.8062 40.8424
25.8521 40.8748
25.8977 40.796
25.9436 41.0695
25.9893 41.1888
26.0352 41.6571
26.0809 41.7566
26.1268 41.9558
26.1725 41.5222
26.2184 40.9628
26.2641 40.6492
26.31 40.5087
26.3557 40.4333
26.4017 40.3139
26.4474 40.5532
26.4933 41.0258
26.5391 41.3486
26.585 41.8187
26.6308 42.1437
26.6767 42.2971
26.7225 42.2839
26.7684 41.7388
26.8142 41.2086
26.8601 40.8303
26.9059 40.2336
26.9519 39.8703
26.9979 39.482
27.0437 39.0425
27.0896 39.027
27.1354 39.0186
27.1814 38.7752
27.2272 38.7538
27.2732 38.9025
27.3191 38.5258
27.3651 38.6431
27.4109 38.6013
27.4569 38.8494
27.5027 38.7676
27.5488 38.8268
27.5946 38.6214
27.6407 38.3918
27.6865 38.2403
27.7326 38.0969
27.7784 38.0813
27.8245 37.9108
27.8703 38.1952
27.9164 38.4752
27.9623 38.6062
28.0084 38.9632
28.0543 39.3215
28.1003 39.2028
28.1462 38.9596
28.1923 38.6305
28.2384 38.1488
28.2843 37.8277
28.3304 37.4243
28.3764 37.0734
28.4225 36.6199
28.4684 36.5523
28.5145 36.1844
28.5605 36.1032
28.6066 35.9158
28.6526 35.8241
28.6987 35.8953
28.7447 35.606
28.7908 35.6782
28.8368 35.6485
28.8829 35.5684
28.9289 35.6367
28.9751 35.3234
29.0211 35.1854
29.0673 34.8533
29.1133 34.6521
29.1595 34.6562
29.2055 34.5262
29.2517 34.5159
29.2977 34.5574
29.3439 34.5515
29.3899 34.4963
29.4361 34.282
29.4824 34.2374
29.5284 34.0518
29.5746 33.6457
29.6207 33.2995
29.6669 33.2245
29.713 33.14
29.7593 33.1354
29.8053 33.1519
29.8516 33.0088
29.8977 32.9492
29.9439 32.7186
29.99 32.8939
30.0363 32.5919
30.0824 32.7577
30.1287 32.5501
30.1748 32.6081
30.2211 32.5481
30.2673 32.4731
30.3136 32.5188
30.3597 32.4966
30.406 32.4674
30.4522 32.2548
30.4985 32.2699
30.5447 32.3682
30.591 32.2804
30.6372 32.425
30.6835 32.3628
30.7297 32.4269
30.7761 32.3546
30.8224 32.1803
30.8686 32.0317
30.915 31.7606
30.9612 31.6465
31.0076 31.5458
31.0538 31.3658
31.1002 31.3287
31.1464 31.1571
31.1928 31.1882
31.2391 31.1701
31.2855 31.0502
31.3317 30.9619
31.3781 31.1332
31.4244 31.0531
31.4708 30.9728
31.5171 30.96
31.5636 30.992
31.6098 30.6848
31.6563 30.5443
31.7026 30.4406
31.7491 30.406
31.7953 30.342
31.8418 30.356
31.8881 30.2939
31.9346 30.2002
31.9809 30.3298
32.0275 30.0924
32.074 30.0574
32.1203 29.8304
32.1668 29.6905
32.2132 29.5091
32.2597 29.4804
32.306 29.3486
32.3526 29.1553
32.399 29.1182
32.4455 28.9748
32.4919 28.879
32.5385 28.78
32.5848 28.6315
32.6314 28.6164
32.6778 28.5589
32.7244 28.4906
32.7708 28.3345
32.8174 28.3295
32.8638 28.1973
32.9104 28.2111
32.9569 28.1663
33.0035 28.0092
33.0499 28.0935
33.0966 27.9071
33.143 27.9696
33.1897 27.8568
33.2361 27.7586
33.2828 27.7706
33.3293 27.6486
33.3759 27.5117
33.4226 27.373
33.4691 27.1668
33.5158 27.2226
33.5623 27.0046
33.609 26.9619
33.6555 26.8426
33.7022 26.7622
33.7487 26.5926
33.7954 26.6536
33.842 26.4878
33.8887 26.5096
33.9353 26.3932
33.982 26.2789
34.0286 26.1764
34.0753 26.156
34.1219 26.0356
34.1687 26.0029
34.2152 25.9353
34.262 25.7828
34.3086 25.7652
34.3554 25.6753
34.402 25.5574
34.4488 25.4975
34.4954 25.3755
34.5422 25.3886
34.5889 25.2688
34.6357 25.1859
34.6825 25.1455
34.7292 24.9798
34.776 24.8651
34.8227 24.8655
34.8695 24.7814
34.9162 24.7249
34.9631 24.7615
35.0098 24.6301
35.0566 24.5055
35.1033 24.4955
35.1502 24.4914
35.1969 24.3779
35.2438 24.3211
35.2906 24.1881
35.3375 24.2902
35.3842 24.0943
35.4311 24.0995
35.4779 24.0981
35.5248 24.1212
35.5716 23.928
35.6185 23.8726
35.6653 23.6934
35.7123 23.7136
35.759 23.5529
35.806 23.5492
35.8528 23.422
35.8998 23.3615
35.9468 23.2677
35.9936 23.2638
36.0406 23.1659
36.0874 23.1274
36.1345 23.0927
36.1813 22.9117
36.2283 22.832
36.2752 22.7872
36.3222 22.82
36.3691 22.7185
36.4161 22.599
36.463 22.5888
36.5101 22.5407
36.557 22.4802
36.6041 22.2844
36.651 22.3457
36.6981 22.215
36.745 22.1806
36.7921 22.0999
36.839 22.0073
36.8861 21.9486
36.9331 21.8948
36.9802 21.892
37.0272 21.7313
37.0743 21.7051
37.1213 21.626
37.1684 21.4949
37.2154 21.3812
37.2626 21.3945
37.3098 21.352
37.3568 21.2371
37.404 21.1954
37.451 21.1254
37.4982 21.1307
37.5452 20.9348
37.5924 20.9262
37.6395 20.9063
37.6867 20.8394
37.7337 20.7066
37.781 20.6621
37.8281 20.613
37.8753 20.5732
37.9224 20.4866
37.9697 20.4091
38.0168 20.2997
38.064 20.2965
38.1111 20.2901
38.1584 20.1199
38.2056 20.1219
38.2529 20.052
38.3 19.8947
38.3473 19.9756
38.3945 19.8402
38.4418 19.7664
38.489 19.7019
38.5363 19.6182
38.5837 19.5626
38.6309 19.5259
38.6782 19.486
38.7254 19.3067
38.7728 19.3206
38.82 19.2681
38.8674 19.1802
38.9146 19.1094
38.9621 19.0552
39.0093 19.0354
39.0567 18.9538
39.104 18.9112
39.1514 18.9063
39.1987 18.7932
39.2461 18.7825
39.2934 18.7561
39.3409 18.5856
39.3882 18.4819
39.4356 18.4735
39.483 18.4409
39.5304 18.3497
39.5778 18.3261
39.6253 18.2734
39.6726 18.2196
39.7201 18.1815
39.7675 18.0481
39.815 18.0778
39.8624 17.9873
39.9099 17.9974
39.9575 17.8157
40.0049 17.8768
40.0525 17.7793
40.0999 17.7299
40.1474 17.666
40.1949 17.598
40.2425 17.5103
40.2899 17.4693
40.3375 17.4147
40.385 17.3926
40.4326 17.2986
40.48 17.2308
40.5277 17.1709
40.5752 17.1485
40.6228 17.0596
40.6703 17.0374
40.718 16.9898
40.7655 16.8829
40.8132 16.8571
40.8607 16.8597
40.9084 16.7717
40.9559 16.7221
41.0036 16.6554
41.0512 16.5389
41.0989 16.5553
41.1465 16.5226
41.1942 16.4189
41.242 16.3642
41.2896 16.3203
41.3373 16.274
41.3849 16.2773
41.4327 16.1758
41.4803 16.0468
41.5281 16.0945
41.5758 15.9789
41.6236 15.9071
41.6712 15.8785
41.7191 15.8063
41.7667 15.773
41.8146 15.7758
41.8622 15.6774
41.9101 15.6232
41.9578 15.5209
42.0057 15.5047
42.0534 15.499
42.1013 15.4314
42.149 15.3504
42.1969 15.3429
42.2446 15.2766
42.2925 15.2561
42.3403 15.134
42.3882 15.1325
42.436 15.0906
42.4839 14.9588
42.5319 14.9733
42.5797 14.8823
42.6277 14.8736
42.6755 14.8379
42.7235 14.7266
42.7713 14.7376
42.8193 14.6609
42.8671 14.6086
42.9152 14.5893
42.963 14.5463
43.0111 14.4959
43.0589 14.4311
43.107 14.3063
43.1549 14.3559
43.2029 14.2258
43.2508 14.2005
43.2989 14.1261
43.3468 14.0854
43.3949 14.0748
43.4429 14.0538
43.491 13.9885
43.5389 13.9153
43.5871 13.8965
43.635 13.8065
43.6832 13.7759
43.7312 13.6643
43.7793 13.6843
43.8273 13.6421
43.8755 13.5357
43.9237 13.5478
43.9717 13.5111
44.0199 13.4566
44.068 13.4651
44.1162 13.3656
44.1642 13.3542
44.2125 13.2991
44.2606 13.2299
44.3088 13.1552
44.3569 13.1411
44.4052 13.0787
44.4533 13.0344
44.5016 12.9677
44.5497 12.9692
44.598 12.8965
44.6461 12.8874
44.6945 12.8137
44.7426 12.7621
44.791 12.7198
44.8391 12.6793
44.8875 12.7112
44.9357 12.5966
44.984 12.5295
45.0322 12.5129
45.0806 12.4486
45.1288 12.4408
45.1773 12.3625
45.2257 12.2845
45.2739 12.2941
45.3224 12.2427
45.3706 12.2344
45.4191 12.1279
45.4673 12.1042
45.5158 12.0866
45.5641 12.0404
45.6126 11.9775
45.6609 11.9496
45.7094 11.8703
45.7577 11.8914
45.8063 11.7705
45.8546 11.7809
45.9031 11.7305
45.9515 11.699
46.0001 11.627
46.0484 11.601
46.097 11.5666
46.1454 11.5099
46.194 11.4978
46.2424 11.4301
46.291 11.3549
46.3395 11.3304
46.3881 11.2878
46.4365 11.2981
46.4852 11.2331
46.5337 11.1741
46.5823 11.1563
46.631 11.097
46.6795 11.077
46.7282 11.0284
46.7767 10.9585
46.8254 10.9457
46.8739 10.9483
46.9226 10.8492
46.9712 10.8382
47.0199 10.7859
47.0685 10.7603
47.1173 10.6871
47.1658 10.641
47.2146 10.6163
47.2632 10.5764
47.312 10.5596
47.3606 10.4991
47.4095 10.4408
47.4581 10.4199
47.5069 10.3682
47.5556 10.3542
47.6044 10.2609
47.6531 10.2191
47.702 10.1894
47.7507 10.1885
47.7996 10.1581
47.8483 10.1224
47.8972 10.0362
47.9461 10.083
47.9948 10.0059
48.0438 10.0097
48.0925 9.95517
48.1415 9.90519
48.1902 9.8552
48.2392 9.83591
48.288 9.79916
48.337 9.77702
48.3858 9.71594
48.4348 9.70063
48.4837 9.71311
48.5327 9.64911
48.5815 9.59145
48.6306 9.53869
48.6795 9.48356
48.7285 9.43962
48.7774 9.44836
48.8265 9.42212
48.8754 9.36855
48.9245 9.32725
48.9734 9.31019
49.0226 9.27841
49.0715 9.24042
49.1206 9.20291
49.1696 9.16781
49.2188 9.12248
49.2679 9.11519
49.3169 9.05903
49.3661 9.016
49.4151 9.01866
49.4643 8.95301
49.5134 8.93263
49.5626 8.85153
49.6117 8.8591
49.6609 8.85139
49.71 8.80323
49.7592 8.73527
49.8083 8.69937
49.8576 8.66715
49.9067 8.6409
49.956 8.61665
50.0052 8.59422
50.0545 8.55754
50.1036 8.50972
50.153 8.50629
50.2022 8.45127
50.2515 8.43059
50.3007 8.35051
50.3501 8.34008
50.3993 8.30434
50.4487 8.31489
50.498 8.25767
50.5474 8.2526
50.5966 8.14872
50.6461 8.1385
50.6955 8.17432
50.7448 8.12878
50.7943 8.0656
50.8436 8.06918
50.8931 8.00148
50.9424 7.98079
50.9919 7.92446
51.0413 7.91471
51.0908 7.88562
51.1402 7.87219
51.1897 7.80787
51.2391 7.78765
51.2887 7.73624
51.3381 7.71258
51.3877 7.67461
51.4371 7.65575
51.4867 7.63839
51.5362 7.61876
51.5858 7.54993
51.6353 7.54857
51.6849 7.48079
51.7344 7.47083
51.7841 7.45896
51.8336 7.42831
51.8833 7.37485
51.9328 7.34804
51.9826 7.29615
52.0323 7.26599
52.0818 7.29096
52.1316 7.18095
52.1812 7.19041
52.231 7.16679
52.2806 7.14287
52.3304 7.13922
52.38 7.08377
52.4298 7.05131
52.4794 7.00493
52.5293 6.99
52.5789 6.99994
52.6288 6.91827
52.6785 6.92337
52.7284 6.8573
52.7781 6.86864
52.828 6.83282
52.8777 6.77522
52.9276 6.78846
52.9774 6.73759
53.0273 6.71652
53.0771 6.71668
53.1271 6.68676
53.1769 6.5866
53.2269 6.60349
53.2767 6.56753
53.3267 6.53166
53.3765 6.49799
53.4266 6.48324
53.4766 6.48554
53.5265 6.39904
53.5765 6.3928
53.6264 6.38107
53.6765 6.33369
53.7264 6.36194
53.7765 6.30136
53.8265 6.23704
53.8766 6.20661
53.9266 6.18159
53.9767 6.202
54.0267 6.16577
54.0769 6.08091
54.1269 6.0654
54.1771 6.0628
54.2271 6.04443
54.2773 5.99501
54.3274 5.96538
54.3776 5.95846
54.4277 5.93074
54.478 5.88353
54.528 5.80056
54.5783 5.77401
54.6285 5.77308
54.6788 5.71998
54.7289 5.70961
54.7792 5.65701
54.8296 5.62087
54.8798 5.51165
54.9301 5.49575
54.9803 5.47329
55.0307 5.43059
55.0809 5.42089
55.1314 5.42467
55.1816 5.31501
55.232 5.27298
55.2823 5.22741
55.3328 5.17579
55.383 5.1239
55.4335 5.05763
55.4838 5.04582
55.5344 5.02363
55.5847 4.97207
55.6352 4.90052
55.6856 4.91893
55.7361 4.86276