File: XRD/Ni3Fe_FD0756.xy
TT I
1.27165 6.89075
1.31627 7.0593
1.36089 6.38932
1.40551 5.41111
1.45013 5.72771
1.49476 5.5037
1.53938 5.9342
1.584 5.37704
1.62863 5.26047
1.67325 4.8571
1.71787 5.19999
1.7625 4.26372
1.80712 5.13047
1.85174 5.46542
1.89636 4.7419
1.94099 4.80834
1.98562 4.90483
2.03025 4.29395
2.07487 4.23199
2.11949 4.89312
2.16411 5.1739
2.20874 15.5838
2.25338 26.3246
2.298 6.26147
2.34263 5.64073
2.38725 5.99914
2.43188 6.40595
2.4765 6.82594
2.52115 6.82771
2.56577 7.85276
2.6104 8.63639
2.65503 7.72956
2.69965 8.1791
2.7443 8.2706
2.78893 8.04483
2.83356 8.08003
2.87818 8.83711
2.92281 8.66626
2.96744 9.49806
3.01209 10.204
3.05672 11.317
3.10135 12.0764
3.14599 13.2473
3.19062 14.3244
3.23527 15.1696
3.2799 15.4297
3.32454 16.9216
3.36917 17.9088
3.4138 18.8294
3.45844 19.7171
3.50309 20.8411
3.54773 21.5552
3.59237 24.4155
3.637 103.985
3.68164 65.6356
3.7263 26.4859
3.77094 26.0408
3.81558 26.8787
3.86022 27.6423
3.90486 28.9878
3.9495 30.029
3.99416 30.7933
4.0388 32.1738
4.08344 33.3594
4.12809 34.934
4.17273 36.9107
4.21738 43.7838
4.26204 282.448
4.30669 252.667
4.35133 49.7357
4.39598 44.3236
4.44063 55.4283
4.4853 69.1503
4.52995 50.4271
4.5746 50.851
4.61925 53.0976
4.6639 55.4315
4.70855 57.7888
4.75322 60.4552
4.79788 63.2728
4.84253 66.5023
4.88719 70.0212
4.93184 74.2982
4.97652 79.4844
5.02118 85.4876
5.06583 93.0899
5.11049 103.829
5.15515 177.118
5.19981 306.781
5.24449 2527.78
5.28916 12942.7
5.33382 3002.84
5.37848 188.306
5.42315 127.956
5.46783 112.333
5.5125 105.261
5.55716 101.051
5.60183 97.6527
5.6465 96.0557
5.69117 93.77
5.73586 91.4209
5.78053 90.2143
5.8252 89.4521
5.86988 89.5679
5.91455 92.1325
5.95924 97.6353
6.00392 180.23
6.0486 847.193
6.09328 4268.13
6.13795 3206.02
6.18263 239.681
6.22733 92.5898
6.27201 82.4714
6.3167 106.543
6.36138 82.1872
6.40606 68.423
6.45075 67.0649
6.49545 65.4942
6.54014 63.6558
6.58483 62.9298
6.62952 62.5979
6.67421 98.4004
6.71892 159.909
6.76361 70.6029
6.8083 58.6515
6.853 57.2301
6.89769 56.8123
6.94239 56.6211
6.98711 55.8081
7.03181 55.4332
7.07651 55.4931
7.12121 55.396
7.16591 55.0507
7.21063 55.8686
7.25533 72.7577
7.30004 203.093
7.34475 99.6016
7.38945 57.0302
7.43416 54.8011
7.47889 54.4498
7.5236 54.9884
7.56831 55.3928
7.61303 57.1504
7.65774 57.7746
7.70247 55.9098
7.74719 55.9188
7.79191 56.5488
7.83663 56.9922
7.88135 57.4887
7.92607 58.4996
7.97081 59.4739
8.01553 60.6303
8.06026 61.7997
8.10498 63.5701
8.14971 74.1537
8.19446 73.182
8.23919 68.9362
8.28392 71.1644
8.32865 73.2924
8.37339 77.3914
8.41812 84.6319
8.46288 116.047
8.50761 150.384
8.55235 349.299
8.59709 1104.32
8.64183 2177.89
8.68658 1038.45
8.73134 167.021
8.77609 98.4958
8.82083 91.997
8.86558 88.9765
8.91033 89.5207
8.9551 92.8045
8.99985 85.1169
9.04461 82.984
9.08936 82.2228
9.13412 81.0937
9.17888 81.2476
9.22365 82.3516
9.26841 81.3629
9.31318 82.2392
9.35794 81.9357
9.4027 82.2048
9.44749 83.0649
9.49226 83.9364
9.53703 84.3454
9.5818 86.1196
9.62657 91.4682
9.67134 99.7243
9.71614 93.5732
9.76091 93.2518
9.80569 95.5166
9.85047 99.0569
9.89525 126.013
9.94005 138.263
9.98484 160.283
10.0296 306.56
10.0744 757.046
10.1192 1740.71
10.164 1634.48
10.2088 408.351
10.2536 127.241
10.2984 113.702
10.3432 116.237
10.388 103.969
10.4328 112.961
10.4776 151.04
10.5224 267.714
10.5672 509.103
10.612 517.014
10.6568 211.098
10.7017 97.0341
10.7465 85.9178
10.7913 82.4233
10.8361 80.4436
10.8809 78.3131
10.9257 78.5278
10.9706 78.9728
11.0154 74.7004
11.0602 72.3008
11.105 71.4912
11.1499 76.7455
11.1947 86.1055
11.2395 75.1651
11.2844 70.7483
11.3292 67.0749
11.374 65.7067
11.4189 65.304
11.4637 64.4706
11.5086 65.4205
11.5534 68.9333
11.5983 65.6948
11.6431 63.2554
11.688 62.5665
11.7328 62.5
11.7777 62.4551
11.8225 61.9364
11.8674 62.0824
11.9122 62.3452
11.9571 62.8607
12.002 63.017
12.0468 65.9298
12.0917 76.8344
12.1366 99.1332
12.1814 148.678
12.2263 206.551
12.2712 173.726
12.3161 101.17
12.3609 71.528
12.4058 64.6916
12.4507 63.8886
12.4956 64.2007
12.5405 64.1763
12.5853 64.9511
12.6302 74.1229
12.6751 80.6468
12.72 70.3149
12.7649 67.7583
12.8098 67.8022
12.8547 69.24
12.8996 70.304
12.9445 71.6434
12.9894 73.3668
13.0343 74.9279
13.0792 77.9402
13.1242 85.2582
13.1691 106.406
13.214 140.663
13.2589 227.633
13.3038 367.838
13.3487 431.551
13.3937 271.042
13.4386 127.02
13.4835 102.411
13.5285 114.373
13.5734 150.134
13.6183 240.171
13.6633 349.985
13.7082 346.876
13.7531 190.119
13.7981 98.1509
13.843 81.4433
13.888 79.1974
13.9329 76.6283
13.9779 75.457
14.0228 73.7654
14.0678 72.576
14.1127 71.9785
14.1577 72.0206
14.2027 71.0919
14.2476 69.7952
14.2926 70.2261
14.3376 71.7863
14.3825 70.0357
14.4275 68.3291
14.4725 68.1615
14.5175 68.2574
14.5624 68.7636
14.6074 70.9949
14.6524 71.7744
14.6974 69.9326
14.7424 70.9679
14.7874 76.5545
14.8324 85.4681
14.8774 106.146
14.9224 148.505
14.9674 206.853
15.0124 223.482
15.0574 153.091
15.1024 92.4381
15.1474 71.9757
15.1924 69.9687
15.2374 71.2191
15.2824 70.3811
15.3274 67.9506
15.3725 66.3575
15.4175 65.9071
15.4625 65.3748
15.5076 65.7543
15.5526 65.9048
15.5976 65.4952
15.6426 65.7211
15.6877 70.0846
15.7327 77.1858
15.7778 91.6218
15.8228 122.363
15.8679 167.109
15.9129 193.74
15.958 158.016
16.003 99.1569
16.0481 68.7361
16.0931 64.8221
16.1382 62.7729
16.1833 60.3407
16.2283 58.8797
16.2734 58.1098
16.3185 58.4946
16.3636 59.6378
16.4086 57.7431
16.4537 56.1003
16.4988 55.2552
16.5439 55.0847
16.589 54.9163
16.6341 54.5614
16.6792 54.1996
16.7243 54.5804
16.7694 54.7957
16.8145 54.4776
16.8596 55.2137
16.9047 56.6892
16.9498 57.0814
16.9949 55.7188
17.04 55.2957
17.0851 56.4495
17.1302 57.9049
17.1754 60.7325
17.2205 65.6048
17.2656 73.6028
17.3108 83.0172
17.3559 82.6293
17.401 70.9237
17.4462 61.9295
17.4913 58.8644
17.5365 58.7116
17.5815 58.766
17.6268 59.1193
17.6718 59.8546
17.7171 60.771
17.7622 60.9306
17.8074 61.2324
17.8525 62.9047
17.8977 66.753
17.9428 72.0241
17.9881 80.1782
18.0331 96.8841
18.0784 119.415
18.1237 138.441
18.1688 130.897
18.214 103.66
18.2591 85.7233
18.3044 89.1313
18.3495 99.4959
18.3948 106.026
18.4399 96.9003
18.4852 78.0736
18.5303 65.994
18.5756 61.9017
18.6207 61.087
18.666 60.0697
18.7112 59.2214
18.7565 58.4409
18.8016 58.4389
18.8469 57.7315
18.892 57.4478
18.9374 57.017
18.9825 56.7148
19.0278 56.4517
19.073 56.4911
19.1183 56.8449
19.1635 57.7208
19.2088 58.9402
19.254 61.0416
19.2993 65.6966
19.3447 72.4294
19.3898 76.7625
19.4352 72.8167
19.4804 63.4669
19.5257 56.5282
19.5709 53.9738
19.6163 53.6388
19.6615 53.4231
19.7068 53.1675
19.752 52.948
19.7974 53.0432
19.8426 54.116
19.888 54.5979
19.9332 55.5895
19.9786 57.8818
20.0238 61.6125
20.0692 66.5343
20.1144 69.4066
20.1598 67.8588
20.205 63.1112
20.2504 61.5912
20.2957 63.3886
20.3411 65.6582
20.3863 63.9168
20.4318 58.4121
20.477 53.6694
20.5224 51.6382
20.5677 50.7528
20.6131 50.1194
20.6586 49.3147
20.7038 49.2414
20.7493 48.9505
20.7945 48.8619
20.84 48.5191
20.8853 48.386
20.9307 48.1242
20.976 48.3487
21.0215 48.0859
21.0668 48.7798
21.1122 49.0405
21.1575 49.6638
21.203 50.4446
21.2483 51.1129
21.2938 50.9102
21.3391 49.74
21.3846 48.783
21.4299 48.1611
21.4754 47.9403
21.5207 48.1153
21.5662 48.3554
21.6116 48.7289
21.6571 49.3029
21.7024 50.3004
21.7479 51.9778
21.7933 54.4522
21.8388 58.2276
21.8843 62.0063
21.9297 64.2911
21.9752 63.1771
22.0206 59.5186
22.0661 56.3501
22.1115 55.7122
22.157 55.4946
22.2024 54.2096
22.248 51.3984
22.2933 49.5821
22.3389 48.9449
22.3843 48.8183
22.4299 48.5906
22.4753 48.5687
22.5208 48.2945
22.5662 48.0845
22.6118 48.2961
22.6572 48.3715
22.7028 48.9846
22.7483 49.2349
22.7939 49.9181
22.8393 51.4677
22.8849 53.5321
22.9303 55.9138
22.9759 57.7432
23.0214 57.388
23.067 54.5228
23.1126 51.0489
23.1581 48.929
23.2037 48.5296
23.2492 48.5187
23.2948 48.4575
23.3403 48.6599
23.3859 49.2868
23.4314 50.2319
23.477 52.1141
23.5225 54.3197
23.5682 56.759
23.6137 57.8623
23.6593 55.5334
23.7048 51.4887
23.7505 48.2717
23.796 46.3683
23.8417 45.7888
23.8872 45.3039
23.9329 45.124
23.9784 44.5963
24.0241 44.3259
24.0697 44.3133
24.1154 43.9305
24.1609 43.7924
24.2066 43.5794
24.2522 43.4993
24.2979 43.1766
24.3434 43.1851
24.3892 42.8225
24.4349 42.8798
24.4805 42.6805
24.5262 42.8307
24.5718 42.6298
24.6175 42.5897
24.6631 42.5789
24.7089 42.2317
24.7545 42.0582
24.8002 41.9328
24.8458 41.9931
24.8916 41.7765
24.9372 42.0764
24.983 42.1869
25.0286 42.5175
25.0744 43.0088
25.12 43.5209
25.1658 44.0664
25.2114 44.4693
25.2572 44.4839
25.3029 44.593
25.3487 44.756
25.3943 44.4178
25.4402 43.3626
25.4858 42.3689
25.5316 41.3771
25.5773 40.728
25.6231 40.5815
25.669 40.3583
25.7147 40.298
25.7605 40.1379
25.8062 40.3331
25.8521 40.4352
25.8977 40.3042
25.9436 40.59
25.9893 40.7572
26.0352 41.1772
26.0809 41.2036
26.1268 41.5565
26.1725 41.149
26.2184 40.6652
26.2641 40.1212
26.31 39.834
26.3557 39.9744
26.4017 39.9079
26.4474 40.243
26.4933 40.5433
26.5391 41.0212
26.585 41.4933
26.6308 41.677
26.6767 41.9447
26.7225 41.7021
26.7684 41.221
26.8142 40.6452
26.8601 40.199
26.9059 39.8346
26.9519 39.32
26.9979 39.0305
27.0437 38.7535
27.0896 38.4993
27.1354 38.6441
27.1814 38.4952
27.2272 38.239
27.2732 38.2394
27.3191 38.067
27.3651 38.2317
27.4109 38.0806
27.4569 38.2602
27.5027 38.3252
27.5488 38.3566
27.5946 38.1758
27.6407 37.8987
27.6865 37.89
27.7326 37.7103
27.7784 37.6497
27.8245 37.6754
27.8703 37.8096
27.9164 37.9541
27.9623 38.0966
28.0084 38.396
28.0543 38.8908
28.1003 38.9304
28.1462 38.5613
28.1923 38.275
28.2384 37.8911
28.2843 37.4038
28.3304 37.1491
28.3764 36.5761
28.4225 36.2933
28.4684 36.1542
28.5145 35.7949
28.5605 35.7499
28.6066 35.3898
28.6526 35.4467
28.6987 35.4053
28.7447 35.3032
28.7908 35.2551
28.8368 35.2628
28.8829 35.2841
28.9289 35.0844
28.9751 35.0017
29.0211 34.7872
29.0673 34.5512
29.1133 34.3696
29.1595 34.3009
29.2055 34.0106
29.2517 34.1549
29.2977 34.1673
29.3439 34.0539
29.3899 34.0342
29.4361 34.0436
29.4824 33.7714
29.5284 33.4752
29.5746 33.1693
29.6207 32.8645
29.6669 32.9305
29.713 32.8583
29.7593 32.6692
29.8053 32.7936
29.8516 32.5485
29.8977 32.7046
29.9439 32.5206
29.99 32.3136
30.0363 32.3632
30.0824 32.1685
30.1287 32.0919
30.1748 32.2112
30.2211 32.3065
30.2673 32.0762
30.3136 32.0518
30.3597 32.0916
30.406 32.032
30.4522 32.019
30.4985 31.8594
30.5447 31.9448
30.591 32.0273
30.6372 31.9654
30.6835 32.0719
30.7297 32.1173
30.7761 31.9597
30.8224 31.8509
30.8686 31.6986
30.915 31.45
30.9612 31.3153
31.0076 31.2058
31.0538 31.0288
31.1002 30.9434
31.1464 30.8264
31.1928 30.8102
31.2391 30.7796
31.2855 30.6792
31.3317 30.6422
31.3781 30.739
31.4244 30.839
31.4708 30.6122
31.5171 30.6075
31.5636 30.7099
31.6098 30.4151
31.6563 30.1863
31.7026 30.0384
31.7491 29.962
31.7953 30.0705
31.8418 30.0897
31.8881 29.9554
31.9346 29.9149
31.9809 29.9027
32.0275 29.842
32.074 29.6621
32.1203 29.4871
32.1668 29.3534
32.2132 29.1952
32.2597 29.252
32.306 29.0237
32.3526 28.8356
32.399 28.7954
32.4455 28.6942
32.4919 28.496
32.5385 28.5372
32.5848 28.3465
32.6314 28.4098
32.6778 28.2807
32.7244 28.1468
32.7708 28.0015
32.8174 28.0703
32.8638 27.8985
32.9104 28.0059
32.9569 27.8615
33.0035 27.744
33.0499 27.7111
33.0966 27.7311
33.143 27.6911
33.1897 27.5436
33.2361 27.4301
33.2828 27.4591
33.3293 27.3249
33.3759 27.3266
33.4226 27.1478
33.4691 26.9539
33.5158 26.8625
33.5623 26.8169
33.609 26.6544
33.6555 26.5196
33.7022 26.5183
33.7487 26.3936
33.7954 26.3351
33.842 26.2415
33.8887 26.214
33.9353 26.0975
33.982 25.9981
34.0286 25.9055
34.0753 25.9845
34.1219 25.7746
34.1687 25.6844
34.2152 25.645
34.262 25.5235
34.3086 25.4341
34.3554 25.448
34.402 25.2953
34.4488 25.1764
34.4954 25.1004
34.5422 25.0682
34.5889 24.9358
34.6357 24.9017
34.6825 24.7538
34.7292 24.7384
34.776 24.5799
34.8227 24.5829
34.8695 24.504
34.9162 24.5132
34.9631 24.4227
35.0098 24.3426
35.0566 24.2078
35.1033 24.1186
35.1502 24.1825
35.1969 24.0541
35.2438 23.9791
35.2906 24.0029
35.3375 23.8777
35.3842 23.8871
35.4311 23.9239
35.4779 23.8722
35.5248 23.7709
35.5716 23.7009
35.6185 23.6557
35.6653 23.5489
35.7123 23.4503
35.759 23.3793
35.806 23.2499
35.8528 23.1448
35.8998 23.0747
35.9468 23.0243
35.9936 22.9907
36.0406 22.8559
36.0874 22.8977
36.1345 22.8294
36.1813 22.69
36.2283 22.5505
36.2752 22.5194
36.3222 22.5335
36.3691 22.4844
36.4161 22.2617
36.463 22.3142
36.5101 22.3235
36.557 22.314
36.6041 22.1322
36.651 22.0658
36.6981 22.0868
36.745 21.9421
36.7921 21.8344
36.839 21.7239
36.8861 21.6599
36.9331 21.7107
36.9802 21.6034
37.0272 21.5709
37.0743 21.3843
37.1213 21.3914
37.1684 21.3175
37.2154 21.2158
37.2626 21.1612
37.3098 21.1187
37.3568 21.1258
37.404 21.0253
37.451 20.8474
37.4982 20.8927
37.5452 20.8118
37.5924 20.6676
37.6395 20.7917
37.6867 20.6028
37.7337 20.4613
37.781 20.4042
37.8281 20.3849
37.8753 20.2683
37.9224 20.3084
37.9697 20.2346
38.0168 20.0686
38.064 20.0428
38.1111 20.0112
38.1584 19.9678
38.2056 19.8831
38.2529 19.9087
38.3 19.718
38.3473 19.7255
38.3945 19.6469
38.4418 19.538
38.489 19.5268
38.5363 19.3977
38.5837 19.3286
38.6309 19.2986
38.6782 19.2075
38.7254 19.1354
38.7728 19.0701
38.82 19.0848
38.8674 19.0891
38.9146 18.967
38.9621 18.8913
39.0093 18.8956
39.0567 18.8033
39.104 18.7211
39.1514 18.6367
39.1987 18.6633
39.2461 18.6063
39.2934 18.5391
39.3409 18.4117
39.3882 18.2882
39.4356 18.3082
39.483 18.2493
39.5304 18.1382
39.5778 18.1808
39.6253 18.028
39.6726 18.0082
39.7201 17.976
39.7675 17.9639
39.815 17.8436
39.8624 17.7664
39.9099 17.7354
39.9575 17.6605
40.0049 17.6298
40.0525 17.4673
40.0999 17.5202
40.1474 17.4269
40.1949 17.4106
40.2425 17.3658
40.2899 17.3
40.3375 17.2115
40.385 17.1942
40.4326 17.1116
40.48 17.0565
40.5277 16.9753
40.5752 16.955
40.6228 16.8596
40.6703 16.8239
40.718 16.7913
40.7655 16.7997
40.8132 16.6331
40.8607 16.7157
40.9084 16.5907
40.9559 16.4728
41.0036 16.4948
41.0512 16.4378
41.0989 16.3536
41.1465 16.3296
41.1942 16.2365
41.242 16.1113
41.2896 16.2059
41.3373 16.1193
41.3849 16.0242
41.4327 16.016
41.4803 15.9156
41.5281 15.8477
41.5758 15.8454
41.6236 15.764
41.6712 15.7645
41.7191 15.705
41.7667 15.6094
41.8146 15.5526
41.8622 15.5034
41.9101 15.4865
41.9578 15.4129
42.0057 15.3558
42.0534 15.347
42.1013 15.2809
42.149 15.2258
42.1969 15.15
42.2446 15.1661
42.2925 15.1078
42.3403 14.9737
42.3882 14.9801
42.436 14.8691
42.4839 14.8346
42.5319 14.8094
42.5797 14.7311
42.6277 14.6985
42.6755 14.6605
42.7235 14.5852
42.7713 14.5731
42.8193 14.5766
42.8671 14.4479
42.9152 14.4051
42.963 14.3399
43.0111 14.2732
43.0589 14.2693
43.107 14.2421
43.1549 14.1399
43.2029 14.0961
43.2508 14.0959
43.2989 14.016
43.3468 13.9659
43.3949 13.9042
43.4429 13.8792
43.491 13.8216
43.5389 13.7915
43.5871 13.7441
43.635 13.6659
43.6832 13.6438
43.7312 13.5311
43.7793 13.5372
43.8273 13.5076
43.8755 13.4494
43.9237 13.4132
43.9717 13.3252
44.0199 13.3313
44.068 13.2829
44.1162 13.205
44.1642 13.2007
44.2125 13.1471
44.2606 13.0538
44.3088 13.0055
44.3569 13.0203
44.4052 12.9331
44.4533 12.8841
44.5016 12.8278
44.5497 12.8051
44.598 12.7779
44.6461 12.6863
44.6945 12.7112
44.7426 12.6309
44.791 12.5254
44.8391 12.5628
44.8875 12.5912
44.9357 12.4907
44.984 12.3835
45.0322 12.3893
45.0806 12.3123
45.1288 12.2547
45.1773 12.2359
45.2257 12.1884
45.2739 12.165
45.3224 12.0983
45.3706 12.0934
45.4191 12.0124
45.4673 11.9958
45.5158 11.9573
45.5641 11.893
45.6126 11.8602
45.6609 11.8054
45.7094 11.757
45.7577 11.7323
45.8063 11.661
45.8546 11.6621
45.9031 11.5803
45.9515 11.5437
46.0001 11.5158
46.0484 11.4948
46.097 11.4256
46.1454 11.4613
46.194 11.3504
46.2424 11.331
46.291 11.3028
46.3395 11.2522
46.3881 11.2035
46.4365 11.2155
46.4852 11.1169
46.5337 11.0607
46.5823 11.0832
46.631 10.9844
46.6795 10.9428
46.7282 10.9147
46.7767 10.9168
46.8254 10.8282
46.8739 10.8075
46.9226 10.6846
46.9712 10.6805
47.0199 10.6634
47.0685 10.6477
47.1173 10.5948
47.1658 10.5515
47.2146 10.5111
47.2632 10.4537
47.312 10.4321
47.3606 10.4072
47.4095 10.3679
47.4581 10.3127
47.5069 10.3
47.5556 10.278
47.6044 10.196
47.6531 10.1575
47.702 10.085
47.7507 10.1137
47.7996 10.0569
47.8483 10.014
47.8972 10.016
47.9461 9.95216
47.9948 9.92125
48.0438 9.89568
48.0925 9.84735
48.1415 9.8174
48.1902 9.7611
48.2392 9.75024
48.288 9.7109
48.337 9.67256
48.3858 9.62174
48.4348 9.60918
48.4837 9.56282
48.5327 9.54395
48.5815 9.4771
48.6306 9.44059
48.6795 9.45954
48.7285 9.35658
48.7774 9.4059
48.8265 9.34133
48.8754 9.27593
48.9245 9.23945
48.9734 9.21381
49.0226 9.19434
49.0715 9.13319
49.1206 9.09467
49.1696 9.11708
49.2188 9.06137
49.2679 8.98945
49.3169 8.96681
49.3661 8.94688
49.4151 8.89139
49.4643 8.85438
49.5134 8.81168
49.5626 8.75375
49.6117 8.80625
49.6609 8.74657
49.71 8.73427
49.7592 8.68231
49.8083 8.63718
49.8576 8.60656
49.9067 8.56688
49.956 8.57828
50.0052 8.51128
50.0545 8.47536
50.1036 8.44611
50.153 8.42597
50.2022 8.33501
50.2515 8.31911
50.3007 8.27561
50.3501 8.28349
50.3993 8.2283
50.4487 8.23044
50.498 8.17354
50.5474 8.17373
50.5966 8.13297
50.6461 8.1125
50.6955 8.04898
50.7448 8.04501
50.7943 8.01268
50.8436 7.95097
50.8931 7.92082
50.9424 7.90851
50.9919 7.81816
51.0413 7.86712
51.0908 7.8039
51.1402 7.79748
51.1897 7.77246
51.2391 7.68643
51.2887 7.65481
51.3381 7.67427
51.3877 7.60578
51.4371 7.5612
51.4867 7.5567
51.5362 7.51888
51.5858 7.47763
51.6353 7.48964
51.6849 7.44281
51.7344 7.3951
51.7841 7.39598
51.8336 7.35987
51.8833 7.31815
51.9328 7.28959
51.9826 7.23502
52.0323 7.22926
52.0818 7.19991
52.1316 7.13717
52.1812 7.16274
52.231 7.08648
52.2806 7.05469
52.3304 7.04203
52.38 7.01499
52.4298 6.99616
52.4794 6.95861
52.5293 6.95977
52.5789 6.90794
52.6288 6.88619
52.6785 6.83145
52.7284 6.79385
52.7781 6.75534
52.828 6.76351
52.8777 6.70608
52.9276 6.6751
52.9774 6.67075
53.0273 6.62403
53.0771 6.59281
53.1271 6.60985
53.1769 6.5717
53.2269 6.52238
53.2767 6.51267
53.3267 6.52193
53.3765 6.43882
53.4266 6.45035
53.4766 6.34919
53.5265 6.31634
53.5765 6.32315
53.6264 6.32201
53.6765 6.31299
53.7264 6.23019
53.7765 6.22316
53.8265 6.21157
53.8766 6.22189
53.9266 6.15035
53.9767 6.11964
54.0267 6.11365
54.0769 6.03911
54.1269 6.00057
54.1771 6.01454
54.2271 5.96879
54.2773 5.9653
54.3274 5.90125
54.3776 5.91258
54.4277 5.83425
54.478 5.80918
54.528 5.79104
54.5783 5.73108
54.6285 5.74423
54.6788 5.69801
54.7289 5.60494
54.7792 5.58432
54.8296 5.54282
54.8798 5.46817
54.9301 5.41647
54.9803 5.41423
55.0307 5.37947
55.0809 5.33541
55.1314 5.34658
55.1816 5.29095
55.232 5.20144
55.2823 5.22166
55.3328 5.14825
55.383 5.05302
55.4335 5.04535
55.4838 4.99742
55.5344 4.94939
55.5847 4.9401
55.6352 4.89209
55.6856 4.78693
55.7361 4.77709