File: XRD/Ni3Fe_FD0839.xy
TT I
1.27165 7.19928
1.31627 6.34568
1.36089 6.21837
1.40551 6.12217
1.45013 6.67586
1.49476 6.31402
1.53938 5.73671
1.584 5.51637
1.62863 4.76505
1.67325 4.98195
1.71787 5.36454
1.7625 4.97968
1.80712 4.6075
1.85174 4.46992
1.89636 4.74443
1.94099 4.86546
1.98562 5.12677
2.03025 4.56592
2.07487 4.65326
2.11949 4.73671
2.16411 4.71508
2.20874 11.9582
2.25338 17.3811
2.298 6.52218
2.34263 5.63439
2.38725 5.50845
2.43188 6.60304
2.4765 7.37199
2.52115 6.70845
2.56577 8.57352
2.6104 8.45076
2.65503 8.11424
2.69965 8.57892
2.7443 8.14802
2.78893 8.18235
2.83356 8.7825
2.87818 9.19243
2.92281 8.74797
2.96744 9.40781
3.01209 10.4323
3.05672 11.0462
3.10135 12.3877
3.14599 13.1415
3.19062 14.3135
3.23527 15.2706
3.2799 15.983
3.32454 17.0871
3.36917 17.6015
3.4138 19.0271
3.45844 19.6655
3.50309 20.2281
3.54773 21.3181
3.59237 23.1908
3.637 72.6138
3.68164 48.8338
3.7263 26.0219
3.77094 25.5382
3.81558 26.9694
3.86022 27.5846
3.90486 28.816
3.9495 29.4215
3.99416 30.4564
4.0388 31.5293
4.08344 32.9018
4.12809 34.4602
4.17273 36.7368
4.21738 41.9165
4.26204 194.223
4.30669 164.957
4.35133 46.431
4.39598 43.8134
4.44063 51.5096
4.4853 59.8425
4.52995 51.4859
4.5746 52.0476
4.61925 52.9955
4.6639 54.9586
4.70855 57.7231
4.75322 60.7464
4.79788 64.4521
4.84253 66.6969
4.88719 71.8339
4.93184 74.8598
4.97652 80.0736
5.02118 85.9452
5.06583 93.4175
5.11049 103.585
5.15515 159.056
5.19981 323.624
5.24449 2695.44
5.28916 12235.2
5.33382 2734.49
5.37848 180.22
5.42315 126.362
5.46783 112.665
5.5125 105.944
5.55716 100.912
5.60183 97.1544
5.6465 95.6488
5.69117 93.3753
5.73586 91.5673
5.78053 91.7926
5.8252 91.5227
5.86988 92.7758
5.91455 92.9413
5.95924 99.7794
6.00392 195.532
6.0486 904.523
6.09328 4373.81
6.13795 3093.4
6.18263 225.905
6.22733 90.0716
6.27201 80.9205
6.3167 93.4802
6.36138 76.6916
6.40606 68.3897
6.45075 67.1558
6.49545 64.9017
6.54014 62.8734
6.58483 62.3816
6.62952 62.3488
6.67421 85.0043
6.71892 117.402
6.76361 65.3045
6.8083 58.0343
6.853 57.6397
6.89769 56.5435
6.94239 55.854
6.98711 55.0439
7.03181 55.2174
7.07651 54.5515
7.12121 54.4215
7.16591 55.011
7.21063 54.9426
7.25533 66.7654
7.30004 141.459
7.34475 79.6478
7.38945 55.6468
7.43416 54.1
7.47889 53.442
7.5236 54.0543
7.56831 54.7566
7.61303 56.1224
7.65774 56.3385
7.70247 55.7614
7.74719 55.6045
7.79191 56.4542
7.83663 56.2815
7.88135 56.8839
7.92607 58.0278
7.97081 58.767
8.01553 60.0439
8.06026 61.6676
8.10498 63.038
8.14971 71.1387
8.19446 70.2315
8.23919 68.3763
8.28392 71.1029
8.32865 73.32
8.37339 77.5139
8.41812 83.6796
8.46288 105.918
8.50761 155.705
8.55235 367.473
8.59709 1188.43
8.64183 2165.09
8.68658 917.18
8.73134 158.121
8.77609 97.3856
8.82083 91.3123
8.86558 89.4358
8.91033 89.1059
8.9551 89.5757
8.99985 84.5247
9.04461 82.8542
9.08936 82.4679
9.13412 81.4474
9.17888 81.1623
9.22365 81.938
9.26841 80.9631
9.31318 82.0572
9.35794 82.8603
9.4027 82.9806
9.44749 83.3946
9.49226 83.8816
9.53703 84.7718
9.5818 87.1832
9.62657 90.9819
9.67134 95.883
9.71614 92.1229
9.76091 93.0159
9.80569 96.1672
9.85047 99.5493
9.89525 117.144
9.94005 126.865
9.98484 168.041
10.0296 327.285
10.0744 817.328
10.1192 1741.18
10.164 1523.0
10.2088 400.483
10.2536 124.056
10.2984 110.824
10.3432 110.437
10.388 102.782
10.4328 115.389
10.4776 156.991
10.5224 288.283
10.5672 524.586
10.612 493.957
10.6568 197.281
10.7017 95.7993
10.7465 85.5372
10.7913 82.1779
10.8361 80.2688
10.8809 78.2258
10.9257 77.209
10.9706 77.5807
11.0154 74.0403
11.0602 72.0567
11.105 71.2409
11.1499 74.1882
11.1947 78.4548
11.2395 71.7158
11.2844 68.878
11.3292 66.5924
11.374 65.2233
11.4189 64.7409
11.4637 64.1519
11.5086 64.4812
11.5534 66.3101
11.5983 64.4067
11.6431 63.0438
11.688 62.0781
11.7328 61.8929
11.7777 62.1259
11.8225 61.6432
11.8674 61.7865
11.9122 62.2314
11.9571 62.26
12.002 62.626
12.0468 66.7534
12.0917 76.9553
12.1366 102.045
12.1814 157.007
12.2263 208.862
12.2712 169.075
12.3161 93.5533
12.3609 68.364
12.4058 63.626
12.4507 63.481
12.4956 63.5381
12.5405 63.8202
12.5853 64.6053
12.6302 70.3777
12.6751 74.2093
12.72 68.3443
12.7649 67.0796
12.8098 67.5409
12.8547 68.9839
12.8996 70.2941
12.9445 71.597
12.9894 73.2669
13.0343 75.0528
13.0792 78.2281
13.1242 86.535
13.1691 108.446
13.214 145.997
13.2589 244.188
13.3038 380.585
13.3487 414.093
13.3937 252.545
13.4386 121.739
13.4835 103.226
13.5285 117.296
13.5734 157.277
13.6183 252.659
13.6633 353.474
13.7082 328.202
13.7531 178.634
13.7981 96.0284
13.843 80.773
13.888 78.889
13.9329 76.1628
13.9779 75.0803
14.0228 73.7469
14.0678 72.2444
14.1127 71.6948
14.1577 71.5094
14.2027 70.4873
14.2476 69.5079
14.2926 69.6763
14.3376 70.4393
14.3825 69.2193
14.4275 67.9645
14.4725 68.0026
14.5175 68.0885
14.5624 68.1591
14.6074 69.9221
14.6524 70.4416
14.6974 69.5588
14.7424 71.4004
14.7874 77.0524
14.8324 87.2059
14.8774 110.031
14.9224 157.657
14.9674 211.158
15.0124 214.597
15.0574 145.115
15.1024 89.5033
15.1474 71.4084
15.1924 69.4217
15.2374 69.8091
15.2824 68.8697
15.3274 67.1689
15.3725 65.9663
15.4175 65.8467
15.4625 65.4508
15.5076 65.4459
15.5526 65.3023
15.5976 65.16
15.6426 66.2937
15.6877 70.8582
15.7327 78.0349
15.7778 94.4085
15.8228 128.365
15.8679 173.752
15.9129 192.427
15.958 150.591
16.003 93.743
16.0481 66.8107
16.0931 63.2317
16.1382 61.4359
16.1833 59.7873
16.2283 58.3854
16.2734 57.6316
16.3185 57.6813
16.3636 58.0546
16.4086 56.8231
16.4537 55.501
16.4988 54.8298
16.5439 55.1052
16.589 54.5246
16.6341 54.2074
16.6792 53.9069
16.7243 54.2311
16.7694 54.3176
16.8145 54.1097
16.8596 54.2899
16.9047 55.6347
16.9498 55.9764
16.9949 54.8252
17.04 55.278
17.0851 56.278
17.1302 57.8781
17.1754 60.9597
17.2205 66.4291
17.2656 74.7428
17.3108 81.9069
17.3559 80.4055
17.401 69.7403
17.4462 61.2146
17.4913 58.5098
17.5365 58.2431
17.5815 58.5796
17.6268 58.8842
17.6718 59.6288
17.7171 60.168
17.7622 60.6152
17.8074 61.2875
17.8525 63.3764
17.8977 67.1317
17.9428 72.5935
17.9881 81.9939
18.0331 100.888
18.0784 122.885
18.1237 137.844
18.1688 127.322
18.214 102.056
18.2591 86.1653
18.3044 91.3306
18.3495 100.462
18.3948 103.797
18.4399 93.1106
18.4852 76.0792
18.5303 65.0239
18.5756 61.5362
18.6207 60.5416
18.666 59.6839
18.7112 59.0502
18.7565 58.5611
18.8016 57.9456
18.8469 57.4207
18.892 57.1759
18.9374 56.647
18.9825 56.3738
19.0278 56.215
19.073 56.363
19.1183 56.6726
19.1635 57.181
19.2088 58.7675
19.254 61.7975
19.2993 66.1613
19.3447 72.2581
19.3898 75.1545
19.4352 70.2047
19.4804 62.1284
19.5257 55.8393
19.5709 53.7167
19.6163 53.1343
19.6615 53.0714
19.7068 52.784
19.752 52.648
19.7974 53.0589
19.8426 53.6369
19.888 54.2463
19.9332 55.5088
19.9786 58.2679
20.0238 62.4375
20.0692 67.0974
20.1144 69.3103
20.1598 67.3611
20.205 62.8653
20.2504 61.9511
20.2957 63.6371
20.3411 65.0556
20.3863 62.8284
20.4318 57.5009
20.477 53.0694
20.5224 50.9346
20.5677 50.2486
20.6131 49.6513
20.6586 49.2858
20.7038 48.9384
20.7493 48.5311
20.7945 48.3057
20.84 48.2798
20.8853 48.0784
20.9307 47.963
20.976 48.2027
21.0215 48.0258
21.0668 48.3956
21.1122 49.049
21.1575 49.6648
21.203 50.25
21.2483 50.8506
21.2938 50.7479
21.3391 49.4524
21.3846 48.4573
21.4299 47.8411
21.4754 47.975
21.5207 47.9752
21.5662 48.4191
21.6116 48.6339
21.6571 49.2921
21.7024 50.1787
21.7479 52.0525
21.7933 54.8181
21.8388 58.8067
21.8843 62.2778
21.9297 63.594
21.9752 61.9998
22.0206 58.4757
22.0661 56.1844
22.1115 55.3898
22.157 55.106
22.2024 53.5137
22.248 50.8681
22.2933 49.4875
22.3389 48.4994
22.3843 48.4101
22.4299 48.2535
22.4753 48.3949
22.5208 48.0014
22.5662 47.9726
22.6118 48.1785
22.6572 48.3784
22.7028 48.5018
22.7483 49.1547
22.7939 50.0437
22.8393 51.5937
22.8849 53.7461
22.9303 55.8121
22.9759 57.0971
23.0214 56.3044
23.067 53.788
23.1126 50.4602
23.1581 48.7467
23.2037 48.2668
23.2492 48.2037
23.2948 48.1157
23.3403 48.5791
23.3859 49.2241
23.4314 50.2677
23.477 52.297
23.5225 54.5779
23.5682 56.5283
23.6137 57.1972
23.6593 54.6836
23.7048 50.8713
23.7505 47.7516
23.796 46.1428
23.8417 45.5751
23.8872 45.1948
23.9329 44.7542
23.9784 44.3309
24.0241 44.2149
24.0697 44.0701
24.1154 43.5755
24.1609 43.4015
24.2066 43.4207
24.2522 43.2985
24.2979 42.961
24.3434 42.7261
24.3892 42.6951
24.4349 42.7426
24.4805 42.3717
24.5262 42.7318
24.5718 42.4891
24.6175 42.5751
24.6631 42.2209
24.7089 41.9337
24.7545 41.9612
24.8002 41.7668
24.8458 41.79
24.8916 41.6067
24.9372 41.6853
24.983 42.0463
25.0286 42.4653
25.0744 42.821
25.12 43.3611
25.1658 43.9024
25.2114 44.1866
25.2572 44.2277
25.3029 44.3408
25.3487 44.4075
25.3943 43.9972
25.4402 42.9319
25.4858 42.0366
25.5316 41.0129
25.5773 40.4019
25.6231 40.4223
25.669 39.9146
25.7147 40.0969
25.7605 39.9095
25.8062 39.9375
25.8521 40.1458
25.8977 40.174
25.9436 40.3783
25.9893 40.6064
26.0352 41.1911
26.0809 41.1562
26.1268 41.3472
26.1725 40.9196
26.2184 40.2634
26.2641 39.7986
26.31 39.6449
26.3557 39.6019
26.4017 39.5909
26.4474 39.9469
26.4933 40.2559
26.5391 40.908
26.585 41.367
26.6308 41.7087
26.6767 41.5797
26.7225 41.4332
26.7684 40.8666
26.8142 40.4071
26.8601 39.9387
26.9059 39.4963
26.9519 39.0609
26.9979 38.6929
27.0437 38.5733
27.0896 38.4128
27.1354 38.3741
27.1814 38.1988
27.2272 38.0358
27.2732 38.0624
27.3191 37.9278
27.3651 38.0897
27.4109 38.0532
27.4569 37.9976
27.5027 38.1447
27.5488 38.0473
27.5946 37.9806
27.6407 37.6072
27.6865 37.7222
27.7326 37.4181
27.7784 37.4957
27.8245 37.4158
27.8703 37.6094
27.9164 37.8666
27.9623 37.9718
28.0084 38.4342
28.0543 38.5949
28.1003 38.6453
28.1462 38.3702
28.1923 38.1479
28.2384 37.5194
28.2843 37.2441
28.3304 36.6774
28.3764 36.4265
28.4225 35.96
28.4684 35.7975
28.5145 35.5778
28.5605 35.4872
28.6066 35.2335
28.6526 35.2768
28.6987 35.3529
28.7447 35.2294
28.7908 35.0743
28.8368 35.08
28.8829 35.115
28.9289 34.998
28.9751 34.7822
29.0211 34.555
29.0673 34.3078
29.1133 34.2081
29.1595 34.0625
29.2055 33.8827
29.2517 33.977
29.2977 34.0449
29.3439 33.8907
29.3899 33.8552
29.4361 33.6944
29.4824 33.5942
29.5284 33.3562
29.5746 33.1064
29.6207 32.8448
29.6669 32.6415
29.713 32.6229
29.7593 32.4463
29.8053 32.5302
29.8516 32.521
29.8977 32.3992
29.9439 32.3732
29.99 32.3094
30.0363 32.1014
30.0824 32.1348
30.1287 32.0586
30.1748 32.1435
30.2211 32.1236
30.2673 31.8407
30.3136 31.9748
30.3597 31.9358
30.406 31.844
30.4522 31.8413
30.4985 31.6808
30.5447 31.8387
30.591 31.844
30.6372 31.8434
30.6835 31.7807
30.7297 31.8595
30.7761 31.7964
30.8224 31.6068
30.8686 31.5576
30.915 31.344
30.9612 31.1354
31.0076 30.9072
31.0538 30.8355
31.1002 30.7552
31.1464 30.5927
31.1928 30.62
31.2391 30.6938
31.2855 30.4924
31.3317 30.5411
31.3781 30.7003
31.4244 30.5295
31.4708 30.5152
31.5171 30.423
31.5636 30.4712
31.6098 30.1648
31.6563 29.9831
31.7026 29.905
31.7491 29.8799
31.7953 29.7761
31.8418 29.8306
31.8881 29.9327
31.9346 29.7885
31.9809 29.817
32.0275 29.5487
32.074 29.4458
32.1203 29.2729
32.1668 29.2265
32.2132 29.154
32.2597 28.9655
32.306 28.8117
32.3526 28.6134
32.399 28.616
32.4455 28.5505
32.4919 28.3543
32.5385 28.3473
32.5848 28.196
32.6314 28.1877
32.6778 28.1226
32.7244 27.9345
32.7708 27.8986
32.8174 27.9018
32.8638 27.7224
32.9104 27.8116
32.9569 27.764
33.0035 27.4942
33.0499 27.521
33.0966 27.5212
33.143 27.4972
33.1897 27.424
33.2361 27.3264
33.2828 27.1977
33.3293 27.1562
33.3759 27.1148
33.4226 26.9218
33.4691 26.8337
33.5158 26.6741
33.5623 26.639
33.609 26.4371
33.6555 26.4074
33.7022 26.3091
33.7487 26.1919
33.7954 26.1547
33.842 26.1832
33.8887 26.0233
33.9353 26.0332
33.982 25.864
34.0286 25.8307
34.0753 25.6834
34.1219 25.6128
34.1687 25.6257
34.2152 25.5961
34.262 25.3286
34.3086 25.3228
34.3554 25.2977
34.402 25.1469
34.4488 25.0887
34.4954 25.0045
34.5422 24.909
34.5889 24.7855
34.6357 24.6658
34.6825 24.6682
34.7292 24.5692
34.776 24.5066
34.8227 24.4804
34.8695 24.3825
34.9162 24.3164
34.9631 24.2313
35.0098 24.2399
35.0566 24.1399
35.1033 24.0752
35.1502 24.0209
35.1969 23.9155
35.2438 23.9597
35.2906 23.9188
35.3375 23.7419
35.3842 23.6884
35.4311 23.7902
35.4779 23.6814
35.5248 23.6098
35.5716 23.5335
35.6185 23.4083
35.6653 23.3299
35.7123 23.3174
35.759 23.2299
35.806 23.2009
35.8528 23.0091
35.8998 22.9579
35.9468 22.7977
35.9936 22.7811
36.0406 22.751
36.0874 22.8273
36.1345 22.6697
36.1813 22.5149
36.2283 22.4415
36.2752 22.4145
36.3222 22.3398
36.3691 22.3246
36.4161 22.2369
36.463 22.2296
36.5101 22.2228
36.557 22.0846
36.6041 21.9599
36.651 21.9424
36.6981 21.9108
36.745 21.8842
36.7921 21.7537
36.839 21.6251
36.8861 21.6431
36.9331 21.4914
36.9802 21.4928
37.0272 21.3989
37.0743 21.2891
37.1213 21.2569
37.1684 21.219
37.2154 21.1469
37.2626 21.0202
37.3098 20.948
37.3568 20.8356
37.404 20.894
37.451 20.7889
37.4982 20.685
37.5452 20.5756
37.5924 20.5547
37.6395 20.6165
37.6867 20.5026
37.7337 20.3505
37.781 20.2862
37.8281 20.3021
37.8753 20.2096
37.9224 20.0937
37.9697 20.0729
38.0168 19.9514
38.064 19.9406
38.1111 19.9458
38.1584 19.856
38.2056 19.7335
38.2529 19.7182
38.3 19.6215
38.3473 19.63
38.3945 19.4077
38.4418 19.4827
38.489 19.4135
38.5363 19.3097
38.5837 19.2568
38.6309 19.2213
38.6782 19.0919
38.7254 19.0835
38.7728 19.0297
38.82 18.9908
38.8674 18.838
38.9146 18.8317
38.9621 18.7561
39.0093 18.7362
39.0567 18.6381
39.104 18.6484
39.1514 18.4964
39.1987 18.4889
39.2461 18.4877
39.2934 18.3289
39.3409 18.2951
39.3882 18.2569
39.4356 18.1452
39.483 18.1452
39.5304 18.0942
39.5778 18.1024
39.6253 17.9059
39.6726 17.8986
39.7201 17.8343
39.7675 17.8285
39.815 17.7222
39.8624 17.671
39.9099 17.6442
39.9575 17.5325
40.0049 17.4677
40.0525 17.3814
40.0999 17.3978
40.1474 17.3269
40.1949 17.2874
40.2425 17.2284
40.2899 17.191
40.3375 17.1256
40.385 17.0606
40.4326 17.0093
40.48 16.884
40.5277 16.9369
40.5752 16.815
40.6228 16.8112
40.6703 16.7147
40.718 16.6778
40.7655 16.6403
40.8132 16.5326
40.8607 16.5787
40.9084 16.5278
40.9559 16.3976
41.0036 16.3991
41.0512 16.3127
41.0989 16.2741
41.1465 16.2252
41.1942 16.2131
41.242 16.1095
41.2896 16.0725
41.3373 15.998
41.3849 15.9188
41.4327 15.8538
41.4803 15.8015
41.5281 15.7485
41.5758 15.676
41.6236 15.6973
41.6712 15.5997
41.7191 15.4925
41.7667 15.5619
41.8146 15.4557
41.8622 15.4115
41.9101 15.3965
41.9578 15.2777
42.0057 15.2597
42.0534 15.2031
42.1013 15.208
42.149 15.1078
42.1969 15.1042
42.2446 15.0289
42.2925 15.0257
42.3403 14.9038
42.3882 14.9077
42.436 14.861
42.4839 14.774
42.5319 14.6804
42.5797 14.6689
42.6277 14.628
42.6755 14.5778
42.7235 14.4906
42.7713 14.4898
42.8193 14.4288
42.8671 14.3489
42.9152 14.3392
42.963 14.2571
43.0111 14.2133
43.0589 14.183
43.107 14.1399
43.1549 14.0746
43.2029 13.9797
43.2508 14.0059
43.2989 13.969
43.3468 13.846
43.3949 13.8271
43.4429 13.7709
43.491 13.6908
43.5389 13.6562
43.5871 13.6725
43.635 13.5575
43.6832 13.5691
43.7312 13.474
43.7793 13.4543
43.8273 13.4264
43.8755 13.332
43.9237 13.3125
43.9717 13.2589
44.0199 13.2522
44.068 13.222
44.1162 13.129
44.1642 13.1175
44.2125 13.0693
44.2606 12.9873
44.3088 12.9211
44.3569 12.9028
44.4052 12.8999
44.4533 12.8072
44.5016 12.793
44.5497 12.7776
44.598 12.6702
44.6461 12.6759
44.6945 12.5987
44.7426 12.5682
44.791 12.5
44.8391 12.4669
44.8875 12.3946
44.9357 12.4077
44.984 12.3534
45.0322 12.3045
45.0806 12.2184
45.1288 12.1582
45.1773 12.1221
45.2257 12.126
45.2739 12.0486
45.3224 12.0379
45.3706 11.9852
45.4191 11.9214
45.4673 11.9036
45.5158 11.8712
45.5641 11.8388
45.6126 11.7893
45.6609 11.7238
45.7094 11.6939
45.7577 11.6387
45.8063 11.586
45.8546 11.5664
45.9031 11.5277
45.9515 11.4634
46.0001 11.4461
46.0484 11.3833
46.097 11.3399
46.1454 11.3466
46.194 11.2984
46.2424 11.2421
46.291 11.2014
46.3395 11.1425
46.3881 11.1303
46.4365 11.1014
46.4852 11.0444
46.5337 11.0058
46.5823 10.9452
46.631 10.8804
46.6795 10.9013
46.7282 10.809
46.7767 10.7779
46.8254 10.7151
46.8739 10.6864
46.9226 10.7328
46.9712 10.6145
47.0199 10.6267
47.0685 10.5568
47.1173 10.5241
47.1658 10.4851
47.2146 10.4625
47.2632 10.4197
47.312 10.401
47.3606 10.2785
47.4095 10.2944
47.4581 10.2747
47.5069 10.2113
47.5556 10.1813
47.6044 10.1637
47.6531 10.1082
47.702 10.0419
47.7507 10.0267
47.7996 9.97964
47.8483 9.95934
47.8972 9.91918
47.9461 9.91215
47.9948 9.86748
48.0438 9.82521
48.0925 9.78426
48.1415 9.75193
48.1902 9.67902
48.2392 9.68427
48.288 9.65881
48.337 9.60397
48.3858 9.58074
48.4348 9.54225
48.4837 9.50355
48.5327 9.46952
48.5815 9.44137
48.6306 9.40677
48.6795 9.37595
48.7285 9.33739
48.7774 9.29536
48.8265 9.2819
48.8754 9.20444
48.9245 9.18063
48.9734 9.18387
49.0226 9.12768
49.0715 9.08635
49.1206 9.06652
49.1696 9.01663
49.2188 8.99138
49.2679 8.94636
49.3169 8.88889
49.3661 8.85212
49.4151 8.84928
49.4643 8.85469
49.5134 8.77021
49.5626 8.69334
49.6117 8.71752
49.6609 8.6782
49.71 8.60736
49.7592 8.60511
49.8083 8.56333
49.8576 8.56778
49.9067 8.50146
49.956 8.51258
50.0052 8.44102
50.0545 8.42208
50.1036 8.37199
50.153 8.32768
50.2022 8.30962
50.2515 8.25728
50.3007 8.24839
50.3501 8.2088
50.3993 8.21203
50.4487 8.12119
50.498 8.12951
50.5474 8.10551
50.5966 8.03266
50.6461 8.03188
50.6955 7.99389
50.7448 7.96206
50.7943 7.93575
50.8436 7.89927
50.8931 7.88952
50.9424 7.83988
50.9919 7.82861
51.0413 7.79301
51.0908 7.7501
51.1402 7.73344
51.1897 7.70418
51.2391 7.64953
51.2887 7.62626
51.3381 7.56943
51.3877 7.57188
51.4371 7.49719
51.4867 7.49512
51.5362 7.4539
51.5858 7.42425
51.6353 7.43883
51.6849 7.38009
51.7344 7.36841
51.7841 7.34516
51.8336 7.27092
51.8833 7.26489
51.9328 7.19706
51.9826 7.18949
52.0323 7.16382
52.0818 7.14515
52.1316 7.07814
52.1812 7.08372
52.231 7.06121
52.2806 7.01846
52.3304 6.97427
52.38 6.96463
52.4298 6.92691
52.4794 6.90081
52.5293 6.8558
52.5789 6.85648
52.6288 6.82584
52.6785 6.7832
52.7284 6.7351
52.7781 6.73615
52.828 6.69422
52.8777 6.67962
52.9276 6.68472
52.9774 6.66003
53.0273 6.57798
53.0771 6.57892
53.1271 6.54302
53.1769 6.53562
53.2269 6.5026
53.2767 6.45118
53.3267 6.41343
53.3765 6.43843
53.4266 6.40462
53.4766 6.338
53.5265 6.30073
53.5765 6.25874
53.6264 6.24001
53.6765 6.22911
53.7264 6.20306
53.7765 6.17311
53.8265 6.13588
53.8766 6.14821
53.9266 6.06533
53.9767 6.05881
54.0267 6.03119
54.0769 6.01882
54.1269 5.98766
54.1771 5.92272
54.2271 5.92295
54.2773 5.91123
54.3274 5.87078
54.3776 5.81311
54.4277 5.77867
54.478 5.79487
54.528 5.74745
54.5783 5.6951
54.6285 5.6598
54.6788 5.66854
54.7289 5.57311
54.7792 5.57169
54.8296 5.50442
54.8798 5.47369
54.9301 5.45337
54.9803 5.39221
55.0307 5.37804
55.0809 5.28927
55.1314 5.35991
55.1816 5.23321
55.232 5.20337
55.2823 5.12267
55.3328 5.12188
55.383 5.04997
55.4335 5.00697
55.4838 4.95479
55.5344 4.94464
55.5847 4.86204
55.6352 4.86413
55.6856 4.8066
55.7361 4.72347