File: XRD/Ni3Fe_FD1082.xy
TT I
1.27165 6.71213
1.31627 6.4193
1.36089 6.13608
1.40551 5.62402
1.45013 5.88143
1.49476 5.81945
1.53938 5.82452
1.584 5.2342
1.62863 4.30193
1.67325 4.32743
1.71787 4.58266
1.7625 4.17038
1.80712 4.18565
1.85174 4.21702
1.89636 3.93248
1.94099 4.5756
1.98562 4.21983
2.03025 4.22697
2.07487 3.79812
2.11949 4.592
2.16411 4.4983
2.20874 4.88621
2.25338 6.11936
2.298 5.04971
2.34263 5.00407
2.38725 5.98445
2.43188 5.83957
2.4765 6.98326
2.52115 7.31406
2.56577 8.1747
2.6104 8.20449
2.65503 8.56893
2.69965 8.74924
2.7443 9.05211
2.78893 8.137
2.83356 9.15717
2.87818 9.36771
2.92281 9.34788
2.96744 8.79954
3.01209 10.1775
3.05672 11.3106
3.10135 12.3975
3.14599 12.4205
3.19062 13.9183
3.23527 14.6377
3.2799 15.0641
3.32454 16.1594
3.36917 16.4194
3.4138 17.9695
3.45844 18.8677
3.50309 20.253
3.54773 20.3195
3.59237 21.0304
3.637 27.3137
3.68164 26.1616
3.7263 23.9353
3.77094 24.5895
3.81558 25.198
3.86022 26.141
3.90486 27.4328
3.9495 28.0331
3.99416 28.9944
4.0388 30.5715
4.08344 31.4838
4.12809 32.572
4.17273 33.3799
4.21738 35.5683
4.26204 51.8165
4.30669 56.3166
4.35133 40.5241
4.39598 41.1483
4.44063 43.5356
4.4853 46.0801
4.52995 47.2282
4.5746 48.0999
4.61925 50.6479
4.6639 53.233
4.70855 55.1985
4.75322 58.257
4.79788 60.8554
4.84253 64.2414
4.88719 68.116
4.93184 71.5494
4.97652 77.5408
5.02118 83.0834
5.06583 90.0525
5.11049 98.0735
5.15515 118.192
5.19981 233.3
5.24449 2540.6
5.28916 13679.3
5.33382 3314.25
5.37848 203.512
5.42315 123.484
5.46783 108.585
5.5125 101.85
5.55716 97.5735
5.60183 93.579
5.6465 91.534
5.69117 90.3603
5.73586 87.8063
5.78053 87.1509
5.8252 86.3371
5.86988 87.4625
5.91455 89.1753
5.95924 95.2333
6.00392 165.707
6.0486 897.206
6.09328 4462.31
6.13795 3719.76
6.18263 239.146
6.22733 86.8829
6.27201 76.0058
6.3167 73.0873
6.36138 68.8441
6.40606 65.2644
6.45075 63.6926
6.49545 62.0284
6.54014 60.3058
6.58483 58.928
6.62952 58.1889
6.67421 58.8208
6.71892 64.0952
6.76361 56.8309
6.8083 54.6083
6.853 53.5267
6.89769 53.7351
6.94239 53.3498
6.98711 52.8524
7.03181 52.3393
7.07651 52.4868
7.12121 51.7692
7.16591 51.971
7.21063 51.2908
7.25533 51.7177
7.30004 61.7922
7.34475 55.7766
7.38945 51.7383
7.43416 51.1832
7.47889 51.6313
7.5236 58.2159
7.56831 70.8263
7.61303 56.1306
7.65774 52.5903
7.70247 53.2461
7.74719 53.2888
7.79191 53.8049
7.83663 53.8799
7.88135 55.1563
7.92607 55.9859
7.97081 56.9937
8.01553 57.8792
8.06026 59.1544
8.10498 60.3704
8.14971 62.5714
8.19446 64.0887
8.23919 65.7165
8.28392 68.4078
8.32865 70.9416
8.37339 73.9129
8.41812 78.0088
8.46288 86.414
8.50761 130.119
8.55235 383.76
8.59709 1121.38
8.64183 2282.77
8.68658 1090.2
8.73134 173.87
8.77609 95.0808
8.82083 88.7244
8.86558 85.9288
8.91033 83.9599
8.9551 82.5419
8.99985 81.1851
9.04461 80.1427
9.08936 79.6657
9.13412 79.3477
9.17888 79.3794
9.22365 90.4336
9.26841 110.234
9.31318 88.0437
9.35794 80.1358
9.4027 80.1331
9.44749 80.4552
9.49226 81.2721
9.53703 82.3295
9.5818 83.6155
9.62657 84.6741
9.67134 86.7122
9.71614 87.8563
9.76091 89.7223
9.80569 92.1233
9.85047 94.3279
9.89525 99.1753
9.94005 106.807
9.98484 148.278
10.0296 354.931
10.0744 784.458
10.1192 1771.32
10.164 1700.92
10.2088 438.997
10.2536 124.765
10.2984 103.215
10.3432 100.866
10.388 98.0033
10.4328 108.146
10.4776 163.895
10.5224 275.774
10.5672 515.385
10.612 576.027
10.6568 227.574
10.7017 102.816
10.7465 86.1933
10.7913 80.0642
10.8361 77.8272
10.8809 75.5905
10.9257 73.7399
10.9706 72.6754
11.0154 70.9871
11.0602 69.8252
11.105 68.1238
11.1499 67.4707
11.1947 67.2791
11.2395 65.7529
11.2844 65.0727
11.3292 63.6792
11.374 63.321
11.4189 62.7087
11.4637 62.175
11.5086 61.4653
11.5534 61.2825
11.5983 60.948
11.6431 60.5578
11.688 60.0325
11.7328 60.4439
11.7777 60.0004
11.8225 59.468
11.8674 59.9413
11.9122 61.9396
11.9571 67.3759
12.002 65.8586
12.0468 64.5069
12.0917 77.2459
12.1366 99.9516
12.1814 147.261
12.2263 203.757
12.2712 174.88
12.3161 96.36
12.3609 64.734
12.4058 61.3313
12.4507 60.9798
12.4956 61.484
12.5405 61.4059
12.5853 62.1732
12.6302 62.738
12.6751 64.0836
12.72 64.2471
12.7649 64.8893
12.8098 65.3456
12.8547 66.531
12.8996 67.9582
12.9445 69.4977
12.9894 71.0404
13.0343 72.7992
13.0792 76.5745
13.1242 82.248
13.1691 108.76
13.214 149.644
13.2589 232.024
13.3038 371.122
13.3487 451.369
13.3937 276.505
13.4386 124.783
13.4835 99.4381
13.5285 120.959
13.5734 158.685
13.6183 238.045
13.6633 357.53
13.7082 359.313
13.7531 204.205
13.7981 99.7356
13.843 79.7085
13.888 77.2221
13.9329 74.5313
13.9779 73.3764
14.0228 71.994
14.0678 70.9778
14.1127 71.6649
14.1577 74.5522
14.2027 73.0678
14.2476 68.8831
14.2926 67.4825
14.3376 67.4265
14.3825 66.8788
14.4275 66.5052
14.4725 66.4799
14.5175 66.6261
14.5624 66.4206
14.6074 66.6708
14.6524 67.5204
14.6974 67.7816
14.7424 68.8277
14.7874 74.6165
14.8324 89.4186
14.8774 110.927
14.9224 149.556
14.9674 209.148
15.0124 226.058
15.0574 157.869
15.1024 93.2798
15.1474 71.2033
15.1924 67.9724
15.2374 66.5604
15.2824 65.6606
15.3274 65.156
15.3725 64.384
15.4175 64.1564
15.4625 63.6371
15.5076 63.467
15.5526 63.7245
15.5976 63.674
15.6426 64.0698
15.6877 68.7103
15.7327 80.1185
15.7778 95.6787
15.8228 123.521
15.8679 169.8
15.9129 203.451
15.958 168.492
16.003 103.765
16.0481 69.354
16.0931 62.6188
16.1382 59.9864
16.1833 58.3825
16.2283 56.991
16.2734 56.2305
16.3185 55.7731
16.3636 55.2442
16.4086 54.613
16.4537 53.9682
16.4988 53.5366
16.5439 53.4647
16.589 52.989
16.6341 52.7973
16.6792 52.7476
16.7243 52.9973
16.7694 52.9368
16.8145 52.8894
16.8596 53.0241
16.9047 53.8167
16.9498 54.2496
16.9949 53.9222
17.04 53.8416
17.0851 54.9334
17.1302 57.1666
17.1754 60.4855
17.2205 65.0246
17.2656 72.2975
17.3108 81.7429
17.3559 82.4825
17.401 71.9334
17.4462 61.3192
17.4913 57.6182
17.5365 57.3875
17.5815 57.3644
17.6268 57.7457
17.6718 58.3102
17.7171 58.7996
17.7622 60.1324
17.8074 60.6143
17.8525 61.9597
17.8977 66.9114
17.9428 73.8745
17.9881 82.5831
18.0331 98.0841
18.0784 121.311
18.1237 142.654
18.1688 137.553
18.214 108.727
18.2591 88.3405
18.3044 89.048
18.3495 99.5457
18.3948 107.13
18.4399 98.1479
18.4852 78.6181
18.5303 65.6071
18.5756 61.245
18.6207 60.1498
18.666 58.8436
18.7112 58.2098
18.7565 57.4708
18.8016 56.9966
18.8469 56.4677
18.892 56.2853
18.9374 55.6333
18.9825 55.5147
19.0278 55.1181
19.073 55.1625
19.1183 55.6139
19.1635 56.6159
19.2088 58.1452
19.254 60.8323
19.2993 65.6714
19.3447 71.9716
19.3898 75.746
19.4352 72.171
19.4804 63.1222
19.5257 56.2184
19.5709 53.0899
19.6163 52.652
19.6615 52.323
19.7068 51.8483
19.752 51.819
19.7974 52.0178
19.8426 52.7736
19.888 53.8748
19.9332 55.4184
19.9786 57.6774
20.0238 61.027
20.0692 66.7496
20.1144 70.4997
20.1598 69.3232
20.205 64.0183
20.2504 61.8501
20.2957 63.655
20.3411 65.4072
20.3863 64.1041
20.4318 58.3056
20.477 52.8303
20.5224 50.0394
20.5677 49.4212
20.6131 48.8973
20.6586 48.5403
20.7038 48.273
20.7493 47.9899
20.7945 48.2669
20.84 47.9105
20.8853 47.5567
20.9307 47.3742
20.976 47.486
21.0215 47.3904
21.0668 47.8586
21.1122 48.2927
21.1575 48.688
21.203 49.5252
21.2483 50.4359
21.2938 50.6078
21.3391 49.1837
21.3846 48.0716
21.4299 47.5463
21.4754 47.5079
21.5207 47.6047
21.5662 47.4924
21.6116 47.9324
21.6571 48.9164
21.7024 50.0126
21.7479 51.9249
21.7933 54.5276
21.8388 58.1672
21.8843 62.6998
21.9297 65.3623
21.9752 63.9606
22.0206 59.8506
22.0661 56.4181
22.1115 56.0594
22.157 56.052
22.2024 54.2994
22.248 51.2484
22.2933 49.0953
22.3389 48.0242
22.3843 47.8033
22.4299 47.5671
22.4753 47.5975
22.5208 47.4635
22.5662 47.511
22.6118 47.7419
22.6572 47.729
22.7028 48.4198
22.7483 49.103
22.7939 50.014
22.8393 51.3745
22.8849 53.4399
22.9303 55.8265
22.9759 57.6714
23.0214 57.4612
23.067 54.6732
23.1126 50.9912
23.1581 48.5489
23.2037 47.9502
23.2492 47.8871
23.2948 47.9884
23.3403 48.473
23.3859 49.4173
23.4314 50.3812
23.477 52.1787
23.5225 54.6145
23.5682 57.1279
23.6137 58.5897
23.6593 56.4416
23.7048 51.9777
23.7505 48.0952
23.796 45.9958
23.8417 45.1324
23.8872 44.7264
23.9329 44.3998
23.9784 44.0744
24.0241 43.6347
24.0697 43.5522
24.1154 43.1804
24.1609 42.9396
24.2066 42.8285
24.2522 42.7746
24.2979 42.4849
24.3434 42.3579
24.3892 42.3003
24.4349 41.9365
24.4805 41.9429
24.5262 42.1246
24.5718 42.135
24.6175 42.1708
24.6631 42.0383
24.7089 41.7405
24.7545 41.5554
24.8002 41.2747
24.8458 41.376
24.8916 41.1194
24.9372 41.3621
24.983 41.7419
25.0286 42.042
25.0744 42.6804
25.12 43.3405
25.1658 43.9405
25.2114 44.2269
25.2572 44.3715
25.3029 44.5354
25.3487 44.7375
25.3943 44.4199
25.4402 43.1781
25.4858 42.0749
25.5316 40.9687
25.5773 40.2924
25.6231 40.2217
25.669 39.7723
25.7147 39.6605
25.7605 39.5872
25.8062 39.6888
25.8521 39.8116
25.8977 39.8598
25.9436 40.0688
25.9893 40.3837
26.0352 40.7919
26.0809 41.1279
26.1268 41.4737
26.1725 40.9593
26.2184 40.3567
26.2641 39.6732
26.31 39.3983
26.3557 39.3973
26.4017 39.5484
26.4474 39.8568
26.4933 40.1245
26.5391 40.7207
26.585 41.2847
26.6308 41.9843
26.6767 42.0259
26.7225 41.9539
26.7684 41.3653
26.8142 40.658
26.8601 40.1879
26.9059 39.715
26.9519 39.0573
26.9979 38.9075
27.0437 38.3248
27.0896 38.2116
27.1354 38.0469
27.1814 38.0543
27.2272 38.078
27.2732 37.8732
27.3191 37.8847
27.3651 37.8685
27.4109 37.8916
27.4569 37.8848
27.5027 38.1312
27.5488 38.1099
27.5946 37.8879
27.6407 37.7505
27.6865 37.5905
27.7326 37.3812
27.7784 37.4851
27.8245 37.2572
27.8703 37.5793
27.9164 37.8262
27.9623 38.0867
28.0084 38.467
28.0543 38.951
28.1003 38.9176
28.1462 38.697
28.1923 38.441
28.2384 37.7346
28.2843 37.4611
28.3304 36.8886
28.3764 36.3465
28.4225 35.9033
28.4684 35.7072
28.5145 35.45
28.5605 35.4179
28.6066 35.1679
28.6526 35.1864
28.6987 35.1546
28.7447 34.9509
28.7908 34.859
28.8368 34.8791
28.8829 34.9137
28.9289 34.8698
28.9751 34.6252
29.0211 34.5777
29.0673 34.165
29.1133 34.0643
29.1595 34.0356
29.2055 33.9139
29.2517 33.9143
29.2977 33.8277
29.3439 33.8828
29.3899 33.8624
29.4361 33.7562
29.4824 33.5333
29.5284 33.2682
29.5746 32.8958
29.6207 32.6351
29.6669 32.5792
29.713 32.4301
29.7593 32.1491
29.8053 32.3285
29.8516 32.294
29.8977 32.2519
29.9439 32.0733
29.99 32.204
30.0363 31.9956
30.0824 32.1169
30.1287 31.8819
30.1748 32.0452
30.2211 31.8868
30.2673 31.9115
30.3136 31.9517
30.3597 31.7903
30.406 31.8275
30.4522 31.6575
30.4985 31.5474
30.5447 31.7193
30.591 31.7851
30.6372 31.8503
30.6835 31.8407
30.7297 31.8389
30.7761 31.705
30.8224 31.6977
30.8686 31.4845
30.915 31.3277
30.9612 31.1444
31.0076 30.9804
31.0538 30.8127
31.1002 30.7291
31.1464 30.6425
31.1928 30.5625
31.2391 30.6002
31.2855 30.4904
31.3317 30.5324
31.3781 30.5875
31.4244 30.5135
31.4708 30.4949
31.5171 30.4583
31.5636 30.5473
31.6098 30.1031
31.6563 30.1741
31.7026 29.8811
31.7491 29.7954
31.7953 29.852
31.8418 29.802
31.8881 29.8514
31.9346 29.8364
31.9809 29.7224
32.0275 29.6389
32.074 29.4869
32.1203 29.2458
32.1668 29.1314
32.2132 29.0956
32.2597 28.9176
32.306 28.7827
32.3526 28.5966
32.399 28.588
32.4455 28.3453
32.4919 28.3257
32.5385 28.2738
32.5848 28.031
32.6314 28.0521
32.6778 28.0272
32.7244 27.9524
32.7708 27.7569
32.8174 27.8338
32.8638 27.621
32.9104 27.6478
32.9569 27.5653
33.0035 27.4802
33.0499 27.4389
33.0966 27.5007
33.143 27.578
33.1897 27.3583
33.2361 27.3138
33.2828 27.3624
33.3293 27.0857
33.3759 27.0916
33.4226 26.9232
33.4691 26.7326
33.5158 26.6117
33.5623 26.604
33.609 26.3072
33.6555 26.3024
33.7022 26.2226
33.7487 26.191
33.7954 26.1608
33.842 26.0052
33.8887 26.0092
33.9353 25.8989
33.982 25.8187
34.0286 25.7127
34.0753 25.6062
34.1219 25.5312
34.1687 25.489
34.2152 25.3894
34.262 25.2242
34.3086 25.1769
34.3554 25.1786
34.402 25.0497
34.4488 24.9573
34.4954 24.9167
34.5422 24.751
34.5889 24.7343
34.6357 24.6097
34.6825 24.5116
34.7292 24.5226
34.776 24.366
34.8227 24.3056
34.8695 24.2951
34.9162 24.2398
34.9631 24.1429
35.0098 24.0922
35.0566 23.9766
35.1033 24.0009
35.1502 23.946
35.1969 23.9025
35.2438 23.8803
35.2906 23.8079
35.3375 23.7841
35.3842 23.6735
35.4311 23.7415
35.4779 23.6598
35.5248 23.6154
35.5716 23.488
35.6185 23.4205
35.6653 23.269
35.7123 23.2537
35.759 23.103
35.806 23.0654
35.8528 22.8928
35.8998 22.926
35.9468 22.8214
35.9936 22.8095
36.0406 22.6958
36.0874 22.6994
36.1345 22.5738
36.1813 22.4802
36.2283 22.3196
36.2752 22.3521
36.3222 22.4125
36.3691 22.3259
36.4161 22.1648
36.463 22.1526
36.5101 22.1533
36.557 22.113
36.6041 21.8804
36.651 21.9515
36.6981 21.8726
36.745 21.772
36.7921 21.7019
36.839 21.5758
36.8861 21.5442
36.9331 21.4484
36.9802 21.4155
37.0272 21.2753
37.0743 21.2581
37.1213 21.2148
37.1684 21.1088
37.2154 21.0905
37.2626 20.9566
37.3098 20.9452
37.3568 20.8839
37.404 20.8377
37.451 20.6447
37.4982 20.7017
37.5452 20.5609
37.5924 20.5128
37.6395 20.5387
37.6867 20.4262
37.7337 20.3354
37.781 20.2218
37.8281 20.1889
37.8753 20.145
37.9224 20.0463
37.9697 20.0442
38.0168 19.9399
38.064 19.8927
38.1111 19.769
38.1584 19.7499
38.2056 19.6937
38.2529 19.6326
38.3 19.5584
38.3473 19.5172
38.3945 19.4021
38.4418 19.3634
38.489 19.2958
38.5363 19.2428
38.5837 19.1821
38.6309 19.1579
38.6782 19.1087
38.7254 18.979
38.7728 18.9747
38.82 18.8368
38.8674 18.8853
38.9146 18.7804
38.9621 18.6602
39.0093 18.6776
39.0567 18.6082
39.104 18.4977
39.1514 18.4277
39.1987 18.3993
39.2461 18.3502
39.2934 18.3492
39.3409 18.23
39.3882 18.1027
39.4356 18.109
39.483 18.1045
39.5304 17.989
39.5778 17.9467
39.6253 17.8981
39.6726 17.8651
39.7201 17.7864
39.7675 17.7521
39.815 17.6824
39.8624 17.6583
39.9099 17.6267
39.9575 17.4953
40.0049 17.4696
40.0525 17.3641
40.0999 17.3641
40.1474 17.3178
40.1949 17.2096
40.2425 17.2238
40.2899 17.1568
40.3375 17.1063
40.385 16.9347
40.4326 16.9835
40.48 16.9021
40.5277 16.8888
40.5752 16.8252
40.6228 16.7526
40.6703 16.69
40.718 16.632
40.7655 16.6392
40.8132 16.4925
40.8607 16.4973
40.9084 16.4765
40.9559 16.3874
41.0036 16.3596
41.0512 16.3017
41.0989 16.2569
41.1465 16.1973
41.1942 16.1522
41.242 16.0199
41.2896 15.9961
41.3373 15.9592
41.3849 15.893
41.4327 15.848
41.4803 15.7238
41.5281 15.6872
41.5758 15.6864
41.6236 15.6008
41.6712 15.5279
41.7191 15.5029
41.7667 15.5158
41.8146 15.4688
41.8622 15.3705
41.9101 15.3601
41.9578 15.2128
42.0057 15.2496
42.0534 15.1791
42.1013 15.1809
42.149 15.0746
42.1969 15.0215
42.2446 14.9851
42.2925 14.926
42.3403 14.9101
42.3882 14.831
42.436 14.7991
42.4839 14.7033
42.5319 14.7083
42.5797 14.6297
42.6277 14.5817
42.6755 14.5868
42.7235 14.4436
42.7713 14.428
42.8193 14.4197
42.8671 14.3416
42.9152 14.2719
42.963 14.2023
43.0111 14.1564
43.0589 14.141
43.107 14.0787
43.1549 14.0216
43.2029 13.9858
43.2508 13.9318
43.2989 13.8608
43.3468 13.8436
43.3949 13.8034
43.4429 13.7181
43.491 13.6725
43.5389 13.6612
43.5871 13.5861
43.635 13.5577
43.6832 13.4993
43.7312 13.4478
43.7793 13.4108
43.8273 13.3634
43.8755 13.292
43.9237 13.3049
43.9717 13.25
44.0199 13.1387
44.068 13.1827
44.1162 13.0555
44.1642 13.0414
44.2125 13.0276
44.2606 12.9615
44.3088 12.9295
44.3569 12.8357
44.4052 12.8364
44.4533 12.7627
44.5016 12.6966
44.5497 12.7352
44.598 12.6595
44.6461 12.6189
44.6945 12.5427
44.7426 12.5291
44.791 12.4846
44.8391 12.4237
44.8875 12.3723
44.9357 12.3223
44.984 12.3484
45.0322 12.2158
45.0806 12.2399
45.1288 12.1457
45.1773 12.1112
45.2257 12.0586
45.2739 12.0552
45.3224 12.0136
45.3706 11.959
45.4191 11.8649
45.4673 11.8853
45.5158 11.8201
45.5641 11.7396
45.6126 11.7602
45.6609 11.7165
45.7094 11.6474
45.7577 11.6076
45.8063 11.5778
45.8546 11.5231
45.9031 11.4888
45.9515 11.4296
46.0001 11.3427
46.0484 11.3469
46.097 11.3168
46.1454 11.2851
46.194 11.2812
46.2424 11.2355
46.291 11.232
46.3395 11.1077
46.3881 11.0595
46.4365 11.0086
46.4852 10.9884
46.5337 10.9654
46.5823 10.908
46.631 10.8747
46.6795 10.8533
46.7282 10.8136
46.7767 10.8253
46.8254 10.6921
46.8739 10.7003
46.9226 10.6411
46.9712 10.5789
47.0199 10.55
47.0685 10.5208
47.1173 10.5017
47.1658 10.44
47.2146 10.3692
47.2632 10.3621
47.312 10.3678
47.3606 10.2865
47.4095 10.2361
47.4581 10.208
47.5069 10.1132
47.5556 10.1484
47.6044 10.0832
47.6531 10.0655
47.702 9.98627
47.7507 10.0033
47.7996 9.93334
47.8483 9.94094
47.8972 9.90694
47.9461 9.83933
47.9948 9.79913
48.0438 9.76162
48.0925 9.76599
48.1415 9.71768
48.1902 9.69233
48.2392 9.69668
48.288 9.59221
48.337 9.59028
48.3858 9.5617
48.4348 9.50274
48.4837 9.48011
48.5327 9.45556
48.5815 9.43824
48.6306 9.36781
48.6795 9.33311
48.7285 9.30203
48.7774 9.27894
48.8265 9.24763
48.8754 9.22434
48.9245 9.18592
48.9734 9.18301
49.0226 9.08423
49.0715 9.08297
49.1206 9.04274
49.1696 8.99147
49.2188 8.95629
49.2679 8.9241
49.3169 8.86369
49.3661 8.81408
49.4151 8.82414
49.4643 8.80283
49.5134 8.76628
49.5626 8.68506
49.6117 8.72695
49.6609 8.6627
49.71 8.57504
49.7592 8.58472
49.8083 8.54046
49.8576 8.50103
49.9067 8.45571
49.956 8.45218
50.0052 8.41256
50.0545 8.3654
50.1036 8.32814
50.153 8.30917
50.2022 8.26236
50.2515 8.25514
50.3007 8.21852
50.3501 8.18489
50.3993 8.17532
50.4487 8.12264
50.498 8.10162
50.5474 8.07928
50.5966 8.03885
50.6461 7.98921
50.6955 7.97256
50.7448 7.95297
50.7943 7.90224
50.8436 7.89839
50.8931 7.82346
50.9424 7.82705
50.9919 7.80931
51.0413 7.73621
51.0908 7.76289
51.1402 7.69036
51.1897 7.68516
51.2391 7.64701
51.2887 7.57686
51.3381 7.56681
51.3877 7.53627
51.4371 7.49066
51.4867 7.46234
51.5362 7.4326
51.5858 7.36689
51.6353 7.3512
51.6849 7.34419
51.7344 7.31053
51.7841 7.33304
51.8336 7.29759
51.8833 7.22007
51.9328 7.20033
51.9826 7.18552
52.0323 7.1555
52.0818 7.07164
52.1316 7.09011
52.1812 7.05897
52.231 6.9964
52.2806 7.018
52.3304 6.92747
52.38 6.9413
52.4298 6.95967
52.4794 6.83707
52.5293 6.85627
52.5789 6.84069
52.6288 6.8133
52.6785 6.75713
52.7284 6.79262
52.7781 6.69817
52.828 6.70198
52.8777 6.64642
52.9276 6.59844
52.9774 6.63697
53.0273 6.57742
53.0771 6.53962
53.1271 6.52985
53.1769 6.48495
53.2269 6.4559
53.2767 6.42834
53.3267 6.4155
53.3765 6.42409
53.4266 6.34433
53.4766 6.31882
53.5265 6.29535
53.5765 6.24885
53.6264 6.22528
53.6765 6.23173
53.7264 6.1985
53.7765 6.15401
53.8265 6.11333
53.8766 6.06784
53.9266 6.06548
53.9767 6.06014
54.0267 6.08489
54.0769 6.00991
54.1269 5.94054
54.1771 5.90941
54.2271 5.90103
54.2773 5.84269
54.3274 5.85411
54.3776 5.78566
54.4277 5.76524
54.478 5.75081
54.528 5.72816
54.5783 5.69571
54.6285 5.62756
54.6788 5.58236
54.7289 5.5803
54.7792 5.54439
54.8296 5.49647
54.8798 5.4418
54.9301 5.42715
54.9803 5.40184
55.0307 5.36663
55.0809 5.29327
55.1314 5.29221
55.1816 5.21418
55.232 5.19047
55.2823 5.15679
55.3328 5.07475
55.383 5.04686
55.4335 4.99855
55.4838 4.95376
55.5344 4.90478
55.5847 4.82004
55.6352 4.83602
55.6856 4.7919
55.7361 4.80457