File: XRD/Ni3Fe_FD0972.xy
TT I
1.27165 7.2108
1.31627 6.92205
1.36089 6.69668
1.40551 5.73541
1.45013 6.36816
1.49476 6.34692
1.53938 5.4142
1.584 5.44218
1.62863 4.96521
1.67325 5.05332
1.71787 5.45721
1.7625 4.56132
1.80712 4.94222
1.85174 4.61273
1.89636 4.66075
1.94099 4.45942
1.98562 5.12358
2.03025 4.33882
2.07487 4.876
2.11949 5.11672
2.16411 5.72015
2.20874 14.3921
2.25338 22.3312
2.298 5.71931
2.34263 5.97361
2.38725 6.55505
2.43188 5.98403
2.4765 6.74323
2.52115 7.83168
2.56577 8.10416
2.6104 8.66887
2.65503 8.17896
2.69965 8.37242
2.7443 8.55774
2.78893 8.37586
2.83356 8.83065
2.87818 8.78247
2.92281 9.43009
2.96744 9.99347
3.01209 10.3529
3.05672 11.3929
3.10135 12.3272
3.14599 13.0149
3.19062 14.5292
3.23527 15.4417
3.2799 15.6327
3.32454 16.8251
3.36917 17.3077
3.4138 19.0408
3.45844 19.5276
3.50309 20.3283
3.54773 21.627
3.59237 23.8679
3.637 87.5516
3.68164 57.4943
3.7263 26.1211
3.77094 26.1544
3.81558 27.0787
3.86022 27.023
3.90486 28.5782
3.9495 29.6512
3.99416 29.9703
4.0388 31.7554
4.08344 33.5953
4.12809 34.1488
4.17273 36.6785
4.21738 42.1239
4.26204 237.391
4.30669 211.83
4.35133 48.1452
4.39598 43.9661
4.44063 52.8466
4.4853 63.9954
4.52995 49.8158
4.5746 50.456
4.61925 52.6175
4.6639 54.5049
4.70855 57.0895
4.75322 59.8213
4.79788 62.5984
4.84253 65.7759
4.88719 70.0929
4.93184 73.0394
4.97652 78.3517
5.02118 84.3831
5.06583 91.0325
5.11049 101.186
5.15515 161.243
5.19981 275.407
5.24449 2350.88
5.28916 13566.4
5.33382 2791.07
5.37848 172.709
5.42315 123.671
5.46783 109.878
5.5125 103.264
5.55716 99.5352
5.60183 96.0262
5.6465 94.4852
5.69117 91.8486
5.73586 89.9042
5.78053 89.5211
5.8252 88.7008
5.86988 88.504
5.91455 90.2084
5.95924 96.4812
6.00392 169.178
6.0486 802.944
6.09328 4617.16
6.13795 3162.45
6.18263 214.32
6.22733 88.9533
6.27201 80.3088
6.3167 98.6248
6.36138 78.8741
6.40606 68.0279
6.45075 66.0797
6.49545 64.3247
6.54014 62.8212
6.58483 62.1852
6.62952 61.4771
6.67421 91.0857
6.71892 137.777
6.76361 67.7369
6.8083 57.7285
6.853 56.1134
6.89769 55.9028
6.94239 55.3963
6.98711 55.2165
7.03181 54.6073
7.07651 54.597
7.12121 54.1901
7.16591 54.5093
7.21063 54.5965
7.25533 68.8887
7.30004 171.512
7.34475 89.6973
7.38945 55.8379
7.43416 53.2274
7.47889 53.4413
7.5236 53.8541
7.56831 54.3197
7.61303 56.0653
7.65774 56.4588
7.70247 55.3105
7.74719 54.9541
7.79191 55.6301
7.83663 55.9794
7.88135 56.4975
7.92607 57.8074
7.97081 58.5637
8.01553 59.4867
8.06026 60.7779
8.10498 62.7063
8.14971 71.6029
8.19446 70.8948
8.23919 67.9185
8.28392 70.1795
8.32865 72.2928
8.37339 76.3143
8.41812 83.0275
8.46288 108.385
8.50761 141.554
8.55235 329.676
8.59709 1135.27
8.64183 2270.46
8.68658 939.217
8.73134 159.853
8.77609 96.3666
8.82083 90.0703
8.86558 87.5957
8.91033 88.1216
8.9551 89.5902
8.99985 83.6789
9.04461 81.728
9.08936 80.9541
9.13412 80.0654
9.17888 80.7112
9.22365 81.0431
9.26841 80.2571
9.31318 80.4914
9.35794 80.8858
9.4027 81.4522
9.44749 82.3804
9.49226 82.8573
9.53703 83.6251
9.5818 85.1577
9.62657 90.1786
9.67134 95.8859
9.71614 91.6748
9.76091 91.7288
9.80569 94.5595
9.85047 97.2254
9.89525 119.721
9.94005 130.847
9.98484 153.976
10.0296 294.852
10.0744 768.805
10.1192 1776.89
10.164 1530.24
10.2088 365.285
10.2536 122.313
10.2984 109.915
10.3432 111.655
10.388 101.571
10.4328 110.314
10.4776 147.175
10.5224 270.671
10.5672 523.605
10.612 498.626
10.6568 195.883
10.7017 94.5065
10.7465 84.5668
10.7913 81.5676
10.8361 79.3522
10.8809 77.0905
10.9257 76.9665
10.9706 77.1
11.0154 73.5556
11.0602 71.1219
11.105 70.5615
11.1499 74.405
11.1947 81.2019
11.2395 72.7337
11.2844 68.8531
11.3292 65.8738
11.374 64.7279
11.4189 63.9498
11.4637 63.995
11.5086 64.233
11.5534 66.6631
11.5983 64.2769
11.6431 62.2892
11.688 61.3599
11.7328 61.3411
11.7777 61.6539
11.8225 61.2274
11.8674 61.1115
11.9122 61.3688
11.9571 61.0368
12.002 61.9177
12.0468 65.0995
12.0917 74.7147
12.1366 98.2431
12.1814 153.453
12.2263 208.062
12.2712 161.632
12.3161 94.6985
12.3609 69.1625
12.4058 63.1417
12.4507 62.9765
12.4956 62.819
12.5405 63.3843
12.5853 64.3714
12.6302 71.6651
12.6751 76.4887
12.72 68.7004
12.7649 66.4745
12.8098 66.8751
12.8547 68.308
12.8996 69.338
12.9445 70.5282
12.9894 72.2472
13.0343 73.8996
13.0792 76.5663
13.1242 83.1726
13.1691 103.305
13.214 137.735
13.2589 232.674
13.3038 379.495
13.3487 428.69
13.3937 248.452
13.4386 120.054
13.4835 99.7215
13.5285 112.358
13.5734 148.598
13.6183 245.879
13.6633 359.055
13.7082 329.399
13.7531 177.005
13.7981 94.7669
13.843 80.1337
13.888 77.6347
13.9329 75.5241
13.9779 74.177
14.0228 72.7984
14.0678 71.5739
14.1127 71.2443
14.1577 70.8157
14.2027 70.0373
14.2476 68.8642
14.2926 68.9477
14.3376 69.9449
14.3825 68.8175
14.4275 67.2966
14.4725 67.25
14.5175 67.261
14.5624 67.4468
14.6074 69.5377
14.6524 69.7607
14.6974 68.8131
14.7424 69.7243
14.7874 74.8495
14.8324 84.224
14.8774 105.307
14.9224 151.527
14.9674 213.577
15.0124 217.662
15.0574 146.966
15.1024 87.8255
15.1474 70.826
15.1924 68.9837
15.2374 69.5448
15.2824 68.537
15.3274 66.7475
15.3725 65.3073
15.4175 64.8247
15.4625 64.5583
15.5076 64.6254
15.5526 64.5513
15.5976 64.1542
15.6426 64.7071
15.6877 68.848
15.7327 75.7466
15.7778 90.4687
15.8228 123.265
15.8679 173.966
15.9129 197.2
15.958 152.023
16.003 94.8413
16.0481 66.9379
16.0931 63.3286
16.1382 61.1728
16.1833 59.1519
16.2283 57.8131
16.2734 57.1165
16.3185 57.3907
16.3636 58.0832
16.4086 56.6323
16.4537 55.0713
16.4988 54.3065
16.5439 54.1636
16.589 53.7932
16.6341 53.6926
16.6792 53.2675
16.7243 53.6962
16.7694 53.7667
16.8145 53.4454
16.8596 54.2522
16.9047 55.5229
16.9498 55.699
16.9949 54.4531
17.04 54.5445
17.0851 55.4115
17.1302 56.9887
17.1754 59.8644
17.2205 64.8328
17.2656 73.6127
17.3108 82.0979
17.3559 80.3615
17.401 68.7678
17.4462 60.6232
17.4913 57.6752
17.5365 57.8784
17.5815 57.9854
17.6268 58.2419
17.6718 59.0843
17.7171 59.5774
17.7622 59.9182
17.8074 60.2638
17.8525 62.122
17.8977 65.4788
17.9428 70.5513
17.9881 79.2089
18.0331 98.1184
18.0784 122.769
18.1237 137.549
18.1688 125.225
18.214 99.1958
18.2591 83.5487
18.3044 89.2701
18.3495 100.403
18.3948 105.86
18.4399 94.0336
18.4852 75.2875
18.5303 64.4202
18.5756 60.9945
18.6207 60.0148
18.666 59.1669
18.7112 58.5636
18.7565 57.6101
18.8016 57.4726
18.8469 56.7235
18.892 56.4946
18.9374 55.9197
18.9825 55.8357
19.0278 55.7391
19.073 55.6751
19.1183 55.7386
19.1635 56.6259
19.2088 57.8802
19.254 60.625
19.2993 65.7199
19.3447 71.9171
19.3898 74.8893
19.4352 70.1525
19.4804 61.3409
19.5257 55.7266
19.5709 52.8849
19.6163 52.775
19.6615 52.5826
19.7068 52.4071
19.752 52.2508
19.7974 52.3937
19.8426 53.2536
19.888 53.5382
19.9332 54.6946
19.9786 57.183
20.0238 61.3461
20.0692 66.9178
20.1144 68.715
20.1598 66.2948
20.205 62.1581
20.2504 61.088
20.2957 63.3984
20.3411 65.0433
20.3863 62.6701
20.4318 57.2917
20.477 52.5381
20.5224 50.574
20.5677 50.0712
20.6131 49.3569
20.6586 48.7601
20.7038 48.4888
20.7493 48.1051
20.7945 47.9146
20.84 47.9123
20.8853 47.7124
20.9307 47.6354
20.976 47.7846
21.0215 47.365
21.0668 47.7139
21.1122 48.4269
21.1575 49.1194
21.203 50.0167
21.2483 50.4807
21.2938 50.2732
21.3391 48.9976
21.3846 48.0145
21.4299 47.5076
21.4754 47.312
21.5207 47.5313
21.5662 47.7803
21.6116 48.0628
21.6571 48.4807
21.7024 49.631
21.7479 51.2955
21.7933 54.0639
21.8388 58.2059
21.8843 62.138
21.9297 63.6511
21.9752 61.6764
22.0206 58.0774
22.0661 55.5138
22.1115 55.3141
22.157 54.9553
22.2024 52.9778
22.248 50.4488
22.2933 48.8978
22.3389 48.0931
22.3843 48.059
22.4299 47.9217
22.4753 47.8851
22.5208 47.6278
22.5662 47.4607
22.6118 47.5947
22.6572 47.7007
22.7028 47.9886
22.7483 48.5468
22.7939 49.1863
22.8393 50.6547
22.8849 52.9576
22.9303 55.447
22.9759 56.943
23.0214 56.1098
23.067 53.3338
23.1126 49.9918
23.1581 48.2804
23.2037 47.7688
23.2492 47.6405
23.2948 47.7786
23.3403 47.8219
23.3859 48.599
23.4314 49.5664
23.477 51.4301
23.5225 54.2366
23.5682 56.5161
23.6137 56.9074
23.6593 54.5192
23.7048 50.4439
23.7505 47.3118
23.796 45.7565
23.8417 45.2652
23.8872 44.6201
23.9329 44.3583
23.9784 44.0241
24.0241 43.7519
24.0697 43.7065
24.1154 43.3193
24.1609 43.0732
24.2066 42.9394
24.2522 42.8542
24.2979 42.6264
24.3434 42.4285
24.3892 42.4264
24.4349 42.2295
24.4805 41.9817
24.5262 42.2553
24.5718 42.2039
24.6175 42.0484
24.6631 41.9152
24.7089 41.7252
24.7545 41.4714
24.8002 41.3505
24.8458 41.2156
24.8916 41.1394
24.9372 41.1671
24.983 41.6968
25.0286 41.8492
25.0744 42.5543
25.12 43.0581
25.1658 43.3819
25.2114 43.7382
25.2572 44.0444
25.3029 44.1377
25.3487 44.2086
25.3943 43.7341
25.4402 42.6181
25.4858 41.3541
25.5316 40.6043
25.5773 40.0932
25.6231 40.0055
25.669 39.6288
25.7147 39.6157
25.7605 39.6028
25.8062 39.5963
25.8521 39.6957
25.8977 39.795
25.9436 40.029
25.9893 40.1022
26.0352 40.7875
26.0809 40.8032
26.1268 41.0039
26.1725 40.5788
26.2184 39.9484
26.2641 39.4955
26.31 39.2685
26.3557 39.2731
26.4017 39.1866
26.4474 39.6719
26.4933 39.9602
26.5391 40.5171
26.585 40.9035
26.6308 41.4374
26.6767 41.5092
26.7225 41.2465
26.7684 40.6281
26.8142 40.1233
26.8601 39.6554
26.9059 39.1797
26.9519 38.6752
26.9979 38.3615
27.0437 38.0624
27.0896 37.8211
27.1354 37.8789
27.1814 37.9406
27.2272 37.8091
27.2732 37.8376
27.3191 37.5829
27.3651 37.751
27.4109 37.6442
27.4569 37.8762
27.5027 37.722
27.5488 37.8037
27.5946 37.4449
27.6407 37.435
27.6865 37.3038
27.7326 37.2589
27.7784 37.0796
27.8245 37.0397
27.8703 37.1808
27.9164 37.5529
27.9623 37.7268
28.0084 38.0942
28.0543 38.341
28.1003 38.2699
28.1462 38.0665
28.1923 37.7039
28.2384 37.2686
28.2843 36.9596
28.3304 36.5111
28.3764 36.0534
28.4225 35.6457
28.4684 35.5906
28.5145 35.3522
28.5605 35.1962
28.6066 34.9569
28.6526 34.9646
28.6987 34.9821
28.7447 34.7661
28.7908 34.7498
28.8368 34.779
28.8829 34.7042
28.9289 34.7057
28.9751 34.4548
29.0211 34.2605
29.0673 34.0403
29.1133 33.7938
29.1595 33.686
29.2055 33.718
29.2517 33.6086
29.2977 33.7136
29.3439 33.5812
29.3899 33.6962
29.4361 33.5002
29.4824 33.3035
29.5284 33.1355
29.5746 32.7283
29.6207 32.5444
29.6669 32.4627
29.713 32.3165
29.7593 32.2353
29.8053 32.2588
29.8516 32.1472
29.8977 32.0798
29.9439 31.9939
29.99 31.842
30.0363 31.7725
30.0824 31.9111
30.1287 31.8149
30.1748 31.9104
30.2211 31.8872
30.2673 31.6305
30.3136 31.6714
30.3597 31.6248
30.406 31.5169
30.4522 31.4419
30.4985 31.3895
30.5447 31.6842
30.591 31.5304
30.6372 31.594
30.6835 31.6165
30.7297 31.5372
30.7761 31.5423
30.8224 31.3875
30.8686 31.2272
30.915 31.0231
30.9612 30.8494
31.0076 30.6684
31.0538 30.5801
31.1002 30.5313
31.1464 30.3031
31.1928 30.3033
31.2391 30.3908
31.2855 30.273
31.3317 30.2819
31.3781 30.3373
31.4244 30.291
31.4708 30.2808
31.5171 30.2442
31.5636 30.2139
31.6098 29.9102
31.6563 29.8108
31.7026 29.6434
31.7491 29.4877
31.7953 29.5585
31.8418 29.6108
31.8881 29.6594
31.9346 29.5894
31.9809 29.5958
32.0275 29.3542
32.074 29.2672
32.1203 29.0868
32.1668 29.0202
32.2132 28.6987
32.2597 28.6752
32.306 28.6495
32.3526 28.3745
32.399 28.3235
32.4455 28.2858
32.4919 28.1296
32.5385 28.0985
32.5848 27.9381
32.6314 27.972
32.6778 27.8147
32.7244 27.8513
32.7708 27.6616
32.8174 27.6518
32.8638 27.4771
32.9104 27.3966
32.9569 27.5307
33.0035 27.288
33.0499 27.36
33.0966 27.3142
33.143 27.2902
33.1897 27.2355
33.2361 27.0769
33.2828 27.0724
33.3293 26.8847
33.3759 26.8737
33.4226 26.6727
33.4691 26.5044
33.5158 26.5129
33.5623 26.3848
33.609 26.2207
33.6555 26.1808
33.7022 26.0976
33.7487 25.967
33.7954 25.9873
33.842 25.8911
33.8887 25.824
33.9353 25.7973
33.982 25.6547
34.0286 25.5736
34.0753 25.4778
34.1219 25.3755
34.1687 25.4024
34.2152 25.3387
34.262 25.0997
34.3086 25.0758
34.3554 25.085
34.402 24.909
34.4488 24.8647
34.4954 24.7643
34.5422 24.7609
34.5889 24.6495
34.6357 24.5367
34.6825 24.4294
34.7292 24.3867
34.776 24.3182
34.8227 24.2252
34.8695 24.1879
34.9162 24.0769
34.9631 24.0528
35.0098 24.1084
35.0566 23.9386
35.1033 23.8458
35.1502 23.7606
35.1969 23.7609
35.2438 23.6815
35.2906 23.6279
35.3375 23.6162
35.3842 23.5744
35.4311 23.537
35.4779 23.463
35.5248 23.4503
35.5716 23.3461
35.6185 23.3227
35.6653 23.0934
35.7123 23.1028
35.759 23.0947
35.806 22.9682
35.8528 22.7859
35.8998 22.7216
35.9468 22.719
35.9936 22.7129
36.0406 22.5937
36.0874 22.5278
36.1345 22.5222
36.1813 22.3923
36.2283 22.3258
36.2752 22.2587
36.3222 22.2347
36.3691 22.1606
36.4161 22.0352
36.463 22.0788
36.5101 22.1077
36.557 21.9035
36.6041 21.8059
36.651 21.7872
36.6981 21.6951
36.745 21.6521
36.7921 21.5865
36.839 21.4596
36.8861 21.3332
36.9331 21.2699
36.9802 21.3138
37.0272 21.1996
37.0743 21.1121
37.1213 21.1461
37.1684 21.0224
37.2154 20.9374
37.2626 20.8215
37.3098 20.823
37.3568 20.7031
37.404 20.7544
37.451 20.6163
37.4982 20.5923
37.5452 20.4971
37.5924 20.3721
37.6395 20.4425
37.6867 20.3748
37.7337 20.2289
37.781 20.1306
37.8281 20.0895
37.8753 20.0194
37.9224 19.9445
37.9697 19.8983
38.0168 19.8485
38.064 19.8007
38.1111 19.7304
38.1584 19.6675
38.2056 19.5457
38.2529 19.5214
38.3 19.5009
38.3473 19.4635
38.3945 19.3289
38.4418 19.3375
38.489 19.2404
38.5363 19.1686
38.5837 19.0419
38.6309 19.0811
38.6782 18.9312
38.7254 18.953
38.7728 18.8632
38.82 18.8278
38.8674 18.7995
38.9146 18.6798
38.9621 18.5969
39.0093 18.6054
39.0567 18.4417
39.104 18.4374
39.1514 18.3352
39.1987 18.3743
39.2461 18.3056
39.2934 18.2276
39.3409 18.0951
39.3882 18.0547
39.4356 18.094
39.483 17.9542
39.5304 17.892
39.5778 17.9666
39.6253 17.7851
39.6726 17.8023
39.7201 17.7291
39.7675 17.6876
39.815 17.602
39.8624 17.5148
39.9099 17.5632
39.9575 17.4498
40.0049 17.4359
40.0525 17.2675
40.0999 17.2496
40.1474 17.2179
40.1949 17.1157
40.2425 17.0942
40.2899 17.0736
40.3375 16.9722
40.385 16.9031
40.4326 16.9116
40.48 16.7929
40.5277 16.7813
40.5752 16.7465
40.6228 16.6975
40.6703 16.5849
40.718 16.5482
40.7655 16.4894
40.8132 16.4618
40.8607 16.4647
40.9084 16.3857
40.9559 16.2258
41.0036 16.197
41.0512 16.1655
41.0989 16.1789
41.1465 16.0575
41.1942 16.0483
41.242 15.9391
41.2896 15.9399
41.3373 15.8517
41.3849 15.8009
41.4327 15.7743
41.4803 15.6699
41.5281 15.6696
41.5758 15.547
41.6236 15.525
41.6712 15.5193
41.7191 15.443
41.7667 15.3983
41.8146 15.3599
41.8622 15.3533
41.9101 15.2358
41.9578 15.2328
42.0057 15.1363
42.0534 15.0711
42.1013 15.0153
42.149 15.0056
42.1969 14.9913
42.2446 14.8684
42.2925 14.8652
42.3403 14.8108
42.3882 14.7717
42.436 14.7267
42.4839 14.6506
42.5319 14.5846
42.5797 14.5657
42.6277 14.5561
42.6755 14.4777
42.7235 14.4412
42.7713 14.3216
42.8193 14.2571
42.8671 14.2211
42.9152 14.2087
42.963 14.1316
43.0111 14.1087
43.0589 14.0653
43.107 14.0412
43.1549 13.9938
43.2029 13.9184
43.2508 13.8643
43.2989 13.8356
43.3468 13.7446
43.3949 13.7497
43.4429 13.6931
43.491 13.628
43.5389 13.6003
43.5871 13.5418
43.635 13.5022
43.6832 13.4767
43.7312 13.4002
43.7793 13.3089
43.8273 13.3229
43.8755 13.2135
43.9237 13.2527
43.9717 13.1869
44.0199 13.091
44.068 13.0743
44.1162 13.0305
44.1642 13.0052
44.2125 12.9249
44.2606 12.8908
44.3088 12.838
44.3569 12.8196
44.4052 12.8019
44.4533 12.7352
44.5016 12.6896
44.5497 12.6312
44.598 12.5912
44.6461 12.559
44.6945 12.5414
44.7426 12.4267
44.791 12.3863
44.8391 12.3404
44.8875 12.3508
44.9357 12.2608
44.984 12.2276
45.0322 12.1774
45.0806 12.1232
45.1288 12.1205
45.1773 12.0379
45.2257 12.0582
45.2739 11.9934
45.3224 11.9492
45.3706 11.9163
45.4191 11.8398
45.4673 11.8736
45.5158 11.7922
45.5641 11.7494
45.6126 11.693
45.6609 11.6608
45.7094 11.6251
45.7577 11.5559
45.8063 11.5322
45.8546 11.5034
45.9031 11.4329
45.9515 11.4046
46.0001 11.3626
46.0484 11.343
46.097 11.2513
46.1454 11.2564
46.194 11.2042
46.2424 11.1564
46.291 11.1073
46.3395 11.1132
46.3881 11.029
46.4365 10.9888
46.4852 10.9249
46.5337 10.8961
46.5823 10.9125
46.631 10.8164
46.6795 10.7848
46.7282 10.7687
46.7767 10.7214
46.8254 10.6503
46.8739 10.6329
46.9226 10.6123
46.9712 10.5421
47.0199 10.488
47.0685 10.4949
47.1173 10.4447
47.1658 10.421
47.2146 10.3793
47.2632 10.3038
47.312 10.2937
47.3606 10.2361
47.4095 10.2129
47.4581 10.18
47.5069 10.0947
47.5556 10.1134
47.6044 10.0453
47.6531 10.0075
47.702 9.95293
47.7507 9.91487
47.7996 9.90752
47.8483 9.8984
47.8972 9.86853
47.9461 9.78266
47.9948 9.80099
48.0438 9.74544
48.0925 9.71244
48.1415 9.69425
48.1902 9.60598
48.2392 9.62033
48.288 9.57907
48.337 9.5504
48.3858 9.5123
48.4348 9.46192
48.4837 9.45195
48.5327 9.4631
48.5815 9.3633
48.6306 9.38713
48.6795 9.29222
48.7285 9.28109
48.7774 9.24483
48.8265 9.19783
48.8754 9.12852
48.9245 9.11384
48.9734 9.07937
49.0226 9.03769
49.0715 8.99874
49.1206 8.98223
49.1696 8.9544
49.2188 8.9498
49.2679 8.86109
49.3169 8.87606
49.3661 8.8379
49.4151 8.75807
49.4643 8.77343
49.5134 8.74681
49.5626 8.64566
49.6117 8.64199
49.6609 8.61203
49.71 8.6099
49.7592 8.55444
49.8083 8.49388
49.8576 8.4741
49.9067 8.44022
49.956 8.42222
50.0052 8.39775
50.0545 8.34655
50.1036 8.31889
50.153 8.31014
50.2022 8.24435
50.2515 8.19175
50.3007 8.15192
50.3501 8.15397
50.3993 8.14166
50.4487 8.10879
50.498 8.03515
50.5474 8.04413
50.5966 7.9999
50.6461 7.96176
50.6955 7.98625
50.7448 7.91472
50.7943 7.85825
50.8436 7.87879
50.8931 7.81538
50.9424 7.7894
50.9919 7.74854
51.0413 7.74505
51.0908 7.70463
51.1402 7.65222
51.1897 7.63336
51.2391 7.63081
51.2887 7.55953
51.3381 7.54405
51.3877 7.53694
51.4371 7.48758
51.4867 7.42654
51.5362 7.42621
51.5858 7.40175
51.6353 7.34063
51.6849 7.30725
51.7344 7.30697
51.7841 7.28325
51.8336 7.23138
51.8833 7.26041
51.9328 7.18306
51.9826 7.1288
52.0323 7.1469
52.0818 7.08035
52.1316 7.06379
52.1812 7.04451
52.231 7.00854
52.2806 6.95866
52.3304 6.96435
52.38 6.93995
52.4298 6.89592
52.4794 6.88063
52.5293 6.82205
52.5789 6.81074
52.6288 6.77189
52.6785 6.76275
52.7284 6.72198
52.7781 6.70374
52.828 6.6738
52.8777 6.61916
52.9276 6.62083
52.9774 6.5928
53.0273 6.5536
53.0771 6.51105
53.1271 6.56645
53.1769 6.50194
53.2269 6.42977
53.2767 6.39348
53.3267 6.38117
53.3765 6.36371
53.4266 6.32253
53.4766 6.31403
53.5265 6.25708
53.5765 6.26118
53.6264 6.2247
53.6765 6.2267
53.7264 6.1605
53.7765 6.17069
53.8265 6.14641
53.8766 6.08516
53.9266 6.01937
53.9767 6.02514
54.0267 6.01297
54.0769 5.97942
54.1269 5.94704
54.1771 5.93692
54.2271 5.89461
54.2773 5.83596
54.3274 5.81705
54.3776 5.78918
54.4277 5.79586
54.478 5.73225
54.528 5.72766
54.5783 5.65945
54.6285 5.64084
54.6788 5.56439
54.7289 5.51008
54.7792 5.48474
54.8296 5.48171
54.8798 5.44075
54.9301 5.35986
54.9803 5.33941
55.0307 5.33039
55.0809 5.29209
55.1314 5.23834
55.1816 5.21125
55.232 5.13663
55.2823 5.11409
55.3328 5.03463
55.383 4.95908
55.4335 4.987
55.4838 4.94326
55.5344 4.84459
55.5847 4.82805
55.6352 4.84531
55.6856 4.79709
55.7361 4.81403