File: XRD/Ni3Fe_FD0508.xy
TT I
1.27165 7.93059
1.31627 7.04714
1.36089 6.38095
1.40551 6.2849
1.45013 6.88305
1.49476 5.43767
1.53938 6.10792
1.584 5.80964
1.62863 5.39646
1.67325 5.24233
1.71787 4.44532
1.7625 4.66762
1.80712 4.76858
1.85174 4.82627
1.89636 4.95083
1.94099 4.99424
1.98562 4.72199
2.03025 4.43827
2.07487 4.58388
2.11949 4.68811
2.16411 4.37809
2.20874 14.6616
2.25338 23.4822
2.298 6.05793
2.34263 5.4922
2.38725 5.32294
2.43188 5.534
2.4765 6.23864
2.52115 6.57463
2.56577 6.97577
2.6104 7.7317
2.65503 7.44625
2.69965 7.22677
2.7443 7.31175
2.78893 7.31102
2.83356 8.13841
2.87818 8.47361
2.92281 8.34342
2.96744 9.03049
3.01209 10.4687
3.05672 11.0344
3.10135 11.8004
3.14599 12.9071
3.19062 13.8554
3.23527 15.4085
3.2799 15.932
3.32454 16.4382
3.36917 17.8522
3.4138 18.9412
3.45844 20.0032
3.50309 21.0053
3.54773 22.159
3.59237 24.2527
3.637 95.7887
3.68164 59.7902
3.7263 26.6166
3.77094 26.256
3.81558 27.185
3.86022 27.7779
3.90486 29.3204
3.9495 30.043
3.99416 31.1519
4.0388 32.3261
4.08344 33.7592
4.12809 35.3109
4.17273 37.233
4.21738 44.0905
4.26204 256.687
4.30669 220.556
4.35133 49.2905
4.39598 45.1563
4.44063 54.6185
4.4853 67.1351
4.52995 51.1148
4.5746 51.7644
4.61925 53.8726
4.6639 55.9634
4.70855 58.4918
4.75322 61.6105
4.79788 64.044
4.84253 68.1027
4.88719 71.9707
4.93184 76.1085
4.97652 81.2989
5.02118 87.8065
5.06583 96.2846
5.11049 107.968
5.15515 180.363
5.19981 392.152
5.24449 2994.34
5.28916 12147.4
5.33382 3293.84
5.37848 205.252
5.42315 133.712
5.46783 116.516
5.5125 108.101
5.55716 103.689
5.60183 100.178
5.6465 98.225
5.69117 95.3914
5.73586 93.5868
5.78053 92.9676
5.8252 92.4585
5.86988 93.2718
5.91455 96.0935
5.95924 104.873
6.00392 220.023
6.0486 1015.35
6.09328 4110.05
6.13795 3448.96
6.18263 294.628
6.22733 96.8798
6.27201 84.9812
6.3167 104.275
6.36138 81.8519
6.40606 69.885
6.45075 68.4758
6.49545 66.3126
6.54014 65.4195
6.58483 63.857
6.62952 63.4529
6.67421 96.4707
6.71892 146.851
6.76361 69.676
6.8083 59.4424
6.853 58.5037
6.89769 57.3549
6.94239 56.9417
6.98711 56.746
7.03181 56.2322
7.07651 56.0735
7.12121 55.6865
7.16591 56.1403
7.21063 56.2843
7.25533 72.0952
7.30004 183.094
7.34475 93.134
7.38945 57.2943
7.43416 55.2391
7.47889 55.2575
7.5236 55.4812
7.56831 56.0482
7.61303 57.6949
7.65774 58.0144
7.70247 57.086
7.74719 56.7547
7.79191 57.3284
7.83663 57.6941
7.88135 58.465
7.92607 59.2087
7.97081 60.384
8.01553 61.4408
8.06026 63.2152
8.10498 65.1224
8.14971 74.5097
8.19446 73.2155
8.23919 70.1689
8.28392 72.6319
8.32865 74.8171
8.37339 79.1484
8.41812 86.7229
8.46288 116.44
8.50761 169.38
8.55235 402.659
8.59709 1153.8
8.64183 2137.45
8.68658 1065.73
8.73134 181.454
8.77609 102.234
8.82083 94.4484
8.86558 90.8594
8.91033 90.7536
8.9551 92.7874
8.99985 86.6169
9.04461 84.7255
9.08936 83.6803
9.13412 82.8656
9.17888 82.9282
9.22365 83.9511
9.26841 82.7345
9.31318 83.4927
9.35794 83.6383
9.4027 83.7321
9.44749 84.7196
9.49226 85.7545
9.53703 86.4555
9.5818 88.1426
9.62657 93.1843
9.67134 100.009
9.71614 94.9758
9.76091 94.9029
9.80569 97.482
9.85047 101.009
9.89525 125.825
9.94005 138.485
9.98484 180.946
10.0296 356.616
10.0744 808.826
10.1192 1650.33
10.164 1625.64
10.2088 446.748
10.2536 135.147
10.2984 115.8
10.3432 117.331
10.388 106.311
10.4328 120.097
10.4776 163.16
10.5224 283.101
10.5672 494.161
10.612 507.007
10.6568 225.15
10.7017 100.288
10.7465 88.1394
10.7913 84.3748
10.8361 82.1658
10.8809 80.0007
10.9257 79.4144
10.9706 80.0593
11.0154 75.9046
11.0602 73.9121
11.105 72.5199
11.1499 77.4301
11.1947 84.7739
11.2395 75.6144
11.2844 71.3251
11.3292 68.233
11.374 67.0274
11.4189 66.4448
11.4637 65.7841
11.5086 66.2741
11.5534 69.2273
11.5983 66.3228
11.6431 64.3417
11.688 63.5148
11.7328 63.6149
11.7777 63.8402
11.8225 63.3288
11.8674 63.3275
11.9122 63.4239
11.9571 63.4759
12.002 64.6229
12.0468 68.5364
12.0917 80.8058
12.1366 104.725
12.1814 153.017
12.2263 201.054
12.2712 171.913
12.3161 102.249
12.3609 72.1354
12.4058 65.6661
12.4507 65.1948
12.4956 65.0843
12.5405 65.2223
12.5853 66.3515
12.6302 74.3441
12.6751 79.8942
12.72 70.8706
12.7649 68.598
12.8098 69.2732
12.8547 70.3704
12.8996 71.616
12.9445 72.8578
12.9894 74.7977
13.0343 76.3379
13.0792 79.6023
13.1242 89.1528
13.1691 114.338
13.214 151.94
13.2589 236.614
13.3038 360.403
13.3487 425.922
13.3937 280.272
13.4386 131.862
13.4835 108.013
13.5285 123.421
13.5734 160.678
13.6183 243.278
13.6633 333.636
13.7082 340.295
13.7531 202.638
13.7981 103.506
13.843 83.4054
13.888 80.489
13.9329 78.2688
13.9779 76.8132
14.0228 75.3716
14.0678 74.0199
14.1127 73.2655
14.1577 73.3193
14.2027 72.4823
14.2476 71.2671
14.2926 71.5834
14.3376 72.6169
14.3825 71.2694
14.4275 69.6335
14.4725 69.6406
14.5175 69.7251
14.5624 69.9343
14.6074 71.9956
14.6524 72.5974
14.6974 71.0276
14.7424 72.8613
14.7874 79.9275
14.8324 90.6476
14.8774 111.657
14.9224 152.307
14.9674 199.969
15.0124 215.292
15.0574 154.35
15.1024 95.5483
15.1474 73.7453
15.1924 71.6557
15.2374 72.1559
15.2824 71.0991
15.3274 68.7727
15.3725 67.5573
15.4175 67.4475
15.4625 66.7477
15.5076 67.1648
15.5526 67.1772
15.5976 66.5704
15.6426 67.5687
15.6877 73.216
15.7327 80.9618
15.7778 96.0366
15.8228 125.878
15.8679 167.055
15.9129 190.532
15.958 160.021
16.003 103.116
16.0481 70.6526
16.0931 65.7011
16.1382 63.5666
16.1833 61.5841
16.2283 59.7976
16.2734 58.9102
16.3185 59.5817
16.3636 60.1981
16.4086 58.4503
16.4537 57.2353
16.4988 56.0562
16.5439 56.3646
16.589 55.8686
16.6341 55.7204
16.6792 55.2464
16.7243 55.4818
16.7694 55.6817
16.8145 55.5986
16.8596 56.0103
16.9047 57.5974
16.9498 57.8402
16.9949 56.4119
17.04 56.544
17.0851 57.8707
17.1302 59.5231
17.1754 62.3604
17.2205 67.1051
17.2656 74.5455
17.3108 81.8764
17.3559 82.4305
17.401 72.6739
17.4462 63.5234
17.4913 59.8916
17.5365 59.815
17.5815 60.102
17.6268 60.3416
17.6718 61.2118
17.7171 61.6183
17.7622 61.9258
17.8074 62.7347
17.8525 64.8437
17.8977 68.935
17.9428 74.6897
17.9881 83.433
18.0331 99.6017
18.0784 119.807
18.1237 137.247
18.1688 133.558
18.214 107.335
18.2591 88.7821
18.3044 91.1211
18.3495 100.015
18.3948 105.845
18.4399 99.1809
18.4852 80.7174
18.5303 67.6731
18.5756 63.1139
18.6207 61.9829
18.666 61.0888
18.7112 60.2318
18.7565 59.651
18.8016 59.3079
18.8469 58.8875
18.892 58.4823
18.9374 57.9482
18.9825 57.6371
19.0278 57.6512
19.073 57.6696
19.1183 58.3686
19.1635 58.8849
19.2088 60.4011
19.254 62.7525
19.2993 66.9221
19.3447 72.8403
19.3898 76.4562
19.4352 73.6139
19.4804 64.9817
19.5257 57.9233
19.5709 55.0354
19.6163 54.6481
19.6615 54.3248
19.7068 54.1393
19.752 53.8468
19.7974 54.361
19.8426 54.9834
19.888 55.7995
19.9332 57.1265
19.9786 59.3556
20.0238 62.7424
20.0692 67.3015
20.1144 70.1176
20.1598 69.268
20.205 64.8396
20.2504 62.8874
20.2957 64.0124
20.3411 66.009
20.3863 65.1229
20.4318 59.5899
20.477 54.655
20.5224 52.3812
20.5677 51.6637
20.6131 51.0543
20.6586 50.2994
20.7038 50.1789
20.7493 49.6453
20.7945 49.6708
20.84 49.3911
20.8853 49.3558
20.9307 49.294
20.976 49.4603
21.0215 49.1242
21.0668 49.7833
21.1122 49.9654
21.1575 50.7269
21.203 51.3823
21.2483 51.9898
21.2938 52.1462
21.3391 51.0358
21.3846 49.7117
21.4299 49.2302
21.4754 48.8947
21.5207 49.1
21.5662 49.5102
21.6116 49.8655
21.6571 50.5383
21.7024 51.4738
21.7479 53.2741
21.7933 55.8358
21.8388 59.3564
21.8843 62.6418
21.9297 64.8534
21.9752 64.2411
22.0206 60.908
22.0661 57.464
22.1115 56.4604
22.157 56.5398
22.2024 55.0889
22.248 52.3534
22.2933 50.5838
22.3389 49.7709
22.3843 49.7946
22.4299 49.5408
22.4753 49.5118
22.5208 49.2223
22.5662 49.046
22.6118 49.3106
22.6572 49.5407
22.7028 49.9531
22.7483 50.2116
22.7939 51.1257
22.8393 52.3672
22.8849 54.5694
22.9303 56.3613
22.9759 58.035
23.0214 58.021
23.067 55.4747
23.1126 52.0413
23.1581 50.1624
23.2037 49.4938
23.2492 49.5099
23.2948 49.3375
23.3403 49.8189
23.3859 50.3885
23.4314 51.5212
23.477 53.0941
23.5225 55.1764
23.5682 56.8367
23.6137 58.0582
23.6593 56.4263
23.7048 52.6204
23.7505 49.2199
23.796 47.2449
23.8417 46.6345
23.8872 46.0519
23.9329 45.9533
23.9784 45.476
24.0241 45.3536
24.0697 45.0351
24.1154 44.7275
24.1609 44.6587
24.2066 44.4339
24.2522 44.2681
24.2979 43.9943
24.3434 43.9096
24.3892 43.7793
24.4349 43.6796
24.4805 43.5623
24.5262 43.5924
24.5718 43.4494
24.6175 43.4007
24.6631 43.4216
24.7089 43.2879
24.7545 42.8516
24.8002 42.8919
24.8458 42.7661
24.8916 42.5287
24.9372 42.7295
24.983 43.0468
25.0286 43.4055
25.0744 43.6395
25.12 44.2048
25.1658 44.8438
25.2114 45.1994
25.2572 45.2072
25.3029 45.2962
25.3487 45.4213
25.3943 45.2028
25.4402 44.1857
25.4858 43.2322
25.5316 42.1043
25.5773 41.543
25.6231 41.5311
25.669 41.0984
25.7147 41.2047
25.7605 40.9596
25.8062 41.0134
25.8521 41.1564
25.8977 41.0989
25.9436 41.2802
25.9893 41.5491
26.0352 41.9644
26.0809 41.9766
26.1268 42.2526
26.1725 41.8883
26.2184 41.3993
26.2641 40.8604
26.31 40.7956
26.3557 40.6726
26.4017 40.7338
26.4474 40.8825
26.4933 41.2324
26.5391 41.8193
26.585 42.0436
26.6308 42.5269
26.6767 42.5775
26.7225 42.606
26.7684 42.0554
26.8142 41.3856
26.8601 41.0306
26.9059 40.6364
26.9519 40.1388
26.9979 39.7735
27.0437 39.381
27.0896 39.1484
27.1354 39.2768
27.1814 39.0982
27.2272 39.0288
27.2732 39.0516
27.3191 38.8159
27.3651 38.9861
27.4109 38.8091
27.4569 38.8894
27.5027 38.999
27.5488 39.0139
27.5946 38.8854
27.6407 38.6599
27.6865 38.6192
27.7326 38.3191
27.7784 38.371
27.8245 38.3765
27.8703 38.5575
27.9164 38.6846
27.9623 38.835
28.0084 39.1485
28.0543 39.535
28.1003 39.5277
28.1462 39.3538
28.1923 38.9777
28.2384 38.4295
28.2843 38.1959
28.3304 37.6947
28.3764 37.1635
28.4225 36.9664
28.4684 36.7092
28.5145 36.5163
28.5605 36.4062
28.6066 36.1979
28.6526 36.0893
28.6987 36.093
28.7447 35.9244
28.7908 35.8602
28.8368 35.958
28.8829 35.9064
28.9289 35.9286
28.9751 35.6375
29.0211 35.4648
29.0673 35.11
29.1133 34.9968
29.1595 34.8358
29.2055 34.8579
29.2517 34.7888
29.2977 34.7834
29.3439 34.7286
29.3899 34.6736
29.4361 34.5448
29.4824 34.3872
29.5284 34.2585
29.5746 33.8635
29.6207 33.5311
29.6669 33.6612
29.713 33.3732
29.7593 33.324
29.8053 33.3395
29.8516 33.2638
29.8977 33.1515
29.9439 33.0534
29.99 32.908
30.0363 32.812
30.0824 32.9072
30.1287 32.8604
30.1748 32.8098
30.2211 32.8377
30.2673 32.6616
30.3136 32.9057
30.3597 32.7153
30.406 32.5955
30.4522 32.4385
30.4985 32.4791
30.5447 32.5428
30.591 32.4845
30.6372 32.617
30.6835 32.5602
30.7297 32.6338
30.7761 32.5453
30.8224 32.4381
30.8686 32.3116
30.915 31.9656
30.9612 31.9492
31.0076 31.6876
31.0538 31.5775
31.1002 31.5526
31.1464 31.4481
31.1928 31.3311
31.2391 31.4292
31.2855 31.1621
31.3317 31.2477
31.3781 31.3028
31.4244 31.3295
31.4708 31.2277
31.5171 31.1443
31.5636 31.2249
31.6098 30.8337
31.6563 30.8342
31.7026 30.6216
31.7491 30.5626
31.7953 30.5278
31.8418 30.5002
31.8881 30.4812
31.9346 30.421
31.9809 30.3629
32.0275 30.3561
32.074 30.2388
32.1203 30.0081
32.1668 29.789
32.2132 29.782
32.2597 29.6692
32.306 29.6146
32.3526 29.2775
32.399 29.3829
32.4455 29.0848
32.4919 29.0888
32.5385 28.9888
32.5848 28.9511
32.6314 28.8508
32.6778 28.7089
32.7244 28.6007
32.7708 28.4861
32.8174 28.5845
32.8638 28.3822
32.9104 28.4526
32.9569 28.3567
33.0035 28.2378
33.0499 28.2164
33.0966 28.0875
33.143 28.0842
33.1897 27.9938
33.2361 27.9827
33.2828 27.9592
33.3293 27.7057
33.3759 27.7445
33.4226 27.5125
33.4691 27.429
33.5158 27.4279
33.5623 27.3089
33.609 26.9969
33.6555 27.0875
33.7022 26.9599
33.7487 26.8886
33.7954 26.7523
33.842 26.6963
33.8887 26.6
33.9353 26.5973
33.982 26.4415
34.0286 26.3876
34.0753 26.3231
34.1219 26.3105
34.1687 26.1292
34.2152 26.073
34.262 25.9868
34.3086 25.9681
34.3554 25.8348
34.402 25.6443
34.4488 25.6139
34.4954 25.5534
34.5422 25.5254
34.5889 25.3541
34.6357 25.2834
34.6825 25.2756
34.7292 25.1688
34.776 25.0468
34.8227 25.0342
34.8695 24.9399
34.9162 24.8886
34.9631 24.8305
35.0098 24.7267
35.0566 24.6072
35.1033 24.5559
35.1502 24.5267
35.1969 24.4597
35.2438 24.5294
35.2906 24.351
35.3375 24.3977
35.3842 24.2609
35.4311 24.3005
35.4779 24.2325
35.5248 24.1731
35.5716 24.0358
35.6185 24.0628
35.6653 23.9305
35.7123 23.7491
35.759 23.8098
35.806 23.5416
35.8528 23.5441
35.8998 23.5178
35.9468 23.3536
35.9936 23.3853
36.0406 23.2358
36.0874 23.2884
36.1345 23.1859
36.1813 23.1319
36.2283 22.914
36.2752 22.9881
36.3222 22.9445
36.3691 22.854
36.4161 22.7211
36.463 22.7244
36.5101 22.731
36.557 22.5966
36.6041 22.4424
36.651 22.4054
36.6981 22.4186
36.745 22.2782
36.7921 22.2446
36.839 22.1769
36.8861 22.0777
36.9331 21.998
36.9802 21.954
37.0272 21.8281
37.0743 21.7848
37.1213 21.7335
37.1684 21.7114
37.2154 21.5857
37.2626 21.5167
37.3098 21.4634
37.3568 21.3972
37.404 21.3998
37.451 21.1968
37.4982 21.2032
37.5452 21.0913
37.5924 20.9391
37.6395 21.1297
37.6867 20.9535
37.7337 20.9044
37.781 20.7344
37.8281 20.7575
37.8753 20.664
37.9224 20.567
37.9697 20.4921
38.0168 20.4223
38.064 20.4235
38.1111 20.3149
38.1584 20.2205
38.2056 20.2174
38.2529 20.1688
38.3 20.0202
38.3473 20.0824
38.3945 19.8843
38.4418 19.8758
38.489 19.8045
38.5363 19.7296
38.5837 19.7085
38.6309 19.6541
38.6782 19.5512
38.7254 19.4586
38.7728 19.445
38.82 19.3661
38.8674 19.3184
38.9146 19.2699
38.9621 19.1627
39.0093 19.1807
39.0567 19.1302
39.104 19.028
39.1514 18.9055
39.1987 18.8737
39.2461 18.8449
39.2934 18.7639
39.3409 18.7383
39.3882 18.5823
39.4356 18.6097
39.483 18.5896
39.5304 18.459
39.5778 18.4134
39.6253 18.3757
39.6726 18.2961
39.7201 18.2768
39.7675 18.2332
39.815 18.188
39.8624 18.0264
39.9099 18.1222
39.9575 17.9225
40.0049 17.9069
40.0525 17.8602
40.0999 17.861
40.1474 17.7648
40.1949 17.6543
40.2425 17.6219
40.2899 17.5621
40.3375 17.497
40.385 17.4299
40.4326 17.4512
40.48 17.303
40.5277 17.3297
40.5752 17.2353
40.6228 17.2207
40.6703 17.1401
40.718 17.1318
40.7655 17.0586
40.8132 16.9626
40.8607 16.98
40.9084 16.877
40.9559 16.8012
41.0036 16.8116
41.0512 16.6941
41.0989 16.7179
41.1465 16.6094
41.1942 16.5291
41.242 16.3924
41.2896 16.3958
41.3373 16.4026
41.3849 16.2466
41.4327 16.2795
41.4803 16.2304
41.5281 16.1554
41.5758 16.0482
41.6236 16.0488
41.6712 16.0367
41.7191 15.933
41.7667 15.8911
41.8146 15.8682
41.8622 15.7803
41.9101 15.7121
41.9578 15.667
42.0057 15.6029
42.0534 15.5411
42.1013 15.5869
42.149 15.4694
42.1969 15.3386
42.2446 15.3238
42.2925 15.3011
42.3403 15.2592
42.3882 15.2599
42.436 15.1656
42.4839 15.1041
42.5319 15.0525
42.5797 15.0155
42.6277 14.9498
42.6755 14.9041
42.7235 14.8512
42.7713 14.7881
42.8193 14.7477
42.8671 14.7495
42.9152 14.6885
42.963 14.5758
43.0111 14.5427
43.0589 14.4703
43.107 14.4614
43.1549 14.4184
43.2029 14.3718
43.2508 14.3731
43.2989 14.2359
43.3468 14.1518
43.3949 14.1325
43.4429 14.0836
43.491 14.0902
43.5389 13.9881
43.5871 13.9573
43.635 13.897
43.6832 13.9037
43.7312 13.7938
43.7793 13.7467
43.8273 13.6967
43.8755 13.6866
43.9237 13.6449
43.9717 13.5865
44.0199 13.5777
44.068 13.515
44.1162 13.4385
44.1642 13.4071
44.2125 13.374
44.2606 13.2985
44.3088 13.2652
44.3569 13.2116
44.4052 13.1899
44.4533 13.1231
44.5016 13.0465
44.5497 13.0443
44.598 13.0041
44.6461 12.9644
44.6945 12.8536
44.7426 12.8063
44.791 12.7807
44.8391 12.7947
44.8875 12.7176
44.9357 12.6676
44.984 12.6254
45.0322 12.5924
45.0806 12.5257
45.1288 12.4716
45.1773 12.445
45.2257 12.4071
45.2739 12.3248
45.3224 12.3619
45.3706 12.2799
45.4191 12.2084
45.4673 12.1671
45.5158 12.15
45.5641 12.0811
45.6126 12.0261
45.6609 12.0315
45.7094 11.9363
45.7577 11.9173
45.8063 11.8281
45.8546 11.8514
45.9031 11.7556
45.9515 11.774
46.0001 11.6871
46.0484 11.6689
46.097 11.6284
46.1454 11.6119
46.194 11.5714
46.2424 11.4495
46.291 11.4533
46.3395 11.3931
46.3881 11.3226
46.4365 11.3725
46.4852 11.2986
46.5337 11.2233
46.5823 11.2212
46.631 11.1538
46.6795 11.1396
46.7282 11.0994
46.7767 11.0103
46.8254 10.9655
46.8739 10.9644
46.9226 10.937
46.9712 10.8893
47.0199 10.8749
47.0685 10.8367
47.1173 10.791
47.1658 10.7098
47.2146 10.6914
47.2632 10.6372
47.312 10.6222
47.3606 10.5769
47.4095 10.4903
47.4581 10.4747
47.5069 10.4211
47.5556 10.4079
47.6044 10.3771
47.6531 10.2919
47.702 10.2672
47.7507 10.2399
47.7996 10.2195
47.8483 10.1698
47.8972 10.1667
47.9461 10.1026
47.9948 10.0221
48.0438 10.0771
48.0925 10.0312
48.1415 9.99436
48.1902 9.90242
48.2392 9.89314
48.288 9.86377
48.337 9.81403
48.3858 9.80268
48.4348 9.7327
48.4837 9.75444
48.5327 9.70684
48.5815 9.67609
48.6306 9.62836
48.6795 9.60389
48.7285 9.51424
48.7774 9.49595
48.8265 9.51528
48.8754 9.4103
48.9245 9.40899
48.9734 9.3605
49.0226 9.33617
49.0715 9.33123
49.1206 9.24546
49.1696 9.24378
49.2188 9.18067
49.2679 9.16077
49.3169 9.11801
49.3661 9.0403
49.4151 9.0621
49.4643 9.00795
49.5134 8.99722
49.5626 8.95472
49.6117 8.90989
49.6609 8.85042
49.71 8.80693
49.7592 8.79967
49.8083 8.80076
49.8576 8.73975
49.9067 8.6955
49.956 8.6675
50.0052 8.63538
50.0545 8.58774
50.1036 8.57114
50.153 8.53023
50.2022 8.50755
50.2515 8.45636
50.3007 8.43805
50.3501 8.39196
50.3993 8.38933
50.4487 8.32829
50.498 8.31307
50.5474 8.29337
50.5966 8.23653
50.6461 8.24636
50.6955 8.21895
50.7448 8.15241
50.7943 8.11124
50.8436 8.11604
50.8931 8.02121
50.9424 8.04173
50.9919 7.99309
51.0413 7.98817
51.0908 7.94877
51.1402 7.89178
51.1897 7.87994
51.2391 7.86712
51.2887 7.77707
51.3381 7.77967
51.3877 7.72173
51.4371 7.70302
51.4867 7.65476
51.5362 7.61743
51.5858 7.62377
51.6353 7.56576
51.6849 7.54032
51.7344 7.52674
51.7841 7.49585
51.8336 7.44811
51.8833 7.433
51.9328 7.37695
51.9826 7.36347
52.0323 7.2838
52.0818 7.34001
52.1316 7.26902
52.1812 7.26044
52.231 7.21306
52.2806 7.15152
52.3304 7.16728
52.38 7.151
52.4298 7.08961
52.4794 7.04633
52.5293 7.03407
52.5789 7.01264
52.6288 6.99021
52.6785 6.89808
52.7284 6.92794
52.7781 6.90297
52.828 6.86848
52.8777 6.80749
52.9276 6.81348
52.9774 6.77448
53.0273 6.75332
53.0771 6.69671
53.1271 6.68847
53.1769 6.66097
53.2269 6.6302
53.2767 6.60874
53.3267 6.56454
53.3765 6.57266
53.4266 6.5206
53.4766 6.50008
53.5265 6.45183
53.5765 6.43814
53.6264 6.41601
53.6765 6.35295
53.7264 6.35673
53.7765 6.31782
53.8265 6.26183
53.8766 6.24824
53.9266 6.20786
53.9767 6.20991
54.0267 6.21402
54.0769 6.14237
54.1269 6.14707
54.1771 6.10983
54.2271 6.04655
54.2773 6.07177
54.3274 6.00705
54.3776 5.92528
54.4277 5.96006
54.478 5.92567
54.528 5.89826
54.5783 5.783
54.6285 5.7722
54.6788 5.71556
54.7289 5.71287
54.7792 5.65102
54.8296 5.60695
54.8798 5.6048
54.9301 5.53883
54.9803 5.51513
55.0307 5.46715
55.0809 5.43964
55.1314 5.45245
55.1816 5.36674
55.232 5.28856
55.2823 5.27325
55.3328 5.22093
55.383 5.17039
55.4335 5.11063
55.4838 5.05492
55.5344 5.04198
55.5847 5.01727
55.6352 5.0031
55.6856 4.90668
55.7361 4.8865