File: XRD/Ni3Fe_FD0607.xy
TT I
1.27165 7.72624
1.31627 6.84647
1.36089 6.28138
1.40551 5.86723
1.45013 6.51023
1.49476 6.57989
1.53938 5.66471
1.584 5.15398
1.62863 5.29924
1.67325 5.52285
1.71787 5.43403
1.7625 4.7966
1.80712 4.96167
1.85174 4.56489
1.89636 5.23897
1.94099 5.33715
1.98562 4.91693
2.03025 4.48331
2.07487 4.61662
2.11949 5.40949
2.16411 4.91428
2.20874 12.455
2.25338 17.9534
2.298 5.93177
2.34263 5.90796
2.38725 5.48778
2.43188 5.75399
2.4765 7.01057
2.52115 6.32327
2.56577 7.60323
2.6104 7.97518
2.65503 7.54501
2.69965 8.52861
2.7443 8.23181
2.78893 7.62483
2.83356 8.52122
2.87818 9.02374
2.92281 8.43385
2.96744 9.35422
3.01209 10.2802
3.05672 11.0329
3.10135 12.5593
3.14599 13.1609
3.19062 14.2192
3.23527 15.4006
3.2799 15.5439
3.32454 16.8585
3.36917 17.6643
3.4138 18.8865
3.45844 19.6563
3.50309 20.6274
3.54773 21.9709
3.59237 23.2773
3.637 76.7076
3.68164 50.0409
3.7263 26.3075
3.77094 26.1039
3.81558 27.09
3.86022 27.5537
3.90486 28.6554
3.9495 29.9525
3.99416 30.6765
4.0388 32.2165
4.08344 33.832
4.12809 34.4251
4.17273 36.558
4.21738 42.4338
4.26204 200.657
4.30669 169.523
4.35133 47.8665
4.39598 44.9698
4.44063 52.574
4.4853 61.1054
4.52995 50.9633
4.5746 51.8425
4.61925 53.9036
4.6639 55.7809
4.70855 58.3945
4.75322 61.663
4.79788 64.6901
4.84253 67.8561
4.88719 72.0918
4.93184 76.1516
4.97652 81.3113
5.02118 87.8745
5.06583 95.6575
5.11049 107.641
5.15515 166.22
5.19981 381.634
5.24449 3028.45
5.28916 12265.6
5.33382 2961.64
5.37848 196.271
5.42315 130.995
5.46783 115.283
5.5125 107.817
5.55716 103.883
5.60183 99.3205
5.6465 97.7515
5.69117 95.3196
5.73586 93.4297
5.78053 93.0933
5.8252 92.4137
5.86988 93.6748
5.91455 95.9205
5.95924 104.483
6.00392 223.204
6.0486 1031.62
6.09328 4284.06
6.13795 3468.17
6.18263 255.632
6.22733 94.3415
6.27201 83.2732
6.3167 96.1021
6.36138 78.7971
6.40606 69.0407
6.45075 67.7765
6.49545 65.9242
6.54014 64.0572
6.58483 63.1646
6.62952 63.0594
6.67421 87.9368
6.71892 123.74
6.76361 66.8269
6.8083 59.1329
6.853 57.4994
6.89769 56.9209
6.94239 56.9548
6.98711 55.8773
7.03181 55.616
7.07651 55.4603
7.12121 55.5384
7.16591 55.5935
7.21063 55.7223
7.25533 67.6619
7.30004 149.532
7.34475 82.048
7.38945 56.6202
7.43416 54.745
7.47889 54.7438
7.5236 55.1965
7.56831 55.3343
7.61303 56.8471
7.65774 57.1197
7.70247 56.5834
7.74719 56.623
7.79191 56.9874
7.83663 57.407
7.88135 58.1777
7.92607 59.0566
7.97081 60.3048
8.01553 61.2734
8.06026 62.7135
8.10498 64.5176
8.14971 71.9727
8.19446 71.6167
8.23919 69.7445
8.28392 72.4838
8.32865 74.4762
8.37339 79.009
8.41812 85.7661
8.46288 109.873
8.50761 171.838
8.55235 407.729
8.59709 1224.83
8.64183 2170.66
8.68658 991.297
8.73134 181.459
8.77609 100.558
8.82083 93.6276
8.86558 90.5457
8.91033 89.9793
8.9551 90.5064
8.99985 85.9838
9.04461 84.4427
9.08936 83.5405
9.13412 82.6853
9.17888 82.8559
9.22365 83.0057
9.26841 82.9214
9.31318 83.4648
9.35794 83.8717
9.4027 83.9963
9.44749 85.2755
9.49226 85.4007
9.53703 86.0884
9.5818 88.0519
9.62657 92.0639
9.67134 97.3074
9.71614 93.4727
9.76091 94.9254
9.80569 97.5702
9.85047 101.088
9.89525 120.5
9.94005 132.336
9.98484 185.853
10.0296 360.713
10.0744 854.199
10.1192 1685.55
10.164 1548.28
10.2088 415.451
10.2536 129.425
10.2984 113.408
10.3432 113.061
10.388 105.217
10.4328 120.889
10.4776 165.049
10.5224 292.794
10.5672 504.974
10.612 489.951
10.6568 206.748
10.7017 97.7836
10.7465 87.2557
10.7913 83.8033
10.8361 81.7757
10.8809 79.4635
10.9257 78.7386
10.9706 78.8227
11.0154 75.2246
11.0602 73.362
11.105 72.2162
11.1499 75.3975
11.1947 80.432
11.2395 73.2712
11.2844 70.1326
11.3292 67.5837
11.374 66.4872
11.4189 66.2669
11.4637 65.4822
11.5086 65.9628
11.5534 67.5576
11.5983 65.7377
11.6431 64.0849
11.688 63.3288
11.7328 63.374
11.7777 63.2104
11.8225 63.0058
11.8674 62.6863
11.9122 63.4002
11.9571 63.3147
12.002 63.9477
12.0468 68.7893
12.0917 80.3355
12.1366 105.545
12.1814 154.325
12.2263 200.782
12.2712 164.791
12.3161 96.6212
12.3609 70.1688
12.4058 64.8383
12.4507 64.6668
12.4956 64.9613
12.5405 64.695
12.5853 65.8613
12.6302 71.9167
12.6751 76.0416
12.72 69.5095
12.7649 68.0526
12.8098 68.9337
12.8547 70.2951
12.8996 71.4039
12.9445 72.8183
12.9894 74.8709
13.0343 76.4375
13.0792 79.5891
13.1242 90.2854
13.1691 113.522
13.214 153.372
13.2589 248.096
13.3038 370.295
13.3487 417.801
13.3937 269.765
13.4386 128.94
13.4835 107.657
13.5285 123.147
13.5734 164.086
13.6183 252.246
13.6633 342.35
13.7082 334.492
13.7531 192.877
13.7981 100.71
13.843 82.4864
13.888 80.1673
13.9329 77.4858
13.9779 76.486
14.0228 75.0568
14.0678 73.6806
14.1127 72.8179
14.1577 72.8606
14.2027 71.866
14.2476 71.2448
14.2926 70.9586
14.3376 71.8451
14.3825 70.7268
14.4275 69.527
14.4725 69.0898
14.5175 69.3705
14.5624 69.4555
14.6074 71.0644
14.6524 71.7538
14.6974 70.9708
14.7424 72.8326
14.7874 80.2704
14.8324 90.8304
14.8774 113.961
14.9224 157.468
14.9674 206.768
15.0124 212.87
15.0574 151.038
15.1024 93.3317
15.1474 73.2223
15.1924 70.9683
15.2374 71.1582
15.2824 70.1848
15.3274 68.6004
15.3725 67.3898
15.4175 66.8366
15.4625 66.6843
15.5076 66.5602
15.5526 66.6155
15.5976 66.294
15.6426 67.7822
15.6877 73.2445
15.7327 81.1178
15.7778 97.5504
15.8228 129.135
15.8679 169.123
15.9129 188.782
15.958 154.839
16.003 98.2757
16.0481 68.8616
16.0931 64.5287
16.1382 62.6321
16.1833 60.8089
16.2283 59.4021
16.2734 58.7732
16.3185 58.9573
16.3636 59.2423
16.4086 57.6142
16.4537 56.7621
16.4988 56.0176
16.5439 55.9589
16.589 55.4518
16.6341 55.2844
16.6792 55.0557
16.7243 55.2803
16.7694 55.3593
16.8145 55.1467
16.8596 55.5471
16.9047 56.4896
16.9498 57.0151
16.9949 56.2075
17.04 56.4021
17.0851 57.767
17.1302 59.4332
17.1754 62.4009
17.2205 67.555
17.2656 74.7528
17.3108 81.5398
17.3559 81.9378
17.401 72.7194
17.4462 63.1576
17.4913 59.7368
17.5365 59.4946
17.5815 59.6979
17.6268 60.1269
17.6718 60.8775
17.7171 61.161
17.7622 61.6709
17.8074 62.5899
17.8525 64.9144
17.8977 69.1412
17.9428 74.6759
17.9881 84.2194
18.0331 102.094
18.0784 122.367
18.1237 137.848
18.1688 131.829
18.214 106.479
18.2591 88.8144
18.3044 92.0783
18.3495 99.7528
18.3948 104.569
18.4399 96.4665
18.4852 79.4438
18.5303 66.848
18.5756 62.7589
18.6207 61.82
18.666 61.1059
18.7112 60.1581
18.7565 59.5782
18.8016 59.0638
18.8469 58.2486
18.892 58.021
18.9374 57.6437
18.9825 57.5003
19.0278 57.2826
19.073 57.27
19.1183 57.9144
19.1635 58.6962
19.2088 60.0413
19.254 63.0553
19.2993 67.4771
19.3447 72.7098
19.3898 75.9603
19.4352 72.5977
19.4804 64.2331
19.5257 57.6471
19.5709 54.8201
19.6163 54.1248
19.6615 54.1096
19.7068 53.8002
19.752 53.8053
19.7974 54.1096
19.8426 54.7712
19.888 55.4316
19.9332 56.9212
19.9786 59.4703
20.0238 62.9623
20.0692 67.2767
20.1144 69.5239
20.1598 68.4919
20.205 64.3104
20.2504 62.917
20.2957 63.9953
20.3411 65.0279
20.3863 63.9358
20.4318 58.8435
20.477 54.1764
20.5224 52.0469
20.5677 51.3262
20.6131 50.5426
20.6586 50.0258
20.7038 49.8008
20.7493 49.4409
20.7945 49.2384
20.84 49.2375
20.8853 49.0436
20.9307 48.9795
20.976 49.1838
21.0215 48.9724
21.0668 49.1778
21.1122 49.8108
21.1575 50.3729
21.203 51.1257
21.2483 51.5942
21.2938 51.4275
21.3391 50.3431
21.3846 49.442
21.4299 48.8144
21.4754 48.8976
21.5207 48.8252
21.5662 49.0947
21.6116 49.6672
21.6571 50.3617
21.7024 51.2231
21.7479 53.1626
21.7933 55.9503
21.8388 59.6647
21.8843 62.4711
21.9297 64.3664
21.9752 63.4289
22.0206 60.2237
22.0661 57.2124
22.1115 56.329
22.157 55.9703
22.2024 54.5532
22.248 52.0287
22.2933 50.253
22.3389 49.4954
22.3843 49.2586
22.4299 49.2732
22.4753 49.2005
22.5208 49.0729
22.5662 48.7136
22.6118 48.9214
22.6572 49.2833
22.7028 49.8051
22.7483 50.1937
22.7939 50.8331
22.8393 52.426
22.8849 54.5261
22.9303 56.314
22.9759 57.9046
23.0214 57.285
23.067 54.9762
23.1126 51.6615
23.1581 49.584
23.2037 49.0852
23.2492 49.2768
23.2948 49.2623
23.3403 49.4156
23.3859 50.2149
23.4314 51.4619
23.477 53.2466
23.5225 55.2152
23.5682 56.8932
23.6137 57.6804
23.6593 55.9614
23.7048 52.0753
23.7505 48.9983
23.796 47.0605
23.8417 46.3232
23.8872 45.8246
23.9329 45.5147
23.9784 45.1472
24.0241 44.9172
24.0697 44.8098
24.1154 44.3984
24.1609 44.2109
24.2066 44.1557
24.2522 44.1115
24.2979 43.7608
24.3434 43.475
24.3892 43.5021
24.4349 43.4095
24.4805 43.2967
24.5262 43.4799
24.5718 43.0585
24.6175 43.1378
24.6631 43.1053
24.7089 42.748
24.7545 42.7303
24.8002 42.5386
24.8458 42.3779
24.8916 42.3183
24.9372 42.4789
24.983 42.8179
25.0286 43.1774
25.0744 43.631
25.12 43.9181
25.1658 44.5501
25.2114 45.1306
25.2572 45.182
25.3029 45.1454
25.3487 45.1993
25.3943 44.7532
25.4402 43.9128
25.4858 42.7853
25.5316 41.7863
25.5773 41.2132
25.6231 41.1287
25.669 40.7506
25.7147 40.884
25.7605 40.6593
25.8062 40.8056
25.8521 40.8561
25.8977 40.9369
25.9436 41.1456
25.9893 41.3253
26.0352 41.7501
26.0809 41.7886
26.1268 41.9696
26.1725 41.5441
26.2184 41.0275
26.2641 40.6012
26.31 40.3209
26.3557 40.5067
26.4017 40.447
26.4474 40.6381
26.4933 41.0197
26.5391 41.5285
26.585 42.035
26.6308 42.256
26.6767 42.3772
26.7225 42.3884
26.7684 41.6573
26.8142 41.1442
26.8601 40.7388
26.9059 40.3485
26.9519 39.8717
26.9979 39.5689
27.0437 39.0875
27.0896 39.0319
27.1354 39.1318
27.1814 39.0032
27.2272 38.7543
27.2732 38.9224
27.3191 38.678
27.3651 38.7483
27.4109 38.8544
27.4569 38.7651
27.5027 38.6742
27.5488 38.859
27.5946 38.6326
27.6407 38.5368
27.6865 38.2954
27.7326 38.1111
27.7784 38.1374
27.8245 38.1219
27.8703 38.3
27.9164 38.5922
27.9623 38.7091
28.0084 39.0305
28.0543 39.378
28.1003 39.2633
28.1462 39.1066
28.1923 38.7945
28.2384 38.2532
28.2843 37.8388
28.3304 37.371
28.3764 36.9576
28.4225 36.7075
28.4684 36.493
28.5145 36.28
28.5605 36.2243
28.6066 35.9965
28.6526 35.9191
28.6987 35.8974
28.7447 35.7303
28.7908 35.6689
28.8368 35.6499
28.8829 35.5958
28.9289 35.5452
28.9751 35.4411
29.0211 35.2598
29.0673 34.8933
29.1133 34.6928
29.1595 34.5991
29.2055 34.6617
29.2517 34.5489
29.2977 34.5219
29.3439 34.4893
29.3899 34.4801
29.4361 34.3642
29.4824 34.2207
29.5284 33.9995
29.5746 33.7507
29.6207 33.4719
29.6669 33.3015
29.713 33.1791
29.7593 33.1138
29.8053 33.0317
29.8516 33.1288
29.8977 32.9664
29.9439 32.8312
29.99 32.7761
30.0363 32.6757
30.0824 32.8439
30.1287 32.5939
30.1748 32.6072
30.2211 32.6178
30.2673 32.5342
30.3136 32.5367
30.3597 32.4741
30.406 32.4501
30.4522 32.398
30.4985 32.2908
30.5447 32.4817
30.591 32.4153
30.6372 32.4621
30.6835 32.3934
30.7297 32.3911
30.7761 32.2889
30.8224 32.2206
30.8686 32.0375
30.915 31.7505
30.9612 31.8377
31.0076 31.6031
31.0538 31.5083
31.1002 31.3378
31.1464 31.1718
31.1928 31.1809
31.2391 31.212
31.2855 31.1554
31.3317 31.0686
31.3781 31.0149
31.4244 31.1057
31.4708 30.9725
31.5171 30.9953
31.5636 30.9959
31.6098 30.746
31.6563 30.5678
31.7026 30.4433
31.7491 30.3373
31.7953 30.4104
31.8418 30.4203
31.8881 30.2996
31.9346 30.444
31.9809 30.354
32.0275 30.2404
32.074 30.0356
32.1203 29.8637
32.1668 29.6862
32.2132 29.6411
32.2597 29.5262
32.306 29.3841
32.3526 29.2161
32.399 29.1786
32.4455 29.0335
32.4919 28.9729
32.5385 28.8946
32.5848 28.7088
32.6314 28.671
32.6778 28.6489
32.7244 28.4617
32.7708 28.3575
32.8174 28.3569
32.8638 28.2364
32.9104 28.2986
32.9569 28.191
33.0035 28.075
33.0499 28.0948
33.0966 28.0254
33.143 28.0353
33.1897 27.9079
33.2361 27.7804
33.2828 27.8114
33.3293 27.5855
33.3759 27.6498
33.4226 27.4834
33.4691 27.2355
33.5158 27.1628
33.5623 27.159
33.609 26.9297
33.6555 26.8819
33.7022 26.8858
33.7487 26.6981
33.7954 26.6211
33.842 26.5416
33.8887 26.5225
33.9353 26.3941
33.982 26.2418
34.0286 26.2404
34.0753 26.2625
34.1219 26.1063
34.1687 26.0109
34.2152 26.0004
34.262 25.796
34.3086 25.675
34.3554 25.7115
34.402 25.5739
34.4488 25.448
34.4954 25.4285
34.5422 25.3649
34.5889 25.2062
34.6357 25.1085
34.6825 25.1096
34.7292 25.044
34.776 24.9073
34.8227 24.8887
34.8695 24.7571
34.9162 24.8139
34.9631 24.6675
35.0098 24.6103
35.0566 24.5057
35.1033 24.5312
35.1502 24.5066
35.1969 24.4006
35.2438 24.3015
35.2906 24.297
35.3375 24.2753
35.3842 24.1781
35.4311 24.1852
35.4779 24.1753
35.5248 24.026
35.5716 23.9785
35.6185 23.8844
35.6653 23.7289
35.7123 23.7451
35.759 23.684
35.806 23.5355
35.8528 23.4212
35.8998 23.3864
35.9468 23.296
35.9936 23.275
36.0406 23.1442
36.0874 23.1784
36.1345 22.9863
36.1813 22.9718
36.2283 22.8393
36.2752 22.8231
36.3222 22.8389
36.3691 22.7589
36.4161 22.5957
36.463 22.5195
36.5101 22.6883
36.557 22.496
36.6041 22.3563
36.651 22.3078
36.6981 22.2922
36.745 22.2678
36.7921 22.1398
36.839 22.0596
36.8861 22.0181
36.9331 21.8268
36.9802 21.8447
37.0272 21.7138
37.0743 21.6663
37.1213 21.6412
37.1684 21.5628
37.2154 21.4672
37.2626 21.4425
37.3098 21.3601
37.3568 21.3254
37.404 21.2627
37.451 21.123
37.4982 21.1157
37.5452 20.9421
37.5924 20.9265
37.6395 20.9602
37.6867 20.9269
37.7337 20.7532
37.781 20.6545
37.8281 20.5962
37.8753 20.4993
37.9224 20.4926
37.9697 20.3773
38.0168 20.3499
38.064 20.2462
38.1111 20.2548
38.1584 20.1225
38.2056 20.116
38.2529 20.072
38.3 19.9717
38.3473 19.9523
38.3945 19.7611
38.4418 19.7839
38.489 19.8266
38.5363 19.5918
38.5837 19.5569
38.6309 19.5724
38.6782 19.4798
38.7254 19.3397
38.7728 19.3269
38.82 19.24
38.8674 19.1799
38.9146 19.0912
38.9621 19.0471
39.0093 19.0489
39.0567 19.0324
39.104 18.86
39.1514 18.8595
39.1987 18.8465
39.2461 18.7501
39.2934 18.6986
39.3409 18.5591
39.3882 18.5073
39.4356 18.4708
39.483 18.4088
39.5304 18.3902
39.5778 18.3476
39.6253 18.2554
39.6726 18.1663
39.7201 18.1589
39.7675 18.1078
39.815 18.0653
39.8624 17.9859
39.9099 17.9507
39.9575 17.8634
40.0049 17.8384
40.0525 17.7619
40.0999 17.6975
40.1474 17.6766
40.1949 17.583
40.2425 17.5077
40.2899 17.5452
40.3375 17.4399
40.385 17.4063
40.4326 17.3125
40.48 17.2583
40.5277 17.2241
40.5752 17.1931
40.6228 17.1091
40.6703 17.0294
40.718 16.9816
40.7655 16.9753
40.8132 16.8481
40.8607 16.8718
40.9084 16.7719
40.9559 16.7249
41.0036 16.6745
41.0512 16.6122
41.0989 16.6042
41.1465 16.4632
41.1942 16.4287
41.242 16.3352
41.2896 16.2741
41.3373 16.281
41.3849 16.2799
41.4327 16.1581
41.4803 16.0481
41.5281 16.0679
41.5758 16.0212
41.6236 15.9598
41.6712 15.8982
41.7191 15.8539
41.7667 15.7691
41.8146 15.7719
41.8622 15.6909
41.9101 15.7045
41.9578 15.5853
42.0057 15.5202
42.0534 15.5344
42.1013 15.4778
42.149 15.3917
42.1969 15.319
42.2446 15.2843
42.2925 15.2497
42.3403 15.193
42.3882 15.1217
42.436 15.1045
42.4839 15.0402
42.5319 14.9741
42.5797 14.9214
42.6277 14.8149
42.6755 14.7995
42.7235 14.6996
42.7713 14.737
42.8193 14.6918
42.8671 14.5779
42.9152 14.5665
42.963 14.4775
43.0111 14.5035
43.0589 14.4456
43.107 14.3426
43.1549 14.3147
43.2029 14.2408
43.2508 14.2636
43.2989 14.1637
43.3468 14.1161
43.3949 14.0889
43.4429 14.0304
43.491 13.9396
43.5389 13.9344
43.5871 13.8804
43.635 13.8313
43.6832 13.7941
43.7312 13.7549
43.7793 13.6934
43.8273 13.6466
43.8755 13.6261
43.9237 13.5759
43.9717 13.5095
44.0199 13.4547
44.068 13.4245
44.1162 13.3693
44.1642 13.3573
44.2125 13.2995
44.2606 13.2041
44.3088 13.1889
44.3569 13.0743
44.4052 13.1005
44.4533 13.0053
44.5016 13.0224
44.5497 12.9363
44.598 12.881
44.6461 12.882
44.6945 12.7943
44.7426 12.7665
44.791 12.6833
44.8391 12.69
44.8875 12.6316
44.9357 12.6052
44.984 12.5826
45.0322 12.5192
45.0806 12.4255
45.1288 12.4284
45.1773 12.397
45.2257 12.3339
45.2739 12.2887
45.3224 12.2352
45.3706 12.1933
45.4191 12.1177
45.4673 12.1088
45.5158 12.0579
45.5641 11.9929
45.6126 11.9623
45.6609 11.9117
45.7094 11.8923
45.7577 11.8376
45.8063 11.7928
45.8546 11.7698
45.9031 11.7276
45.9515 11.6551
46.0001 11.6263
46.0484 11.6033
46.097 11.5541
46.1454 11.549
46.194 11.468
46.2424 11.4266
46.291 11.3501
46.3395 11.3751
46.3881 11.2861
46.4365 11.3044
46.4852 11.2513
46.5337 11.2102
46.5823 11.1498
46.631 11.0953
46.6795 11.0534
46.7282 11.0116
46.7767 10.968
46.8254 10.9281
46.8739 10.9257
46.9226 10.8911
46.9712 10.7901
47.0199 10.7666
47.0685 10.7242
47.1173 10.6938
47.1658 10.6623
47.2146 10.6593
47.2632 10.5894
47.312 10.5326
47.3606 10.4982
47.4095 10.4762
47.4581 10.4324
47.5069 10.4069
47.5556 10.3558
47.6044 10.3176
47.6531 10.2586
47.702 10.2324
47.7507 10.2181
47.7996 10.1621
47.8483 10.1467
47.8972 10.0727
47.9461 10.0621
47.9948 10.0072
48.0438 9.99133
48.0925 9.93094
48.1415 9.91458
48.1902 9.87243
48.2392 9.8625
48.288 9.75654
48.337 9.80994
48.3858 9.7543
48.4348 9.69739
48.4837 9.67952
48.5327 9.63807
48.5815 9.56391
48.6306 9.56679
48.6795 9.57126
48.7285 9.49953
48.7774 9.46423
48.8265 9.40228
48.8754 9.33585
48.9245 9.36678
48.9734 9.31922
49.0226 9.30471
49.0715 9.25146
49.1206 9.20136
49.1696 9.16166
49.2188 9.12402
49.2679 9.12316
49.3169 9.04655
49.3661 9.03448
49.4151 8.99801
49.4643 8.95475
49.5134 8.91916
49.5626 8.86823
49.6117 8.84121
49.6609 8.84053
49.71 8.77447
49.7592 8.75632
49.8083 8.71095
49.8576 8.71108
49.9067 8.64578
49.956 8.65096
50.0052 8.59113
50.0545 8.55685
50.1036 8.52075
50.153 8.49617
50.2022 8.44628
50.2515 8.40397
50.3007 8.36647
50.3501 8.35118
50.3993 8.34058
50.4487 8.25818
50.498 8.27232
50.5474 8.24955
50.5966 8.20395
50.6461 8.15746
50.6955 8.15169
50.7448 8.11595
50.7943 8.07902
50.8436 8.03427
50.8931 7.9936
50.9424 7.97941
50.9919 7.95805
51.0413 7.92303
51.0908 7.87187
51.1402 7.84202
51.1897 7.82729
51.2391 7.75151
51.2887 7.75044
51.3381 7.70708
51.3877 7.68423
51.4371 7.64436
51.4867 7.60082
51.5362 7.61325
51.5858 7.59538
51.6353 7.53106
51.6849 7.51953
51.7344 7.49883
51.7841 7.45441
51.8336 7.40716
51.8833 7.40968
51.9328 7.33499
51.9826 7.3021
52.0323 7.28444
52.0818 7.25548
52.1316 7.18579
52.1812 7.20428
52.231 7.14166
52.2806 7.15482
52.3304 7.10771
52.38 7.092
52.4298 7.02577
52.4794 7.01725
52.5293 6.9788
52.5789 6.95424
52.6288 6.97345
52.6785 6.89745
52.7284 6.91071
52.7781 6.88231
52.828 6.7834
52.8777 6.78344
52.9276 6.80134
52.9774 6.77778
53.0273 6.74482
53.0771 6.65938
53.1271 6.65275
53.1769 6.58953
53.2269 6.56441
53.2767 6.59365
53.3267 6.5359
53.3765 6.52868
53.4266 6.49059
53.4766 6.45859
53.5265 6.4251
53.5765 6.40025
53.6264 6.35653
53.6765 6.36564
53.7264 6.31041
53.7765 6.28256
53.8265 6.32868
53.8766 6.21003
53.9266 6.18363
53.9767 6.16281
54.0267 6.15371
54.0769 6.15032
54.1269 6.08818
54.1771 6.04892
54.2271 6.03063
54.2773 5.97242
54.3274 6.00198
54.3776 5.95853
54.4277 5.93222
54.478 5.8572
54.528 5.7893
54.5783 5.80753
54.6285 5.73583
54.6788 5.75552
54.7289 5.66972
54.7792 5.64336
54.8296 5.58097
54.8798 5.56163
54.9301 5.50544
54.9803 5.46895
55.0307 5.42425
55.0809 5.47741
55.1314 5.34476
55.1816 5.28765
55.232 5.26232
55.2823 5.24902
55.3328 5.15133
55.383 5.11598
55.4335 5.08835
55.4838 5.07596
55.5344 4.96825
55.5847 4.95114
55.6352 4.92714
55.6856 4.90238
55.7361 4.80309