File: XRD/Ni3Fe_FD0433.xy
TT I
1.27165 7.20531
1.31627 6.50704
1.36089 6.74815
1.40551 5.3872
1.45013 6.26846
1.49476 5.53531
1.53938 5.46465
1.584 5.56473
1.62863 5.73359
1.67325 4.63179
1.71787 5.07908
1.7625 4.92826
1.80712 4.97411
1.85174 4.15557
1.89636 4.98179
1.94099 4.93796
1.98562 4.78629
2.03025 4.95159
2.07487 4.32848
2.11949 4.85777
2.16411 5.04636
2.20874 13.5591
2.25338 21.3203
2.298 5.82116
2.34263 5.02388
2.38725 5.76377
2.43188 5.43756
2.4765 5.82855
2.52115 5.81408
2.56577 6.45881
2.6104 7.29403
2.65503 7.16499
2.69965 7.12936
2.7443 7.81604
2.78893 7.40112
2.83356 8.26671
2.87818 8.7486
2.92281 9.01207
2.96744 9.53534
3.01209 10.3709
3.05672 10.8463
3.10135 12.4548
3.14599 12.9621
3.19062 14.1266
3.23527 14.9818
3.2799 15.6265
3.32454 17.0713
3.36917 17.7824
3.4138 18.9167
3.45844 19.8758
3.50309 21.2337
3.54773 22.0137
3.59237 24.0235
3.637 89.3383
3.68164 56.4432
3.7263 26.1993
3.77094 26.3272
3.81558 27.3522
3.86022 27.9847
3.90486 29.4981
3.9495 29.5853
3.99416 31.0794
4.0388 32.5051
4.08344 34.1854
4.12809 35.2345
4.17273 37.2469
4.21738 43.3461
4.26204 238.481
4.30669 204.361
4.35133 48.3641
4.39598 44.8992
4.44063 54.3872
4.4853 64.8698
4.52995 50.9255
4.5746 52.3032
4.61925 54.2247
4.6639 56.2435
4.70855 59.2516
4.75322 61.6418
4.79788 64.931
4.84253 68.6676
4.88719 72.7194
4.93184 76.6138
4.97652 82.6634
5.02118 89.1083
5.06583 97.5755
5.11049 111.159
5.15515 182.398
5.19981 437.666
5.24449 3195.62
5.28916 11602.6
5.33382 3161.48
5.37848 207.258
5.42315 134.149
5.46783 117.395
5.5125 108.078
5.55716 104.322
5.60183 100.576
5.6465 98.0418
5.69117 96.372
5.73586 94.4098
5.78053 94.2152
5.8252 93.7122
5.86988 95.391
5.91455 98.215
5.95924 108.354
6.00392 244.879
6.0486 1094.06
6.09328 4259.7
6.13795 3484.85
6.18263 272.21
6.22733 97.5726
6.27201 85.3321
6.3167 102.521
6.36138 81.1903
6.40606 70.3937
6.45075 68.4739
6.49545 66.4114
6.54014 64.9513
6.58483 63.9864
6.62952 63.6314
6.67421 93.3633
6.71892 140.54
6.76361 68.7695
6.8083 59.4873
6.853 58.0553
6.89769 58.0832
6.94239 57.6263
6.98711 56.6091
7.03181 56.4066
7.07651 56.1253
7.12121 56.2023
7.16591 56.0517
7.21063 56.1875
7.25533 70.0017
7.30004 170.732
7.34475 90.2465
7.38945 57.3747
7.43416 55.5243
7.47889 55.2248
7.5236 55.6299
7.56831 56.1243
7.61303 57.7217
7.65774 57.9616
7.70247 56.96
7.74719 56.7871
7.79191 57.6334
7.83663 57.8795
7.88135 59.0153
7.92607 59.8493
7.97081 60.6413
8.01553 61.8874
8.06026 63.4
8.10498 64.8467
8.14971 74.0775
8.19446 72.9732
8.23919 70.6684
8.28392 73.3149
8.32865 75.6872
8.37339 79.9185
8.41812 87.4405
8.46288 116.626
8.50761 181.659
8.55235 433.66
8.59709 1197.72
8.64183 2160.92
8.68658 1026.02
8.73134 178.443
8.77609 102.137
8.82083 94.4997
8.86558 91.2732
8.91033 91.5668
8.9551 92.8845
8.99985 86.8982
9.04461 85.0052
9.08936 84.0755
9.13412 83.2209
9.17888 83.2325
9.22365 84.0869
9.26841 83.4278
9.31318 84.4442
9.35794 84.0821
9.4027 84.8307
9.44749 85.1689
9.49226 86.0463
9.53703 86.9386
9.5818 88.8805
9.62657 93.6153
9.67134 99.6722
9.71614 95.2788
9.76091 95.7088
9.80569 98.391
9.85047 102.177
9.89525 125.851
9.94005 139.733
9.98484 194.223
10.0296 379.582
10.0744 831.649
10.1192 1690.78
10.164 1656.07
10.2088 430.111
10.2536 132.858
10.2984 115.739
10.3432 116.588
10.388 106.977
10.4328 124.405
10.4776 171.142
10.5224 286.616
10.5672 503.912
10.612 503.309
10.6568 210.706
10.7017 98.5754
10.7465 88.2653
10.7913 84.538
10.8361 82.1568
10.8809 80.2062
10.9257 79.812
10.9706 80.394
11.0154 75.9133
11.0602 74.0884
11.105 72.887
11.1499 77.0731
11.1947 83.7742
11.2395 75.1461
11.2844 71.5018
11.3292 68.2433
11.374 67.1082
11.4189 67.0277
11.4637 65.864
11.5086 66.4773
11.5534 69.0993
11.5983 66.3876
11.6431 64.4775
11.688 64.0765
11.7328 64.0221
11.7777 63.8602
11.8225 63.4642
11.8674 63.3177
11.9122 63.8924
11.9571 63.9183
12.002 64.819
12.0468 69.7463
12.0917 82.2228
12.1366 106.384
12.1814 153.289
12.2263 204.378
12.2712 169.96
12.3161 97.883
12.3609 71.5644
12.4058 65.9869
12.4507 65.519
12.4956 65.7602
12.5405 65.5701
12.5853 66.5791
12.6302 74.0619
12.6751 79.2685
12.72 70.9745
12.7649 69.1656
12.8098 69.5358
12.8547 70.769
12.8996 72.299
12.9445 73.6357
12.9894 75.6646
13.0343 77.3467
13.0792 80.5179
13.1242 91.4252
13.1691 118.333
13.214 157.004
13.2589 240.233
13.3038 363.332
13.3487 425.628
13.3937 273.062
13.4386 128.824
13.4835 109.848
13.5285 126.99
13.5734 164.225
13.6183 245.82
13.6633 341.388
13.7082 349.481
13.7531 196.69
13.7981 99.5095
13.843 83.1147
13.888 80.7723
13.9329 78.3722
13.9779 77.0739
14.0228 75.6421
14.0678 74.2276
14.1127 73.898
14.1577 73.657
14.2027 72.6824
14.2476 71.3392
14.2926 71.9724
14.3376 72.923
14.3825 71.3305
14.4275 70.0497
14.4725 69.8679
14.5175 70.0846
14.5624 70.112
14.6074 72.1777
14.6524 73.0717
14.6974 71.7442
14.7424 73.5363
14.7874 81.6921
14.8324 92.9764
14.8774 114.446
14.9224 153.651
14.9674 203.937
15.0124 220.656
15.0574 154.917
15.1024 93.4463
15.1474 73.7476
15.1924 71.3776
15.2374 72.1185
15.2824 71.3858
15.3274 69.1538
15.3725 67.8514
15.4175 67.7043
15.4625 67.2042
15.5076 67.4816
15.5526 67.4558
15.5976 66.9726
15.6426 68.3107
15.6877 74.8816
15.7327 83.2684
15.7778 98.384
15.8228 126.704
15.8679 166.856
15.9129 192.211
15.958 159.575
16.003 97.3536
16.0481 69.4627
16.0931 65.8942
16.1382 63.7962
16.1833 61.6803
16.2283 59.931
16.2734 59.3722
16.3185 59.5815
16.3636 60.3449
16.4086 58.9375
16.4537 57.2174
16.4988 56.5227
16.5439 56.4178
16.589 56.1942
16.6341 55.9631
16.6792 55.4804
16.7243 55.782
16.7694 55.7757
16.8145 55.8072
16.8596 56.2394
16.9047 57.7846
16.9498 57.8419
16.9949 56.8328
17.04 56.9973
17.0851 58.4644
17.1302 60.2114
17.1754 63.3385
17.2205 68.0638
17.2656 74.4453
17.3108 82.1101
17.3559 82.9058
17.401 72.4534
17.4462 62.9742
17.4913 60.2048
17.5365 60.1244
17.5815 60.28
17.6268 60.689
17.6718 61.4951
17.7171 62.0626
17.7622 62.4084
17.8074 63.1397
17.8525 65.8859
17.8977 70.2272
17.9428 76.0982
17.9881 85.008
18.0331 100.731
18.0784 120.371
18.1237 139.976
18.1688 133.719
18.214 107.057
18.2591 88.4372
18.3044 91.4244
18.3495 100.306
18.3948 106.969
18.4399 98.4478
18.4852 79.3576
18.5303 67.0896
18.5756 63.1939
18.6207 62.3667
18.666 61.5138
18.7112 60.7694
18.7565 60.1433
18.8016 59.5087
18.8469 59.0744
18.892 58.5872
18.9374 58.2051
18.9825 58.0414
19.0278 57.9407
19.073 57.9425
19.1183 58.4906
19.1635 59.4563
19.2088 60.7756
19.254 63.2933
19.2993 67.2395
19.3447 73.3826
19.3898 77.4846
19.4352 74.1349
19.4804 64.5275
19.5257 57.7535
19.5709 55.1745
19.6163 54.8469
19.6615 54.7057
19.7068 54.3011
19.752 54.2488
19.7974 54.7245
19.8426 55.6085
19.888 56.3089
19.9332 57.4742
19.9786 59.8328
20.0238 63.2183
20.0692 68.0057
20.1144 71.0597
20.1598 69.715
20.205 64.8328
20.2504 62.8842
20.2957 64.4059
20.3411 66.7326
20.3863 65.3107
20.4318 59.7407
20.477 54.737
20.5224 52.5802
20.5677 51.9758
20.6131 51.1772
20.6586 50.5631
20.7038 50.4284
20.7493 50.0525
20.7945 49.8754
20.84 49.8536
20.8853 49.4113
20.9307 49.4668
20.976 49.6168
21.0215 49.4412
21.0668 50.0692
21.1122 50.4195
21.1575 51.1192
21.203 51.8199
21.2483 52.2141
21.2938 52.3038
21.3391 50.967
21.3846 49.9506
21.4299 49.2816
21.4754 49.4106
21.5207 49.5318
21.5662 49.7282
21.6116 50.1669
21.6571 50.9721
21.7024 51.9425
21.7479 53.6959
21.7933 56.2505
21.8388 59.9067
21.8843 63.4652
21.9297 65.4829
21.9752 64.6834
22.0206 60.7552
22.0661 57.3993
22.1115 56.6781
22.157 56.8967
22.2024 55.5355
22.248 52.5338
22.2933 50.9584
22.3389 50.029
22.3843 49.7998
22.4299 49.8323
22.4753 49.853
22.5208 49.5561
22.5662 49.3546
22.6118 49.4659
22.6572 49.9228
22.7028 50.3398
22.7483 50.7805
22.7939 51.4384
22.8393 52.945
22.8849 54.7035
22.9303 56.8001
22.9759 58.534
23.0214 58.3508
23.067 55.6434
23.1126 52.0571
23.1581 50.1449
23.2037 49.7364
23.2492 49.9017
23.2948 49.8355
23.3403 50.0116
23.3859 50.7384
23.4314 51.8172
23.477 53.4086
23.5225 55.3661
23.5682 57.5707
23.6137 58.883
23.6593 56.892
23.7048 53.0005
23.7505 49.2502
23.796 47.4906
23.8417 46.8913
23.8872 46.364
23.9329 46.0511
23.9784 45.5817
24.0241 45.3784
24.0697 45.3426
24.1154 44.8975
24.1609 44.7711
24.2066 44.6461
24.2522 44.5057
24.2979 44.1569
24.3434 44.1763
24.3892 43.9721
24.4349 43.9918
24.4805 43.7583
24.5262 43.9066
24.5718 43.6783
24.6175 43.7793
24.6631 43.6444
24.7089 43.2956
24.7545 43.309
24.8002 43.0802
24.8458 42.9993
24.8916 42.883
24.9372 42.9284
24.983 43.3583
25.0286 43.6212
25.0744 44.043
25.12 44.5427
25.1658 45.1523
25.2114 45.284
25.2572 45.4444
25.3029 45.5686
25.3487 45.738
25.3943 45.4537
25.4402 44.3922
25.4858 43.1501
25.5316 42.271
25.5773 41.7518
25.6231 41.6069
25.669 41.2658
25.7147 41.2083
25.7605 41.093
25.8062 41.3811
25.8521 41.3357
25.8977 41.2754
25.9436 41.5769
25.9893 41.7498
26.0352 42.1592
26.0809 42.2553
26.1268 42.5087
26.1725 42.1304
26.2184 41.6206
26.2641 41.1056
26.31 40.8485
26.3557 40.8986
26.4017 40.965
26.4474 41.1235
26.4933 41.582
26.5391 42.0907
26.585 42.3372
26.6308 42.7178
26.6767 42.9213
26.7225 42.7492
26.7684 42.3337
26.8142 41.3287
26.8601 41.1882
26.9059 40.7082
26.9519 40.1136
26.9979 39.9948
27.0437 39.6015
27.0896 39.4592
27.1354 39.4668
27.1814 39.4361
27.2272 39.2041
27.2732 39.1915
27.3191 39.0148
27.3651 39.0921
27.4109 39.1236
27.4569 39.2729
27.5027 39.2409
27.5488 39.3242
27.5946 39.1474
27.6407 38.9315
27.6865 38.7918
27.7326 38.4556
27.7784 38.5437
27.8245 38.4918
27.8703 38.7881
27.9164 39.0268
27.9623 39.0723
28.0084 39.4201
28.0543 39.6506
28.1003 39.766
28.1462 39.6363
28.1923 39.0481
28.2384 38.6803
28.2843 38.2644
28.3304 37.8741
28.3764 37.4015
28.4225 37.0945
28.4684 36.8787
28.5145 36.6117
28.5605 36.5484
28.6066 36.245
28.6526 36.2193
28.6987 36.2332
28.7447 36.0629
28.7908 36.0149
28.8368 36.0977
28.8829 36.1107
28.9289 36.0581
28.9751 35.7162
29.0211 35.5389
29.0673 35.243
29.1133 35.1126
29.1595 34.9964
29.2055 34.9525
29.2517 34.981
29.2977 34.8042
29.3439 34.8263
29.3899 34.8687
29.4361 34.7838
29.4824 34.5528
29.5284 34.3131
29.5746 33.9787
29.6207 33.7145
29.6669 33.6159
29.713 33.5597
29.7593 33.4643
29.8053 33.4487
29.8516 33.3356
29.8977 33.4429
29.9439 33.1514
29.99 33.0454
30.0363 33.1077
30.0824 33.1245
30.1287 33.0319
30.1748 33.0432
30.2211 32.9601
30.2673 32.8781
30.3136 32.9319
30.3597 32.9332
30.406 32.7053
30.4522 32.6366
30.4985 32.7058
30.5447 32.7692
30.591 32.7403
30.6372 32.726
30.6835 32.7909
30.7297 32.7526
30.7761 32.7711
30.8224 32.5342
30.8686 32.3504
30.915 32.1003
30.9612 32.0729
31.0076 31.861
31.0538 31.7049
31.1002 31.6255
31.1464 31.6114
31.1928 31.5532
31.2391 31.5556
31.2855 31.4304
31.3317 31.3432
31.3781 31.5013
31.4244 31.3505
31.4708 31.2976
31.5171 31.3871
31.5636 31.2564
31.6098 31.0873
31.6563 30.9154
31.7026 30.76
31.7491 30.7016
31.7953 30.7165
31.8418 30.628
31.8881 30.7498
31.9346 30.6311
31.9809 30.6201
32.0275 30.5229
32.074 30.3369
32.1203 30.1778
32.1668 30.0421
32.2132 29.915
32.2597 29.853
32.306 29.7776
32.3526 29.5551
32.399 29.4916
32.4455 29.3089
32.4919 29.2057
32.5385 29.2558
32.5848 29.0228
32.6314 29.0088
32.6778 28.9526
32.7244 28.8005
32.7708 28.6683
32.8174 28.6668
32.8638 28.5443
32.9104 28.679
32.9569 28.4633
33.0035 28.3989
33.0499 28.2631
33.0966 28.2711
33.143 28.2893
33.1897 28.2025
33.2361 28.0696
33.2828 28.0204
33.3293 27.8197
33.3759 27.9334
33.4226 27.7474
33.4691 27.5387
33.5158 27.5179
33.5623 27.3812
33.609 27.2067
33.6555 27.1381
33.7022 27.0759
33.7487 26.9466
33.7954 27.0407
33.842 26.8615
33.8887 26.7787
33.9353 26.6666
33.982 26.6173
34.0286 26.4756
34.0753 26.4369
34.1219 26.2604
34.1687 26.2822
34.2152 26.2189
34.262 26.1408
34.3086 26.0425
34.3554 25.953
34.402 25.8195
34.4488 25.7861
34.4954 25.7315
34.5422 25.5887
34.5889 25.4736
34.6357 25.3638
34.6825 25.4067
34.7292 25.1869
34.776 25.1551
34.8227 25.1765
34.8695 25.153
34.9162 25.0395
34.9631 24.9328
35.0098 24.9016
35.0566 24.8018
35.1033 24.7551
35.1502 24.7197
35.1969 24.6461
35.2438 24.6618
35.2906 24.515
35.3375 24.4942
35.3842 24.4426
35.4311 24.4281
35.4779 24.344
35.5248 24.2905
35.5716 24.1754
35.6185 24.1059
35.6653 23.9892
35.7123 24.0013
35.759 23.8967
35.806 23.8144
35.8528 23.6047
35.8998 23.6431
35.9468 23.5514
35.9936 23.4586
36.0406 23.3766
36.0874 23.4387
36.1345 23.2583
36.1813 23.234
36.2283 23.1052
36.2752 23.0899
36.3222 23.004
36.3691 22.9484
36.4161 22.8819
36.463 22.8169
36.5101 22.8706
36.557 22.7397
36.6041 22.5447
36.651 22.5936
36.6981 22.4352
36.745 22.4926
36.7921 22.3471
36.839 22.2712
36.8861 22.1976
36.9331 22.0903
36.9802 22.0603
37.0272 21.9493
37.0743 21.8512
37.1213 21.7842
37.1684 21.7512
37.2154 21.692
37.2626 21.6031
37.3098 21.5611
37.3568 21.5153
37.404 21.4907
37.451 21.3565
37.4982 21.3177
37.5452 21.2068
37.5924 21.1603
37.6395 21.1979
37.6867 20.998
37.7337 20.9752
37.781 20.9064
37.8281 20.8739
37.8753 20.7585
37.9224 20.7218
37.9697 20.6588
38.0168 20.5167
38.064 20.4951
38.1111 20.4595
38.1584 20.4347
38.2056 20.252
38.2529 20.2714
38.3 20.1756
38.3473 20.2314
38.3945 20.0863
38.4418 19.9955
38.489 19.9365
38.5363 19.8286
38.5837 19.8057
38.6309 19.6845
38.6782 19.6691
38.7254 19.5866
38.7728 19.5584
38.82 19.4747
38.8674 19.4154
38.9146 19.3218
38.9621 19.2552
39.0093 19.2169
39.0567 19.1118
39.104 19.1722
39.1514 19.0319
39.1987 19.0565
39.2461 18.9509
39.2934 18.8991
39.3409 18.8293
39.3882 18.6942
39.4356 18.6945
39.483 18.6751
39.5304 18.5724
39.5778 18.5611
39.6253 18.4491
39.6726 18.4451
39.7201 18.419
39.7675 18.3065
39.815 18.2791
39.8624 18.1567
39.9099 18.1701
39.9575 18.021
40.0049 17.9694
40.0525 17.9337
40.0999 17.8981
40.1474 17.8345
40.1949 17.7684
40.2425 17.7238
40.2899 17.6213
40.3375 17.6129
40.385 17.5388
40.4326 17.4794
40.48 17.4134
40.5277 17.3945
40.5752 17.353
40.6228 17.2311
40.6703 17.2601
40.718 17.1169
40.7655 17.1349
40.8132 17.0318
40.8607 17.0452
40.9084 16.972
40.9559 16.8835
41.0036 16.8524
41.0512 16.7915
41.0989 16.7892
41.1465 16.685
41.1942 16.6157
41.242 16.594
41.2896 16.5225
41.3373 16.4593
41.3849 16.433
41.4327 16.3921
41.4803 16.2491
41.5281 16.2511
41.5758 16.1822
41.6236 16.1038
41.6712 16.0864
41.7191 16.0405
41.7667 15.9793
41.8146 15.9139
41.8622 15.8755
41.9101 15.8388
41.9578 15.6776
42.0057 15.674
42.0534 15.6869
42.1013 15.6066
42.149 15.5108
42.1969 15.4823
42.2446 15.4186
42.2925 15.3722
42.3403 15.3766
42.3882 15.2981
42.436 15.235
42.4839 15.0975
42.5319 15.1466
42.5797 15.1242
42.6277 15.0357
42.6755 14.9484
42.7235 14.9608
42.7713 14.888
42.8193 14.8101
42.8671 14.7885
42.9152 14.6862
42.963 14.6922
43.0111 14.5866
43.0589 14.593
43.107 14.5457
43.1549 14.4833
43.2029 14.4607
43.2508 14.3868
43.2989 14.3023
43.3468 14.19
43.3949 14.2198
43.4429 14.1688
43.491 14.1271
43.5389 14.083
43.5871 14.0208
43.635 13.9657
43.6832 13.929
43.7312 13.8559
43.7793 13.8217
43.8273 13.7901
43.8755 13.7212
43.9237 13.6905
43.9717 13.6906
44.0199 13.5849
44.068 13.5679
44.1162 13.5112
44.1642 13.49
44.2125 13.4402
44.2606 13.4119
44.3088 13.3116
44.3569 13.3368
44.4052 13.286
44.4533 13.2159
44.5016 13.0591
44.5497 13.1032
44.598 13.0416
44.6461 13.0411
44.6945 12.9724
44.7426 12.886
44.791 12.8742
44.8391 12.8024
44.8875 12.767
44.9357 12.7375
44.984 12.6797
45.0322 12.5876
45.0806 12.6118
45.1288 12.5702
45.1773 12.5203
45.2257 12.4522
45.2739 12.4104
45.3224 12.3755
45.3706 12.3491
45.4191 12.2749
45.4673 12.2396
45.5158 12.2279
45.5641 12.148
45.6126 12.1198
45.6609 12.0396
45.7094 12.0024
45.7577 11.9658
45.8063 11.9242
45.8546 11.9432
45.9031 11.8384
45.9515 11.8228
46.0001 11.7744
46.0484 11.7581
46.097 11.6955
46.1454 11.6853
46.194 11.6263
46.2424 11.5771
46.291 11.4841
46.3395 11.5132
46.3881 11.4103
46.4365 11.4291
46.4852 11.3961
46.5337 11.306
46.5823 11.2707
46.631 11.245
46.6795 11.1616
46.7282 11.1147
46.7767 11.1184
46.8254 11.0417
46.8739 11.0205
46.9226 10.985
46.9712 10.8829
47.0199 10.8867
47.0685 10.8399
47.1173 10.8059
47.1658 10.7838
47.2146 10.7435
47.2632 10.6891
47.312 10.65
47.3606 10.6306
47.4095 10.538
47.4581 10.5441
47.5069 10.5442
47.5556 10.4553
47.6044 10.4436
47.6531 10.404
47.702 10.3201
47.7507 10.3147
47.7996 10.2723
47.8483 10.2358
47.8972 10.2507
47.9461 10.1695
47.9948 10.1219
48.0438 10.1002
48.0925 10.074
48.1415 9.98943
48.1902 9.9541
48.2392 9.97271
48.288 9.96655
48.337 9.86805
48.3858 9.76656
48.4348 9.79681
48.4837 9.78367
48.5327 9.74839
48.5815 9.72523
48.6306 9.67956
48.6795 9.68088
48.7285 9.54392
48.7774 9.57222
48.8265 9.54379
48.8754 9.46293
48.9245 9.44304
48.9734 9.40337
49.0226 9.40175
49.0715 9.31785
49.1206 9.32432
49.1696 9.30029
49.2188 9.21339
49.2679 9.23821
49.3169 9.14628
49.3661 9.08784
49.4151 9.12241
49.4643 9.09014
49.5134 9.03604
49.5626 8.96688
49.6117 8.97199
49.6609 8.92855
49.71 8.88419
49.7592 8.85592
49.8083 8.75685
49.8576 8.80957
49.9067 8.74904
49.956 8.74388
50.0052 8.71156
50.0545 8.6518
50.1036 8.5917
50.153 8.59972
50.2022 8.55606
50.2515 8.52912
50.3007 8.4588
50.3501 8.41346
50.3993 8.42339
50.4487 8.35439
50.498 8.36949
50.5474 8.35912
50.5966 8.27498
50.6461 8.2656
50.6955 8.25196
50.7448 8.19277
50.7943 8.19461
50.8436 8.15152
50.8931 8.11281
50.9424 8.0641
50.9919 8.03239
51.0413 8.00977
51.0908 7.97455
51.1402 7.94328
51.1897 7.9164
51.2391 7.88911
51.2887 7.8134
51.3381 7.76673
51.3877 7.79141
51.4371 7.72046
51.4867 7.71092
51.5362 7.63256
51.5858 7.63306
51.6353 7.62803
51.6849 7.58352
51.7344 7.56741
51.7841 7.56115
51.8336 7.50046
51.8833 7.47779
51.9328 7.42166
51.9826 7.3926
52.0323 7.35542
52.0818 7.32248
52.1316 7.3157
52.1812 7.24086
52.231 7.24237
52.2806 7.1882
52.3304 7.18345
52.38 7.15247
52.4298 7.17719
52.4794 7.07053
52.5293 7.05092
52.5789 6.9998
52.6288 7.02842
52.6785 7.00402
52.7284 6.93642
52.7781 6.95434
52.828 6.89727
52.8777 6.84158
52.9276 6.83688
52.9774 6.80188
53.0273 6.79346
53.0771 6.77103
53.1271 6.72579
53.1769 6.67311
53.2269 6.69228
53.2767 6.65999
53.3267 6.60155
53.3765 6.63984
53.4266 6.52544
53.4766 6.53734
53.5265 6.49953
53.5765 6.46396
53.6264 6.41061
53.6765 6.39305
53.7264 6.40089
53.7765 6.39922
53.8265 6.29945
53.8766 6.29125
53.9266 6.32989
53.9767 6.25367
54.0267 6.20981
54.0769 6.19049
54.1269 6.15958
54.1771 6.10286
54.2271 6.1054
54.2773 6.05123
54.3274 6.02973
54.3776 5.98776
54.4277 5.99939
54.478 5.92593
54.528 5.90669
54.5783 5.89652
54.6285 5.82829
54.6788 5.79427
54.7289 5.71582
54.7792 5.72274
54.8296 5.65519
54.8798 5.61135
54.9301 5.60966
54.9803 5.5091
55.0307 5.48233
55.0809 5.46461
55.1314 5.44692
55.1816 5.39517
55.232 5.37434
55.2823 5.28421
55.3328 5.27779
55.383 5.18061
55.4335 5.16845
55.4838 5.06216
55.5344 5.04633
55.5847 5.0038
55.6352 4.99349
55.6856 4.96585
55.7361 4.91665