File: XRD/Ni3Fe_FD0342.xy
TT I
1.27165 8.06915
1.31627 7.46712
1.36089 7.64858
1.40551 5.92335
1.45013 5.99645
1.49476 6.65298
1.53938 6.01335
1.584 5.55516
1.62863 5.83423
1.67325 5.8613
1.71787 5.16309
1.7625 5.09869
1.80712 4.89396
1.85174 4.56492
1.89636 5.31157
1.94099 5.05881
1.98562 5.0319
2.03025 5.2745
2.07487 4.51341
2.11949 5.37654
2.16411 4.26653
2.20874 10.8809
2.25338 14.7926
2.298 5.12827
2.34263 5.14559
2.38725 5.23245
2.43188 5.28668
2.4765 6.39766
2.52115 6.52437
2.56577 7.17711
2.6104 7.03969
2.65503 7.15007
2.69965 7.065
2.7443 7.69485
2.78893 8.0512
2.83356 7.71557
2.87818 8.37266
2.92281 8.97789
2.96744 9.74925
3.01209 10.5733
3.05672 11.0219
3.10135 12.0598
3.14599 12.9842
3.19062 14.5588
3.23527 15.334
3.2799 15.5679
3.32454 16.934
3.36917 17.9946
3.4138 19.1524
3.45844 19.7222
3.50309 21.1135
3.54773 21.7621
3.59237 23.5507
3.637 65.7035
3.68164 44.7553
3.7263 26.5281
3.77094 26.6539
3.81558 26.6232
3.86022 27.9843
3.90486 29.4253
3.9495 30.2741
3.99416 31.2591
4.0388 32.7906
4.08344 34.0281
4.12809 34.9332
4.17273 37.3376
4.21738 42.0972
4.26204 165.71
4.30669 145.501
4.35133 46.6756
4.39598 45.2433
4.44063 51.5255
4.4853 59.0052
4.52995 52.2102
4.5746 53.1101
4.61925 54.938
4.6639 57.2249
4.70855 60.179
4.75322 62.8021
4.79788 66.5331
4.84253 69.6063
4.88719 74.3783
4.93184 78.4912
4.97652 84.4426
5.02118 91.8128
5.06583 100.748
5.11049 115.277
5.15515 177.605
5.19981 587.03
5.24449 3642.39
5.28916 11362.4
5.33382 3491.99
5.37848 226.362
5.42315 139.353
5.46783 121.111
5.5125 111.146
5.55716 106.626
5.60183 102.665
5.6465 100.488
5.69117 98.6137
5.73586 95.949
5.78053 97.0163
5.8252 96.9687
5.86988 98.1402
5.91455 101.563
5.95924 116.153
6.00392 313.459
6.0486 1273.9
6.09328 4036.39
6.13795 3423.8
6.18263 284.555
6.22733 100.45
6.27201 86.2325
6.3167 94.2143
6.36138 79.2007
6.40606 71.1532
6.45075 69.2864
6.49545 66.8081
6.54014 65.4728
6.58483 64.3744
6.62952 63.8845
6.67421 82.51
6.71892 110.859
6.76361 65.6469
6.8083 59.622
6.853 58.7803
6.89769 57.9904
6.94239 58.0776
6.98711 56.9587
7.03181 56.9895
7.07651 56.3515
7.12121 56.4349
7.16591 56.9271
7.21063 56.2218
7.25533 65.6595
7.30004 129.923
7.34475 77.8748
7.38945 56.8108
7.43416 55.5624
7.47889 55.3108
7.5236 56.0282
7.56831 56.4905
7.61303 57.2384
7.65774 57.9931
7.70247 57.648
7.74719 57.3525
7.79191 57.7616
7.83663 58.1347
7.88135 59.3038
7.92607 60.2742
7.97081 61.7014
8.01553 62.7179
8.06026 63.9615
8.10498 65.6425
8.14971 72.6958
8.19446 72.3987
8.23919 71.4201
8.28392 74.2538
8.32865 76.6778
8.37339 81.8335
8.41812 88.4407
8.46288 114.012
8.50761 220.661
8.55235 496.453
8.59709 1170.55
8.64183 2108.76
8.68658 1055.72
8.73134 184.574
8.77609 104.682
8.82083 96.0989
8.86558 92.6752
8.91033 92.1159
8.9551 91.9808
8.99985 87.8688
9.04461 86.1838
9.08936 85.5427
9.13412 84.6878
9.17888 84.5368
9.22365 84.389
9.26841 84.303
9.31318 85.4859
9.35794 85.5857
9.4027 85.9452
9.44749 86.7545
9.49226 87.2677
9.53703 88.1485
9.5818 90.3754
9.62657 93.6165
9.67134 98.5294
9.71614 95.9603
9.76091 97.2832
9.80569 100.224
9.85047 103.486
9.89525 121.15
9.94005 138.514
9.98484 230.059
10.0296 435.916
10.0744 865.256
10.1192 1596.32
10.164 1654.35
10.2088 481.048
10.2536 136.08
10.2984 116.09
10.3432 114.233
10.388 109.779
10.4328 135.659
10.4776 186.387
10.5224 297.09
10.5672 486.956
10.612 526.266
10.6568 216.735
10.7017 100.642
10.7465 89.5801
10.7913 85.5361
10.8361 83.7489
10.8809 81.1536
10.9257 80.0368
10.9706 79.9433
11.0154 76.5773
11.0602 74.7185
11.105 73.4531
11.1499 75.5314
11.1947 79.8852
11.2395 73.8101
11.2844 71.0978
11.3292 69.1243
11.374 67.7336
11.4189 67.211
11.4637 66.5133
11.5086 66.7697
11.5534 68.3521
11.5983 66.3386
11.6431 65.2192
11.688 64.6721
11.7328 64.7164
11.7777 64.5333
11.8225 64.1839
11.8674 64.184
11.9122 64.8525
11.9571 64.8283
12.002 66.3635
12.0468 73.4141
12.0917 86.8978
12.1366 109.755
12.1814 149.587
12.2263 198.461
12.2712 174.02
12.3161 97.4964
12.3609 70.9246
12.4058 66.3221
12.4507 65.9577
12.4956 66.2657
12.5405 66.4685
12.5853 67.1405
12.6302 71.8618
12.6751 75.64
12.72 70.7116
12.7649 69.6834
12.8098 70.4514
12.8547 71.7903
12.8996 73.3177
12.9445 74.5949
12.9894 76.6057
13.0343 78.5918
13.0792 82.8647
13.1242 98.2846
13.1691 127.025
13.214 167.364
13.2589 245.847
13.3038 351.163
13.3487 421.496
13.3937 280.726
13.4386 132.946
13.4835 117.773
13.5285 135.901
13.5734 173.62
13.6183 243.086
13.6633 331.071
13.7082 343.594
13.7531 202.068
13.7981 102.392
13.843 84.5344
13.888 81.9101
13.9329 79.6008
13.9779 78.2487
14.0228 76.6915
14.0678 75.2269
14.1127 74.7667
14.1577 74.4295
14.2027 73.3169
14.2476 72.3838
14.2926 72.2541
14.3376 72.7208
14.3825 71.9165
14.4275 71.0128
14.4725 70.8009
14.5175 70.7782
14.5624 71.4457
14.6074 72.4607
14.6524 73.1594
14.6974 72.8644
14.7424 76.5525
14.7874 85.7915
14.8324 97.8051
14.8774 119.354
14.9224 153.794
14.9674 198.379
15.0124 218.513
15.0574 155.277
15.1024 95.1449
15.1474 74.5368
15.1924 72.2115
15.2374 72.1384
15.2824 71.516
15.3274 69.9223
15.3725 68.7955
15.4175 68.3058
15.4625 67.9651
15.5076 68.1534
15.5526 68.1334
15.5976 68.2494
15.6426 71.0818
15.6877 78.4491
15.7327 87.2765
15.7778 102.645
15.8228 128.813
15.8679 162.247
15.9129 190.884
15.958 163.917
16.003 102.702
16.0481 70.2476
16.0931 65.5905
16.1382 63.7366
16.1833 62.0386
16.2283 60.5201
16.2734 60.027
16.3185 59.9913
16.3636 60.0776
16.4086 58.8123
16.4537 57.6229
16.4988 57.1345
16.5439 56.945
16.589 56.659
16.6341 56.5131
16.6792 56.0619
16.7243 56.4754
16.7694 56.6067
16.8145 56.4543
16.8596 56.4882
16.9047 57.5414
16.9498 58.0833
16.9949 57.0019
17.04 57.7443
17.0851 59.3915
17.1302 61.2629
17.1754 64.5232
17.2205 69.0884
17.2656 74.9952
17.3108 83.0973
17.3559 84.6048
17.401 73.9405
17.4462 64.4427
17.4913 60.9126
17.5365 60.7319
17.5815 61.0358
17.6268 61.5128
17.6718 62.1747
17.7171 62.555
17.7622 63.2281
17.8074 64.4368
17.8525 68.2309
17.8977 72.8442
17.9428 78.8872
17.9881 87.801
18.0331 102.071
18.0784 119.585
18.1237 140.039
18.1688 137.675
18.214 111.074
18.2591 91.0266
18.3044 91.7154
18.3495 99.2022
18.3948 106.035
18.4399 99.078
18.4852 80.3993
18.5303 67.9342
18.5756 64.1902
18.6207 63.2691
18.666 62.2451
18.7112 61.5828
18.7565 60.7212
18.8016 60.4308
18.8469 59.795
18.892 59.6352
18.9374 59.2073
18.9825 58.7963
19.0278 58.5041
19.073 58.8953
19.1183 59.572
19.1635 60.4009
19.2088 61.9908
19.254 64.4367
19.2993 67.7117
19.3447 72.4865
19.3898 76.945
19.4352 74.7024
19.4804 65.9311
19.5257 58.737
19.5709 55.7735
19.6163 55.5905
19.6615 55.4479
19.7068 55.026
19.752 55.0649
19.7974 55.5975
19.8426 56.5125
19.888 57.1496
19.9332 58.4367
19.9786 60.9979
20.0238 63.8179
20.0692 67.9298
20.1144 71.346
20.1598 71.1091
20.205 66.3543
20.2504 63.5909
20.2957 64.3643
20.3411 66.6565
20.3863 65.9824
20.4318 60.3109
20.477 55.3386
20.5224 53.0293
20.5677 52.4688
20.6131 51.8179
20.6586 51.2448
20.7038 50.9687
20.7493 50.6107
20.7945 50.4573
20.84 50.3223
20.8853 50.2141
20.9307 50.0456
20.976 50.4958
21.0215 50.0442
21.0668 50.5654
21.1122 51.0179
21.1575 51.4318
21.203 51.9226
21.2483 52.6746
21.2938 53.1948
21.3391 51.8397
21.3846 50.5638
21.4299 49.9831
21.4754 49.8413
21.5207 50.2024
21.5662 50.8099
21.6116 51.0595
21.6571 51.8694
21.7024 53.0119
21.7479 54.7062
21.7933 57.1989
21.8388 59.9292
21.8843 63.4727
21.9297 66.3345
21.9752 65.4403
22.0206 61.8689
22.0661 57.8244
22.1115 57.1993
22.157 57.3276
22.2024 55.9825
22.248 53.2259
22.2933 51.4328
22.3389 50.6497
22.3843 50.2803
22.4299 50.1706
22.4753 50.0875
22.5208 50.1312
22.5662 49.8615
22.6118 50.1366
22.6572 50.6682
22.7028 51.2484
22.7483 51.4259
22.7939 52.2092
22.8393 53.7776
22.8849 55.475
22.9303 56.9852
22.9759 58.8911
23.0214 59.0094
23.067 56.3354
23.1126 52.8025
23.1581 50.8219
23.2037 50.3943
23.2492 50.6938
23.2948 50.5664
23.3403 50.8859
23.3859 51.6015
23.4314 52.5708
23.477 54.1206
23.5225 55.5163
23.5682 57.6147
23.6137 59.0605
23.6593 57.3802
23.7048 53.4026
23.7505 49.8977
23.796 48.0412
23.8417 47.4449
23.8872 47.0122
23.9329 46.574
23.9784 46.3066
24.0241 45.9977
24.0697 45.8301
24.1154 45.3498
24.1609 45.3612
24.2066 45.1404
24.2522 45.0306
24.2979 44.672
24.3434 44.6796
24.3892 44.4721
24.4349 44.3901
24.4805 44.1831
24.5262 44.2533
24.5718 44.2659
24.6175 44.3228
24.6631 44.1674
24.7089 43.7627
24.7545 43.6704
24.8002 43.5346
24.8458 43.5626
24.8916 43.4063
24.9372 43.6022
24.983 44.0409
25.0286 44.2705
25.0744 44.5231
25.12 44.9261
25.1658 45.6008
25.2114 45.9077
25.2572 45.925
25.3029 45.8425
25.3487 46.0095
25.3943 46.0236
25.4402 44.9244
25.4858 43.7762
25.5316 42.6844
25.5773 42.1188
25.6231 42.1449
25.669 41.8291
25.7147 41.8618
25.7605 41.6806
25.8062 41.8964
25.8521 41.8836
25.8977 41.8407
25.9436 42.0792
25.9893 41.9829
26.0352 42.5874
26.0809 42.576
26.1268 42.7497
26.1725 42.6892
26.2184 42.0128
26.2641 41.6403
26.31 41.3642
26.3557 41.3066
26.4017 41.3836
26.4474 41.6827
26.4933 42.0314
26.5391 42.2783
26.585 42.7682
26.6308 43.1534
26.6767 43.3601
26.7225 43.3768
26.7684 42.7216
26.8142 41.895
26.8601 41.7531
26.9059 41.2926
26.9519 40.7223
26.9979 40.2953
27.0437 40.136
27.0896 39.9196
27.1354 39.8392
27.1814 39.7697
27.2272 39.6872
27.2732 39.645
27.3191 39.5428
27.3651 39.5962
27.4109 39.5008
27.4569 39.6485
27.5027 39.5998
27.5488 39.6184
27.5946 39.4476
27.6407 39.2199
27.6865 39.2224
27.7326 38.9456
27.7784 39.0062
27.8245 39.0778
27.8703 39.1888
27.9164 39.457
27.9623 39.4046
28.0084 39.7544
28.0543 40.2301
28.1003 40.2204
28.1462 39.9259
28.1923 39.5683
28.2384 39.029
28.2843 38.7431
28.3304 38.2603
28.3764 37.843
28.4225 37.497
28.4684 37.2738
28.5145 37.0082
28.5605 36.7978
28.6066 36.6613
28.6526 36.6583
28.6987 36.6084
28.7447 36.5498
28.7908 36.3497
28.8368 36.3602
28.8829 36.4383
28.9289 36.3347
28.9751 36.1878
29.0211 35.9563
29.0673 35.7538
29.1133 35.4537
29.1595 35.4192
29.2055 35.4131
29.2517 35.2851
29.2977 35.2547
29.3439 35.1823
29.3899 35.13
29.4361 35.0588
29.4824 34.9543
29.5284 34.7762
29.5746 34.3513
29.6207 34.0325
29.6669 34.0705
29.713 33.9351
29.7593 33.8443
29.8053 33.8421
29.8516 33.8277
29.8977 33.7072
29.9439 33.5509
29.99 33.5297
30.0363 33.3072
30.0824 33.4595
30.1287 33.3247
30.1748 33.4299
30.2211 33.3242
30.2673 33.1701
30.3136 33.3082
30.3597 33.285
30.406 33.0598
30.4522 33.0834
30.4985 32.9652
30.5447 33.0887
30.591 33.1045
30.6372 33.136
30.6835 33.1662
30.7297 33.1183
30.7761 33.0788
30.8224 32.892
30.8686 32.8025
30.915 32.4868
30.9612 32.3719
31.0076 32.154
31.0538 32.0725
31.1002 32.0738
31.1464 31.8655
31.1928 31.846
31.2391 31.8807
31.2855 31.8629
31.3317 31.7175
31.3781 31.8208
31.4244 31.766
31.4708 31.7251
31.5171 31.6822
31.5636 31.634
31.6098 31.3644
31.6563 31.2088
31.7026 31.1297
31.7491 30.9524
31.7953 31.0488
31.8418 30.9052
31.8881 31.1286
31.9346 30.8997
31.9809 30.9002
32.0275 30.8025
32.074 30.6729
32.1203 30.4549
32.1668 30.3901
32.2132 30.2538
32.2597 30.1454
32.306 30.1765
32.3526 29.7876
32.399 29.7264
32.4455 29.5839
32.4919 29.5318
32.5385 29.5155
32.5848 29.4073
32.6314 29.3592
32.6778 29.2612
32.7244 29.0945
32.7708 29.0087
32.8174 28.956
32.8638 28.7657
32.9104 28.8907
32.9569 28.7536
33.0035 28.6103
33.0499 28.7066
33.0966 28.5683
33.143 28.5211
33.1897 28.5002
33.2361 28.3867
33.2828 28.4414
33.3293 28.2395
33.3759 28.1444
33.4226 28.0034
33.4691 27.8945
33.5158 27.8536
33.5623 27.6928
33.609 27.5998
33.6555 27.4788
33.7022 27.322
33.7487 27.2187
33.7954 27.2655
33.842 27.1392
33.8887 27.1068
33.9353 27.0376
33.982 26.9615
34.0286 26.7878
34.0753 26.7395
34.1219 26.681
34.1687 26.594
34.2152 26.6135
34.262 26.4165
34.3086 26.3053
34.3554 26.242
34.402 26.0875
34.4488 26.0352
34.4954 25.9766
34.5422 25.8967
34.5889 25.7219
34.6357 25.6805
34.6825 25.6419
34.7292 25.5325
34.776 25.4975
34.8227 25.4627
34.8695 25.3975
34.9162 25.2926
34.9631 25.18
35.0098 25.1917
35.0566 25.0323
35.1033 24.9735
35.1502 24.966
35.1969 24.8822
35.2438 24.8938
35.2906 24.762
35.3375 24.7694
35.3842 24.6608
35.4311 24.6665
35.4779 24.6721
35.5248 24.6251
35.5716 24.4944
35.6185 24.4098
35.6653 24.2751
35.7123 24.1841
35.759 24.0984
35.806 24.0357
35.8528 23.8297
35.8998 23.825
35.9468 23.723
35.9936 23.6869
36.0406 23.7166
36.0874 23.5735
36.1345 23.5091
36.1813 23.4878
36.2283 23.3572
36.2752 23.2482
36.3222 23.2646
36.3691 23.1746
36.4161 23.1045
36.463 23.0129
36.5101 23.1203
36.557 22.9518
36.6041 22.7945
36.651 22.7915
36.6981 22.7077
36.745 22.7206
36.7921 22.5421
36.839 22.4479
36.8861 22.3857
36.9331 22.3602
36.9802 22.3124
37.0272 22.1531
37.0743 22.1241
37.1213 22.0378
37.1684 22.0109
37.2154 21.9353
37.2626 21.8494
37.3098 21.7842
37.3568 21.7598
37.404 21.6738
37.451 21.5382
37.4982 21.4758
37.5452 21.4779
37.5924 21.3481
37.6395 21.4667
37.6867 21.3138
37.7337 21.239
37.781 21.136
37.8281 21.0313
37.8753 20.993
37.9224 20.912
37.9697 20.8639
38.0168 20.7072
38.064 20.7381
38.1111 20.6625
38.1584 20.676
38.2056 20.5318
38.2529 20.5553
38.3 20.4136
38.3473 20.3295
38.3945 20.1881
38.4418 20.2381
38.489 20.1771
38.5363 20.0635
38.5837 19.9978
38.6309 19.9677
38.6782 19.8076
38.7254 19.795
38.7728 19.7657
38.82 19.6839
38.8674 19.614
38.9146 19.5986
38.9621 19.4571
39.0093 19.4569
39.0567 19.3812
39.104 19.3274
39.1514 19.2149
39.1987 19.1302
39.2461 19.0938
39.2934 19.1113
39.3409 18.9979
39.3882 18.9808
39.4356 18.8409
39.483 18.8781
39.5304 18.7454
39.5778 18.8112
39.6253 18.6857
39.6726 18.559
39.7201 18.5351
39.7675 18.4811
39.815 18.4319
39.8624 18.3358
39.9099 18.3653
39.9575 18.2595
40.0049 18.1567
40.0525 18.1787
40.0999 18.1278
40.1474 18.0478
40.1949 17.9011
40.2425 17.8659
40.2899 17.8586
40.3375 17.7858
40.385 17.7377
40.4326 17.7242
40.48 17.6002
40.5277 17.6235
40.5752 17.4907
40.6228 17.4723
40.6703 17.3933
40.718 17.3535
40.7655 17.3767
40.8132 17.2503
40.8607 17.2175
40.9084 17.127
40.9559 17.0652
41.0036 17.0569
41.0512 16.9673
41.0989 16.9194
41.1465 16.8369
41.1942 16.7889
41.242 16.7521
41.2896 16.6975
41.3373 16.6464
41.3849 16.5401
41.4327 16.5455
41.4803 16.4988
41.5281 16.4169
41.5758 16.3257
41.6236 16.2842
41.6712 16.2047
41.7191 16.1352
41.7667 16.1311
41.8146 16.1439
41.8622 16.0025
41.9101 16.0267
41.9578 15.8398
42.0057 15.865
42.0534 15.7566
42.1013 15.7513
42.149 15.6762
42.1969 15.61
42.2446 15.5658
42.2925 15.4969
42.3403 15.4852
42.3882 15.459
42.436 15.4182
42.4839 15.2981
42.5319 15.2886
42.5797 15.2166
42.6277 15.1229
42.6755 15.1493
42.7235 15.0083
42.7713 15.0507
42.8193 14.9453
42.8671 14.9364
42.9152 14.8659
42.963 14.8744
43.0111 14.7737
43.0589 14.7313
43.107 14.6669
43.1549 14.59
43.2029 14.5491
43.2508 14.5354
43.2989 14.4791
43.3468 14.3803
43.3949 14.3475
43.4429 14.336
43.491 14.2448
43.5389 14.2062
43.5871 14.1679
43.635 14.0902
43.6832 14.0406
43.7312 14.0141
43.7793 13.9667
43.8273 13.9253
43.8755 13.8645
43.9237 13.7742
43.9717 13.7829
44.0199 13.7794
44.068 13.6792
44.1162 13.6134
44.1642 13.5988
44.2125 13.546
44.2606 13.5283
44.3088 13.4179
44.3569 13.394
44.4052 13.3675
44.4533 13.2733
44.5016 13.2086
44.5497 13.2743
44.598 13.2001
44.6461 13.1308
44.6945 13.0728
44.7426 12.9948
44.791 12.9588
44.8391 12.9315
44.8875 12.9373
44.9357 12.8451
44.984 12.8081
45.0322 12.7582
45.0806 12.659
45.1288 12.6932
45.1773 12.6093
45.2257 12.59
45.2739 12.5366
45.3224 12.5026
45.3706 12.4761
45.4191 12.3625
45.4673 12.3722
45.5158 12.3414
45.5641 12.2603
45.6126 12.219
45.6609 12.1553
45.7094 12.1342
45.7577 12.1045
45.8063 11.9846
45.8546 11.9954
45.9031 11.9377
45.9515 11.8955
46.0001 11.8618
46.0484 11.8209
46.097 11.7884
46.1454 11.7359
46.194 11.7144
46.2424 11.6653
46.291 11.6543
46.3395 11.5849
46.3881 11.5295
46.4365 11.5419
46.4852 11.4689
46.5337 11.3929
46.5823 11.3903
46.631 11.304
46.6795 11.2779
46.7282 11.2553
46.7767 11.1739
46.8254 11.0977
46.8739 11.1062
46.9226 11.1102
46.9712 11.0277
47.0199 11.0191
47.0685 10.9586
47.1173 10.8947
47.1658 10.8302
47.2146 10.8228
47.2632 10.7512
47.312 10.754
47.3606 10.7316
47.4095 10.6891
47.4581 10.6149
47.5069 10.6112
47.5556 10.5251
47.6044 10.4796
47.6531 10.4748
47.702 10.3992
47.7507 10.3923
47.7996 10.352
47.8483 10.3279
47.8972 10.3512
47.9461 10.2767
47.9948 10.2288
48.0438 10.1389
48.0925 10.153
48.1415 10.0881
48.1902 10.0629
48.2392 10.0545
48.288 9.99293
48.337 9.95884
48.3858 9.88725
48.4348 9.85358
48.4837 9.87107
48.5327 9.85489
48.5815 9.82001
48.6306 9.74881
48.6795 9.7409
48.7285 9.6818
48.7774 9.63691
48.8265 9.61269
48.8754 9.55143
48.9245 9.50967
48.9734 9.51241
49.0226 9.47287
49.0715 9.46337
49.1206 9.41487
49.1696 9.34094
49.2188 9.31891
49.2679 9.28444
49.3169 9.23839
49.3661 9.17786
49.4151 9.15396
49.4643 9.14631
49.5134 9.12036
49.5626 9.0538
49.6117 9.03998
49.6609 9.03623
49.71 8.94188
49.7592 8.9359
49.8083 8.8901
49.8576 8.86824
49.9067 8.82076
49.956 8.81069
50.0052 8.74987
50.0545 8.75759
50.1036 8.69835
50.153 8.65763
50.2022 8.64649
50.2515 8.60667
50.3007 8.54155
50.3501 8.51609
50.3993 8.49156
50.4487 8.4195
50.498 8.44508
50.5474 8.40318
50.5966 8.35979
50.6461 8.31513
50.6955 8.33632
50.7448 8.28824
50.7943 8.2736
50.8436 8.20829
50.8931 8.2043
50.9424 8.14449
50.9919 8.11716
51.0413 8.10989
51.0908 8.03607
51.1402 8.04806
51.1897 7.95582
51.2391 7.97884
51.2887 7.92999
51.3381 7.86582
51.3877 7.88351
51.4371 7.82165
51.4867 7.77587
51.5362 7.75348
51.5858 7.72269
51.6353 7.67356
51.6849 7.60832
51.7344 7.61182
51.7841 7.58862
51.8336 7.54152
51.8833 7.51582
51.9328 7.50596
51.9826 7.45575
52.0323 7.42952
52.0818 7.38687
52.1316 7.38069
52.1812 7.32361
52.231 7.29834
52.2806 7.31149
52.3304 7.28119
52.38 7.19446
52.4298 7.17842
52.4794 7.15362
52.5293 7.12209
52.5789 7.09611
52.6288 7.07816
52.6785 7.02509
52.7284 7.06409
52.7781 7.0144
52.828 6.95744
52.8777 6.93699
52.9276 6.9009
52.9774 6.90143
53.0273 6.83574
53.0771 6.81584
53.1271 6.78254
53.1769 6.76974
53.2269 6.74108
53.2767 6.68524
53.3267 6.67716
53.3765 6.63002
53.4266 6.64125
53.4766 6.56993
53.5265 6.5559
53.5765 6.53471
53.6264 6.48167
53.6765 6.4504
53.7264 6.43718
53.7765 6.44562
53.8265 6.35969
53.8766 6.33195
53.9266 6.30652
53.9767 6.3188
54.0267 6.27189
54.0769 6.26315
54.1269 6.24575
54.1771 6.19573
54.2271 6.1866
54.2773 6.13163
54.3274 6.07638
54.3776 6.04016
54.4277 6.06356
54.478 5.99297
54.528 5.91958
54.5783 5.90396
54.6285 5.91313
54.6788 5.81322
54.7289 5.77505
54.7792 5.72172
54.8296 5.70423
54.8798 5.57345
54.9301 5.62658
54.9803 5.56458
55.0307 5.60052
55.0809 5.49867
55.1314 5.53297
55.1816 5.43413
55.232 5.35781
55.2823 5.32746
55.3328 5.25834
55.383 5.23988
55.4335 5.22238
55.4838 5.13056
55.5344 5.09802
55.5847 5.0515
55.6352 5.02897
55.6856 4.95941
55.7361 4.90956