File: XRD/Ni3Fe_FD0901.xy
TT I
1.27165 7.54136
1.31627 6.24848
1.36089 5.91708
1.40551 5.13431
1.45013 5.84017
1.49476 5.83333
1.53938 5.93448
1.584 5.36988
1.62863 5.48776
1.67325 5.09345
1.71787 5.29412
1.7625 4.98655
1.80712 5.03379
1.85174 4.54737
1.89636 5.04079
1.94099 5.05729
1.98562 4.96067
2.03025 4.64724
2.07487 4.12231
2.11949 4.76638
2.16411 5.34829
2.20874 11.7801
2.25338 17.3464
2.298 6.59681
2.34263 5.45544
2.38725 6.626
2.43188 6.14244
2.4765 6.91933
2.52115 6.94934
2.56577 8.39569
2.6104 8.8622
2.65503 8.43009
2.69965 8.51755
2.7443 8.78415
2.78893 8.79774
2.83356 8.74306
2.87818 8.58643
2.92281 8.75197
2.96744 9.83354
3.01209 10.865
3.05672 11.4091
3.10135 12.6668
3.14599 13.0702
3.19062 14.6312
3.23527 15.0201
3.2799 15.51
3.32454 16.6206
3.36917 17.6364
3.4138 18.818
3.45844 19.5531
3.50309 21.0995
3.54773 21.3521
3.59237 23.7644
3.637 71.0812
3.68164 47.1938
3.7263 25.6653
3.77094 25.8116
3.81558 26.2372
3.86022 27.3801
3.90486 28.6874
3.9495 29.6288
3.99416 30.6659
4.0388 31.4796
4.08344 32.6703
4.12809 34.0324
4.17273 35.8502
4.21738 41.1542
4.26204 184.945
4.30669 161.552
4.35133 45.8748
4.39598 43.6755
4.44063 50.8536
4.4853 59.403
4.52995 50.7818
4.5746 51.5377
4.61925 52.5638
4.6639 54.9252
4.70855 57.0598
4.75322 60.4403
4.79788 64.0134
4.84253 66.4798
4.88719 71.0509
4.93184 74.6783
4.97652 79.5142
5.02118 85.4506
5.06583 92.4548
5.11049 103.024
5.15515 156.157
5.19981 326.825
5.24449 2656.59
5.28916 13712.8
5.33382 2542.39
5.37848 171.384
5.42315 123.498
5.46783 110.958
5.5125 104.137
5.55716 99.9083
5.60183 96.6849
5.6465 95.0235
5.69117 92.2522
5.73586 90.5707
5.78053 90.7335
5.8252 90.5819
5.86988 91.4428
5.91455 92.3025
5.95924 100.575
6.00392 199.838
6.0486 893.007
6.09328 4582.72
6.13795 3038.88
6.18263 197.284
6.22733 88.1385
6.27201 79.6315
6.3167 91.3837
6.36138 75.9255
6.40606 67.8813
6.45075 66.4574
6.49545 64.558
6.54014 62.7845
6.58483 61.743
6.62952 61.8039
6.67421 82.9608
6.71892 114.574
6.76361 64.0761
6.8083 57.1033
6.853 57.0499
6.89769 55.9243
6.94239 55.5269
6.98711 54.8461
7.03181 54.8719
7.07651 54.4944
7.12121 54.0579
7.16591 54.3531
7.21063 54.3162
7.25533 64.9759
7.30004 138.293
7.34475 79.2108
7.38945 54.9114
7.43416 53.3946
7.47889 53.2351
7.5236 53.6647
7.56831 54.4658
7.61303 55.5695
7.65774 55.7923
7.70247 55.4988
7.74719 55.0585
7.79191 55.6968
7.83663 56.1502
7.88135 56.8202
7.92607 57.8148
7.97081 58.784
8.01553 59.8942
8.06026 61.1309
8.10498 62.6975
8.14971 70.1575
8.19446 69.8298
8.23919 68.5779
8.28392 70.5424
8.32865 73.1829
8.37339 77.074
8.41812 82.9644
8.46288 105.837
8.50761 160.345
8.55235 359.338
8.59709 1186.24
8.64183 2287.84
8.68658 849.832
8.73134 147.749
8.77609 95.5086
8.82083 90.0882
8.86558 88.1748
8.91033 87.7755
8.9551 88.379
8.99985 83.5861
9.04461 82.2616
9.08936 81.7313
9.13412 80.9343
9.17888 80.7796
9.22365 81.092
9.26841 80.6695
9.31318 81.5252
9.35794 81.7563
9.4027 82.2581
9.44749 82.8034
9.49226 83.2748
9.53703 83.9981
9.5818 86.356
9.62657 90.4052
9.67134 94.5738
9.71614 91.7619
9.76091 92.5931
9.80569 94.8988
9.85047 98.4215
9.89525 116.135
9.94005 128.588
9.98484 173.023
10.0296 323.073
10.0744 801.662
10.1192 1848.09
10.164 1467.12
10.2088 328.852
10.2536 117.972
10.2984 108.64
10.3432 109.229
10.388 102.688
10.4328 116.368
10.4776 155.517
10.5224 284.06
10.5672 537.164
10.612 495.301
10.6568 182.849
10.7017 92.3651
10.7465 84.0677
10.7913 81.5366
10.8361 79.396
10.8809 77.2621
10.9257 76.4159
10.9706 77.0359
11.0154 73.4603
11.0602 71.2238
11.105 70.5657
11.1499 73.2769
11.1947 77.7196
11.2395 71.0004
11.2844 68.2825
11.3292 65.7383
11.374 64.6256
11.4189 64.2907
11.4637 63.6492
11.5086 63.6539
11.5534 65.9845
11.5983 63.7161
11.6431 62.2148
11.688 61.7379
11.7328 61.5349
11.7777 61.4882
11.8225 61.3837
11.8674 60.9197
11.9122 61.6119
11.9571 61.8359
12.002 62.4906
12.0468 66.3473
12.0917 76.5368
12.1366 100.53
12.1814 158.24
12.2263 218.747
12.2712 156.683
12.3161 88.0217
12.3609 67.2373
12.4058 63.2656
12.4507 62.8947
12.4956 63.0542
12.5405 63.1642
12.5853 64.013
12.6302 69.4205
12.6751 73.1493
12.72 67.8462
12.7649 66.3604
12.8098 66.9676
12.8547 68.2406
12.8996 69.6378
12.9445 71.0476
12.9894 72.8747
13.0343 74.4188
13.0792 78.5919
13.1242 87.4978
13.1691 108.554
13.214 143.726
13.2589 239.751
13.3038 391.171
13.3487 424.811
13.3937 235.409
13.4386 113.851
13.4835 102.315
13.5285 116.4
13.5734 154.284
13.6183 255.65
13.6633 370.03
13.7082 329.333
13.7531 165.568
13.7981 91.3553
13.843 79.7762
13.888 77.9331
13.9329 75.4312
13.9779 74.2978
14.0228 73.0657
14.0678 71.738
14.1127 70.997
14.1577 70.8708
14.2027 69.9839
14.2476 69.144
14.2926 68.9874
14.3376 69.5221
14.3825 68.5973
14.4275 67.3927
14.4725 67.3151
14.5175 67.2731
14.5624 67.6739
14.6074 69.2037
14.6524 69.977
14.6974 69.0865
14.7424 71.1156
14.7874 76.8991
14.8324 86.4137
14.8774 108.398
14.9224 156.637
14.9674 219.667
15.0124 216.456
15.0574 136.629
15.1024 84.075
15.1474 70.3659
15.1924 68.8012
15.2374 68.9553
15.2824 68.1312
15.3274 66.5284
15.3725 65.3761
15.4175 65.083
15.4625 64.6849
15.5076 64.7823
15.5526 64.9239
15.5976 64.4358
15.6426 65.6519
15.6877 70.6476
15.7327 77.7263
15.7778 92.3909
15.8228 127.231
15.8679 175.431
15.9129 194.866
15.958 148.157
16.003 89.5756
16.0481 64.9444
16.0931 62.7233
16.1382 60.7701
16.1833 59.1195
16.2283 57.693
16.2734 57.3025
16.3185 57.2327
16.3636 57.5794
16.4086 56.2497
16.4537 55.0389
16.4988 54.3872
16.5439 54.1417
16.589 54.1655
16.6341 53.7943
16.6792 53.4247
16.7243 53.7201
16.7694 53.8298
16.8145 53.7461
16.8596 53.875
16.9047 55.0661
16.9498 55.1543
16.9949 54.5661
17.04 54.7041
17.0851 56.0039
17.1302 57.4995
17.1754 60.2664
17.2205 65.7105
17.2656 74.2713
17.3108 83.3002
17.3559 80.8682
17.401 67.9261
17.4462 59.8582
17.4913 57.8755
17.5365 57.9657
17.5815 58.1541
17.6268 58.4927
17.6718 59.3082
17.7171 59.6599
17.7622 59.9765
17.8074 60.6956
17.8525 63.1966
17.8977 66.7311
17.9428 71.7689
17.9881 80.896
18.0331 99.5384
18.0784 125.159
18.1237 139.737
18.1688 126.081
18.214 96.1363
18.2591 83.2973
18.3044 90.1172
18.3495 101.738
18.3948 105.807
18.4399 91.7348
18.4852 73.2752
18.5303 63.6565
18.5756 60.7288
18.6207 59.815
18.666 59.1627
18.7112 58.4548
18.7565 57.821
18.8016 57.5437
18.8469 56.975
18.892 56.5396
18.9374 56.198
18.9825 55.8676
19.0278 55.8791
19.073 55.9012
19.1183 56.2258
19.1635 56.8505
19.2088 58.139
19.254 61.1844
19.2993 65.8535
19.3447 72.1071
19.3898 75.684
19.4352 69.3487
19.4804 60.4667
19.5257 54.8471
19.5709 53.0754
19.6163 53.1522
19.6615 52.6634
19.7068 52.1362
19.752 52.2625
19.7974 52.4856
19.8426 53.3783
19.888 53.8286
19.9332 55.0277
19.9786 57.7445
20.0238 61.9489
20.0692 67.2202
20.1144 69.4803
20.1598 66.1117
20.205 61.6671
20.2504 61.0718
20.2957 63.9862
20.3411 65.6011
20.3863 62.5264
20.4318 56.0071
20.477 52.035
20.5224 50.3563
20.5677 49.8849
20.6131 49.3186
20.6586 48.8492
20.7038 48.6142
20.7493 48.1768
20.7945 48.1249
20.84 47.8545
20.8853 47.8971
20.9307 47.7146
20.976 47.8012
21.0215 47.648
21.0668 48.0313
21.1122 48.4763
21.1575 49.2691
21.203 50.0507
21.2483 50.6983
21.2938 50.5155
21.3391 48.902
21.3846 47.8046
21.4299 47.4704
21.4754 47.4556
21.5207 47.7694
21.5662 48.1254
21.6116 48.4117
21.6571 48.9842
21.7024 49.7342
21.7479 51.6304
21.7933 54.8119
21.8388 58.9487
21.8843 63.0153
21.9297 64.0253
21.9752 61.3958
22.0206 57.6849
22.0661 55.2695
22.1115 55.4444
22.157 54.9823
22.2024 52.7222
22.248 50.0083
22.2933 48.7275
22.3389 48.1256
22.3843 48.0767
22.4299 47.954
22.4753 47.9014
22.5208 47.7165
22.5662 47.5669
22.6118 47.8073
22.6572 47.8924
22.7028 48.4733
22.7483 48.897
22.7939 49.4451
22.8393 51.1214
22.8849 53.3338
22.9303 56.0224
22.9759 57.3661
23.0214 56.1729
23.067 52.8531
23.1126 49.7428
23.1581 48.0976
23.2037 47.9094
23.2492 47.8403
23.2948 47.7196
23.3403 48.1076
23.3859 48.9495
23.4314 49.793
23.477 51.9205
23.5225 54.4579
23.5682 56.9339
23.6137 57.1518
23.6593 54.1909
23.7048 49.9206
23.7505 46.9936
23.796 45.6432
23.8417 45.1592
23.8872 44.7169
23.9329 44.3918
23.9784 44.0591
24.0241 43.8652
24.0697 43.6784
24.1154 43.3169
24.1609 43.1908
24.2066 43.1187
24.2522 42.954
24.2979 42.6039
24.3434 42.575
24.3892 42.346
24.4349 42.3839
24.4805 42.1051
24.5262 42.4305
24.5718 42.1637
24.6175 42.141
24.6631 42.0171
24.7089 41.723
24.7545 41.7163
24.8002 41.5199
24.8458 41.5026
24.8916 41.3356
24.9372 41.4183
24.983 41.8036
25.0286 42.0895
25.0744 42.5043
25.12 43.0424
25.1658 43.7768
25.2114 43.9291
25.2572 44.0217
25.3029 44.2638
25.3487 44.2875
25.3943 43.753
25.4402 42.3923
25.4858 41.5658
25.5316 40.643
25.5773 40.1277
25.6231 40.1254
25.669 39.8008
25.7147 39.7986
25.7605 39.7465
25.8062 39.6848
25.8521 39.8691
25.8977 39.9481
25.9436 40.1088
25.9893 40.2038
26.0352 41.0152
26.0809 41.0304
26.1268 41.0408
26.1725 40.5907
26.2184 39.9881
26.2641 39.5598
26.31 39.4666
26.3557 39.4278
26.4017 39.2956
26.4474 39.7779
26.4933 39.9695
26.5391 40.5527
26.585 41.2558
26.6308 41.6821
26.6767 41.468
26.7225 41.1863
26.7684 40.5658
26.8142 39.9941
26.8601 39.6005
26.9059 39.2646
26.9519 38.7055
26.9979 38.376
27.0437 38.2212
27.0896 38.042
27.1354 38.0666
27.1814 37.894
27.2272 37.7843
27.2732 37.8393
27.3191 37.6787
27.3651 37.8353
27.4109 37.7761
27.4569 37.86
27.5027 37.9225
27.5488 37.9226
27.5946 37.6281
27.6407 37.5547
27.6865 37.3467
27.7326 37.1357
27.7784 37.2053
27.8245 37.1474
27.8703 37.1947
27.9164 37.6709
27.9623 37.905
28.0084 38.2608
28.0543 38.4941
28.1003 38.3478
28.1462 38.1596
28.1923 37.8024
28.2384 37.3284
28.2843 36.9097
28.3304 36.4401
28.3764 36.032
28.4225 35.7373
28.4684 35.6512
28.5145 35.2735
28.5605 35.2158
28.6066 34.9901
28.6526 35.0339
28.6987 34.9719
28.7447 34.8591
28.7908 34.9014
28.8368 34.7395
28.8829 34.7074
28.9289 34.6704
28.9751 34.4969
29.0211 34.2787
29.0673 33.9432
29.1133 33.999
29.1595 33.8159
29.2055 33.6639
29.2517 33.7272
29.2977 33.6964
29.3439 33.6276
29.3899 33.7523
29.4361 33.6686
29.4824 33.316
29.5284 33.1125
29.5746 32.8396
29.6207 32.5732
29.6669 32.546
29.713 32.3202
29.7593 32.1957
29.8053 32.2654
29.8516 32.2651
29.8977 32.1845
29.9439 32.0603
29.99 32.0277
30.0363 31.927
30.0824 31.9757
30.1287 31.8539
30.1748 31.7335
30.2211 31.9188
30.2673 31.6172
30.3136 31.691
30.3597 31.7078
30.406 31.6087
30.4522 31.4962
30.4985 31.4421
30.5447 31.63
30.591 31.5392
30.6372 31.5934
30.6835 31.7566
30.7297 31.6614
30.7761 31.6682
30.8224 31.3593
30.8686 31.2742
30.915 31.0287
30.9612 31.0425
31.0076 30.7041
31.0538 30.5345
31.1002 30.5662
31.1464 30.411
31.1928 30.3075
31.2391 30.4348
31.2855 30.3077
31.3317 30.3549
31.3781 30.3725
31.4244 30.3946
31.4708 30.2307
31.5171 30.2688
31.5636 30.1848
31.6098 29.9442
31.6563 29.9167
31.7026 29.6912
31.7491 29.6112
31.7953 29.6156
31.8418 29.6501
31.8881 29.5378
31.9346 29.622
31.9809 29.5701
32.0275 29.3781
32.074 29.3531
32.1203 29.0608
32.1668 29.0885
32.2132 28.8528
32.2597 28.644
32.306 28.7599
32.3526 28.47
32.399 28.4596
32.4455 28.2301
32.4919 28.2027
32.5385 28.1385
32.5848 27.9711
32.6314 28.0129
32.6778 27.8581
32.7244 27.7727
32.7708 27.6745
32.8174 27.6432
32.8638 27.5101
32.9104 27.5802
32.9569 27.5277
33.0035 27.4442
33.0499 27.3653
33.0966 27.3691
33.143 27.3252
33.1897 27.2399
33.2361 27.1705
33.2828 27.0405
33.3293 26.9457
33.3759 26.8779
33.4226 26.6924
33.4691 26.6464
33.5158 26.5649
33.5623 26.4988
33.609 26.2627
33.6555 26.2103
33.7022 26.0794
33.7487 26.0559
33.7954 25.9452
33.842 25.9392
33.8887 25.8854
33.9353 25.7928
33.982 25.65
34.0286 25.5217
34.0753 25.5759
34.1219 25.4686
34.1687 25.3393
34.2152 25.2821
34.262 25.149
34.3086 25.1588
34.3554 25.0356
34.402 24.9789
34.4488 24.8744
34.4954 24.8097
34.5422 24.7027
34.5889 24.6747
34.6357 24.5731
34.6825 24.4705
34.7292 24.3712
34.776 24.3133
34.8227 24.2364
34.8695 24.1016
34.9162 24.0985
34.9631 24.0347
35.0098 23.9806
35.0566 23.9288
35.1033 23.8099
35.1502 23.8896
35.1969 23.8377
35.2438 23.7094
35.2906 23.6745
35.3375 23.5908
35.3842 23.5691
35.4311 23.5988
35.4779 23.5092
35.5248 23.4589
35.5716 23.3673
35.6185 23.309
35.6653 23.0991
35.7123 23.1729
35.759 23.0036
35.806 22.9752
35.8528 22.874
35.8998 22.8235
35.9468 22.7441
35.9936 22.611
36.0406 22.6459
36.0874 22.6713
36.1345 22.4829
36.1813 22.4323
36.2283 22.2739
36.2752 22.2219
36.3222 22.3202
36.3691 22.1562
36.4161 22.0134
36.463 22.024
36.5101 21.9861
36.557 21.935
36.6041 21.7333
36.651 21.7653
36.6981 21.7348
36.745 21.6696
36.7921 21.5154
36.839 21.4394
36.8861 21.4065
36.9331 21.3668
36.9802 21.3217
37.0272 21.2166
37.0743 21.0747
37.1213 21.0539
37.1684 21.0659
37.2154 21.0087
37.2626 20.9289
37.3098 20.8151
37.3568 20.8036
37.404 20.781
37.451 20.6015
37.4982 20.6148
37.5452 20.499
37.5924 20.3981
37.6395 20.4713
37.6867 20.3079
37.7337 20.2807
37.781 20.2121
37.8281 20.1065
37.8753 20.0131
37.9224 20.0619
37.9697 19.9113
38.0168 19.8482
38.064 19.7685
38.1111 19.7681
38.1584 19.721
38.2056 19.6022
38.2529 19.5777
38.3 19.4456
38.3473 19.5035
38.3945 19.3827
38.4418 19.35
38.489 19.3177
38.5363 19.1891
38.5837 19.098
38.6309 19.0811
38.6782 19.0068
38.7254 18.9236
38.7728 18.9206
38.82 18.7923
38.8674 18.7286
38.9146 18.6761
38.9621 18.6388
39.0093 18.6098
39.0567 18.5439
39.104 18.4792
39.1514 18.3537
39.1987 18.3625
39.2461 18.2991
39.2934 18.2112
39.3409 18.1788
39.3882 18.0809
39.4356 18.0406
39.483 18.0224
39.5304 17.965
39.5778 17.9105
39.6253 17.865
39.6726 17.799
39.7201 17.8285
39.7675 17.7151
39.815 17.5935
39.8624 17.5712
39.9099 17.5227
39.9575 17.4152
40.0049 17.3701
40.0525 17.2835
40.0999 17.324
40.1474 17.279
40.1949 17.1688
40.2425 17.1038
40.2899 17.097
40.3375 17.0287
40.385 16.8782
40.4326 16.8931
40.48 16.8776
40.5277 16.8264
40.5752 16.8011
40.6228 16.618
40.6703 16.5968
40.718 16.5576
40.7655 16.5698
40.8132 16.451
40.8607 16.428
40.9084 16.3798
40.9559 16.317
41.0036 16.2504
41.0512 16.2219
41.0989 16.2139
41.1465 16.1005
41.1942 16.055
41.242 15.9971
41.2896 15.9571
41.3373 15.8775
41.3849 15.8479
41.4327 15.7884
41.4803 15.7154
41.5281 15.6577
41.5758 15.6118
41.6236 15.6019
41.6712 15.5001
41.7191 15.489
41.7667 15.3915
41.8146 15.4037
41.8622 15.3262
41.9101 15.2946
41.9578 15.1593
42.0057 15.1711
42.0534 15.0906
42.1013 15.0591
42.149 15.041
42.1969 15.0214
42.2446 14.9577
42.2925 14.844
42.3403 14.7552
42.3882 14.8032
42.436 14.7599
42.4839 14.671
42.5319 14.6355
42.5797 14.5702
42.6277 14.5551
42.6755 14.5328
42.7235 14.3952
42.7713 14.3912
42.8193 14.3044
42.8671 14.3113
42.9152 14.2697
42.963 14.1147
43.0111 14.1431
43.0589 14.0973
43.107 14.0392
43.1549 13.9785
43.2029 13.8997
43.2508 13.8956
43.2989 13.8373
43.3468 13.7312
43.3949 13.7273
43.4429 13.6961
43.491 13.6454
43.5389 13.5859
43.5871 13.5646
43.635 13.4877
43.6832 13.4063
43.7312 13.3883
43.7793 13.3341
43.8273 13.3294
43.8755 13.3097
43.9237 13.2265
43.9717 13.2271
44.0199 13.1577
44.068 13.1145
44.1162 13.0479
44.1642 13.0301
44.2125 12.9419
44.2606 12.9531
44.3088 12.8433
44.3569 12.7945
44.4052 12.8124
44.4533 12.7589
44.5016 12.6734
44.5497 12.6516
44.598 12.5947
44.6461 12.5262
44.6945 12.5072
44.7426 12.4504
44.791 12.4472
44.8391 12.3936
44.8875 12.2997
44.9357 12.3402
44.984 12.2592
45.0322 12.1983
45.0806 12.1651
45.1288 12.1255
45.1773 12.0707
45.2257 12.0045
45.2739 12.0201
45.3224 11.9296
45.3706 11.9391
45.4191 11.8749
45.4673 11.8484
45.5158 11.7801
45.5641 11.7466
45.6126 11.6979
45.6609 11.6592
45.7094 11.5863
45.7577 11.5859
45.8063 11.4905
45.8546 11.4755
45.9031 11.4434
45.9515 11.3843
46.0001 11.3898
46.0484 11.305
46.097 11.3448
46.1454 11.3198
46.194 11.2396
46.2424 11.1537
46.291 11.1625
46.3395 11.1099
46.3881 11.0113
46.4365 11.0367
46.4852 10.9883
46.5337 10.9336
46.5823 10.9041
46.631 10.8517
46.6795 10.873
46.7282 10.7676
46.7767 10.7432
46.8254 10.6554
46.8739 10.6591
46.9226 10.6344
46.9712 10.5348
47.0199 10.5033
47.0685 10.52
47.1173 10.4379
47.1658 10.4264
47.2146 10.3677
47.2632 10.3217
47.312 10.306
47.3606 10.2705
47.4095 10.2078
47.4581 10.158
47.5069 10.1655
47.5556 10.0941
47.6044 10.0642
47.6531 10.0106
47.702 9.99688
47.7507 9.9317
47.7996 9.90312
47.8483 9.89165
47.8972 9.84035
47.9461 9.84512
47.9948 9.70766
48.0438 9.75743
48.0925 9.72531
48.1415 9.6716
48.1902 9.62607
48.2392 9.64749
48.288 9.59046
48.337 9.57057
48.3858 9.51075
48.4348 9.47966
48.4837 9.47941
48.5327 9.39061
48.5815 9.39463
48.6306 9.36094
48.6795 9.28834
48.7285 9.26331
48.7774 9.22348
48.8265 9.20986
48.8754 9.18256
48.9245 9.15572
48.9734 9.11781
49.0226 9.06545
49.0715 8.99994
49.1206 8.99777
49.1696 8.93635
49.2188 8.90488
49.2679 8.88436
49.3169 8.81034
49.3661 8.77347
49.4151 8.74841
49.4643 8.75986
49.5134 8.7674
49.5626 8.64814
49.6117 8.63785
49.6609 8.6088
49.71 8.5879
49.7592 8.52242
49.8083 8.48777
49.8576 8.44879
49.9067 8.43899
49.956 8.45371
50.0052 8.40426
50.0545 8.38463
50.1036 8.2865
50.153 8.28074
50.2022 8.26135
50.2515 8.22674
50.3007 8.21573
50.3501 8.16119
50.3993 8.14083
50.4487 8.13121
50.498 8.0572
50.5474 8.05985
50.5966 8.01859
50.6461 7.9868
50.6955 7.93552
50.7448 7.91738
50.7943 7.88063
50.8436 7.88234
50.8931 7.80377
50.9424 7.79983
50.9919 7.78597
51.0413 7.7773
51.0908 7.72778
51.1402 7.7011
51.1897 7.61387
51.2391 7.60472
51.2887 7.54338
51.3381 7.54799
51.3877 7.48223
51.4371 7.47869
51.4867 7.44316
51.5362 7.42287
51.5858 7.43428
51.6353 7.36875
51.6849 7.29876
51.7344 7.30087
51.7841 7.27034
51.8336 7.23995
51.8833 7.21092
51.9328 7.18997
51.9826 7.14012
52.0323 7.15664
52.0818 7.0891
52.1316 7.05371
52.1812 7.04071
52.231 7.00516
52.2806 6.98204
52.3304 6.9293
52.38 6.95303
52.4298 6.90992
52.4794 6.84352
52.5293 6.79586
52.5789 6.82477
52.6288 6.79024
52.6785 6.75515
52.7284 6.69689
52.7781 6.69341
52.828 6.67619
52.8777 6.63218
52.9276 6.60509
52.9774 6.56958
53.0273 6.56609
53.0771 6.55958
53.1271 6.5225
53.1769 6.47996
53.2269 6.42993
53.2767 6.42445
53.3267 6.38255
53.3765 6.3555
53.4266 6.32588
53.4766 6.32229
53.5265 6.26463
53.5765 6.28578
53.6264 6.24941
53.6765 6.2163
53.7264 6.1703
53.7765 6.18217
53.8265 6.11604
53.8766 6.09789
53.9266 6.0853
53.9767 6.00729
54.0267 6.01182
54.0769 5.97267
54.1269 5.94179
54.1771 5.92436
54.2271 5.88425
54.2773 5.87879
54.3274 5.83004
54.3776 5.81355
54.4277 5.74308
54.478 5.73283
54.528 5.69044
54.5783 5.65811
54.6285 5.58001
54.6788 5.5868
54.7289 5.52423
54.7792 5.50747
54.8296 5.44856
54.8798 5.44058
54.9301 5.35119
54.9803 5.35429
55.0307 5.37
55.0809 5.29902
55.1314 5.27409
55.1816 5.16525
55.232 5.14694
55.2823 5.18104
55.3328 5.09513
55.383 5.07713
55.4335 4.97231
55.4838 4.89387
55.5344 4.89459
55.5847 4.88707
55.6352 4.75799
55.6856 4.80768
55.7361 4.75248