File: XRD/Ni3Fe_FD0643.xy
TT I
1.27165 7.19601
1.31627 6.84155
1.36089 6.86356
1.40551 6.20976
1.45013 6.2428
1.49476 6.06961
1.53938 6.05357
1.584 5.40113
1.62863 5.44329
1.67325 5.2447
1.71787 5.29805
1.7625 5.16209
1.80712 4.8847
1.85174 4.41787
1.89636 4.88169
1.94099 5.17917
1.98562 4.73299
2.03025 4.56941
2.07487 4.70198
2.11949 5.04203
2.16411 4.98995
2.20874 15.9671
2.25338 27.7648
2.298 6.41701
2.34263 5.48908
2.38725 6.40365
2.43188 6.11737
2.4765 6.50746
2.52115 6.74145
2.56577 7.72264
2.6104 8.26117
2.65503 7.49292
2.69965 7.86883
2.7443 8.03744
2.78893 7.98139
2.83356 8.36618
2.87818 8.11674
2.92281 9.03648
2.96744 9.33868
3.01209 10.6555
3.05672 11.0997
3.10135 11.8044
3.14599 13.1446
3.19062 14.2512
3.23527 15.6262
3.2799 15.9684
3.32454 17.1844
3.36917 17.89
3.4138 19.1577
3.45844 19.9188
3.50309 21.4844
3.54773 22.4684
3.59237 24.6855
3.637 110.393
3.68164 69.5218
3.7263 26.6402
3.77094 26.4703
3.81558 27.1731
3.86022 27.7798
3.90486 29.0741
3.9495 29.7899
3.99416 31.2255
4.0388 32.7135
4.08344 33.8277
4.12809 35.535
4.17273 37.6847
4.21738 44.5792
4.26204 301.389
4.30669 266.922
4.35133 50.9192
4.39598 44.9935
4.44063 56.1369
4.4853 70.6895
4.52995 50.9841
4.5746 51.3779
4.61925 53.5782
4.6639 55.7213
4.70855 58.0648
4.75322 60.404
4.79788 63.3299
4.84253 67.5587
4.88719 71.1421
4.93184 74.7546
4.97652 80.0793
5.02118 86.1508
5.06583 93.1524
5.11049 105.141
5.15515 184.508
5.19981 333.449
5.24449 2612.36
5.28916 12682.8
5.33382 3160.68
5.37848 197.072
5.42315 130.591
5.46783 114.023
5.5125 106.26
5.55716 102.383
5.60183 98.2359
5.6465 96.9596
5.69117 93.8418
5.73586 92.1143
5.78053 91.0332
5.8252 90.373
5.86988 91.3571
5.91455 93.646
5.95924 100.455
6.00392 191.467
6.0486 910.639
6.09328 4309.72
6.13795 3522.34
6.18263 258.01
6.22733 95.0465
6.27201 84.411
6.3167 110.007
6.36138 83.7837
6.40606 68.9409
6.45075 67.4457
6.49545 65.7247
6.54014 64.3258
6.58483 63.5267
6.62952 63.4796
6.67421 101.749
6.71892 168.028
6.76361 72.1188
6.8083 59.0018
6.853 57.9295
6.89769 57.4247
6.94239 57.0894
6.98711 56.4004
7.03181 55.9435
7.07651 55.6758
7.12121 55.7628
7.16591 56.0298
7.21063 56.1182
7.25533 73.8009
7.30004 215.296
7.34475 103.119
7.38945 57.263
7.43416 55.4294
7.47889 54.7512
7.5236 55.3665
7.56831 55.492
7.61303 58.0139
7.65774 58.4112
7.70247 56.5473
7.74719 56.7215
7.79191 56.9176
7.83663 57.0527
7.88135 57.9574
7.92607 58.8202
7.97081 59.9299
8.01553 61.0988
8.06026 62.5381
8.10498 63.963
8.14971 75.8804
8.19446 74.1527
8.23919 69.6968
8.28392 71.7606
8.32865 74.0166
8.37339 77.9286
8.41812 85.3558
8.46288 119.645
8.50761 157.68
8.55235 362.607
8.59709 1097.54
8.64183 2198.24
8.68658 1020.96
8.73134 176.498
8.77609 100.143
8.82083 92.9855
8.86558 89.5394
8.91033 90.2941
8.9551 93.1211
8.99985 85.6391
9.04461 83.7699
9.08936 82.7382
9.13412 82.0623
9.17888 82.2447
9.22365 83.2191
9.26841 82.5089
9.31318 82.6604
9.35794 82.7517
9.4027 83.4348
9.44749 83.5896
9.49226 84.6199
9.53703 85.2989
9.5818 87.1581
9.62657 92.3526
9.67134 100.985
9.71614 94.1174
9.76091 93.7168
9.80569 95.7004
9.85047 99.6731
9.89525 128.536
9.94005 141.975
9.98484 167.865
10.0296 324.42
10.0744 755.7
10.1192 1684.63
10.164 1640.3
10.2088 443.724
10.2536 130.979
10.2984 116.094
10.3432 118.417
10.388 105.323
10.4328 115.044
10.4776 154.426
10.5224 267.297
10.5672 496.377
10.612 519.825
10.6568 214.374
10.7017 99.1553
10.7465 86.967
10.7913 83.2254
10.8361 81.4459
10.8809 79.4808
10.9257 79.0291
10.9706 80.193
11.0154 75.5563
11.0602 73.2633
11.105 72.2719
11.1499 78.1069
11.1947 87.8957
11.2395 76.3736
11.2844 71.497
11.3292 67.5899
11.374 66.4641
11.4189 65.9609
11.4637 65.0823
11.5086 65.9264
11.5534 70.0795
11.5983 66.5841
11.6431 64.1323
11.688 63.1916
11.7328 63.1368
11.7777 62.9693
11.8225 62.7456
11.8674 62.6706
11.9122 62.8755
11.9571 63.2092
12.002 63.2448
12.0468 67.1696
12.0917 78.1431
12.1366 100.052
12.1814 146.807
12.2263 204.534
12.2712 173.335
12.3161 103.189
12.3609 72.6193
12.4058 64.8935
12.4507 64.5307
12.4956 64.6444
12.5405 64.7283
12.5853 65.6171
12.6302 75.3646
12.6751 82.8134
12.72 71.1334
12.7649 67.8842
12.8098 68.6348
12.8547 69.7382
12.8996 71.0208
12.9445 72.3072
12.9894 74.0102
13.0343 75.681
13.0792 78.8544
13.1242 86.4321
13.1691 109.353
13.214 143.694
13.2589 226.735
13.3038 357.831
13.3487 431.002
13.3937 279.485
13.4386 129.399
13.4835 104.862
13.5285 118.029
13.5734 153.189
13.6183 237.788
13.6633 342.582
13.7082 346.018
13.7531 195.674
13.7981 100.419
13.843 82.1468
13.888 79.7093
13.9329 77.2746
13.9779 76.3203
14.0228 74.2946
14.0678 73.2681
14.1127 72.8007
14.1577 73.0968
14.2027 71.747
14.2476 70.5172
14.2926 71.1217
14.3376 72.3167
14.3825 70.352
14.4275 68.898
14.4725 68.5726
14.5175 68.8455
14.5624 68.9616
14.6074 71.7478
14.6524 72.2395
14.6974 70.5285
14.7424 71.4052
14.7874 77.6771
14.8324 87.3395
14.8774 107.2
14.9224 148.011
14.9674 200.07
15.0124 218.243
15.0574 152.453
15.1024 93.1631
15.1474 72.8802
15.1924 70.9911
15.2374 71.9725
15.2824 70.9559
15.3274 68.5459
15.3725 67.198
15.4175 66.4286
15.4625 66.1805
15.5076 66.4876
15.5526 66.5513
15.5976 66.1956
15.6426 66.3846
15.6877 71.339
15.7327 78.3237
15.7778 92.6393
15.8228 121.672
15.8679 163.905
15.9129 192.875
15.958 161.488
16.003 101.853
16.0481 69.6239
16.0931 65.5393
16.1382 63.3089
16.1833 61.0884
16.2283 59.2523
16.2734 58.5126
16.3185 59.2584
16.3636 60.2801
16.4086 58.394
16.4537 56.3729
16.4988 55.6065
16.5439 55.7881
16.589 55.3163
16.6341 55.0635
16.6792 54.9618
16.7243 55.0167
16.7694 55.2251
16.8145 55.3287
16.8596 55.6146
16.9047 57.3697
16.9498 57.6871
16.9949 56.1011
17.04 55.7416
17.0851 56.8999
17.1302 58.3364
17.1754 61.4949
17.2205 66.1379
17.2656 73.3513
17.3108 82.5116
17.3559 83.4921
17.401 72.4204
17.4462 62.6121
17.4913 59.3401
17.5365 59.2477
17.5815 59.491
17.6268 59.7482
17.6718 60.7373
17.7171 61.2721
17.7622 61.3267
17.8074 61.801
17.8525 63.8013
17.8977 67.6456
17.9428 72.8574
17.9881 81.0305
18.0331 97.0192
18.0784 118.488
18.1237 139.096
18.1688 133.405
18.214 105.801
18.2591 86.9303
18.3044 89.3718
18.3495 98.9116
18.3948 106.021
18.4399 98.8835
18.4852 79.0972
18.5303 66.787
18.5756 62.4613
18.6207 61.3399
18.666 60.6415
18.7112 59.7233
18.7565 59.158
18.8016 58.8034
18.8469 58.1208
18.892 57.9782
18.9374 57.457
18.9825 57.1795
19.0278 57.0848
19.073 57.1448
19.1183 57.4952
19.1635 58.4419
19.2088 59.5737
19.254 61.7738
19.2993 66.2835
19.3447 72.559
19.3898 76.66
19.4352 73.3902
19.4804 64.2583
19.5257 57.4192
19.5709 54.6007
19.6163 54.0643
19.6615 53.8185
19.7068 53.5196
19.752 53.5745
19.7974 53.6477
19.8426 54.5958
19.888 55.0834
19.9332 56.2444
19.9786 58.3991
20.0238 61.8177
20.0692 66.8239
20.1144 69.9324
20.1598 68.555
20.205 63.8702
20.2504 62.0638
20.2957 63.6871
20.3411 65.9773
20.3863 64.8877
20.4318 59.2391
20.477 54.1444
20.5224 52.2314
20.5677 51.1949
20.6131 50.2993
20.6586 49.7952
20.7038 49.6185
20.7493 49.3169
20.7945 49.1102
20.84 48.887
20.8853 48.9074
20.9307 48.6715
20.976 48.7165
21.0215 48.7141
21.0668 49.1156
21.1122 49.5204
21.1575 50.0949
21.203 50.8066
21.2483 51.4356
21.2938 51.5481
21.3391 50.3369
21.3846 49.2266
21.4299 48.491
21.4754 48.4435
21.5207 48.5442
21.5662 48.7536
21.6116 49.1055
21.6571 49.7481
21.7024 50.8566
21.7479 52.5615
21.7933 55.0996
21.8388 58.4292
21.8843 62.2271
21.9297 64.9038
21.9752 63.9871
22.0206 59.9679
22.0661 56.866
22.1115 56.0999
22.157 56.2144
22.2024 54.6253
22.248 51.7988
22.2933 50.0887
22.3389 49.4312
22.3843 49.3723
22.4299 49.0944
22.4753 49.1316
22.5208 48.887
22.5662 48.5563
22.6118 48.7011
22.6572 48.8774
22.7028 49.2385
22.7483 49.5817
22.7939 50.3731
22.8393 51.725
22.8849 53.8135
22.9303 55.6869
22.9759 57.8224
23.0214 57.9203
23.067 55.2385
23.1126 51.6062
23.1581 49.5335
23.2037 49.025
23.2492 48.91
23.2948 48.7623
23.3403 49.0428
23.3859 49.6432
23.4314 50.6972
23.477 52.3881
23.5225 54.5356
23.5682 56.8128
23.6137 58.1609
23.6593 56.2878
23.7048 52.2741
23.7505 48.5748
23.796 46.9848
23.8417 46.075
23.8872 45.733
23.9329 45.405
23.9784 44.9745
24.0241 44.8572
24.0697 44.4828
24.1154 44.4118
24.1609 44.2478
24.2066 44.0702
24.2522 43.8759
24.2979 43.5713
24.3434 43.5562
24.3892 43.3001
24.4349 43.2987
24.4805 42.9574
24.5262 43.2415
24.5718 42.9968
24.6175 43.1559
24.6631 43.0495
24.7089 42.6602
24.7545 42.5623
24.8002 42.4853
24.8458 42.3043
24.8916 42.326
24.9372 42.3128
24.983 42.4521
25.0286 42.7066
25.0744 43.2666
25.12 43.738
25.1658 44.3288
25.2114 44.6962
25.2572 44.774
25.3029 44.87
25.3487 45.0157
25.3943 44.8349
25.4402 43.9674
25.4858 42.7749
25.5316 41.6127
25.5773 41.1361
25.6231 40.9954
25.669 40.8543
25.7147 40.6145
25.7605 40.6464
25.8062 40.6279
25.8521 40.6942
25.8977 40.7855
25.9436 40.9103
25.9893 41.0074
26.0352 41.5952
26.0809 41.6229
26.1268 41.8987
26.1725 41.675
26.2184 41.0624
26.2641 40.4499
26.31 40.1852
26.3557 40.3402
26.4017 40.1243
26.4474 40.5908
26.4933 40.728
26.5391 41.355
26.585 41.8349
26.6308 42.0816
26.6767 42.3292
26.7225 42.1443
26.7684 41.7265
26.8142 41.1134
26.8601 40.5636
26.9059 40.2967
26.9519 39.7518
26.9979 39.3215
27.0437 39.1151
27.0896 38.8255
27.1354 38.8702
27.1814 38.6924
27.2272 38.6884
27.2732 38.6191
27.3191 38.4659
27.3651 38.5706
27.4109 38.5818
27.4569 38.6666
27.5027 38.5542
27.5488 38.6696
27.5946 38.5167
27.6407 38.2538
27.6865 38.237
27.7326 37.9139
27.7784 38.0032
27.8245 38.0879
27.8703 38.0883
27.9164 38.3422
27.9623 38.5892
28.0084 38.7496
28.0543 39.1752
28.1003 39.0537
28.1462 38.9009
28.1923 38.7383
28.2384 38.0692
28.2843 37.7666
28.3304 37.3784
28.3764 36.8567
28.4225 36.5844
28.4684 36.5122
28.5145 36.1884
28.5605 36.0982
28.6066 35.7713
28.6526 35.7856
28.6987 35.7264
28.7447 35.7046
28.7908 35.5625
28.8368 35.5128
28.8829 35.5177
28.9289 35.5671
28.9751 35.2486
29.0211 35.1517
29.0673 34.844
29.1133 34.7742
29.1595 34.6097
29.2055 34.5207
29.2517 34.398
29.2977 34.4396
29.3439 34.4651
29.3899 34.377
29.4361 34.2327
29.4824 34.0634
29.5284 33.8875
29.5746 33.5379
29.6207 33.3915
29.6669 33.1166
29.713 33.1282
29.7593 32.9853
29.8053 33.1283
29.8516 33.055
29.8977 32.9124
29.9439 32.7358
29.99 32.6599
30.0363 32.5275
30.0824 32.6174
30.1287 32.5019
30.1748 32.5545
30.2211 32.4142
30.2673 32.4474
30.3136 32.504
30.3597 32.4362
30.406 32.3007
30.4522 32.1966
30.4985 32.1283
30.5447 32.3674
30.591 32.2422
30.6372 32.2579
30.6835 32.3019
30.7297 32.3115
30.7761 32.2973
30.8224 32.0994
30.8686 32.0188
30.915 31.7672
30.9612 31.6762
31.0076 31.41
31.0538 31.2631
31.1002 31.2074
31.1464 30.9622
31.1928 30.9896
31.2391 31.0716
31.2855 30.9705
31.3317 30.837
31.3781 30.9817
31.4244 30.9791
31.4708 30.9748
31.5171 30.8901
31.5636 30.823
31.6098 30.6878
31.6563 30.319
31.7026 30.4448
31.7491 30.1356
31.7953 30.2868
31.8418 30.1504
31.8881 30.2266
31.9346 30.2257
31.9809 30.0999
32.0275 30.0695
32.074 29.9379
32.1203 29.6528
32.1668 29.6331
32.2132 29.57
32.2597 29.3577
32.306 29.4042
32.3526 29.1415
32.399 29.0994
32.4455 28.8745
32.4919 28.7487
32.5385 28.7154
32.5848 28.5456
32.6314 28.5745
32.6778 28.5393
32.7244 28.2738
32.7708 28.2136
32.8174 28.1984
32.8638 28.1204
32.9104 28.1981
32.9569 28.1733
33.0035 27.8467
33.0499 27.9577
33.0966 27.9601
33.143 27.8217
33.1897 27.7762
33.2361 27.7597
33.2828 27.7492
33.3293 27.4523
33.3759 27.4725
33.4226 27.33
33.4691 27.1949
33.5158 27.1277
33.5623 27.0092
33.609 26.8158
33.6555 26.8044
33.7022 26.6685
33.7487 26.6329
33.7954 26.558
33.842 26.511
33.8887 26.4232
33.9353 26.3427
33.982 26.2403
34.0286 26.0819
34.0753 26.1232
34.1219 25.9401
34.1687 25.9992
34.2152 25.936
34.262 25.7442
34.3086 25.6576
34.3554 25.5764
34.402 25.5789
34.4488 25.4148
34.4954 25.3765
34.5422 25.2862
34.5889 25.1527
34.6357 25.0866
34.6825 24.9803
34.7292 24.8655
34.776 24.9016
34.8227 24.8233
34.8695 24.768
34.9162 24.7089
34.9631 24.5834
35.0098 24.536
35.0566 24.3987
35.1033 24.3841
35.1502 24.3861
35.1969 24.3354
35.2438 24.1987
35.2906 24.182
35.3375 24.1752
35.3842 24.0622
35.4311 24.1224
35.4779 24.0677
35.5248 24.0567
35.5716 23.8036
35.6185 23.8225
35.6653 23.7141
35.7123 23.6779
35.759 23.599
35.806 23.4674
35.8528 23.3095
35.8998 23.3495
35.9468 23.2349
35.9936 23.2335
36.0406 23.1243
36.0874 23.0595
36.1345 22.9728
36.1813 22.8628
36.2283 22.6977
36.2752 22.6811
36.3222 22.762
36.3691 22.6377
36.4161 22.5616
36.463 22.39
36.5101 22.5652
36.557 22.4358
36.6041 22.2178
36.651 22.2799
36.6981 22.247
36.745 22.0799
36.7921 22.032
36.839 21.9979
36.8861 21.8786
36.9331 21.8713
36.9802 21.6839
37.0272 21.6726
37.0743 21.6102
37.1213 21.5639
37.1684 21.4466
37.2154 21.4422
37.2626 21.3563
37.3098 21.3671
37.3568 21.1259
37.404 21.1469
37.451 21.0909
37.4982 21.0353
37.5452 20.8585
37.5924 20.89
37.6395 20.9372
37.6867 20.8785
37.7337 20.7438
37.781 20.5588
37.8281 20.534
37.8753 20.4607
37.9224 20.4083
37.9697 20.4336
38.0168 20.2521
38.064 20.2835
38.1111 20.137
38.1584 20.1985
38.2056 20.0126
38.2529 20.0458
38.3 19.9072
38.3473 19.9195
38.3945 19.667
38.4418 19.6942
38.489 19.6649
38.5363 19.6218
38.5837 19.5478
38.6309 19.5295
38.6782 19.4454
38.7254 19.3197
38.7728 19.2438
38.82 19.1903
38.8674 19.1889
38.9146 19.1503
38.9621 18.9879
39.0093 18.9993
39.0567 18.9723
39.104 18.8587
39.1514 18.7834
39.1987 18.7347
39.2461 18.7307
39.2934 18.6635
39.3409 18.5635
39.3882 18.4929
39.4356 18.4264
39.483 18.3958
39.5304 18.3194
39.5778 18.2759
39.6253 18.2426
39.6726 18.1474
39.7201 18.1563
39.7675 18.0571
39.815 17.9449
39.8624 17.9333
39.9099 17.8608
39.9575 17.7977
40.0049 17.8165
40.0525 17.6812
40.0999 17.6031
40.1474 17.6382
40.1949 17.5093
40.2425 17.4494
40.2899 17.4145
40.3375 17.3831
40.385 17.2948
40.4326 17.3064
40.48 17.2673
40.5277 17.1508
40.5752 17.1344
40.6228 17.0
40.6703 17.0067
40.718 16.9427
40.7655 16.943
40.8132 16.8607
40.8607 16.7844
40.9084 16.7532
40.9559 16.6496
41.0036 16.6099
41.0512 16.5773
41.0989 16.5615
41.1465 16.4368
41.1942 16.426
41.242 16.3321
41.2896 16.2866
41.3373 16.1994
41.3849 16.205
41.4327 16.1575
41.4803 16.0143
41.5281 16.0074
41.5758 16.0221
41.6236 15.8349
41.6712 15.8585
41.7191 15.8389
41.7667 15.7312
41.8146 15.7289
41.8622 15.6231
41.9101 15.5791
41.9578 15.517
42.0057 15.4737
42.0534 15.4671
42.1013 15.395
42.149 15.3556
42.1969 15.2387
42.2446 15.2402
42.2925 15.1911
42.3403 15.2085
42.3882 15.096
42.436 15.0674
42.4839 14.9755
42.5319 14.9687
42.5797 14.9272
42.6277 14.8374
42.6755 14.8072
42.7235 14.7077
42.7713 14.6951
42.8193 14.6739
42.8671 14.5076
42.9152 14.5567
42.963 14.4601
43.0111 14.4099
43.0589 14.3899
43.107 14.3116
43.1549 14.2967
43.2029 14.3
43.2508 14.2262
43.2989 14.1389
43.3468 14.114
43.3949 14.058
43.4429 14.0353
43.491 13.9688
43.5389 13.9316
43.5871 13.8904
43.635 13.8373
43.6832 13.7845
43.7312 13.6785
43.7793 13.6681
43.8273 13.6234
43.8755 13.5522
43.9237 13.5196
43.9717 13.5031
44.0199 13.4117
44.068 13.4293
44.1162 13.3137
44.1642 13.2792
44.2125 13.2541
44.2606 13.2037
44.3088 13.1903
44.3569 13.0602
44.4052 13.0689
44.4533 13.0109
44.5016 12.9412
44.5497 12.9077
44.598 12.8696
44.6461 12.8347
44.6945 12.7829
44.7426 12.7595
44.791 12.7213
44.8391 12.7088
44.8875 12.6146
44.9357 12.5597
44.984 12.5008
45.0322 12.458
45.0806 12.4301
45.1288 12.4174
45.1773 12.3416
45.2257 12.3339
45.2739 12.2811
45.3224 12.229
45.3706 12.1787
45.4191 12.1337
45.4673 12.097
45.5158 12.042
45.5641 11.9809
45.6126 11.9835
45.6609 11.94
45.7094 11.893
45.7577 11.7993
45.8063 11.7929
45.8546 11.768
45.9031 11.6738
45.9515 11.7333
46.0001 11.6163
46.0484 11.5681
46.097 11.5266
46.1454 11.5169
46.194 11.4844
46.2424 11.4484
46.291 11.3469
46.3395 11.3131
46.3881 11.3051
46.4365 11.2721
46.4852 11.1691
46.5337 11.1756
46.5823 11.1348
46.631 11.0503
46.6795 11.0642
46.7282 10.998
46.7767 10.9576
46.8254 10.9158
46.8739 10.8813
46.9226 10.8829
46.9712 10.819
47.0199 10.7843
47.0685 10.7322
47.1173 10.6851
47.1658 10.6275
47.2146 10.6285
47.2632 10.5429
47.312 10.5376
47.3606 10.4444
47.4095 10.4599
47.4581 10.4265
47.5069 10.3574
47.5556 10.3111
47.6044 10.3101
47.6531 10.2739
47.702 10.1819
47.7507 10.1878
47.7996 10.14
47.8483 10.1484
47.8972 10.1293
47.9461 10.0375
47.9948 9.99318
48.0438 9.94395
48.0925 9.91344
48.1415 9.86034
48.1902 9.86157
48.2392 9.84416
48.288 9.82133
48.337 9.7347
48.3858 9.68144
48.4348 9.64397
48.4837 9.67164
48.5327 9.63673
48.5815 9.57523
48.6306 9.56929
48.6795 9.54333
48.7285 9.46444
48.7774 9.46834
48.8265 9.42792
48.8754 9.38237
48.9245 9.31061
48.9734 9.28782
49.0226 9.2506
49.0715 9.18886
49.1206 9.16479
49.1696 9.11844
49.2188 9.13304
49.2679 9.09456
49.3169 9.044
49.3661 8.98564
49.4151 8.95072
49.4643 8.93668
49.5134 8.92898
49.5626 8.9064
49.6117 8.82335
49.6609 8.81446
49.71 8.76923
49.7592 8.7373
49.8083 8.69239
49.8576 8.69415
49.9067 8.6155
49.956 8.60621
50.0052 8.57301
50.0545 8.53586
50.1036 8.49126
50.153 8.49371
50.2022 8.46591
50.2515 8.42863
50.3007 8.35046
50.3501 8.35885
50.3993 8.29105
50.4487 8.26835
50.498 8.24189
50.5474 8.21874
50.5966 8.15917
50.6461 8.16246
50.6955 8.15464
50.7448 8.08183
50.7943 8.06484
50.8436 8.01787
50.8931 7.97939
50.9424 8.00012
50.9919 7.92713
51.0413 7.91233
51.0908 7.87274
51.1402 7.85307
51.1897 7.82017
51.2391 7.78536
51.2887 7.75083
51.3381 7.72325
51.3877 7.69704
51.4371 7.65086
51.4867 7.61923
51.5362 7.6158
51.5858 7.5653
51.6353 7.4871
51.6849 7.5122
51.7344 7.48444
51.7841 7.43375
51.8336 7.44425
51.8833 7.35835
51.9328 7.33656
51.9826 7.32988
52.0323 7.27373
52.0818 7.28085
52.1316 7.19746
52.1812 7.1976
52.231 7.16353
52.2806 7.12392
52.3304 7.11367
52.38 7.07832
52.4298 7.07139
52.4794 7.00448
52.5293 6.97158
52.5789 6.99194
52.6288 6.92427
52.6785 6.88975
52.7284 6.86518
52.7781 6.87304
52.828 6.81783
52.8777 6.78967
52.9276 6.7845
52.9774 6.72985
53.0273 6.69247
53.0771 6.62919
53.1271 6.66849
53.1769 6.63766
53.2269 6.61984
53.2767 6.56645
53.3267 6.53443
53.3765 6.51795
53.4266 6.45877
53.4766 6.44857
53.5265 6.44526
53.5765 6.36682
53.6264 6.38539
53.6765 6.32641
53.7264 6.3067
53.7765 6.28431
53.8265 6.24106
53.8766 6.23062
53.9266 6.19221
53.9767 6.16294
54.0267 6.16859
54.0769 6.10183
54.1269 6.08091
54.1771 6.07849
54.2271 6.01709
54.2773 6.00037
54.3274 6.00164
54.3776 5.93166
54.4277 5.88284
54.478 5.90049
54.528 5.82979
54.5783 5.84792
54.6285 5.77774
54.6788 5.69945
54.7289 5.67414
54.7792 5.63959
54.8296 5.55499
54.8798 5.55775
54.9301 5.51182
54.9803 5.46645
55.0307 5.48184
55.0809 5.39774
55.1314 5.46549
55.1816 5.31794
55.232 5.27273
55.2823 5.25094
55.3328 5.19515
55.383 5.1527
55.4335 5.07056
55.4838 4.97279
55.5344 4.99445
55.5847 4.99292
55.6352 4.94546
55.6856 4.87747
55.7361 4.83417