File: XRD/Ni3Fe_FD0802.xy
TT I
1.27165 7.77776
1.31627 6.17627
1.36089 6.38186
1.40551 5.75087
1.45013 5.93946
1.49476 5.91865
1.53938 5.49405
1.584 5.31203
1.62863 5.51517
1.67325 5.16861
1.71787 5.11175
1.7625 5.00092
1.80712 4.6737
1.85174 5.26932
1.89636 4.84979
1.94099 4.99735
1.98562 4.76137
2.03025 4.47598
2.07487 4.72085
2.11949 4.91772
2.16411 4.51438
2.20874 9.65876
2.25338 12.874
2.298 5.32526
2.34263 5.71052
2.38725 6.07914
2.43188 5.87188
2.4765 6.54508
2.52115 7.07491
2.56577 7.467
2.6104 8.34756
2.65503 7.31271
2.69965 8.02453
2.7443 7.93462
2.78893 8.2689
2.83356 8.02804
2.87818 8.18832
2.92281 8.49159
2.96744 9.54468
3.01209 10.2333
3.05672 11.2419
3.10135 12.1336
3.14599 12.6604
3.19062 14.0317
3.23527 15.0422
3.2799 15.5373
3.32454 16.9755
3.36917 17.6548
3.4138 18.5618
3.45844 19.3715
3.50309 20.7209
3.54773 21.5299
3.59237 23.1745
3.637 56.7367
3.68164 41.3976
3.7263 26.0771
3.77094 25.5849
3.81558 26.426
3.86022 27.0759
3.90486 28.6823
3.9495 29.385
3.99416 30.765
4.0388 31.8731
4.08344 33.1556
4.12809 33.8015
4.17273 35.7264
4.21738 39.4401
4.26204 143.863
4.30669 124.625
4.35133 44.722
4.39598 43.1738
4.44063 48.9496
4.4853 55.6094
4.52995 54.193
4.5746 54.8115
4.61925 53.1256
4.6639 55.3195
4.70855 57.6924
4.75322 61.0114
4.79788 66.6287
4.84253 67.582
4.88719 73.2551
4.93184 75.7882
4.97652 80.3287
5.02118 86.2157
5.06583 93.9573
5.11049 104.937
5.15515 156.779
5.19981 384.096
5.24449 2813.16
5.28916 12348.5
5.33382 2539.84
5.37848 184.656
5.42315 127.783
5.46783 115.627
5.5125 108.665
5.55716 101.478
5.60183 97.0657
5.6465 95.6275
5.69117 93.6944
5.73586 91.64
5.78053 95.1344
5.8252 94.5685
5.86988 96.9932
5.91455 94.1034
5.95924 103.186
6.00392 234.635
6.0486 961.464
6.09328 4536.72
6.13795 3044.94
6.18263 205.743
6.22733 88.7807
6.27201 80.2342
6.3167 86.8444
6.36138 74.809
6.40606 68.8449
6.45075 67.9583
6.49545 64.7082
6.54014 62.9634
6.58483 62.0192
6.62952 62.1445
6.67421 76.6754
6.71892 99.4327
6.76361 63.2022
6.8083 58.9823
6.853 58.2655
6.89769 56.1754
6.94239 55.8158
6.98711 55.1432
7.03181 54.8318
7.07651 54.3705
7.12121 54.1609
7.16591 55.4943
7.21063 54.6283
7.25533 61.9312
7.30004 113.475
7.34475 72.1144
7.38945 54.9836
7.43416 53.4995
7.47889 53.58
7.5236 53.9068
7.56831 54.3508
7.61303 55.3224
7.65774 55.6937
7.70247 55.8821
7.74719 55.7017
7.79191 55.8776
7.83663 56.1467
7.88135 56.9439
7.92607 58.1338
7.97081 59.1779
8.01553 60.0715
8.06026 62.1377
8.10498 63.355
8.14971 70.3701
8.19446 70.2008
8.23919 68.7155
8.28392 71.2111
8.32865 73.5801
8.37339 77.8184
8.41812 83.3328
8.46288 103.912
8.50761 175.638
8.55235 384.139
8.59709 1215.94
8.64183 2185.65
8.68658 843.351
8.73134 147.145
8.77609 96.9876
8.82083 91.669
8.86558 90.6738
8.91033 90.1554
8.9551 88.7292
8.99985 84.287
9.04461 83.0408
9.08936 83.2432
9.13412 82.0913
9.17888 81.3708
9.22365 81.8923
9.26841 81.4581
9.31318 83.1472
9.35794 84.5231
9.4027 84.0294
9.44749 83.6618
9.49226 83.7944
9.53703 84.907
9.5818 87.8375
9.62657 92.55
9.67134 94.5549
9.71614 92.2098
9.76091 93.7751
9.80569 97.7724
9.85047 100.152
9.89525 113.542
9.94005 127.052
9.98484 187.698
10.0296 343.302
10.0744 826.338
10.1192 1791.13
10.164 1507.7
10.2088 343.226
10.2536 119.646
10.2984 108.78
10.3432 108.968
10.388 103.909
10.4328 120.927
10.4776 160.997
10.5224 290.871
10.5672 531.73
10.612 484.876
10.6568 186.558
10.7017 93.7202
10.7465 84.988
10.7913 81.842
10.8361 79.9583
10.8809 77.7196
10.9257 77.4871
10.9706 77.1453
11.0154 74.3838
11.0602 72.1695
11.105 70.8385
11.1499 72.2982
11.1947 75.3634
11.2395 70.4119
11.2844 68.2703
11.3292 66.2383
11.374 65.2819
11.4189 64.9844
11.4637 64.3338
11.5086 63.7801
11.5534 64.9811
11.5983 63.623
11.6431 62.4728
11.688 61.9204
11.7328 61.9732
11.7777 62.0239
11.8225 61.9215
11.8674 61.4139
11.9122 62.3426
11.9571 62.2133
12.002 63.7175
12.0468 68.1878
12.0917 77.8308
12.1366 102.394
12.1814 157.214
12.2263 213.875
12.2712 166.472
12.3161 88.1881
12.3609 66.7312
12.4058 63.5693
12.4507 63.496
12.4956 64.0825
12.5405 63.784
12.5853 64.4632
12.6302 68.3567
12.6751 71.301
12.72 67.7305
12.7649 67.1047
12.8098 67.6767
12.8547 69.4426
12.8996 70.6786
12.9445 72.1403
12.9894 73.5786
13.0343 75.3858
13.0792 79.322
13.1242 90.8904
13.1691 111.101
13.214 148.756
13.2589 247.323
13.3038 388.726
13.3487 417.326
13.3937 240.579
13.4386 117.504
13.4835 105.666
13.5285 119.471
13.5734 159.292
13.6183 256.5
13.6633 365.111
13.7082 327.493
13.7531 167.732
13.7981 92.2114
13.843 80.4834
13.888 78.6981
13.9329 76.4505
13.9779 75.1012
14.0228 73.5389
14.0678 72.0622
14.1127 71.496
14.1577 71.2404
14.2027 70.5381
14.2476 69.3006
14.2926 69.3146
14.3376 69.7965
14.3825 69.1545
14.4275 68.2536
14.4725 67.8809
14.5175 68.0865
14.5624 68.0984
14.6074 69.1941
14.6524 70.1609
14.6974 69.825
14.7424 72.9319
14.7874 79.1533
14.8324 88.4843
14.8774 111.415
14.9224 158.325
14.9674 216.38
15.0124 218.77
15.0574 141.06
15.1024 86.2042
15.1474 71.1515
15.1924 69.4151
15.2374 69.0912
15.2824 68.2026
15.3274 66.8411
15.3725 66.0285
15.4175 65.5782
15.4625 65.0419
15.5076 65.1421
15.5526 65.0875
15.5976 65.4005
15.6426 67.2177
15.6877 72.3147
15.7327 79.1711
15.7778 94.9408
15.8228 129.281
15.8679 178.963
15.9129 197.618
15.958 145.802
16.003 88.6117
16.0481 65.5024
16.0931 62.433
16.1382 60.7116
16.1833 59.5148
16.2283 58.0584
16.2734 57.3887
16.3185 57.5621
16.3636 57.3113
16.4086 56.3712
16.4537 55.5493
16.4988 54.685
16.5439 54.6622
16.589 54.5245
16.6341 54.2541
16.6792 54.0587
16.7243 54.1849
16.7694 54.0151
16.8145 54.1465
16.8596 54.2029
16.9047 54.9394
16.9498 55.4048
16.9949 54.6859
17.04 55.4038
17.0851 56.7293
17.1302 58.1133
17.1754 61.1267
17.2205 66.8256
17.2656 75.1231
17.3108 83.6716
17.3559 81.0316
17.401 68.653
17.4462 60.4523
17.4913 58.5054
17.5365 58.4405
17.5815 58.6209
17.6268 59.0098
17.6718 59.745
17.7171 59.9514
17.7622 60.6927
17.8074 61.8405
17.8525 64.2577
17.8977 67.832
17.9428 73.0353
17.9881 82.8331
18.0331 101.448
18.0784 125.565
18.1237 141.177
18.1688 127.01
18.214 99.0965
18.2591 84.7663
18.3044 91.1301
18.3495 101.772
18.3948 105.416
18.4399 92.4085
18.4852 74.3557
18.5303 64.3586
18.5756 61.291
18.6207 60.3636
18.666 59.8435
18.7112 58.972
18.7565 58.2969
18.8016 57.9591
18.8469 57.3692
18.892 56.961
18.9374 56.6003
18.9825 56.2929
19.0278 56.182
19.073 56.4543
19.1183 56.7625
19.1635 57.3012
19.2088 58.5235
19.254 61.5802
19.2993 66.4574
19.3447 72.4529
19.3898 75.7283
19.4352 70.2732
19.4804 61.1665
19.5257 55.4931
19.5709 53.3877
19.6163 53.286
19.6615 52.9519
19.7068 52.7565
19.752 52.712
19.7974 53.1087
19.8426 53.8269
19.888 54.5096
19.9332 55.7457
19.9786 58.6445
20.0238 62.6134
20.0692 67.7069
20.1144 69.8513
20.1598 67.0081
20.205 62.3489
20.2504 61.9011
20.2957 63.9071
20.3411 65.5114
20.3863 62.7879
20.4318 56.8381
20.477 52.5975
20.5224 50.8094
20.5677 50.0884
20.6131 49.4968
20.6586 49.0297
20.7038 49.011
20.7493 48.5551
20.7945 48.3772
20.84 48.224
20.8853 48.0319
20.9307 48.1042
20.976 48.2855
21.0215 47.9357
21.0668 48.5521
21.1122 48.9097
21.1575 49.6349
21.203 50.5749
21.2483 50.9424
21.2938 50.9725
21.3391 49.3308
21.3846 48.4333
21.4299 47.9117
21.4754 47.9402
21.5207 48.0492
21.5662 48.4229
21.6116 48.7958
21.6571 49.3875
21.7024 50.3939
21.7479 52.2587
21.7933 55.2337
21.8388 59.1865
21.8843 62.8676
21.9297 64.2967
21.9752 61.956
22.0206 58.2221
22.0661 55.7548
22.1115 55.8763
22.157 55.4985
22.2024 53.1996
22.248 50.5488
22.2933 49.2474
22.3389 48.5396
22.3843 48.3145
22.4299 48.2786
22.4753 48.2994
22.5208 48.0242
22.5662 48.0573
22.6118 48.301
22.6572 48.4793
22.7028 48.8202
22.7483 49.199
22.7939 49.9611
22.8393 51.7607
22.8849 54.0419
22.9303 56.1063
22.9759 57.4708
23.0214 56.5776
23.067 53.4773
23.1126 50.3191
23.1581 48.5771
23.2037 48.2258
23.2492 48.4441
23.2948 48.3804
23.3403 48.5447
23.3859 49.2597
23.4314 50.4208
23.477 52.4118
23.5225 54.7066
23.5682 57.1896
23.6137 57.548
23.6593 54.4806
23.7048 50.284
23.7505 47.3774
23.796 46.1783
23.8417 45.3946
23.8872 44.917
23.9329 44.731
23.9784 44.4646
24.0241 44.1141
24.0697 43.9264
24.1154 43.6225
24.1609 43.4431
24.2066 43.3075
24.2522 43.3192
24.2979 42.9585
24.3434 42.8776
24.3892 42.6732
24.4349 42.6673
24.4805 42.5111
24.5262 42.6413
24.5718 42.5312
24.6175 42.6197
24.6631 42.4449
24.7089 42.0078
24.7545 41.9376
24.8002 41.8204
24.8458 41.8027
24.8916 41.632
24.9372 41.7565
24.983 42.1117
25.0286 42.4706
25.0744 42.8528
25.12 43.3977
25.1658 43.9469
25.2114 44.0982
25.2572 44.3339
25.3029 44.4725
25.3487 44.5446
25.3943 44.1939
25.4402 42.8137
25.4858 41.8574
25.5316 40.8081
25.5773 40.5479
25.6231 40.4817
25.669 40.0792
25.7147 40.1626
25.7605 40.015
25.8062 40.0144
25.8521 40.0394
25.8977 40.2122
25.9436 40.4522
25.9893 40.7938
26.0352 41.1743
26.0809 41.2469
26.1268 41.2654
26.1725 40.8201
26.2184 40.1839
26.2641 39.8716
26.31 39.6671
26.3557 39.6581
26.4017 39.8279
26.4474 39.9457
26.4933 40.3247
26.5391 40.8591
26.585 41.3563
26.6308 41.6662
26.6767 41.7069
26.7225 41.5498
26.7684 40.8376
26.8142 40.4809
26.8601 39.9809
26.9059 39.6833
26.9519 39.0647
26.9979 38.8181
27.0437 38.4954
27.0896 38.4177
27.1354 38.2847
27.1814 38.1824
27.2272 38.0346
27.2732 38.1159
27.3191 37.942
27.3651 38.1505
27.4109 37.9601
27.4569 38.2465
27.5027 38.1602
27.5488 38.3093
27.5946 38.0005
27.6407 37.8132
27.6865 37.6959
27.7326 37.5013
27.7784 37.544
27.8245 37.5276
27.8703 37.6216
27.9164 37.9473
27.9623 38.0673
28.0084 38.4667
28.0543 38.875
28.1003 38.5735
28.1462 38.2673
28.1923 38.0438
28.2384 37.5235
28.2843 37.1826
28.3304 36.5985
28.3764 36.3107
28.4225 36.047
28.4684 35.8508
28.5145 35.4964
28.5605 35.4918
28.6066 35.3553
28.6526 35.2897
28.6987 35.3034
28.7447 35.1733
28.7908 35.0138
28.8368 35.1694
28.8829 35.1418
28.9289 34.972
28.9751 34.8703
29.0211 34.5794
29.0673 34.278
29.1133 34.146
29.1595 34.05
29.2055 34.0326
29.2517 34.059
29.2977 33.9181
29.3439 33.9728
29.3899 33.8245
29.4361 33.8172
29.4824 33.546
29.5284 33.3272
29.5746 32.9967
29.6207 32.7578
29.6669 32.8396
29.713 32.5849
29.7593 32.4868
29.8053 32.5629
29.8516 32.5316
29.8977 32.4461
29.9439 32.2743
29.99 32.2527
30.0363 32.1394
30.0824 32.0903
30.1287 32.0058
30.1748 32.1065
30.2211 32.1414
30.2673 31.9035
30.3136 32.0341
30.3597 31.932
30.406 31.857
30.4522 31.8338
30.4985 31.7248
30.5447 31.8738
30.591 31.8032
30.6372 31.9682
30.6835 31.8545
30.7297 31.9822
30.7761 31.8469
30.8224 31.7206
30.8686 31.5782
30.915 31.285
30.9612 31.1488
31.0076 31.0001
31.0538 30.9035
31.1002 30.7541
31.1464 30.6893
31.1928 30.6317
31.2391 30.6669
31.2855 30.6495
31.3317 30.6493
31.3781 30.6496
31.4244 30.5077
31.4708 30.5678
31.5171 30.5674
31.5636 30.4846
31.6098 30.2632
31.6563 30.0376
31.7026 29.9153
31.7491 29.8746
31.7953 29.9981
31.8418 29.8692
31.8881 29.8947
31.9346 29.7763
31.9809 29.7497
32.0275 29.6745
32.074 29.4989
32.1203 29.2761
32.1668 29.2
32.2132 29.1129
32.2597 28.9608
32.306 28.8289
32.3526 28.7279
32.399 28.6478
32.4455 28.5484
32.4919 28.3793
32.5385 28.3548
32.5848 28.2008
32.6314 28.2602
32.6778 28.17
32.7244 28.0295
32.7708 27.8826
32.8174 27.8269
32.8638 27.702
32.9104 27.7622
32.9569 27.6741
33.0035 27.6098
33.0499 27.5676
33.0966 27.5052
33.143 27.5256
33.1897 27.5491
33.2361 27.2634
33.2828 27.3641
33.3293 27.0987
33.3759 27.099
33.4226 26.9426
33.4691 26.9122
33.5158 26.6997
33.5623 26.6685
33.609 26.463
33.6555 26.3412
33.7022 26.3202
33.7487 26.2076
33.7954 26.2118
33.842 26.0566
33.8887 26.1459
33.9353 26.0041
33.982 25.837
34.0286 25.7598
34.0753 25.7293
34.1219 25.6853
34.1687 25.6323
34.2152 25.4972
34.262 25.3961
34.3086 25.3195
34.3554 25.2942
34.402 25.0871
34.4488 25.0791
34.4954 24.9429
34.5422 24.8614
34.5889 24.7526
34.6357 24.6804
34.6825 24.6544
34.7292 24.6242
34.776 24.5338
34.8227 24.4339
34.8695 24.4112
34.9162 24.3564
34.9631 24.2484
35.0098 24.1939
35.0566 24.0497
35.1033 24.0532
35.1502 24.0005
35.1969 23.9312
35.2438 23.9012
35.2906 23.8012
35.3375 23.8359
35.3842 23.7866
35.4311 23.782
35.4779 23.7009
35.5248 23.6721
35.5716 23.5596
35.6185 23.4512
35.6653 23.3468
35.7123 23.2744
35.759 23.2629
35.806 23.1348
35.8528 23.0037
35.8998 23.0078
35.9468 22.8347
35.9936 22.8664
36.0406 22.8004
36.0874 22.7335
36.1345 22.6912
36.1813 22.5174
36.2283 22.4719
36.2752 22.406
36.3222 22.4019
36.3691 22.3093
36.4161 22.1661
36.463 22.2182
36.5101 22.1234
36.557 22.1251
36.6041 21.9522
36.651 21.9952
36.6981 21.9439
36.745 21.8927
36.7921 21.741
36.839 21.6536
36.8861 21.6282
36.9331 21.546
36.9802 21.4188
37.0272 21.3321
37.0743 21.3207
37.1213 21.2533
37.1684 21.2036
37.2154 21.2053
37.2626 21.0438
37.3098 21.0546
37.3568 20.9582
37.404 20.8558
37.451 20.7449
37.4982 20.787
37.5452 20.6463
37.5924 20.5738
37.6395 20.6227
37.6867 20.5479
37.7337 20.4105
37.781 20.3362
37.8281 20.3194
37.8753 20.1613
37.9224 20.1447
37.9697 20.0809
38.0168 19.9795
38.064 19.9267
38.1111 19.9189
38.1584 19.8358
38.2056 19.8029
38.2529 19.7194
38.3 19.6589
38.3473 19.668
38.3945 19.4401
38.4418 19.4664
38.489 19.4174
38.5363 19.3118
38.5837 19.2486
38.6309 19.2135
38.6782 19.2048
38.7254 19.0571
38.7728 19.0525
38.82 18.9419
38.8674 18.957
38.9146 18.8695
38.9621 18.7326
39.0093 18.7738
39.0567 18.6844
39.104 18.6296
39.1514 18.4658
39.1987 18.478
39.2461 18.4603
39.2934 18.4361
39.3409 18.2716
39.3882 18.2392
39.4356 18.1581
39.483 18.0838
39.5304 18.0722
39.5778 18.0496
39.6253 17.9769
39.6726 17.918
39.7201 17.866
39.7675 17.7464
39.815 17.7234
39.8624 17.6834
39.9099 17.6819
39.9575 17.565
40.0049 17.4846
40.0525 17.4238
40.0999 17.4325
40.1474 17.3401
40.1949 17.2454
40.2425 17.2168
40.2899 17.175
40.3375 17.1012
40.385 17.1277
40.4326 16.9596
40.48 16.9461
40.5277 16.9392
40.5752 16.8475
40.6228 16.766
40.6703 16.7009
40.718 16.629
40.7655 16.6677
40.8132 16.5976
40.8607 16.5605
40.9084 16.4809
40.9559 16.4506
41.0036 16.3723
41.0512 16.3574
41.0989 16.3146
41.1465 16.3096
41.1942 16.172
41.242 16.0973
41.2896 16.0269
41.3373 15.9965
41.3849 15.9401
41.4327 15.9349
41.4803 15.8221
41.5281 15.7561
41.5758 15.7309
41.6236 15.6764
41.6712 15.6228
41.7191 15.6158
41.7667 15.4968
41.8146 15.4862
41.8622 15.3824
41.9101 15.3861
41.9578 15.2979
42.0057 15.2692
42.0534 15.2598
42.1013 15.1702
42.149 15.124
42.1969 15.0606
42.2446 15.0471
42.2925 14.9696
42.3403 14.9273
42.3882 14.916
42.436 14.7985
42.4839 14.7768
42.5319 14.7192
42.5797 14.667
42.6277 14.6113
42.6755 14.5521
42.7235 14.4585
42.7713 14.4866
42.8193 14.4303
42.8671 14.3473
42.9152 14.3079
42.963 14.2631
43.0111 14.2294
43.0589 14.15
43.107 14.1563
43.1549 14.0687
43.2029 14.0331
43.2508 14.0212
43.2989 13.8943
43.3468 13.8689
43.3949 13.8518
43.4429 13.7852
43.491 13.7165
43.5389 13.6944
43.5871 13.6526
43.635 13.5508
43.6832 13.5729
43.7312 13.5286
43.7793 13.4413
43.8273 13.426
43.8755 13.3553
43.9237 13.3069
43.9717 13.2749
44.0199 13.1808
44.068 13.207
44.1162 13.1399
44.1642 13.0759
44.2125 13.0453
44.2606 12.9999
44.3088 12.9241
44.3569 12.9009
44.4052 12.8874
44.4533 12.7818
44.5016 12.7776
44.5497 12.7318
44.598 12.7229
44.6461 12.6487
44.6945 12.5891
44.7426 12.5548
44.791 12.5255
44.8391 12.4415
44.8875 12.4206
44.9357 12.3917
44.984 12.3323
45.0322 12.2878
45.0806 12.2727
45.1288 12.2069
45.1773 12.1913
45.2257 12.1385
45.2739 12.0467
45.3224 12.0622
45.3706 11.996
45.4191 11.9471
45.4673 11.9132
45.5158 11.8657
45.5641 11.7911
45.6126 11.7909
45.6609 11.6915
45.7094 11.6987
45.7577 11.6413
45.8063 11.6154
45.8546 11.6186
45.9031 11.5462
45.9515 11.495
46.0001 11.4724
46.0484 11.4186
46.097 11.3603
46.1454 11.3343
46.194 11.2946
46.2424 11.2717
46.291 11.2333
46.3395 11.1687
46.3881 11.0954
46.4365 11.1048
46.4852 11.041
46.5337 11.0226
46.5823 10.9762
46.631 10.9168
46.6795 10.902
46.7282 10.8597
46.7767 10.7963
46.8254 10.7378
46.8739 10.6909
46.9226 10.6958
46.9712 10.645
47.0199 10.6037
47.0685 10.5445
47.1173 10.5171
47.1658 10.4824
47.2146 10.4647
47.2632 10.3921
47.312 10.3849
47.3606 10.347
47.4095 10.2911
47.4581 10.2674
47.5069 10.2368
47.5556 10.2059
47.6044 10.1483
47.6531 10.0654
47.702 10.0529
47.7507 10.0445
47.7996 10.0053
47.8483 9.93434
47.8972 9.94489
47.9461 9.87462
47.9948 9.82964
48.0438 9.78858
48.0925 9.81095
48.1415 9.73249
48.1902 9.67832
48.2392 9.68717
48.288 9.66408
48.337 9.63325
48.3858 9.5809
48.4348 9.53628
48.4837 9.56016
48.5327 9.50242
48.5815 9.42442
48.6306 9.40092
48.6795 9.38673
48.7285 9.31437
48.7774 9.32902
48.8265 9.2788
48.8754 9.18814
48.9245 9.20626
48.9734 9.17377
49.0226 9.16005
49.0715 9.06588
49.1206 9.07467
49.1696 9.00309
49.2188 8.97008
49.2679 8.95406
49.3169 8.89298
49.3661 8.87715
49.4151 8.8287
49.4643 8.85315
49.5134 8.77297
49.5626 8.69177
49.6117 8.70951
49.6609 8.68041
49.71 8.63721
49.7592 8.6167
49.8083 8.54813
49.8576 8.55218
49.9067 8.50832
49.956 8.46661
50.0052 8.45044
50.0545 8.40754
50.1036 8.37116
50.153 8.34884
50.2022 8.32781
50.2515 8.26677
50.3007 8.22197
50.3501 8.20294
50.3993 8.15722
50.4487 8.15427
50.498 8.12001
50.5474 8.11017
50.5966 8.06272
50.6461 8.03589
50.6955 8.02521
50.7448 7.98473
50.7943 7.94227
50.8436 7.89481
50.8931 7.88838
50.9424 7.84557
50.9919 7.79165
51.0413 7.79638
51.0908 7.75265
51.1402 7.75667
51.1897 7.71186
51.2391 7.64502
51.2887 7.59136
51.3381 7.61187
51.3877 7.57915
51.4371 7.53662
51.4867 7.46878
51.5362 7.45243
51.5858 7.42359
51.6353 7.40142
51.6849 7.38566
51.7344 7.35373
51.7841 7.35616
51.8336 7.30658
51.8833 7.26654
51.9328 7.21065
51.9826 7.19068
52.0323 7.14251
52.0818 7.15003
52.1316 7.07481
52.1812 7.09758
52.231 7.05004
52.2806 7.01803
52.3304 6.97213
52.38 6.96953
52.4298 6.91679
52.4794 6.92492
52.5293 6.88063
52.5789 6.83461
52.6288 6.83952
52.6785 6.79433
52.7284 6.78681
52.7781 6.72791
52.828 6.7295
52.8777 6.67764
52.9276 6.65093
52.9774 6.63135
53.0273 6.6239
53.0771 6.55672
53.1271 6.54102
53.1769 6.5267
53.2269 6.49402
53.2767 6.44133
53.3267 6.41528
53.3765 6.36623
53.4266 6.42742
53.4766 6.35872
53.5265 6.27335
53.5765 6.24263
53.6264 6.29051
53.6765 6.26235
53.7264 6.21505
53.7765 6.13047
53.8265 6.15537
53.8766 6.12203
53.9266 6.06131
53.9767 6.08121
54.0267 6.08448
54.0769 6.0253
54.1269 6.00729
54.1771 5.93711
54.2271 5.88704
54.2773 5.9143
54.3274 5.90288
54.3776 5.8106
54.4277 5.79376
54.478 5.75916
54.528 5.7632
54.5783 5.67388
54.6285 5.64561
54.6788 5.61252
54.7289 5.5937
54.7792 5.57108
54.8296 5.5038
54.8798 5.49851
54.9301 5.40685
54.9803 5.41896
55.0307 5.32856
55.0809 5.3044
55.1314 5.33126
55.1816 5.17305
55.232 5.1961
55.2823 5.13254
55.3328 5.0841
55.383 5.04627
55.4335 5.01106
55.4838 5.00917
55.5344 4.86545
55.5847 4.86788
55.6352 4.833
55.6856 4.78184
55.7361 4.78096