File: XRD/Ni3Fe_FD0436.xy
TT I
1.27165 7.07913
1.31627 6.96103
1.36089 6.90095
1.40551 6.25926
1.45013 6.20606
1.49476 6.55645
1.53938 6.29265
1.584 5.20346
1.62863 5.51155
1.67325 4.79467
1.71787 5.34929
1.7625 4.83991
1.80712 4.89191
1.85174 4.85521
1.89636 4.65647
1.94099 5.66028
1.98562 4.83959
2.03025 4.57034
2.07487 4.86162
2.11949 5.30341
2.16411 4.43713
2.20874 13.0942
2.25338 20.6582
2.298 5.36957
2.34263 4.66011
2.38725 6.16389
2.43188 5.32243
2.4765 6.43202
2.52115 6.45543
2.56577 6.55429
2.6104 7.55473
2.65503 6.85653
2.69965 7.33438
2.7443 7.6814
2.78893 8.27158
2.83356 8.31529
2.87818 9.02184
2.92281 9.24581
2.96744 9.40998
3.01209 10.5338
3.05672 10.7582
3.10135 12.2183
3.14599 13.2008
3.19062 13.786
3.23527 15.2095
3.2799 15.8431
3.32454 16.8322
3.36917 17.7596
3.4138 18.9899
3.45844 19.8913
3.50309 20.9149
3.54773 21.9643
3.59237 23.6887
3.637 83.8392
3.68164 53.7025
3.7263 26.034
3.77094 26.1168
3.81558 26.8908
3.86022 27.959
3.90486 29.2224
3.9495 30.0012
3.99416 31.1533
4.0388 32.9107
4.08344 33.913
4.12809 35.4321
4.17273 37.4953
4.21738 42.5807
4.26204 221.508
4.30669 188.51
4.35133 48.1776
4.39598 45.1629
4.44063 53.4803
4.4853 63.4475
4.52995 51.1677
4.5746 51.5712
4.61925 54.6646
4.6639 56.4913
4.70855 58.9469
4.75322 61.7744
4.79788 64.992
4.84253 68.5366
4.88719 72.9766
4.93184 77.0867
4.97652 82.5584
5.02118 89.4736
5.06583 98.2227
5.11049 111.472
5.15515 179.915
5.19981 451.583
5.24449 3275.72
5.28916 11649.0
5.33382 3130.04
5.37848 206.555
5.42315 134.088
5.46783 117.188
5.5125 108.942
5.55716 104.174
5.60183 100.398
5.6465 98.7117
5.69117 96.4587
5.73586 94.3681
5.78053 94.1854
5.8252 93.7203
5.86988 95.4497
5.91455 98.5953
5.95924 109.236
6.00392 252.679
6.0486 1127.34
6.09328 4321.79
6.13795 3425.78
6.18263 272.996
6.22733 97.3915
6.27201 84.819
6.3167 99.8483
6.36138 80.3986
6.40606 70.1937
6.45075 68.7804
6.49545 66.4702
6.54014 64.8536
6.58483 63.8874
6.62952 63.4618
6.67421 90.4247
6.71892 133.085
6.76361 67.827
6.8083 59.5165
6.853 58.2438
6.89769 57.8594
6.94239 57.3253
6.98711 56.7149
7.03181 56.6622
7.07651 56.1591
7.12121 55.8699
7.16591 55.9943
7.21063 56.1543
7.25533 69.2909
7.30004 160.138
7.34475 86.8118
7.38945 56.9874
7.43416 55.3748
7.47889 55.3019
7.5236 55.8332
7.56831 56.1005
7.61303 57.7032
7.65774 57.6645
7.70247 57.1169
7.74719 57.194
7.79191 57.5667
7.83663 57.9
7.88135 58.9682
7.92607 59.8287
7.97081 60.6185
8.01553 61.8473
8.06026 63.7216
8.10498 64.8307
8.14971 73.3713
8.19446 72.5354
8.23919 70.9933
8.28392 73.3933
8.32865 75.4746
8.37339 79.9676
8.41812 87.3011
8.46288 115.1
8.50761 187.548
8.55235 442.796
8.59709 1220.4
8.64183 2159.54
8.68658 1030.83
8.73134 177.335
8.77609 102.17
8.82083 94.3454
8.86558 91.6523
8.91033 91.153
8.9551 92.2981
8.99985 86.7714
9.04461 85.2391
9.08936 84.364
9.13412 83.2569
9.17888 83.4332
9.22365 83.9684
9.26841 83.4606
9.31318 84.3653
9.35794 84.0287
9.4027 84.5198
9.44749 85.2465
9.49226 86.2973
9.53703 86.9417
9.5818 89.1373
9.62657 93.024
9.67134 99.2336
9.71614 95.217
9.76091 95.9126
9.80569 98.1631
9.85047 102.243
9.89525 123.887
9.94005 137.968
9.98484 199.186
10.0296 387.958
10.0744 847.427
10.1192 1703.92
10.164 1634.82
10.2088 428.802
10.2536 132.076
10.2984 115.61
10.3432 115.668
10.388 106.88
10.4328 125.47
10.4776 173.62
10.5224 291.189
10.5672 507.226
10.612 499.258
10.6568 206.918
10.7017 98.5316
10.7465 88.3703
10.7913 84.8329
10.8361 82.1946
10.8809 80.1898
10.9257 79.3727
10.9706 79.9068
11.0154 75.988
11.0602 74.2152
11.105 73.0324
11.1499 76.637
11.1947 82.511
11.2395 74.7504
11.2844 71.2203
11.3292 68.389
11.374 67.0248
11.4189 66.7383
11.4637 65.9532
11.5086 66.2902
11.5534 68.6638
11.5983 66.4541
11.6431 64.6643
11.688 63.78
11.7328 63.8677
11.7777 63.9364
11.8225 63.5079
11.8674 63.4105
11.9122 64.1592
11.9571 64.1835
12.002 65.173
12.0468 70.5214
12.0917 82.8748
12.1366 107.572
12.1814 154.259
12.2263 203.75
12.2712 169.52
12.3161 96.8087
12.3609 71.2762
12.4058 65.8315
12.4507 65.0283
12.4956 65.4689
12.5405 65.7494
12.5853 66.4309
12.6302 73.5651
12.6751 78.0995
12.72 70.7025
12.7649 68.9749
12.8098 69.334
12.8547 70.7588
12.8996 72.1081
12.9445 73.6892
12.9894 75.6304
13.0343 77.2687
13.0792 80.8917
13.1242 92.4379
13.1691 119.44
13.214 158.96
13.2589 243.815
13.3038 363.352
13.3487 424.585
13.3937 270.663
13.4386 127.964
13.4835 111.036
13.5285 128.134
13.5734 166.275
13.6183 248.145
13.6633 340.247
13.7082 345.642
13.7531 194.695
13.7981 98.7905
13.843 83.3417
13.888 80.9795
13.9329 78.1613
13.9779 77.153
14.0228 75.5023
14.0678 74.3452
14.1127 73.8997
14.1577 73.4042
14.2027 72.5438
14.2476 71.6393
14.2926 71.7324
14.3376 72.8046
14.3825 71.3844
14.4275 70.0125
14.4725 69.8779
14.5175 70.3254
14.5624 70.4404
14.6074 72.4053
14.6524 73.058
14.6974 72.0318
14.7424 73.967
14.7874 81.9605
14.8324 93.4506
14.8774 115.298
14.9224 155.277
14.9674 203.962
15.0124 218.803
15.0574 153.579
15.1024 92.4012
15.1474 73.5558
15.1924 71.658
15.2374 72.2302
15.2824 71.2382
15.3274 69.2482
15.3725 68.1257
15.4175 67.5057
15.4625 66.9399
15.5076 67.4169
15.5526 67.4394
15.5976 67.3117
15.6426 68.5892
15.6877 75.1722
15.7327 83.6947
15.7778 99.2754
15.8228 128.02
15.8679 167.645
15.9129 192.312
15.958 159.175
16.003 97.1348
16.0481 69.0709
16.0931 65.3027
16.1382 63.4194
16.1833 61.3592
16.2283 60.1248
16.2734 59.1483
16.3185 59.6292
16.3636 59.9893
16.4086 58.5034
16.4537 57.349
16.4988 56.2694
16.5439 56.4521
16.589 56.0913
16.6341 56.0133
16.6792 55.5474
16.7243 55.6205
16.7694 55.8536
16.8145 55.9534
16.8596 56.2946
16.9047 57.4879
16.9498 57.73
16.9949 56.823
17.04 57.0115
17.0851 58.3546
17.1302 60.1939
17.1754 63.3316
17.2205 68.205
17.2656 74.9178
17.3108 82.2033
17.3559 82.839
17.401 72.2859
17.4462 63.0018
17.4913 60.3444
17.5365 60.1691
17.5815 60.1857
17.6268 60.4341
17.6718 61.2302
17.7171 61.9576
17.7622 62.426
17.8074 62.9836
17.8525 65.9698
17.8977 70.6569
17.9428 76.4358
17.9881 85.4122
18.0331 101.527
18.0784 120.684
18.1237 139.281
18.1688 133.011
18.214 106.815
18.2591 88.5708
18.3044 91.5048
18.3495 100.25
18.3948 107.009
18.4399 98.0075
18.4852 78.9922
18.5303 66.9469
18.5756 63.1955
18.6207 62.2404
18.666 61.6453
18.7112 60.6761
18.7565 60.059
18.8016 59.6981
18.8469 59.0759
18.892 58.6556
18.9374 58.3796
18.9825 57.9998
19.0278 57.9691
19.073 58.017
19.1183 58.6623
19.1635 59.2563
19.2088 61.048
19.254 63.6075
19.2993 67.6329
19.3447 73.4315
19.3898 77.4982
19.4352 73.5093
19.4804 64.2901
19.5257 57.5186
19.5709 55.0413
19.6163 55.0137
19.6615 54.7336
19.7068 54.2808
19.752 54.2323
19.7974 54.6806
19.8426 55.6685
19.888 56.2537
19.9332 57.6533
19.9786 59.9159
20.0238 63.3515
20.0692 68.0498
20.1144 70.963
20.1598 69.4985
20.205 64.6817
20.2504 62.8589
20.2957 64.6752
20.3411 66.4057
20.3863 65.0642
20.4318 59.6334
20.477 54.6636
20.5224 52.5379
20.5677 51.8166
20.6131 51.0853
20.6586 50.6075
20.7038 50.6266
20.7493 49.9166
20.7945 49.9141
20.84 49.7013
20.8853 49.4123
20.9307 49.3778
20.976 49.6867
21.0215 49.5427
21.0668 49.8751
21.1122 50.3019
21.1575 51.0104
21.203 51.6038
21.2483 52.2501
21.2938 52.3672
21.3391 51.138
21.3846 49.7749
21.4299 49.4718
21.4754 49.3486
21.5207 49.4711
21.5662 49.881
21.6116 50.3041
21.6571 51.0547
21.7024 52.3499
21.7479 54.0265
21.7933 56.3351
21.8388 59.9442
21.8843 63.4056
21.9297 65.5093
21.9752 64.523
22.0206 60.7555
22.0661 57.1907
22.1115 56.7596
22.157 56.7021
22.2024 55.4061
22.248 52.4564
22.2933 50.7015
22.3389 49.894
22.3843 49.8665
22.4299 49.759
22.4753 49.7679
22.5208 49.5155
22.5662 49.331
22.6118 49.5337
22.6572 49.898
22.7028 50.2173
22.7483 50.8116
22.7939 51.3018
22.8393 53.1541
22.8849 54.8997
22.9303 56.714
22.9759 58.7488
23.0214 58.2071
23.067 55.5755
23.1126 52.0017
23.1581 50.0964
23.2037 49.7025
23.2492 49.7889
23.2948 49.8977
23.3403 50.144
23.3859 50.8775
23.4314 51.8478
23.477 53.6876
23.5225 55.406
23.5682 57.5143
23.6137 58.801
23.6593 56.7475
23.7048 52.7812
23.7505 49.192
23.796 47.3585
23.8417 46.8437
23.8872 46.2677
23.9329 45.9738
23.9784 45.7222
24.0241 45.3766
24.0697 45.3914
24.1154 44.93
24.1609 44.7621
24.2066 44.5789
24.2522 44.5397
24.2979 44.2921
24.3434 44.1221
24.3892 43.9916
24.4349 43.9158
24.4805 43.7949
24.5262 43.86
24.5718 43.7386
24.6175 43.7175
24.6631 43.5743
24.7089 43.308
24.7545 43.2823
24.8002 42.9019
24.8458 43.0673
24.8916 42.7159
24.9372 43.2301
24.983 43.386
25.0286 43.6841
25.0744 43.981
25.12 44.6125
25.1658 45.2297
25.2114 45.4906
25.2572 45.4583
25.3029 45.4995
25.3487 45.7605
25.3943 45.3918
25.4402 44.33
25.4858 43.1893
25.5316 42.3367
25.5773 41.7514
25.6231 41.6507
25.669 41.2872
25.7147 41.3697
25.7605 41.2193
25.8062 41.2663
25.8521 41.3796
25.8977 41.3273
25.9436 41.6452
25.9893 41.6721
26.0352 42.2391
26.0809 42.2583
26.1268 42.6036
26.1725 42.1499
26.2184 41.5497
26.2641 41.0389
26.31 40.8385
26.3557 40.828
26.4017 40.968
26.4474 41.1297
26.4933 41.489
26.5391 41.9819
26.585 42.3586
26.6308 42.7536
26.6767 42.9185
26.7225 42.6259
26.7684 42.1535
26.8142 41.709
26.8601 41.3016
26.9059 40.8442
26.9519 40.2634
26.9979 40.0114
27.0437 39.4983
27.0896 39.4359
27.1354 39.5394
27.1814 39.2925
27.2272 39.1748
27.2732 39.2868
27.3191 39.1709
27.3651 39.1585
27.4109 39.1473
27.4569 39.113
27.5027 39.2313
27.5488 39.29
27.5946 39.1798
27.6407 38.8289
27.6865 38.7696
27.7326 38.4996
27.7784 38.5714
27.8245 38.5861
27.8703 38.6697
27.9164 38.9405
27.9623 39.0383
28.0084 39.3851
28.0543 39.812
28.1003 39.7226
28.1462 39.5834
28.1923 39.1676
28.2384 38.548
28.2843 38.4262
28.3304 37.8928
28.3764 37.378
28.4225 37.1239
28.4684 36.9063
28.5145 36.5973
28.5605 36.5142
28.6066 36.4215
28.6526 36.2085
28.6987 36.2298
28.7447 36.2347
28.7908 35.955
28.8368 36.0164
28.8829 36.0041
28.9289 35.9702
28.9751 35.9224
29.0211 35.5826
29.0673 35.3256
29.1133 35.1984
29.1595 35.0486
29.2055 35.0315
29.2517 34.9796
29.2977 34.8796
29.3439 34.8391
29.3899 34.8824
29.4361 34.7425
29.4824 34.5246
29.5284 34.3195
29.5746 33.9861
29.6207 33.7222
29.6669 33.637
29.713 33.5069
29.7593 33.434
29.8053 33.5837
29.8516 33.3713
29.8977 33.3823
29.9439 33.1903
29.99 33.1435
30.0363 33.0391
30.0824 33.1674
30.1287 32.9575
30.1748 32.9104
30.2211 32.9593
30.2673 32.7739
30.3136 32.874
30.3597 32.8528
30.406 32.7173
30.4522 32.6638
30.4985 32.517
30.5447 32.733
30.591 32.7587
30.6372 32.79
30.6835 32.7068
30.7297 32.7672
30.7761 32.7203
30.8224 32.5494
30.8686 32.4218
30.915 32.1028
30.9612 32.0918
31.0076 31.8274
31.0538 31.634
31.1002 31.6282
31.1464 31.5345
31.1928 31.4081
31.2391 31.4297
31.2855 31.3899
31.3317 31.3091
31.3781 31.4848
31.4244 31.511
31.4708 31.3831
31.5171 31.2978
31.5636 31.345
31.6098 30.9892
31.6563 30.9113
31.7026 30.868
31.7491 30.6536
31.7953 30.6913
31.8418 30.6896
31.8881 30.7445
31.9346 30.5921
31.9809 30.4972
32.0275 30.446
32.074 30.3466
32.1203 30.1514
32.1668 30.1852
32.2132 29.9244
32.2597 29.8403
32.306 29.7213
32.3526 29.5347
32.399 29.4167
32.4455 29.2181
32.4919 29.128
32.5385 29.1343
32.5848 29.011
32.6314 29.047
32.6778 28.9416
32.7244 28.7471
32.7708 28.6401
32.8174 28.6853
32.8638 28.5796
32.9104 28.6037
32.9569 28.5579
33.0035 28.3239
33.0499 28.3365
33.0966 28.2759
33.143 28.237
33.1897 28.1598
33.2361 28.1018
33.2828 28.02
33.3293 27.8854
33.3759 27.9007
33.4226 27.7821
33.4691 27.5662
33.5158 27.552
33.5623 27.3658
33.609 27.2281
33.6555 27.1042
33.7022 27.1417
33.7487 26.9419
33.7954 26.8956
33.842 26.8447
33.8887 26.7688
33.9353 26.7339
33.982 26.6386
34.0286 26.5392
34.0753 26.488
34.1219 26.3889
34.1687 26.1434
34.2152 26.124
34.262 26.1307
34.3086 26.0417
34.3554 26.0077
34.402 25.8681
34.4488 25.756
34.4954 25.6905
34.5422 25.6068
34.5889 25.4325
34.6357 25.3801
34.6825 25.3424
34.7292 25.2563
34.776 25.1917
34.8227 25.1497
34.8695 25.0312
34.9162 25.0089
34.9631 24.9453
35.0098 24.9126
35.0566 24.6853
35.1033 24.7075
35.1502 24.6874
35.1969 24.5975
35.2438 24.5098
35.2906 24.4625
35.3375 24.4147
35.3842 24.3991
35.4311 24.3918
35.4779 24.4192
35.5248 24.3881
35.5716 24.173
35.6185 24.1845
35.6653 23.9652
35.7123 23.9331
35.759 23.9221
35.806 23.7565
35.8528 23.6745
35.8998 23.6393
35.9468 23.4977
35.9936 23.522
36.0406 23.4712
36.0874 23.465
36.1345 23.3186
36.1813 23.1575
36.2283 23.0909
36.2752 23.0468
36.3222 23.0976
36.3691 22.9597
36.4161 22.7318
36.463 22.845
36.5101 22.7927
36.557 22.7294
36.6041 22.5534
36.651 22.5049
36.6981 22.5045
36.745 22.4183
36.7921 22.4088
36.839 22.2322
36.8861 22.1703
36.9331 22.0413
36.9802 22.0238
37.0272 21.9657
37.0743 21.9254
37.1213 21.8424
37.1684 21.8014
37.2154 21.6712
37.2626 21.6237
37.3098 21.561
37.3568 21.5652
37.404 21.4436
37.451 21.3239
37.4982 21.323
37.5452 21.1855
37.5924 21.2104
37.6395 21.1904
37.6867 21.0767
37.7337 20.9444
37.781 20.867
37.8281 20.8993
37.8753 20.7576
37.9224 20.7066
37.9697 20.6589
38.0168 20.5442
38.064 20.517
38.1111 20.4175
38.1584 20.3667
38.2056 20.2792
38.2529 20.2834
38.3 20.2112
38.3473 20.1157
38.3945 19.9695
38.4418 20.0163
38.489 19.9363
38.5363 19.7795
38.5837 19.7471
38.6309 19.7649
38.6782 19.6709
38.7254 19.6084
38.7728 19.5207
38.82 19.4483
38.8674 19.4102
38.9146 19.3884
38.9621 19.2943
39.0093 19.2551
39.0567 19.1475
39.104 19.1069
39.1514 19.0275
39.1987 19.0125
39.2461 18.9598
39.2934 18.8871
39.3409 18.7591
39.3882 18.6778
39.4356 18.6913
39.483 18.6324
39.5304 18.5678
39.5778 18.575
39.6253 18.4672
39.6726 18.3726
39.7201 18.3265
39.7675 18.3095
39.815 18.2204
39.8624 18.1896
39.9099 18.1992
39.9575 18.0298
40.0049 17.9853
40.0525 17.9407
40.0999 17.8963
40.1474 17.8172
40.1949 17.7722
40.2425 17.68
40.2899 17.6766
40.3375 17.5834
40.385 17.5467
40.4326 17.5233
40.48 17.403
40.5277 17.4462
40.5752 17.2713
40.6228 17.2701
40.6703 17.1853
40.718 17.1485
40.7655 17.1757
40.8132 16.9947
40.8607 17.0315
40.9084 16.9987
40.9559 16.8626
41.0036 16.9049
41.0512 16.7823
41.0989 16.751
41.1465 16.6773
41.1942 16.6647
41.242 16.5348
41.2896 16.528
41.3373 16.3856
41.3849 16.4289
41.4327 16.3449
41.4803 16.2821
41.5281 16.2314
41.5758 16.1594
41.6236 16.099
41.6712 16.0244
41.7191 16.0075
41.7667 15.9351
41.8146 15.9533
41.8622 15.9015
41.9101 15.8087
41.9578 15.7129
42.0057 15.6311
42.0534 15.6376
42.1013 15.5992
42.149 15.4787
42.1969 15.4647
42.2446 15.4571
42.2925 15.4468
42.3403 15.3062
42.3882 15.3095
42.436 15.283
42.4839 15.1896
42.5319 15.1357
42.5797 15.0642
42.6277 14.9822
42.6755 14.9946
42.7235 14.9241
42.7713 14.9003
42.8193 14.8418
42.8671 14.7536
42.9152 14.7678
42.963 14.6605
43.0111 14.6391
43.0589 14.551
43.107 14.5025
43.1549 14.4745
43.2029 14.3979
43.2508 14.4301
43.2989 14.2858
43.3468 14.281
43.3949 14.2165
43.4429 14.1447
43.491 14.1167
43.5389 14.1284
43.5871 14.0459
43.635 13.9828
43.6832 13.9396
43.7312 13.8789
43.7793 13.8139
43.8273 13.7904
43.8755 13.6829
43.9237 13.716
43.9717 13.6773
44.0199 13.6251
44.068 13.5913
44.1162 13.4948
44.1642 13.4763
44.2125 13.4434
44.2606 13.3292
44.3088 13.3063
44.3569 13.2206
44.4052 13.2573
44.4533 13.1374
44.5016 13.124
44.5497 13.1359
44.598 13.0408
44.6461 12.9672
44.6945 12.9383
44.7426 12.896
44.791 12.8167
44.8391 12.8597
44.8875 12.7874
44.9357 12.7277
44.984 12.6768
45.0322 12.6249
45.0806 12.6043
45.1288 12.507
45.1773 12.4927
45.2257 12.4617
45.2739 12.4312
45.3224 12.3884
45.3706 12.3348
45.4191 12.2861
45.4673 12.2464
45.5158 12.2176
45.5641 12.159
45.6126 12.1019
45.6609 12.0493
45.7094 12.0006
45.7577 11.9876
45.8063 11.8909
45.8546 11.8916
45.9031 11.8009
45.9515 11.8012
46.0001 11.7629
46.0484 11.7522
46.097 11.6869
46.1454 11.67
46.194 11.626
46.2424 11.5656
46.291 11.5238
46.3395 11.4983
46.3881 11.4248
46.4365 11.4032
46.4852 11.3491
46.5337 11.2841
46.5823 11.3056
46.631 11.1956
46.6795 11.1606
46.7282 11.1294
46.7767 11.113
46.8254 11.0366
46.8739 11.0268
46.9226 10.9468
46.9712 10.9538
47.0199 10.8636
47.0685 10.8208
47.1173 10.8164
47.1658 10.735
47.2146 10.7776
47.2632 10.7018
47.312 10.6717
47.3606 10.5835
47.4095 10.5396
47.4581 10.5455
47.5069 10.4453
47.5556 10.4592
47.6044 10.4335
47.6531 10.3814
47.702 10.3372
47.7507 10.3252
47.7996 10.2645
47.8483 10.237
47.8972 10.2077
47.9461 10.1582
47.9948 10.0846
48.0438 10.0666
48.0925 10.0602
48.1415 10.0117
48.1902 9.95011
48.2392 9.97412
48.288 9.9135
48.337 9.87141
48.3858 9.83362
48.4348 9.77907
48.4837 9.80769
48.5327 9.7482
48.5815 9.6795
48.6306 9.66918
48.6795 9.63154
48.7285 9.58584
48.7774 9.56797
48.8265 9.5288
48.8754 9.48292
48.9245 9.41176
48.9734 9.41027
49.0226 9.40312
49.0715 9.34293
49.1206 9.30999
49.1696 9.28857
49.2188 9.2163
49.2679 9.20561
49.3169 9.15684
49.3661 9.13048
49.4151 9.11008
49.4643 9.08339
49.5134 9.04844
49.5626 8.93528
49.6117 8.92978
49.6609 8.93369
49.71 8.8937
49.7592 8.84359
49.8083 8.80252
49.8576 8.79304
49.9067 8.72827
49.956 8.72956
50.0052 8.71619
50.0545 8.63499
50.1036 8.60101
50.153 8.58176
50.2022 8.55957
50.2515 8.51679
50.3007 8.44514
50.3501 8.41662
50.3993 8.43175
50.4487 8.36463
50.498 8.37117
50.5474 8.32242
50.5966 8.28986
50.6461 8.24446
50.6955 8.23437
50.7448 8.20314
50.7943 8.16967
50.8436 8.10031
50.8931 8.09766
50.9424 8.09797
50.9919 8.07256
51.0413 8.00598
51.0908 7.94941
51.1402 7.97023
51.1897 7.89124
51.2391 7.84889
51.2887 7.83907
51.3381 7.82141
51.3877 7.79889
51.4371 7.77045
51.4867 7.713
51.5362 7.70684
51.5858 7.64134
51.6353 7.61161
51.6849 7.59505
51.7344 7.54151
51.7841 7.57181
51.8336 7.50506
51.8833 7.46337
51.9328 7.4268
51.9826 7.39387
52.0323 7.34518
52.0818 7.32306
52.1316 7.29781
52.1812 7.26991
52.231 7.20576
52.2806 7.24649
52.3304 7.16883
52.38 7.15783
52.4298 7.12549
52.4794 7.07554
52.5293 7.04024
52.5789 7.0645
52.6288 6.98547
52.6785 6.96455
52.7284 6.97137
52.7781 6.91197
52.828 6.91493
52.8777 6.84937
52.9276 6.84449
52.9774 6.82408
53.0273 6.77557
53.0771 6.76314
53.1271 6.76722
53.1769 6.67891
53.2269 6.66262
53.2767 6.63267
53.3267 6.59756
53.3765 6.58363
53.4266 6.5794
53.4766 6.52976
53.5265 6.47952
53.5765 6.47059
53.6264 6.46775
53.6765 6.42015
53.7264 6.35366
53.7765 6.40422
53.8265 6.31319
53.8766 6.28753
53.9266 6.29708
53.9767 6.24954
54.0267 6.22922
54.0769 6.22234
54.1269 6.15596
54.1771 6.1166
54.2271 6.12007
54.2773 6.04144
54.3274 6.05051
54.3776 5.99786
54.4277 5.97864
54.478 5.94324
54.528 5.86508
54.5783 5.80271
54.6285 5.79513
54.6788 5.77701
54.7289 5.75996
54.7792 5.702
54.8296 5.62282
54.8798 5.5692
54.9301 5.5737
54.9803 5.58229
55.0307 5.53378
55.0809 5.52248
55.1314 5.45557
55.1816 5.37507
55.232 5.31113
55.2823 5.31857
55.3328 5.25418
55.383 5.19945
55.4335 5.18983
55.4838 5.09061
55.5344 5.07111
55.5847 5.00464
55.6352 4.9804
55.6856 4.90092
55.7361 4.8971