File: XRD/Ni3Fe_FD0378.xy
TT I
1.27165 7.68269
1.31627 6.89683
1.36089 6.81891
1.40551 6.36194
1.45013 6.62364
1.49476 5.88497
1.53938 6.15528
1.584 5.57335
1.62863 5.33248
1.67325 4.82899
1.71787 5.68322
1.7625 4.65297
1.80712 4.87013
1.85174 4.74398
1.89636 5.23883
1.94099 5.2738
1.98562 4.63219
2.03025 4.51939
2.07487 4.51426
2.11949 5.30085
2.16411 5.09878
2.20874 13.2275
2.25338 19.7657
2.298 6.14223
2.34263 5.09904
2.38725 4.97612
2.43188 5.37275
2.4765 6.54889
2.52115 6.76729
2.56577 6.51678
2.6104 7.01445
2.65503 7.53111
2.69965 6.94608
2.7443 7.29862
2.78893 7.69681
2.83356 8.009
2.87818 8.54292
2.92281 9.35717
2.96744 9.38117
3.01209 10.5259
3.05672 11.3059
3.10135 12.5445
3.14599 12.6931
3.19062 13.6935
3.23527 14.9205
3.2799 16.2916
3.32454 16.8257
3.36917 17.6553
3.4138 19.3644
3.45844 19.8409
3.50309 20.9567
3.54773 22.064
3.59237 24.3658
3.637 82.9923
3.68164 52.5123
3.7263 26.3324
3.77094 26.542
3.81558 27.4444
3.86022 28.254
3.90486 29.4047
3.9495 30.1364
3.99416 31.2205
4.0388 32.8098
4.08344 33.9521
4.12809 35.445
4.17273 38.3277
4.21738 43.5237
4.26204 215.686
4.30669 184.887
4.35133 48.4463
4.39598 45.1998
4.44063 53.4569
4.4853 63.0059
4.52995 52.5111
4.5746 53.1284
4.61925 54.5363
4.6639 56.5308
4.70855 59.7927
4.75322 62.6367
4.79788 65.9318
4.84253 69.0719
4.88719 73.5162
4.93184 77.5568
4.97652 83.6981
5.02118 89.8436
5.06583 98.5434
5.11049 113.28
5.15515 180.971
5.19981 486.84
5.24449 3365.14
5.28916 11302.5
5.33382 3555.96
5.37848 225.8
5.42315 139.476
5.46783 121.603
5.5125 111.318
5.55716 106.694
5.60183 102.141
5.6465 99.9775
5.69117 97.9282
5.73586 95.6337
5.78053 96.2129
5.8252 95.7456
5.86988 96.8391
5.91455 99.3192
5.95924 110.848
6.00392 265.213
6.0486 1163.83
6.09328 4079.0
6.13795 3507.86
6.18263 312.497
6.22733 101.067
6.27201 86.7556
6.3167 100.641
6.36138 81.4651
6.40606 71.5776
6.45075 69.373
6.49545 67.0824
6.54014 65.5114
6.58483 64.5237
6.62952 64.4814
6.67421 89.1775
6.71892 129.742
6.76361 68.7079
6.8083 60.2449
6.853 58.5068
6.89769 58.4441
6.94239 58.0598
6.98711 56.991
7.03181 56.5817
7.07651 56.5935
7.12121 56.4034
7.16591 56.6425
7.21063 56.5745
7.25533 69.5185
7.30004 158.621
7.34475 85.8662
7.38945 57.4232
7.43416 55.8934
7.47889 55.7208
7.5236 55.9505
7.56831 56.6825
7.61303 58.0837
7.65774 58.5669
7.70247 57.6322
7.74719 57.1641
7.79191 57.8355
7.83663 58.1581
7.88135 59.2745
7.92607 60.2792
7.97081 61.3898
8.01553 62.5727
8.06026 63.9556
8.10498 65.2311
8.14971 74.1525
8.19446 73.3646
8.23919 71.3982
8.28392 73.7889
8.32865 76.275
8.37339 80.7838
8.41812 87.9607
8.46288 115.435
8.50761 191.411
8.55235 456.856
8.59709 1175.5
8.64183 2041.36
8.68658 1183.58
8.73134 199.831
8.77609 105.053
8.82083 96.4712
8.86558 92.8492
8.91033 92.6553
8.9551 92.9684
8.99985 87.6853
9.04461 85.9284
9.08936 85.3051
9.13412 84.2717
9.17888 84.3421
9.22365 84.8984
9.26841 84.5596
9.31318 84.9189
9.35794 85.3303
9.4027 85.7282
9.44749 86.5889
9.49226 87.1237
9.53703 88.291
9.5818 90.0801
9.62657 94.2038
9.67134 99.8807
9.71614 95.4923
9.76091 96.7944
9.80569 99.6747
9.85047 103.33
9.89525 124.677
9.94005 138.451
9.98484 202.068
10.0296 403.943
10.0744 845.84
10.1192 1589.3
10.164 1685.36
10.2088 513.346
10.2536 144.127
10.2984 117.167
10.3432 117.053
10.388 108.565
10.4328 128.067
10.4776 177.192
10.5224 292.758
10.5672 485.339
10.612 524.191
10.6568 226.838
10.7017 102.304
10.7465 89.6646
10.7913 86.0245
10.8361 83.5158
10.8809 81.4992
10.9257 80.5839
10.9706 80.7249
11.0154 76.8278
11.0602 74.8796
11.105 73.6535
11.1499 77.2482
11.1947 82.7585
11.2395 75.0302
11.2844 71.7127
11.3292 68.8399
11.374 68.1479
11.4189 67.3013
11.4637 66.6751
11.5086 67.1124
11.5534 69.3223
11.5983 66.7251
11.6431 65.2038
11.688 64.468
11.7328 64.5773
11.7777 64.4142
11.8225 63.8533
11.8674 64.1643
11.9122 64.3892
11.9571 64.5603
12.002 65.5162
12.0468 71.1107
12.0917 84.3648
12.1366 107.727
12.1814 150.641
12.2263 198.243
12.2712 176.384
12.3161 105.481
12.3609 72.389
12.4058 66.5759
12.4507 65.9227
12.4956 66.1687
12.5405 66.484
12.5853 67.2516
12.6302 74.1614
12.6751 78.3363
12.72 71.1041
12.7649 69.6884
12.8098 70.1996
12.8547 71.6217
12.8996 72.8915
12.9445 74.3891
12.9894 76.1817
13.0343 78.0466
13.0792 81.8394
13.1242 93.3709
13.1691 121.558
13.214 160.607
13.2589 242.379
13.3038 349.496
13.3487 418.555
13.3937 296.862
13.4386 141.231
13.4835 113.524
13.5285 130.762
13.5734 167.21
13.6183 242.882
13.6633 327.164
13.7082 343.891
13.7531 210.978
13.7981 106.881
13.843 84.9554
13.888 82.1937
13.9329 79.3113
13.9779 78.0145
14.0228 76.4576
14.0678 75.2068
14.1127 74.7038
14.1577 74.3823
14.2027 73.2741
14.2476 72.5396
14.2926 72.4754
14.3376 73.155
14.3825 72.2946
14.4275 70.7896
14.4725 70.7712
14.5175 70.9888
14.5624 70.8689
14.6074 72.5032
14.6524 73.4739
14.6974 72.5714
14.7424 74.8362
14.7874 83.0854
14.8324 95.2008
14.8774 116.436
14.9224 153.037
14.9674 196.182
15.0124 215.171
15.0574 161.516
15.1024 98.6718
15.1474 75.3255
15.1924 72.5691
15.2374 72.681
15.2824 72.0873
15.3274 69.9469
15.3725 68.6278
15.4175 68.2437
15.4625 67.8163
15.5076 68.0756
15.5526 68.0488
15.5976 67.7225
15.6426 69.4031
15.6877 76.0487
15.7327 85.0232
15.7778 100.101
15.8228 127.569
15.8679 163.814
15.9129 188.225
15.958 166.723
16.003 106.552
16.0481 71.9992
16.0931 66.2611
16.1382 64.2277
16.1833 62.4682
16.2283 60.6362
16.2734 60.0778
16.3185 60.1606
16.3636 60.6355
16.4086 59.2512
16.4537 57.7565
16.4988 57.132
16.5439 56.674
16.589 56.783
16.6341 56.4421
16.6792 55.965
16.7243 56.3758
16.7694 56.5409
16.8145 56.1479
16.8596 56.6328
16.9047 58.0549
16.9498 58.1658
16.9949 57.2093
17.04 57.5982
17.0851 59.1995
17.1302 60.9372
17.1754 63.7356
17.2205 68.5579
17.2656 74.8761
17.3108 81.8591
17.3559 83.3122
17.401 74.4153
17.4462 64.7664
17.4913 60.9814
17.5365 60.8471
17.5815 60.9927
17.6268 61.1844
17.6718 62.1093
17.7171 62.6493
17.7622 62.8079
17.8074 63.7537
17.8525 66.667
17.8977 71.5338
17.9428 77.3307
17.9881 86.1488
18.0331 101.422
18.0784 118.866
18.1237 136.005
18.1688 136.134
18.214 112.638
18.2591 91.9251
18.3044 92.0657
18.3495 98.762
18.3948 105.035
18.4399 99.779
18.4852 82.4918
18.5303 69.0607
18.5756 64.3722
18.6207 63.1871
18.666 62.3522
18.7112 61.3864
18.7565 60.764
18.8016 60.349
18.8469 59.6462
18.892 59.362
18.9374 58.8716
18.9825 58.7041
19.0278 58.5208
19.073 58.7797
19.1183 59.4319
19.1635 60.0477
19.2088 61.6429
19.254 64.0049
19.2993 67.739
19.3447 72.3585
19.3898 76.1328
19.4352 74.5893
19.4804 66.4775
19.5257 59.0919
19.5709 55.9145
19.6163 55.5134
19.6615 55.2623
19.7068 55.0027
19.752 54.8187
19.7974 55.2254
19.8426 56.18
19.888 57.077
19.9332 58.0708
19.9786 60.4828
20.0238 63.7273
20.0692 67.6024
20.1144 70.6647
20.1598 70.6654
20.205 66.7531
20.2504 64.0511
20.2957 64.4116
20.3411 66.2427
20.3863 65.5294
20.4318 61.0033
20.477 55.8673
20.5224 53.0349
20.5677 52.4689
20.6131 51.8811
20.6586 51.3575
20.7038 50.9236
20.7493 50.6648
20.7945 50.3074
20.84 50.2033
20.8853 50.0813
20.9307 49.9985
20.976 50.092
21.0215 49.8941
21.0668 50.5255
21.1122 50.8659
21.1575 51.4313
21.203 51.9976
21.2483 52.4351
21.2938 52.7082
21.3391 51.6649
21.3846 50.5176
21.4299 49.8448
21.4754 49.7798
21.5207 49.8047
21.5662 50.3481
21.6116 50.6762
21.6571 51.389
21.7024 52.737
21.7479 54.3212
21.7933 56.8403
21.8388 60.0498
21.8843 63.1536
21.9297 65.3854
21.9752 65.434
22.0206 62.0377
22.0661 58.3837
22.1115 57.1026
22.157 56.9865
22.2024 55.8489
22.248 53.3901
22.2933 51.5441
22.3389 50.5099
22.3843 50.457
22.4299 50.3182
22.4753 50.1276
22.5208 50.0081
22.5662 49.9239
22.6118 50.18
22.6572 50.2388
22.7028 50.8304
22.7483 51.1512
22.7939 52.1164
22.8393 53.439
22.8849 55.2722
22.9303 56.9215
22.9759 58.5069
23.0214 58.7768
23.067 56.5743
23.1126 53.0515
23.1581 50.883
23.2037 50.4872
23.2492 50.3163
23.2948 50.5407
23.3403 50.6528
23.3859 51.3167
23.4314 52.204
23.477 53.7471
23.5225 55.7151
23.5682 57.3056
23.6137 58.7741
23.6593 57.3515
23.7048 53.6541
23.7505 50.2727
23.796 48.1326
23.8417 47.4556
23.8872 46.9068
23.9329 46.4534
23.9784 46.1708
24.0241 45.9639
24.0697 45.698
24.1154 45.3397
24.1609 45.2888
24.2066 45.0646
24.2522 45.0792
24.2979 44.6858
24.3434 44.5386
24.3892 44.4715
24.4349 44.2554
24.4805 44.1792
24.5262 44.2684
24.5718 44.1889
24.6175 44.1126
24.6631 44.068
24.7089 43.7518
24.7545 43.6371
24.8002 43.458
24.8458 43.4701
24.8916 43.3374
24.9372 43.2436
24.983 43.8089
25.0286 44.0958
25.0744 44.4797
25.12 44.8284
25.1658 45.449
25.2114 45.8476
25.2572 46.0525
25.3029 45.9017
25.3487 45.8427
25.3943 45.7105
25.4402 44.9582
25.4858 43.9637
25.5316 42.731
25.5773 42.126
25.6231 42.018
25.669 41.6963
25.7147 41.6598
25.7605 41.7249
25.8062 41.5563
25.8521 41.8569
25.8977 41.8687
25.9436 41.9908
25.9893 42.0158
26.0352 42.6292
26.0809 42.4148
26.1268 42.6946
26.1725 42.6301
26.2184 41.9827
26.2641 41.5555
26.31 41.2575
26.3557 41.4575
26.4017 41.2151
26.4474 41.526
26.4933 41.8562
26.5391 42.2823
26.585 42.6398
26.6308 43.0642
26.6767 43.2051
26.7225 43.2799
26.7684 42.602
26.8142 41.999
26.8601 41.537
26.9059 41.1144
26.9519 40.6893
26.9979 40.3161
27.0437 39.9888
27.0896 39.8486
27.1354 39.8554
27.1814 39.6831
27.2272 39.5283
27.2732 39.6608
27.3191 39.3127
27.3651 39.6444
27.4109 39.4331
27.4569 39.6041
27.5027 39.6493
27.5488 39.5949
27.5946 39.3527
27.6407 39.3136
27.6865 39.1109
27.7326 38.9255
27.7784 38.9415
27.8245 38.8583
27.8703 39.0124
27.9164 39.3116
27.9623 39.3387
28.0084 39.734
28.0543 40.0333
28.1003 40.1014
28.1462 39.9718
28.1923 39.669
28.2384 38.9859
28.2843 38.7117
28.3304 38.3039
28.3764 37.9113
28.4225 37.3049
28.4684 37.2062
28.5145 36.9249
28.5605 36.8814
28.6066 36.6817
28.6526 36.7069
28.6987 36.6528
28.7447 36.3869
28.7908 36.446
28.8368 36.4213
28.8829 36.2693
28.9289 36.4156
28.9751 36.1564
29.0211 35.8737
29.0673 35.7008
29.1133 35.6485
29.1595 35.4185
29.2055 35.2041
29.2517 35.0978
29.2977 35.2207
29.3439 35.11
29.3899 34.9867
29.4361 35.0601
29.4824 34.903
29.5284 34.7909
29.5746 34.4422
29.6207 34.1805
29.6669 33.9686
29.713 33.9813
29.7593 33.8538
29.8053 33.7867
29.8516 33.6956
29.8977 33.8757
29.9439 33.5589
29.99 33.4336
30.0363 33.4004
30.0824 33.4206
30.1287 33.2343
30.1748 33.3249
30.2211 33.2174
30.2673 33.2047
30.3136 33.2483
30.3597 33.0934
30.406 33.1119
30.4522 33.0562
30.4985 32.9279
30.5447 33.0928
30.591 32.9511
30.6372 33.0962
30.6835 32.9726
30.7297 32.9901
30.7761 32.9831
30.8224 32.9564
30.8686 32.7432
30.915 32.5849
30.9612 32.463
31.0076 32.1858
31.0538 32.0253
31.1002 32.008
31.1464 31.7935
31.1928 31.7624
31.2391 31.8531
31.2855 31.7002
31.3317 31.6651
31.3781 31.8359
31.4244 31.7297
31.4708 31.6332
31.5171 31.7059
31.5636 31.5884
31.6098 31.3041
31.6563 31.2574
31.7026 31.0956
31.7491 31.0043
31.7953 31.0427
31.8418 31.0327
31.8881 30.9243
31.9346 30.8675
31.9809 30.9395
32.0275 30.773
32.074 30.6561
32.1203 30.3447
32.1668 30.3109
32.2132 30.129
32.2597 29.9736
32.306 30.1235
32.3526 29.8391
32.399 29.6945
32.4455 29.6093
32.4919 29.5393
32.5385 29.5079
32.5848 29.2794
32.6314 29.1945
32.6778 29.1691
32.7244 28.9957
32.7708 28.9178
32.8174 28.9647
32.8638 28.7955
32.9104 28.8075
32.9569 28.7938
33.0035 28.5993
33.0499 28.7085
33.0966 28.6195
33.143 28.5988
33.1897 28.4332
33.2361 28.4062
33.2828 28.305
33.3293 28.0874
33.3759 28.1337
33.4226 28.0281
33.4691 27.8313
33.5158 27.8558
33.5623 27.5862
33.609 27.4954
33.6555 27.3587
33.7022 27.4234
33.7487 27.1951
33.7954 27.2365
33.842 27.0854
33.8887 27.0248
33.9353 26.9432
33.982 26.833
34.0286 26.8045
34.0753 26.7635
34.1219 26.5785
34.1687 26.5558
34.2152 26.4322
34.262 26.3908
34.3086 26.2706
34.3554 26.2406
34.402 26.1773
34.4488 25.9442
34.4954 25.9602
34.5422 25.8421
34.5889 25.6832
34.6357 25.6327
34.6825 25.6011
34.7292 25.5254
34.776 25.3986
34.8227 25.3618
34.8695 25.3487
34.9162 25.2702
34.9631 25.1685
35.0098 25.135
35.0566 24.9484
35.1033 24.97
35.1502 24.8994
35.1969 24.8038
35.2438 24.8125
35.2906 24.6877
35.3375 24.7239
35.3842 24.6435
35.4311 24.5098
35.4779 24.6439
35.5248 24.5322
35.5716 24.4391
35.6185 24.4076
35.6653 24.2938
35.7123 24.1106
35.759 24.1014
35.806 23.9638
35.8528 23.908
35.8998 23.8281
35.9468 23.7861
35.9936 23.7451
36.0406 23.6149
36.0874 23.6828
36.1345 23.5259
36.1813 23.4759
36.2283 23.3319
36.2752 23.2278
36.3222 23.3005
36.3691 23.1536
36.4161 23.0213
36.463 23.0405
36.5101 22.9917
36.557 22.9744
36.6041 22.7626
36.651 22.7961
36.6981 22.7439
36.745 22.6421
36.7921 22.6072
36.839 22.3902
36.8861 22.5046
36.9331 22.2695
36.9802 22.2434
37.0272 22.1361
37.0743 22.0832
37.1213 22.0706
37.1684 22.0329
37.2154 21.8676
37.2626 21.8697
37.3098 21.7141
37.3568 21.7639
37.404 21.6643
37.451 21.5525
37.4982 21.4875
37.5452 21.422
37.5924 21.3519
37.6395 21.4549
37.6867 21.3074
37.7337 21.1979
37.781 21.07
37.8281 21.0506
37.8753 20.9853
37.9224 20.8959
37.9697 20.7991
38.0168 20.8082
38.064 20.6826
38.1111 20.6521
38.1584 20.5852
38.2056 20.529
38.2529 20.4468
38.3 20.3233
38.3473 20.4318
38.3945 20.2814
38.4418 20.1964
38.489 20.1581
38.5363 20.0193
38.5837 19.9534
38.6309 19.866
38.6782 19.8647
38.7254 19.7619
38.7728 19.7358
38.82 19.6744
38.8674 19.7018
38.9146 19.5104
38.9621 19.4923
39.0093 19.4634
39.0567 19.3443
39.104 19.2727
39.1514 19.2026
39.1987 19.201
39.2461 19.0987
39.2934 19.1302
39.3409 18.9438
39.3882 18.8609
39.4356 18.887
39.483 18.8052
39.5304 18.7604
39.5778 18.6809
39.6253 18.638
39.6726 18.5615
39.7201 18.5606
39.7675 18.5323
39.815 18.4256
39.8624 18.377
39.9099 18.2988
39.9575 18.1991
40.0049 18.1998
40.0525 18.137
40.0999 18.0841
40.1474 18.0077
40.1949 17.9036
40.2425 17.8309
40.2899 17.824
40.3375 17.8409
40.385 17.7145
40.4326 17.6634
40.48 17.6387
40.5277 17.6104
40.5752 17.5098
40.6228 17.3854
40.6703 17.4201
40.718 17.3073
40.7655 17.2774
40.8132 17.2064
40.8607 17.2676
40.9084 17.1485
40.9559 17.036
41.0036 16.976
41.0512 16.9128
41.0989 16.8788
41.1465 16.8103
41.1942 16.7784
41.242 16.6722
41.2896 16.6473
41.3373 16.5386
41.3849 16.5687
41.4327 16.4812
41.4803 16.4791
41.5281 16.3892
41.5758 16.3001
41.6236 16.2499
41.6712 16.2051
41.7191 16.1767
41.7667 16.089
41.8146 16.097
41.8622 15.9534
41.9101 15.9591
41.9578 15.8695
42.0057 15.8515
42.0534 15.8103
42.1013 15.7169
42.149 15.6007
42.1969 15.6372
42.2446 15.5953
42.2925 15.5723
42.3403 15.4692
42.3882 15.4681
42.436 15.3788
42.4839 15.2645
42.5319 15.2957
42.5797 15.2096
42.6277 15.1477
42.6755 15.0914
42.7235 15.0674
42.7713 15.0302
42.8193 14.9522
42.8671 14.9097
42.9152 14.861
42.963 14.8354
43.0111 14.7482
43.0589 14.6781
43.107 14.674
43.1549 14.6196
43.2029 14.5589
43.2508 14.4868
43.2989 14.3918
43.3468 14.3795
43.3949 14.3174
43.4429 14.3081
43.491 14.2631
43.5389 14.2551
43.5871 14.2065
43.635 14.1078
43.6832 14.0675
43.7312 14.0289
43.7793 13.9989
43.8273 13.9393
43.8755 13.838
43.9237 13.8224
43.9717 13.7974
44.0199 13.7065
44.068 13.671
44.1162 13.6508
44.1642 13.5881
44.2125 13.5422
44.2606 13.4705
44.3088 13.4253
44.3569 13.3937
44.4052 13.3979
44.4533 13.3127
44.5016 13.2216
44.5497 13.2052
44.598 13.1492
44.6461 13.0868
44.6945 13.0449
44.7426 13.042
44.791 12.9514
44.8391 12.9294
44.8875 12.8577
44.9357 12.8396
44.984 12.7747
45.0322 12.7433
45.0806 12.7124
45.1288 12.7027
45.1773 12.5709
45.2257 12.579
45.2739 12.4718
45.3224 12.4717
45.3706 12.4402
45.4191 12.3903
45.4673 12.3559
45.5158 12.3463
45.5641 12.2566
45.6126 12.1688
45.6609 12.1912
45.7094 12.1436
45.7577 12.0727
45.8063 11.9621
45.8546 11.9919
45.9031 11.9637
45.9515 11.9434
46.0001 11.8967
46.0484 11.8335
46.097 11.7775
46.1454 11.772
46.194 11.6929
46.2424 11.6392
46.291 11.601
46.3395 11.574
46.3881 11.5283
46.4365 11.4879
46.4852 11.4436
46.5337 11.4172
46.5823 11.3926
46.631 11.3164
46.6795 11.2732
46.7282 11.2339
46.7767 11.1934
46.8254 11.1043
46.8739 11.1024
46.9226 11.0587
46.9712 11.0269
47.0199 10.9401
47.0685 10.9571
47.1173 10.9124
47.1658 10.8932
47.2146 10.8113
47.2632 10.7827
47.312 10.7654
47.3606 10.6973
47.4095 10.6696
47.4581 10.5909
47.5069 10.5496
47.5556 10.5359
47.6044 10.4994
47.6531 10.4446
47.702 10.3701
47.7507 10.4236
47.7996 10.3356
47.8483 10.3136
47.8972 10.3077
47.9461 10.2477
47.9948 10.1876
48.0438 10.1833
48.0925 10.1464
48.1415 10.0956
48.1902 10.028
48.2392 10.0125
48.288 10.0182
48.337 9.93616
48.3858 9.91613
48.4348 9.91308
48.4837 9.84427
48.5327 9.82141
48.5815 9.76424
48.6306 9.74595
48.6795 9.70006
48.7285 9.65033
48.7774 9.64248
48.8265 9.61057
48.8754 9.55634
48.9245 9.53082
48.9734 9.52462
49.0226 9.46974
49.0715 9.40629
49.1206 9.39904
49.1696 9.32647
49.2188 9.28786
49.2679 9.30595
49.3169 9.24754
49.3661 9.21599
49.4151 9.14735
49.4643 9.15013
49.5134 9.13105
49.5626 8.99633
49.6117 9.02718
49.6609 9.01381
49.71 8.95087
49.7592 8.89547
49.8083 8.8419
49.8576 8.8583
49.9067 8.8171
49.956 8.78393
50.0052 8.77407
50.0545 8.69583
50.1036 8.70057
50.153 8.66992
50.2022 8.59695
50.2515 8.59671
50.3007 8.55559
50.3501 8.51741
50.3993 8.4875
50.4487 8.45881
50.498 8.40333
50.5474 8.42435
50.5966 8.36522
50.6461 8.32448
50.6955 8.2965
50.7448 8.27633
50.7943 8.23172
50.8436 8.20686
50.8931 8.13142
50.9424 8.12786
50.9919 8.10253
51.0413 8.07331
51.0908 8.04426
51.1402 7.99004
51.1897 7.99031
51.2391 7.91067
51.2887 7.90399
51.3381 7.88668
51.3877 7.8564
51.4371 7.76823
51.4867 7.74532
51.5362 7.74223
51.5858 7.69352
51.6353 7.6407
51.6849 7.63599
51.7344 7.62773
51.7841 7.62912
51.8336 7.54893
51.8833 7.52873
51.9328 7.45671
51.9826 7.43483
52.0323 7.41235
52.0818 7.37852
52.1316 7.3536
52.1812 7.38679
52.231 7.29585
52.2806 7.30282
52.3304 7.2569
52.38 7.22757
52.4298 7.13533
52.4794 7.14806
52.5293 7.12581
52.5789 7.06404
52.6288 7.08748
52.6785 7.01652
52.7284 7.03807
52.7781 6.97309
52.828 6.97677
52.8777 6.89412
52.9276 6.87611
52.9774 6.81749
53.0273 6.83134
53.0771 6.79282
53.1271 6.79316
53.1769 6.74538
53.2269 6.70804
53.2767 6.67076
53.3267 6.66022
53.3765 6.62188
53.4266 6.63929
53.4766 6.54497
53.5265 6.56782
53.5765 6.49074
53.6264 6.48796
53.6765 6.48127
53.7264 6.422
53.7765 6.39808
53.8265 6.37333
53.8766 6.33112
53.9266 6.30605
53.9767 6.30403
54.0267 6.24549
54.0769 6.20432
54.1269 6.21257
54.1771 6.17596
54.2271 6.11233
54.2773 6.09273
54.3274 6.1326
54.3776 6.0575
54.4277 6.02175
54.478 6.01412
54.528 5.94592
54.5783 5.8758
54.6285 5.88193
54.6788 5.82566
54.7289 5.75962
54.7792 5.75223
54.8296 5.71663
54.8798 5.68119
54.9301 5.61925
54.9803 5.59873
55.0307 5.59539
55.0809 5.50267
55.1314 5.48665
55.1816 5.43009
55.232 5.3876
55.2823 5.33556
55.3328 5.29657
55.383 5.23402
55.4335 5.15537
55.4838 5.12196
55.5344 5.06351
55.5847 5.04652
55.6352 5.02556
55.6856 4.95377
55.7361 4.89978