File: XRD/Ni3Fe_FD0977.xy
TT I
1.27165 7.20445
1.31627 6.94884
1.36089 6.61336
1.40551 5.87047
1.45013 6.14938
1.49476 6.03026
1.53938 5.82197
1.584 4.93459
1.62863 4.73751
1.67325 4.91465
1.71787 4.71134
1.7625 4.76323
1.80712 4.56504
1.85174 4.90858
1.89636 4.67617
1.94099 5.12554
1.98562 4.37172
2.03025 3.53531
2.07487 4.80973
2.11949 5.13406
2.16411 5.25025
2.20874 14.2946
2.25338 24.3424
2.298 6.02187
2.34263 5.86705
2.38725 6.52282
2.43188 6.75817
2.4765 7.54945
2.52115 6.86075
2.56577 8.74117
2.6104 8.75513
2.65503 8.47949
2.69965 8.67868
2.7443 8.15811
2.78893 8.64392
2.83356 9.20334
2.87818 8.68919
2.92281 9.09526
2.96744 9.70279
3.01209 10.4351
3.05672 10.9681
3.10135 12.2943
3.14599 13.4883
3.19062 14.4125
3.23527 15.5163
3.2799 16.0066
3.32454 16.9012
3.36917 17.7986
3.4138 18.8241
3.45844 19.9134
3.50309 20.8783
3.54773 21.6089
3.59237 24.0327
3.637 91.407
3.68164 59.1525
3.7263 26.3025
3.77094 26.314
3.81558 26.9196
3.86022 27.3493
3.90486 28.8869
3.9495 29.7825
3.99416 30.6617
4.0388 31.743
4.08344 33.2706
4.12809 34.7481
4.17273 36.8776
4.21738 42.801
4.26204 251.135
4.30669 221.292
4.35133 47.871
4.39598 44.2173
4.44063 53.4835
4.4853 64.9502
4.52995 49.4737
4.5746 50.4887
4.61925 52.5508
4.6639 54.4934
4.70855 57.284
4.75322 60.0792
4.79788 62.623
4.84253 66.1691
4.88719 69.8089
4.93184 73.4655
4.97652 78.4072
5.02118 84.5912
5.06583 91.4878
5.11049 100.92
5.15515 163.732
5.19981 274.99
5.24449 2324.0
5.28916 13353.8
5.33382 2785.61
5.37848 172.372
5.42315 123.501
5.46783 110.287
5.5125 103.4
5.55716 99.401
5.60183 96.3102
5.6465 94.3994
5.69117 91.969
5.73586 90.1591
5.78053 89.0841
5.8252 88.6825
5.86988 89.2038
5.91455 90.2967
5.95924 96.1839
6.00392 168.069
6.0486 793.595
6.09328 4572.95
6.13795 3182.74
6.18263 214.987
6.22733 88.9665
6.27201 81.3415
6.3167 100.491
6.36138 79.2334
6.40606 67.9479
6.45075 66.0173
6.49545 64.3439
6.54014 62.726
6.58483 62.1066
6.62952 61.9151
6.67421 93.5802
6.71892 143.679
6.76361 68.0455
6.8083 57.7845
6.853 56.3808
6.89769 56.1168
6.94239 55.6253
6.98711 55.0428
7.03181 54.944
7.07651 54.5571
7.12121 54.3067
7.16591 54.7808
7.21063 54.8855
7.25533 70.5143
7.30004 179.215
7.34475 91.0561
7.38945 55.9375
7.43416 53.7109
7.47889 53.7544
7.5236 53.9575
7.56831 54.2513
7.61303 56.1346
7.65774 56.8002
7.70247 55.4486
7.74719 55.3368
7.79191 55.5001
7.83663 56.0276
7.88135 56.6355
7.92607 57.889
7.97081 58.8185
8.01553 59.8307
8.06026 61.2462
8.10498 62.7903
8.14971 72.0316
8.19446 70.8433
8.23919 68.2048
8.28392 70.3484
8.32865 72.2233
8.37339 76.3915
8.41812 83.3824
8.46288 110.326
8.50761 141.494
8.55235 325.231
8.59709 1123.27
8.64183 2284.81
8.68658 918.83
8.73134 158.458
8.77609 96.7667
8.82083 90.6029
8.86558 87.7939
8.91033 88.1426
8.9551 90.4877
8.99985 83.5631
9.04461 82.1963
9.08936 81.1936
9.13412 80.5997
9.17888 80.5153
9.22365 81.482
9.26841 80.3699
9.31318 80.9085
9.35794 81.1249
9.4027 81.2706
9.44749 82.3243
9.49226 83.1085
9.53703 83.9902
9.5818 85.8356
9.62657 90.546
9.67134 96.9017
9.71614 91.6559
9.76091 92.029
9.80569 94.2277
9.85047 97.976
9.89525 121.495
9.94005 131.535
9.98484 154.623
10.0296 295.317
10.0744 760.371
10.1192 1778.15
10.164 1533.25
10.2088 361.061
10.2536 122.087
10.2984 110.692
10.3432 112.312
10.388 101.953
10.4328 109.701
10.4776 145.942
10.5224 269.247
10.5672 525.202
10.612 500.221
10.6568 195.166
10.7017 94.2517
10.7465 84.774
10.7913 81.4616
10.8361 79.4808
10.8809 77.5765
10.9257 76.9277
10.9706 77.4829
11.0154 73.6017
11.0602 71.5816
11.105 70.4508
11.1499 75.3614
11.1947 81.9868
11.2395 73.1402
11.2844 69.4019
11.3292 66.1927
11.374 64.897
11.4189 64.2842
11.4637 63.7856
11.5086 64.3257
11.5534 67.1822
11.5983 64.7173
11.6431 62.6759
11.688 61.6057
11.7328 61.8045
11.7777 62.06
11.8225 61.2667
11.8674 61.3781
11.9122 61.4906
11.9571 61.6272
12.002 61.9225
12.0468 64.8901
12.0917 74.6919
12.1366 97.7297
12.1814 154.228
12.2263 208.28
12.2712 163.223
12.3161 95.1274
12.3609 69.2647
12.4058 63.4466
12.4507 62.8936
12.4956 62.9975
12.5405 63.4117
12.5853 64.4643
12.6302 72.0812
12.6751 77.4038
12.72 68.6822
12.7649 66.7052
12.8098 66.7986
12.8547 68.2882
12.8996 69.4462
12.9445 70.7489
12.9894 72.3872
13.0343 74.0136
13.0792 76.765
13.1242 83.3592
13.1691 103.278
13.214 137.566
13.2589 232.428
13.3038 380.727
13.3487 427.992
13.3937 246.187
13.4386 119.326
13.4835 99.6234
13.5285 112.02
13.5734 148.417
13.6183 245.679
13.6633 359.544
13.7082 329.84
13.7531 176.189
13.7981 94.373
13.843 80.1248
13.888 78.0397
13.9329 75.4776
13.9779 74.3781
14.0228 72.8049
14.0678 71.4532
14.1127 70.9092
14.1577 70.9002
14.2027 70.345
14.2476 69.0984
14.2926 69.2178
14.3376 70.3582
14.3825 68.8613
14.4275 67.2445
14.4725 67.173
14.5175 67.4859
14.5624 67.7225
14.6074 69.6781
14.6524 70.2521
14.6974 68.7528
14.7424 69.7275
14.7874 74.7085
14.8324 83.7545
14.8774 105.089
14.9224 151.481
14.9674 212.865
15.0124 216.652
15.0574 145.738
15.1024 87.7812
15.1474 70.8891
15.1924 68.982
15.2374 69.8439
15.2824 68.8206
15.3274 66.8846
15.3725 65.4918
15.4175 64.8535
15.4625 64.769
15.5076 64.9167
15.5526 64.6605
15.5976 64.3384
15.6426 64.9172
15.6877 68.872
15.7327 75.6085
15.7778 89.9186
15.8228 123.501
15.8679 174.453
15.9129 198.361
15.958 150.855
16.003 93.5298
16.0481 66.8964
16.0931 63.4348
16.1382 61.4381
16.1833 59.3026
16.2283 57.8145
16.2734 57.421
16.3185 57.6387
16.3636 58.2946
16.4086 56.854
16.4537 54.9953
16.4988 54.4568
16.5439 54.3804
16.589 54.1612
16.6341 53.7701
16.6792 53.4109
16.7243 53.7485
16.7694 53.9159
16.8145 53.7785
16.8596 54.0024
16.9047 55.6762
16.9498 55.9037
16.9949 54.6157
17.04 54.6674
17.0851 55.4225
17.1302 56.9874
17.1754 59.859
17.2205 64.7879
17.2656 73.4234
17.3108 82.2735
17.3559 80.5353
17.401 68.5342
17.4462 60.3836
17.4913 57.9344
17.5365 57.8493
17.5815 58.1436
17.6268 58.583
17.6718 59.1381
17.7171 59.6978
17.7622 60.0499
17.8074 60.4051
17.8525 61.9746
17.8977 65.4183
17.9428 70.4893
17.9881 79.2764
18.0331 97.6302
18.0784 122.305
18.1237 138.979
18.1688 125.03
18.214 99.0836
18.2591 83.3155
18.3044 89.2147
18.3495 100.369
18.3948 106.017
18.4399 94.3304
18.4852 75.5108
18.5303 64.4204
18.5756 60.9501
18.6207 60.0931
18.666 59.1132
18.7112 58.5521
18.7565 57.7863
18.8016 57.4107
18.8469 56.8259
18.892 56.5245
18.9374 55.8894
18.9825 55.8277
19.0278 55.7744
19.073 55.9538
19.1183 55.9955
19.1635 56.778
19.2088 57.8953
19.254 60.5342
19.2993 65.4143
19.3447 71.9108
19.3898 75.1068
19.4352 70.0086
19.4804 61.3627
19.5257 55.3855
19.5709 53.0575
19.6163 52.8359
19.6615 52.4266
19.7068 52.329
19.752 52.1271
19.7974 52.3968
19.8426 53.0657
19.888 53.6746
19.9332 54.7738
19.9786 57.2722
20.0238 61.3958
20.0692 66.5449
20.1144 68.7604
20.1598 66.1685
20.205 61.8892
20.2504 60.9968
20.2957 63.337
20.3411 64.9081
20.3863 62.586
20.4318 56.767
20.477 52.2537
20.5224 50.5534
20.5677 49.9775
20.6131 49.1964
20.6586 48.7522
20.7038 48.6544
20.7493 48.1871
20.7945 48.0611
20.84 47.9709
20.8853 47.7451
20.9307 47.5965
20.976 47.7909
21.0215 47.5485
21.0668 48.0603
21.1122 48.4609
21.1575 49.1303
21.203 50.098
21.2483 50.6121
21.2938 50.3659
21.3391 49.0112
21.3846 47.9713
21.4299 47.453
21.4754 47.51
21.5207 47.4196
21.5662 47.6364
21.6116 47.8574
21.6571 48.5
21.7024 49.6833
21.7479 51.2447
21.7933 54.0722
21.8388 58.021
21.8843 62.2217
21.9297 63.5018
21.9752 61.7706
22.0206 58.0769
22.0661 55.4604
22.1115 55.1861
22.157 54.9013
22.2024 53.0277
22.248 50.3971
22.2933 48.7091
22.3389 48.2235
22.3843 48.1437
22.4299 47.9898
22.4753 47.9295
22.5208 47.4614
22.5662 47.5702
22.6118 47.6571
22.6572 47.701
22.7028 48.1065
22.7483 48.4315
22.7939 49.235
22.8393 50.6571
22.8849 53.0903
22.9303 55.358
22.9759 56.9347
23.0214 56.2228
23.067 53.128
23.1126 49.8434
23.1581 48.3546
23.2037 47.7073
23.2492 47.8144
23.2948 47.8094
23.3403 47.973
23.3859 48.5559
23.4314 49.5438
23.477 51.4749
23.5225 54.0852
23.5682 56.4732
23.6137 57.0163
23.6593 54.3295
23.7048 50.337
23.7505 47.2647
23.796 45.7436
23.8417 45.1154
23.8872 44.6789
23.9329 44.4039
23.9784 44.1528
24.0241 43.7162
24.0697 43.6194
24.1154 43.277
24.1609 43.1237
24.2066 42.9136
24.2522 42.8366
24.2979 42.6156
24.3434 42.4867
24.3892 42.2444
24.4349 42.4036
24.4805 42.1435
24.5262 42.185
24.5718 42.345
24.6175 42.04
24.6631 41.856
24.7089 41.7244
24.7545 41.5081
24.8002 41.4987
24.8458 41.3069
24.8916 41.2354
24.9372 41.3543
24.983 41.6346
25.0286 42.1188
25.0744 42.4468
25.12 43.0007
25.1658 43.3152
25.2114 43.6963
25.2572 43.9319
25.3029 44.2775
25.3487 44.3042
25.3943 43.8063
25.4402 42.5495
25.4858 41.4898
25.5316 40.6012
25.5773 40.096
25.6231 40.005
25.669 39.7024
25.7147 39.6526
25.7605 39.6818
25.8062 39.649
25.8521 39.8334
25.8977 39.6962
25.9436 40.0564
25.9893 40.2253
26.0352 40.6316
26.0809 40.7892
26.1268 40.8691
26.1725 40.5379
26.2184 39.9379
26.2641 39.4418
26.31 39.2484
26.3557 39.336
26.4017 39.2682
26.4474 39.6448
26.4933 39.867
26.5391 40.4985
26.585 41.0576
26.6308 41.3552
26.6767 41.3475
26.7225 41.1961
26.7684 40.5748
26.8142 40.0787
26.8601 39.6149
26.9059 39.1995
26.9519 38.7066
26.9979 38.3865
27.0437 38.1631
27.0896 37.9766
27.1354 38.0562
27.1814 37.9527
27.2272 37.7884
27.2732 37.8093
27.3191 37.6189
27.3651 37.7113
27.4109 37.6253
27.4569 37.7411
27.5027 37.8136
27.5488 37.89
27.5946 37.5853
27.6407 37.3599
27.6865 37.3353
27.7326 36.9344
27.7784 37.1753
27.8245 37.0978
27.8703 37.2764
27.9164 37.5274
27.9623 37.6899
28.0084 37.9502
28.0543 38.4231
28.1003 38.3086
28.1462 38.0432
28.1923 37.7198
28.2384 37.2133
28.2843 36.9669
28.3304 36.391
28.3764 35.9786
28.4225 35.7719
28.4684 35.4675
28.5145 35.3017
28.5605 35.2505
28.6066 34.9956
28.6526 35.0281
28.6987 34.9189
28.7447 34.856
28.7908 34.78
28.8368 34.771
28.8829 34.8023
28.9289 34.6849
28.9751 34.4538
29.0211 34.1749
29.0673 34.0518
29.1133 33.8203
29.1595 33.7384
29.2055 33.527
29.2517 33.6534
29.2977 33.6045
29.3439 33.5986
29.3899 33.5599
29.4361 33.5278
29.4824 33.389
29.5284 33.0069
29.5746 32.7634
29.6207 32.5349
29.6669 32.484
29.713 32.3394
29.7593 32.2642
29.8053 32.2383
29.8516 32.2826
29.8977 32.2501
29.9439 31.8579
29.99 31.9339
30.0363 31.8381
30.0824 31.9144
30.1287 31.775
30.1748 31.8801
30.2211 31.8354
30.2673 31.7099
30.3136 31.6883
30.3597 31.6845
30.406 31.6415
30.4522 31.4734
30.4985 31.4345
30.5447 31.4972
30.591 31.5212
30.6372 31.5967
30.6835 31.5645
30.7297 31.6289
30.7761 31.5722
30.8224 31.4566
30.8686 31.2237
30.915 30.9251
30.9612 30.9038
31.0076 30.7412
31.0538 30.6112
31.1002 30.5879
31.1464 30.3754
31.1928 30.3492
31.2391 30.3999
31.2855 30.2676
31.3317 30.2646
31.3781 30.3182
31.4244 30.3838
31.4708 30.3185
31.5171 30.2462
31.5636 30.2218
31.6098 29.8961
31.6563 29.755
31.7026 29.6843
31.7491 29.5244
31.7953 29.5806
31.8418 29.4715
31.8881 29.5935
31.9346 29.542
31.9809 29.4622
32.0275 29.2669
32.074 29.2207
32.1203 29.0611
32.1668 28.9435
32.2132 28.7528
32.2597 28.7688
32.306 28.6864
32.3526 28.369
32.399 28.4189
32.4455 28.2646
32.4919 28.1484
32.5385 28.1478
32.5848 27.9959
32.6314 28.0227
32.6778 27.9307
32.7244 27.7567
32.7708 27.6402
32.8174 27.6141
32.8638 27.4644
32.9104 27.5109
32.9569 27.4912
33.0035 27.3001
33.0499 27.2407
33.0966 27.2812
33.143 27.2373
33.1897 27.1575
33.2361 27.1238
33.2828 27.039
33.3293 26.8603
33.3759 26.9282
33.4226 26.7075
33.4691 26.5683
33.5158 26.5777
33.5623 26.3837
33.609 26.241
33.6555 26.1833
33.7022 26.0462
33.7487 26.0008
33.7954 26.0253
33.842 25.8671
33.8887 25.8448
33.9353 25.7433
33.982 25.6326
34.0286 25.4985
34.0753 25.4848
34.1219 25.4082
34.1687 25.3384
34.2152 25.3547
34.262 25.1276
34.3086 25.0998
34.3554 25.037
34.402 24.909
34.4488 24.7434
34.4954 24.7853
34.5422 24.7361
34.5889 24.6386
34.6357 24.5222
34.6825 24.3786
34.7292 24.3319
34.776 24.3416
34.8227 24.2048
34.8695 24.1468
34.9162 24.141
34.9631 24.0141
35.0098 24.0315
35.0566 23.9219
35.1033 23.8841
35.1502 23.8574
35.1969 23.7432
35.2438 23.7012
35.2906 23.6839
35.3375 23.6533
35.3842 23.5227
35.4311 23.558
35.4779 23.5057
35.5248 23.3997
35.5716 23.3626
35.6185 23.3203
35.6653 23.2598
35.7123 23.1293
35.759 22.9969
35.806 22.9035
35.8528 22.8933
35.8998 22.8296
35.9468 22.6804
35.9936 22.7607
36.0406 22.6184
36.0874 22.5631
36.1345 22.4881
36.1813 22.39
36.2283 22.3048
36.2752 22.2716
36.3222 22.1923
36.3691 22.1351
36.4161 22.0301
36.463 21.9979
36.5101 21.9912
36.557 21.9682
36.6041 21.8725
36.651 21.7607
36.6981 21.7124
36.745 21.6504
36.7921 21.4896
36.839 21.4887
36.8861 21.4515
36.9331 21.3584
36.9802 21.2978
37.0272 21.1733
37.0743 21.1104
37.1213 21.0873
37.1684 21.0559
37.2154 20.9447
37.2626 20.9126
37.3098 20.868
37.3568 20.7621
37.404 20.7389
37.451 20.6359
37.4982 20.5896
37.5452 20.4539
37.5924 20.4362
37.6395 20.4727
37.6867 20.2947
37.7337 20.3034
37.781 20.188
37.8281 20.1001
37.8753 20.0285
37.9224 19.9295
37.9697 19.9407
38.0168 19.8184
38.064 19.7483
38.1111 19.7743
38.1584 19.6269
38.2056 19.5722
38.2529 19.5196
38.3 19.5117
38.3473 19.4693
38.3945 19.3378
38.4418 19.32
38.489 19.3016
38.5363 19.0854
38.5837 19.0873
38.6309 19.0543
38.6782 18.9545
38.7254 18.916
38.7728 18.8036
38.82 18.7346
38.8674 18.7339
38.9146 18.6873
38.9621 18.6118
39.0093 18.6016
39.0567 18.5799
39.104 18.4604
39.1514 18.3523
39.1987 18.3299
39.2461 18.2582
39.2934 18.1878
39.3409 18.1576
39.3882 18.0321
39.4356 18.0008
39.483 17.9992
39.5304 17.96
39.5778 17.8952
39.6253 17.8171
39.6726 17.7365
39.7201 17.7092
39.7675 17.6908
39.815 17.5977
39.8624 17.4952
39.9099 17.4497
39.9575 17.4367
40.0049 17.3013
40.0525 17.3389
40.0999 17.27
40.1474 17.1981
40.1949 17.1401
40.2425 17.0525
40.2899 17.0383
40.3375 16.9992
40.385 16.9195
40.4326 16.8634
40.48 16.9163
40.5277 16.7923
40.5752 16.7134
40.6228 16.6389
40.6703 16.6118
40.718 16.5354
40.7655 16.5032
40.8132 16.4272
40.8607 16.4518
40.9084 16.2795
40.9559 16.3155
41.0036 16.3004
41.0512 16.1985
41.0989 16.1988
41.1465 16.1268
41.1942 16.0466
41.242 15.9787
41.2896 15.9542
41.3373 15.9059
41.3849 15.864
41.4327 15.7849
41.4803 15.7292
41.5281 15.6988
41.5758 15.6274
41.6236 15.5194
41.6712 15.5038
41.7191 15.4517
41.7667 15.3953
41.8146 15.3784
41.8622 15.3431
41.9101 15.2846
41.9578 15.1093
42.0057 15.1763
42.0534 15.0677
42.1013 15.0928
42.149 14.9845
42.1969 14.9341
42.2446 14.8551
42.2925 14.8653
42.3403 14.772
42.3882 14.7727
42.436 14.7316
42.4839 14.6224
42.5319 14.5629
42.5797 14.5358
42.6277 14.4778
42.6755 14.438
42.7235 14.4397
42.7713 14.3575
42.8193 14.3147
42.8671 14.2345
42.9152 14.2264
42.963 14.1493
43.0111 14.0849
43.0589 14.0467
43.107 14.0111
43.1549 13.9536
43.2029 13.9115
43.2508 13.9122
43.2989 13.7894
43.3468 13.7494
43.3949 13.7482
43.4429 13.6809
43.491 13.6447
43.5389 13.6079
43.5871 13.5806
43.635 13.4332
43.6832 13.4445
43.7312 13.3475
43.7793 13.33
43.8273 13.3057
43.8755 13.2331
43.9237 13.2141
43.9717 13.1797
44.0199 13.1476
44.068 13.1149
44.1162 13.0636
44.1642 13.0177
44.2125 12.9857
44.2606 12.9409
44.3088 12.8593
44.3569 12.8161
44.4052 12.7706
44.4533 12.7265
44.5016 12.6556
44.5497 12.6644
44.598 12.6429
44.6461 12.5629
44.6945 12.5254
44.7426 12.4691
44.791 12.4429
44.8391 12.3551
44.8875 12.3191
44.9357 12.2911
44.984 12.255
45.0322 12.1409
45.0806 12.0708
45.1288 12.0752
45.1773 12.0627
45.2257 12.0822
45.2739 11.9753
45.3224 11.9567
45.3706 11.9112
45.4191 11.8239
45.4673 11.8319
45.5158 11.7607
45.5641 11.6779
45.6126 11.6922
45.6609 11.637
45.7094 11.5841
45.7577 11.5672
45.8063 11.5001
45.8546 11.5551
45.9031 11.4111
45.9515 11.4348
46.0001 11.367
46.0484 11.3329
46.097 11.3046
46.1454 11.2169
46.194 11.2037
46.2424 11.1253
46.291 11.1266
46.3395 11.0622
46.3881 11.0301
46.4365 11.0092
46.4852 10.9543
46.5337 10.9364
46.5823 10.8813
46.631 10.8458
46.6795 10.8368
46.7282 10.7987
46.7767 10.73
46.8254 10.6393
46.8739 10.6531
46.9226 10.6038
46.9712 10.5237
47.0199 10.481
47.0685 10.4628
47.1173 10.4418
47.1658 10.416
47.2146 10.3943
47.2632 10.3202
47.312 10.3187
47.3606 10.2536
47.4095 10.1931
47.4581 10.1806
47.5069 10.1232
47.5556 10.0745
47.6044 10.0482
47.6531 10.0187
47.702 9.99505
47.7507 9.95462
47.7996 9.92123
47.8483 9.87327
47.8972 9.87699
47.9461 9.81502
47.9948 9.74881
48.0438 9.72778
48.0925 9.71261
48.1415 9.66193
48.1902 9.63521
48.2392 9.67901
48.288 9.5814
48.337 9.55859
48.3858 9.48504
48.4348 9.48452
48.4837 9.44698
48.5327 9.41281
48.5815 9.37345
48.6306 9.35205
48.6795 9.30366
48.7285 9.22402
48.7774 9.22116
48.8265 9.17857
48.8754 9.13032
48.9245 9.09829
48.9734 9.0972
49.0226 9.07909
49.0715 8.98236
49.1206 8.98569
49.1696 8.93754
49.2188 8.90074
49.2679 8.87154
49.3169 8.85124
49.3661 8.80281
49.4151 8.77199
49.4643 8.76473
49.5134 8.72798
49.5626 8.67113
49.6117 8.63219
49.6609 8.61858
49.71 8.58898
49.7592 8.51302
49.8083 8.50104
49.8576 8.49403
49.9067 8.48028
49.956 8.40346
50.0052 8.35267
50.0545 8.3652
50.1036 8.27587
50.153 8.31865
50.2022 8.29844
50.2515 8.24439
50.3007 8.14864
50.3501 8.13417
50.3993 8.13148
50.4487 8.08332
50.498 8.04923
50.5474 8.0283
50.5966 8.00582
50.6461 7.97466
50.6955 7.99195
50.7448 7.90408
50.7943 7.87055
50.8436 7.87719
50.8931 7.81845
50.9424 7.78467
50.9919 7.76164
51.0413 7.73149
51.0908 7.70148
51.1402 7.69828
51.1897 7.65281
51.2391 7.60975
51.2887 7.59299
51.3381 7.54007
51.3877 7.5218
51.4371 7.4663
51.4867 7.44909
51.5362 7.41704
51.5858 7.40759
51.6353 7.33072
51.6849 7.33132
51.7344 7.31232
51.7841 7.25793
51.8336 7.27535
51.8833 7.1996
51.9328 7.16141
51.9826 7.13342
52.0323 7.12374
52.0818 7.115
52.1316 7.06643
52.1812 7.05425
52.231 6.99723
52.2806 6.95865
52.3304 6.94053
52.38 6.95028
52.4298 6.90725
52.4794 6.85678
52.5293 6.85641
52.5789 6.81733
52.6288 6.77194
52.6785 6.74089
52.7284 6.74691
52.7781 6.66408
52.828 6.65578
52.8777 6.64503
52.9276 6.61104
52.9774 6.59628
53.0273 6.55827
53.0771 6.54009
53.1271 6.51128
53.1769 6.45192
53.2269 6.48042
53.2767 6.39617
53.3267 6.42313
53.3765 6.37751
53.4266 6.32815
53.4766 6.34563
53.5265 6.27652
53.5765 6.26383
53.6264 6.23966
53.6765 6.20603
53.7264 6.18644
53.7765 6.13752
53.8265 6.13425
53.8766 6.09096
53.9266 6.07715
53.9767 6.04269
54.0267 6.01039
54.0769 6.01013
54.1269 5.95376
54.1771 5.92574
54.2271 5.90188
54.2773 5.87718
54.3274 5.8322
54.3776 5.77875
54.4277 5.76331
54.478 5.7201
54.528 5.69254
54.5783 5.67598
54.6285 5.63594
54.6788 5.55846
54.7289 5.58418
54.7792 5.5321
54.8296 5.43733
54.8798 5.41989
54.9301 5.41788
54.9803 5.3298
55.0307 5.30958
55.0809 5.28875
55.1314 5.25207
55.1816 5.17101
55.232 5.19083
55.2823 5.10453
55.3328 5.05005
55.383 5.0031
55.4335 4.97179
55.4838 4.9485
55.5344 4.88778
55.5847 4.8203
55.6352 4.79301
55.6856 4.81607
55.7361 4.72891