File: XRD/Ni3Fe_FD0696.xy
TT I
1.27165 7.58279
1.31627 6.89608
1.36089 6.33173
1.40551 5.66069
1.45013 5.95014
1.49476 5.49731
1.53938 5.74006
1.584 5.39562
1.62863 5.77152
1.67325 5.16386
1.71787 4.74288
1.7625 4.4811
1.80712 4.31873
1.85174 4.43766
1.89636 4.36988
1.94099 4.90059
1.98562 4.41101
2.03025 4.07472
2.07487 4.62068
2.11949 4.60735
2.16411 4.8254
2.20874 9.12025
2.25338 12.6311
2.298 5.00642
2.34263 5.20548
2.38725 5.92716
2.43188 5.69385
2.4765 6.50176
2.52115 5.88713
2.56577 7.37561
2.6104 8.52634
2.65503 7.6778
2.69965 8.01081
2.7443 7.98923
2.78893 7.90501
2.83356 8.62361
2.87818 9.06314
2.92281 9.28315
2.96744 8.96111
3.01209 10.3687
3.05672 10.7763
3.10135 12.0116
3.14599 12.7885
3.19062 13.3137
3.23527 14.6884
3.2799 15.6869
3.32454 16.4755
3.36917 17.6478
3.4138 18.541
3.45844 19.402
3.50309 20.7467
3.54773 21.2973
3.59237 23.1871
3.637 55.5401
3.68164 39.3658
3.7263 25.6038
3.77094 25.6817
3.81558 26.9888
3.86022 26.8407
3.90486 28.4814
3.9495 29.5949
3.99416 30.3215
4.0388 31.9755
4.08344 32.9215
4.12809 34.3547
4.17273 35.9341
4.21738 39.3946
4.26204 134.624
4.30669 117.394
4.35133 45.0899
4.39598 43.6304
4.44063 49.5326
4.4853 55.3327
4.52995 54.4297
4.5746 55.4893
4.61925 53.6229
4.6639 55.5675
4.70855 58.1506
4.75322 61.701
4.79788 67.1525
4.84253 68.1869
4.88719 74.4101
4.93184 76.5903
4.97652 81.2987
5.02118 87.4312
5.06583 95.1072
5.11049 107.384
5.15515 157.701
5.19981 429.011
5.24449 3024.56
5.28916 12622.9
5.33382 2633.91
5.37848 192.807
5.42315 130.786
5.46783 117.715
5.5125 110.199
5.55716 102.746
5.60183 98.3312
5.6465 96.2852
5.69117 94.3209
5.73586 92.5817
5.78053 96.7994
5.8252 96.1888
5.86988 98.7356
5.91455 95.5211
5.95924 106.224
6.00392 250.806
6.0486 1033.25
6.09328 4573.84
6.13795 3137.95
6.18263 217.524
6.22733 90.8349
6.27201 81.0199
6.3167 86.822
6.36138 75.0533
6.40606 69.5218
6.45075 68.974
6.49545 65.1723
6.54014 63.4237
6.58483 62.6721
6.62952 62.6524
6.67421 75.6947
6.71892 98.0385
6.76361 62.7044
6.8083 58.9165
6.853 58.7427
6.89769 56.6939
6.94239 55.9519
6.98711 55.242
7.03181 55.6553
7.07651 54.6783
7.12121 54.6368
7.16591 55.817
7.21063 54.8726
7.25533 61.6291
7.30004 108.38
7.34475 70.1723
7.38945 55.1491
7.43416 53.823
7.47889 53.6827
7.5236 54.4861
7.56831 54.8779
7.61303 55.6994
7.65774 56.0941
7.70247 56.2826
7.74719 56.0452
7.79191 56.1284
7.83663 56.8469
7.88135 57.5598
7.92607 58.5669
7.97081 59.6134
8.01553 60.7738
8.06026 62.4043
8.10498 63.8067
8.14971 70.5225
8.19446 70.5293
8.23919 69.3766
8.28392 71.6919
8.32865 74.2826
8.37339 78.6159
8.41812 83.8729
8.46288 105.399
8.50761 186.852
8.55235 410.018
8.59709 1245.65
8.64183 2210.8
8.68658 855.821
8.73134 152.907
8.77609 98.2313
8.82083 92.3772
8.86558 91.6788
8.91033 91.2776
8.9551 89.2869
8.99985 85.1598
9.04461 83.6351
9.08936 83.9266
9.13412 82.5315
9.17888 82.1409
9.22365 82.5312
9.26841 81.8571
9.31318 84.3321
9.35794 85.3568
9.4027 84.9728
9.44749 85.0506
9.49226 84.6652
9.53703 85.7539
9.5818 88.973
9.62657 93.3709
9.67134 95.3313
9.71614 93.3325
9.76091 94.9739
9.80569 98.6219
9.85047 100.969
9.89525 113.841
9.94005 129.868
9.98484 199.623
10.0296 365.632
10.0744 854.089
10.1192 1795.04
10.164 1561.36
10.2088 356.888
10.2536 121.997
10.2984 110.005
10.3432 108.739
10.388 105.413
10.4328 124.249
10.4776 165.914
10.5224 292.616
10.5672 513.332
10.612 493.367
10.6568 192.68
10.7017 94.1691
10.7465 86.1213
10.7913 83.033
10.8361 80.67
10.8809 78.602
10.9257 77.8664
10.9706 78.1731
11.0154 74.9102
11.0602 72.5808
11.105 71.1745
11.1499 72.8184
11.1947 75.4291
11.2395 70.6936
11.2844 68.5012
11.3292 66.8047
11.374 66.0228
11.4189 65.5434
11.4637 64.8828
11.5086 64.4793
11.5534 65.7193
11.5983 64.4008
11.6431 62.9842
11.688 62.8527
11.7328 62.7344
11.7777 62.4387
11.8225 62.6013
11.8674 62.2551
11.9122 62.7529
11.9571 62.9303
12.002 64.321
12.0468 69.4922
12.0917 79.6099
12.1366 105.613
12.1814 155.441
12.2263 204.537
12.2712 156.395
12.3161 87.5118
12.3609 67.4382
12.4058 63.9961
12.4507 63.9107
12.4956 64.3271
12.5405 64.5391
12.5853 65.0926
12.6302 68.9225
12.6751 71.6396
12.72 68.2441
12.7649 67.5397
12.8098 68.1571
12.8547 69.7771
12.8996 71.2805
12.9445 72.6099
12.9894 74.2855
13.0343 76.2077
13.0792 80.7118
13.1242 93.407
13.1691 114.223
13.214 153.245
13.2589 248.31
13.3038 380.865
13.3487 416.065
13.3937 250.098
13.4386 120.134
13.4835 108.589
13.5285 123.196
13.5734 164.177
13.6183 258.063
13.6633 357.646
13.7082 326.862
13.7531 171.21
13.7981 93.5118
13.843 81.2207
13.888 79.4329
13.9329 77.1605
13.9779 75.6021
14.0228 74.1019
14.0678 72.865
14.1127 72.4522
14.1577 71.9878
14.2027 71.286
14.2476 70.165
14.2926 69.9872
14.3376 70.4056
14.3825 69.5743
14.4275 68.7921
14.4725 68.6307
14.5175 68.8499
14.5624 69.0592
14.6074 69.812
14.6524 70.6755
14.6974 70.7462
14.7424 73.9757
14.7874 80.5566
14.8324 90.3971
14.8774 114.035
14.9224 159.853
14.9674 212.311
15.0124 215.963
15.0574 139.618
15.1024 86.4479
15.1474 71.7826
15.1924 70.0302
15.2374 69.6363
15.2824 68.8348
15.3274 67.4142
15.3725 66.724
15.4175 66.2071
15.4625 65.695
15.5076 65.9206
15.5526 66.0373
15.5976 66.171
15.6426 68.5528
15.6877 73.6442
15.7327 80.8466
15.7778 96.6872
15.8228 130.356
15.8679 174.307
15.9129 195.294
15.958 149.825
16.003 91.3668
16.0481 66.4566
16.0931 62.8423
16.1382 61.4135
16.1833 60.1132
16.2283 58.5232
16.2734 58.0614
16.3185 57.8623
16.3636 57.9039
16.4086 56.7394
16.4537 55.8991
16.4988 55.4729
16.5439 55.1672
16.589 55.0481
16.6341 54.7544
16.6792 54.3672
16.7243 54.8147
16.7694 54.4924
16.8145 54.5001
16.8596 54.6744
16.9047 55.8906
16.9498 55.8238
16.9949 55.2932
17.04 56.1046
17.0851 57.5268
17.1302 58.6318
17.1754 61.9301
17.2205 67.3358
17.2656 75.0635
17.3108 83.1221
17.3559 81.3736
17.401 69.7023
17.4462 61.1941
17.4913 59.1939
17.5365 58.8857
17.5815 59.0624
17.6268 59.6082
17.6718 60.1716
17.7171 60.6813
17.7622 61.4757
17.8074 62.5239
17.8525 65.6002
17.8977 68.9775
17.9428 74.2453
17.9881 83.9793
18.0331 102.435
18.0784 125.406
18.1237 142.379
18.1688 130.68
18.214 101.031
18.2591 86.1874
18.3044 91.5008
18.3495 101.002
18.3948 105.782
18.4399 94.2957
18.4852 75.2172
18.5303 64.9684
18.5756 62.0459
18.6207 61.1937
18.666 60.0773
18.7112 59.4037
18.7565 58.7705
18.8016 58.4891
18.8469 57.9696
18.892 57.3637
18.9374 57.2102
18.9825 57.0806
19.0278 56.637
19.073 57.0523
19.1183 57.5051
19.1635 57.9168
19.2088 59.2961
19.254 62.3074
19.2993 67.1965
19.3447 73.2542
19.3898 75.7625
19.4352 71.141
19.4804 62.0919
19.5257 56.2256
19.5709 54.0206
19.6163 53.716
19.6615 53.6301
19.7068 53.171
19.752 53.2207
19.7974 53.5482
19.8426 54.4024
19.888 54.8512
19.9332 56.2019
19.9786 59.1462
20.0238 62.9124
20.0692 67.6237
20.1144 69.6643
20.1598 67.5923
20.205 63.1008
20.2504 62.2518
20.2957 64.0744
20.3411 65.5853
20.3863 63.2487
20.4318 57.4882
20.477 52.9009
20.5224 51.0919
20.5677 50.4902
20.6131 49.9144
20.6586 49.5426
20.7038 49.1264
20.7493 48.8902
20.7945 48.8773
20.84 48.6991
20.8853 48.6194
20.9307 48.495
20.976 48.4121
21.0215 48.4963
21.0668 48.9558
21.1122 49.4011
21.1575 49.9497
21.203 50.7053
21.2483 51.2548
21.2938 51.4435
21.3391 49.6962
21.3846 48.7153
21.4299 48.2164
21.4754 48.3183
21.5207 48.657
21.5662 49.0102
21.6116 49.3842
21.6571 50.0197
21.7024 51.0145
21.7479 52.8439
21.7933 55.8665
21.8388 59.4377
21.8843 63.2037
21.9297 64.897
21.9752 62.7334
22.0206 59.1047
22.0661 56.1118
22.1115 56.0228
22.157 55.5575
22.2024 53.7419
22.248 51.1075
22.2933 49.566
22.3389 48.9449
22.3843 48.8674
22.4299 48.6636
22.4753 48.5627
22.5208 48.5147
22.5662 48.431
22.6118 48.6458
22.6572 48.831
22.7028 49.4017
22.7483 49.7223
22.7939 50.5666
22.8393 52.2378
22.8849 54.4694
22.9303 56.4341
22.9759 57.9884
23.0214 56.9548
23.067 53.9451
23.1126 50.7921
23.1581 48.8439
23.2037 48.6317
23.2492 48.9754
23.2948 48.7555
23.3403 48.9617
23.3859 49.6978
23.4314 50.8992
23.477 52.9831
23.5225 55.1155
23.5682 57.2171
23.6137 57.7584
23.6593 55.0759
23.7048 50.8151
23.7505 47.8522
23.796 46.348
23.8417 45.8537
23.8872 45.3742
23.9329 45.0424
23.9784 44.6764
24.0241 44.4025
24.0697 44.3221
24.1154 43.8791
24.1609 43.7794
24.2066 43.6326
24.2522 43.4981
24.2979 43.3437
24.3434 43.2245
24.3892 43.0764
24.4349 43.0499
24.4805 42.7829
24.5262 42.9506
24.5718 42.8329
24.6175 42.6826
24.6631 42.5701
24.7089 42.3663
24.7545 42.2613
24.8002 42.2145
24.8458 42.2093
24.8916 41.9375
24.9372 42.0914
24.983 42.6423
25.0286 42.7689
25.0744 43.2936
25.12 43.9807
25.1658 44.3376
25.2114 44.5759
25.2572 44.6939
25.3029 44.8444
25.3487 44.9344
25.3943 44.4935
25.4402 43.2298
25.4858 42.0735
25.5316 41.261
25.5773 40.8013
25.6231 40.8439
25.669 40.446
25.7147 40.4716
25.7605 40.3282
25.8062 40.3328
25.8521 40.5404
25.8977 40.5327
25.9436 40.8051
25.9893 40.9278
26.0352 41.3407
26.0809 41.4476
26.1268 41.6728
26.1725 41.2105
26.2184 40.6163
26.2641 40.1302
26.31 40.0957
26.3557 40.0676
26.4017 40.0196
26.4474 40.2742
26.4933 40.771
26.5391 41.3177
26.585 41.6434
26.6308 42.1503
26.6767 42.0997
26.7225 41.7929
26.7684 41.2132
26.8142 40.6766
26.8601 40.2566
26.9059 39.8919
26.9519 39.3882
26.9979 39.1339
27.0437 38.7752
27.0896 38.6288
27.1354 38.8435
27.1814 38.441
27.2272 38.4707
27.2732 38.4254
27.3191 38.2401
27.3651 38.5396
27.4109 38.4636
27.4569 38.506
27.5027 38.4523
27.5488 38.4507
27.5946 38.4309
27.6407 38.0455
27.6865 37.9123
27.7326 37.8298
27.7784 37.7623
27.8245 37.7265
27.8703 38.0219
27.9164 38.18
27.9623 38.3375
28.0084 38.8022
28.0543 38.9414
28.1003 38.9905
28.1462 38.7856
28.1923 38.371
28.2384 37.8083
28.2843 37.558
28.3304 37.0495
28.3764 36.5901
28.4225 36.3615
28.4684 36.0847
28.5145 35.8928
28.5605 35.7536
28.6066 35.6053
28.6526 35.4222
28.6987 35.6084
28.7447 35.4001
28.7908 35.3513
28.8368 35.4135
28.8829 35.2847
28.9289 35.3188
28.9751 35.047
29.0211 34.8778
29.0673 34.686
29.1133 34.5713
29.1595 34.2498
29.2055 34.3349
29.2517 34.2027
29.2977 34.1504
29.3439 34.2728
29.3899 34.1961
29.4361 34.0669
29.4824 33.8647
29.5284 33.7973
29.5746 33.3167
29.6207 33.0387
29.6669 32.9175
29.713 32.8277
29.7593 32.8043
29.8053 32.7932
29.8516 32.7883
29.8977 32.722
29.9439 32.5463
29.99 32.4508
30.0363 32.4014
30.0824 32.3841
30.1287 32.3636
30.1748 32.4573
30.2211 32.3924
30.2673 32.2117
30.3136 32.2325
30.3597 32.1603
30.406 32.0951
30.4522 32.0723
30.4985 32.0537
30.5447 31.9536
30.591 32.0698
30.6372 32.2033
30.6835 32.0799
30.7297 32.2267
30.7761 32.1248
30.8224 31.9481
30.8686 31.7778
30.915 31.5471
30.9612 31.4593
31.0076 31.3247
31.0538 31.0674
31.1002 31.106
31.1464 30.8599
31.1928 30.8295
31.2391 30.8837
31.2855 30.829
31.3317 30.813
31.3781 30.9196
31.4244 30.8257
31.4708 30.7891
31.5171 30.7307
31.5636 30.7074
31.6098 30.4774
31.6563 30.2632
31.7026 30.0929
31.7491 30.0638
31.7953 30.1359
31.8418 30.0546
31.8881 30.1141
31.9346 30.0719
31.9809 30.0141
32.0275 29.8062
32.074 29.7333
32.1203 29.5206
32.1668 29.481
32.2132 29.342
32.2597 29.1354
32.306 29.0742
32.3526 28.8896
32.399 28.8862
32.4455 28.6323
32.4919 28.6375
32.5385 28.5585
32.5848 28.4661
32.6314 28.3739
32.6778 28.3598
32.7244 28.187
32.7708 28.0882
32.8174 28.1026
32.8638 27.9511
32.9104 28.0854
32.9569 27.9918
33.0035 27.7452
33.0499 27.7713
33.0966 27.7373
33.143 27.7184
33.1897 27.6602
33.2361 27.5346
33.2828 27.4485
33.3293 27.3087
33.3759 27.3241
33.4226 27.1916
33.4691 26.9683
33.5158 27.0141
33.5623 26.6868
33.609 26.673
33.6555 26.5663
33.7022 26.5273
33.7487 26.4514
33.7954 26.3858
33.842 26.2977
33.8887 26.3093
33.9353 26.2215
33.982 26.1557
34.0286 25.9982
34.0753 25.9575
34.1219 25.9027
34.1687 25.7204
34.2152 25.6843
34.262 25.4805
34.3086 25.4704
34.3554 25.4934
34.402 25.2745
34.4488 25.2532
34.4954 25.1592
34.5422 25.1465
34.5889 24.9725
34.6357 24.9643
34.6825 24.9142
34.7292 24.7837
34.776 24.6077
34.8227 24.6105
34.8695 24.5841
34.9162 24.5275
34.9631 24.3847
35.0098 24.4575
35.0566 24.2677
35.1033 24.245
35.1502 24.2101
35.1969 24.1634
35.2438 24.087
35.2906 24.0659
35.3375 23.9885
35.3842 23.8821
35.4311 23.9017
35.4779 23.866
35.5248 23.7922
35.5716 23.7913
35.6185 23.651
35.6653 23.5426
35.7123 23.5065
35.759 23.3756
35.806 23.3187
35.8528 23.1667
35.8998 23.1742
35.9468 23.0385
35.9936 23.0208
36.0406 22.9993
36.0874 22.833
36.1345 22.8152
36.1813 22.718
36.2283 22.6587
36.2752 22.5307
36.3222 22.5336
36.3691 22.4828
36.4161 22.3378
36.463 22.3229
36.5101 22.3889
36.557 22.2858
36.6041 22.1762
36.651 22.1647
36.6981 22.1192
36.745 21.9729
36.7921 21.9479
36.839 21.8218
36.8861 21.7365
36.9331 21.694
36.9802 21.6079
37.0272 21.5527
37.0743 21.4193
37.1213 21.431
37.1684 21.3571
37.2154 21.2497
37.2626 21.2415
37.3098 21.1816
37.3568 21.0516
37.404 20.985
37.451 20.9614
37.4982 20.9211
37.5452 20.7569
37.5924 20.7489
37.6395 20.8085
37.6867 20.7258
37.7337 20.5457
37.781 20.519
37.8281 20.3767
37.8753 20.3184
37.9224 20.2688
37.9697 20.1588
38.0168 20.2246
38.064 20.0586
38.1111 20.0286
38.1584 19.9536
38.2056 19.9319
38.2529 19.8099
38.3 19.7633
38.3473 19.7321
38.3945 19.629
38.4418 19.587
38.489 19.5504
38.5363 19.4292
38.5837 19.3886
38.6309 19.3653
38.6782 19.2711
38.7254 19.2421
38.7728 19.1455
38.82 19.0506
38.8674 19.0967
38.9146 18.9982
38.9621 18.9527
39.0093 18.9381
39.0567 18.8021
39.104 18.7457
39.1514 18.6842
39.1987 18.6565
39.2461 18.6383
39.2934 18.532
39.3409 18.3706
39.3882 18.3804
39.4356 18.3652
39.483 18.2497
39.5304 18.177
39.5778 18.1748
39.6253 18.0836
39.6726 17.9952
39.7201 17.9676
39.7675 17.94
39.815 17.8716
39.8624 17.7702
39.9099 17.8232
39.9575 17.6943
40.0049 17.6444
40.0525 17.621
40.0999 17.5793
40.1474 17.5227
40.1949 17.3592
40.2425 17.3856
40.2899 17.3449
40.3375 17.267
40.385 17.1509
40.4326 17.1562
40.48 17.0586
40.5277 17.0641
40.5752 17.0307
40.6228 16.8947
40.6703 16.8935
40.718 16.8104
40.7655 16.7809
40.8132 16.7449
40.8607 16.7275
40.9084 16.6632
40.9559 16.5866
41.0036 16.5173
41.0512 16.5037
41.0989 16.4259
41.1465 16.3437
41.1942 16.3011
41.242 16.2074
41.2896 16.1688
41.3373 16.1477
41.3849 16.1131
41.4327 16.0119
41.4803 15.9288
41.5281 15.9411
41.5758 15.8815
41.6236 15.8238
41.6712 15.7731
41.7191 15.6984
41.7667 15.6743
41.8146 15.6311
41.8622 15.564
41.9101 15.5097
41.9578 15.4525
42.0057 15.3894
42.0534 15.3516
42.1013 15.3413
42.149 15.2327
42.1969 15.1798
42.2446 15.1277
42.2925 15.1086
42.3403 15.0741
42.3882 14.9998
42.436 14.9667
42.4839 14.8585
42.5319 14.8474
42.5797 14.7998
42.6277 14.716
42.6755 14.686
42.7235 14.6151
42.7713 14.5726
42.8193 14.5238
42.8671 14.4909
42.9152 14.4619
42.963 14.3815
43.0111 14.3274
43.0589 14.2686
43.107 14.1985
43.1549 14.2073
43.2029 14.1208
43.2508 14.1644
43.2989 14.0117
43.3468 13.9817
43.3949 13.9558
43.4429 13.8757
43.491 13.8442
43.5389 13.7785
43.5871 13.7676
43.635 13.7134
43.6832 13.6327
43.7312 13.5686
43.7793 13.5963
43.8273 13.5541
43.8755 13.4617
43.9237 13.4434
43.9717 13.4057
44.0199 13.378
44.068 13.2997
44.1162 13.2358
44.1642 13.2127
44.2125 13.1242
44.2606 13.102
44.3088 13.0411
44.3569 13.0524
44.4052 12.9633
44.4533 12.9241
44.5016 12.879
44.5497 12.8526
44.598 12.8151
44.6461 12.7221
44.6945 12.7061
44.7426 12.649
44.791 12.5945
44.8391 12.5606
44.8875 12.5156
44.9357 12.4678
44.984 12.4178
45.0322 12.3618
45.0806 12.3614
45.1288 12.3343
45.1773 12.2506
45.2257 12.2553
45.2739 12.1389
45.3224 12.1349
45.3706 12.0745
45.4191 12.0343
45.4673 12.0161
45.5158 11.9674
45.5641 11.9364
45.6126 11.8763
45.6609 11.7914
45.7094 11.7604
45.7577 11.7492
45.8063 11.6727
45.8546 11.6997
45.9031 11.6371
45.9515 11.5859
46.0001 11.549
46.0484 11.5304
46.097 11.4643
46.1454 11.4378
46.194 11.383
46.2424 11.3233
46.291 11.2775
46.3395 11.2453
46.3881 11.1885
46.4365 11.1557
46.4852 11.097
46.5337 11.0466
46.5823 11.072
46.631 10.9911
46.6795 11.0177
46.7282 10.9368
46.7767 10.9384
46.8254 10.8001
46.8739 10.7906
46.9226 10.7744
46.9712 10.7305
47.0199 10.6589
47.0685 10.6688
47.1173 10.6017
47.1658 10.5918
47.2146 10.5458
47.2632 10.454
47.312 10.4868
47.3606 10.3994
47.4095 10.3828
47.4581 10.3362
47.5069 10.2935
47.5556 10.2271
47.6044 10.2067
47.6531 10.2335
47.702 10.1574
47.7507 10.1088
47.7996 10.0831
47.8483 10.051
47.8972 9.99915
47.9461 9.93608
47.9948 9.90351
48.0438 9.8998
48.0925 9.87532
48.1415 9.85574
48.1902 9.76273
48.2392 9.75369
48.288 9.6971
48.337 9.71482
48.3858 9.62524
48.4348 9.6073
48.4837 9.58086
48.5327 9.54531
48.5815 9.49895
48.6306 9.46091
48.6795 9.45886
48.7285 9.3988
48.7774 9.38384
48.8265 9.34213
48.8754 9.31309
48.9245 9.24448
48.9734 9.21459
49.0226 9.22012
49.0715 9.20696
49.1206 9.15801
49.1696 9.08406
49.2188 9.0355
49.2679 9.02534
49.3169 8.982
49.3661 8.9631
49.4151 8.90824
49.4643 8.88701
49.5134 8.89169
49.5626 8.80364
49.6117 8.77346
49.6609 8.70776
49.71 8.69197
49.7592 8.68619
49.8083 8.61782
49.8576 8.60518
49.9067 8.60054
49.956 8.54509
50.0052 8.50426
50.0545 8.47355
50.1036 8.44272
50.153 8.398
50.2022 8.35839
50.2515 8.34937
50.3007 8.31427
50.3501 8.29189
50.3993 8.22933
50.4487 8.21896
50.498 8.18666
50.5474 8.15049
50.5966 8.10185
50.6461 8.13848
50.6955 8.07279
50.7448 8.05419
50.7943 8.00008
50.8436 7.95801
50.8931 7.90727
50.9424 7.87712
50.9919 7.86761
51.0413 7.85576
51.0908 7.81234
51.1402 7.80394
51.1897 7.78083
51.2391 7.7255
51.2887 7.66235
51.3381 7.64667
51.3877 7.64995
51.4371 7.58069
51.4867 7.55668
51.5362 7.52448
51.5858 7.47616
51.6353 7.44577
51.6849 7.45707
51.7344 7.45111
51.7841 7.37802
51.8336 7.33186
51.8833 7.32915
51.9328 7.30393
51.9826 7.23479
52.0323 7.22373
52.0818 7.18607
52.1316 7.14182
52.1812 7.15453
52.231 7.12904
52.2806 7.08369
52.3304 7.04585
52.38 6.95837
52.4298 7.01158
52.4794 6.94633
52.5293 6.90487
52.5789 6.88615
52.6288 6.89938
52.6785 6.80495
52.7284 6.85805
52.7781 6.75881
52.828 6.78584
52.8777 6.73627
52.9276 6.67699
52.9774 6.66918
53.0273 6.63327
53.0771 6.62042
53.1271 6.63395
53.1769 6.56979
53.2269 6.51572
53.2767 6.50891
53.3267 6.46939
53.3765 6.49122
53.4266 6.43076
53.4766 6.37736
53.5265 6.32545
53.5765 6.31924
53.6264 6.31216
53.6765 6.3076
53.7264 6.28378
53.7765 6.23286
53.8265 6.17323
53.8766 6.15723
53.9266 6.16389
53.9767 6.1182
54.0267 6.09223
54.0769 6.03086
54.1269 6.06599
54.1771 5.99323
54.2271 5.96443
54.2773 5.93772
54.3274 5.9337
54.3776 5.86288
54.4277 5.83459
54.478 5.86091
54.528 5.80464
54.5783 5.76237
54.6285 5.66625
54.6788 5.64298
54.7289 5.66472
54.7792 5.6394
54.8296 5.53501
54.8798 5.45243
54.9301 5.47177
54.9803 5.41574
55.0307 5.45328
55.0809 5.31336
55.1314 5.35416
55.1816 5.26927
55.232 5.23319
55.2823 5.20212
55.3328 5.11577
55.383 5.11207
55.4335 5.04629
55.4838 4.95488
55.5344 4.95846
55.5847 4.92404
55.6352 4.90561
55.6856 4.84981
55.7361 4.82218