File: XRD/Ni3Fe_FD0469.xy
TT I
1.27165 7.24682
1.31627 6.47703
1.36089 6.87743
1.40551 6.3338
1.45013 6.50446
1.49476 6.22165
1.53938 6.3561
1.584 5.24094
1.62863 5.14997
1.67325 4.67158
1.71787 4.97021
1.7625 5.00962
1.80712 4.95075
1.85174 4.39278
1.89636 4.88149
1.94099 4.42132
1.98562 4.76222
2.03025 4.05496
2.07487 4.40981
2.11949 4.86649
2.16411 4.84756
2.20874 8.87383
2.25338 12.9965
2.298 5.78652
2.34263 5.00102
2.38725 5.53653
2.43188 5.26413
2.4765 6.13841
2.52115 6.09083
2.56577 6.75521
2.6104 7.73383
2.65503 7.39065
2.69965 7.26744
2.7443 7.77682
2.78893 7.92838
2.83356 8.05999
2.87818 8.53108
2.92281 8.78793
2.96744 9.08145
3.01209 10.2309
3.05672 11.0699
3.10135 11.7464
3.14599 12.9589
3.19062 14.2459
3.23527 15.0351
3.2799 15.6229
3.32454 16.6888
3.36917 17.5857
3.4138 19.0168
3.45844 19.2719
3.50309 20.9003
3.54773 21.4417
3.59237 23.626
3.637 56.5971
3.68164 40.2195
3.7263 25.8397
3.77094 26.0093
3.81558 27.0238
3.86022 27.4337
3.90486 29.1643
3.9495 29.5392
3.99416 31.1849
4.0388 32.1609
4.08344 33.3873
4.12809 34.6535
4.17273 36.2929
4.21738 40.746
4.26204 141.465
4.30669 123.892
4.35133 45.5828
4.39598 44.3634
4.44063 49.9499
4.4853 56.78
4.52995 53.649
4.5746 54.2365
4.61925 53.9354
4.6639 56.848
4.70855 59.6541
4.75322 62.7779
4.79788 66.9058
4.84253 69.2164
4.88719 74.4146
4.93184 77.3702
4.97652 83.2007
5.02118 90.2594
5.06583 98.9969
5.11049 112.259
5.15515 166.297
5.19981 531.439
5.24449 3500.63
5.28916 11724.8
5.33382 2829.28
5.37848 204.397
5.42315 135.061
5.46783 119.61
5.5125 110.941
5.55716 105.107
5.60183 100.452
5.6465 98.9441
5.69117 96.7804
5.73586 95.3527
5.78053 96.9644
5.8252 96.3792
5.86988 97.8394
5.91455 99.2435
5.95924 112.171
6.00392 295.441
6.0486 1197.16
6.09328 4256.35
6.13795 3253.49
6.18263 251.764
6.22733 95.9384
6.27201 83.6907
6.3167 88.9052
6.36138 76.8077
6.40606 71.0023
6.45075 69.2111
6.49545 65.7612
6.54014 64.2834
6.58483 63.7183
6.62952 63.3095
6.67421 77.5157
6.71892 99.6868
6.76361 64.0352
6.8083 58.8879
6.853 59.0484
6.89769 57.1466
6.94239 56.8908
6.98711 56.1995
7.03181 56.0511
7.07651 56.1237
7.12121 55.9893
7.16591 55.9956
7.21063 55.9641
7.25533 63.0902
7.30004 111.503
7.34475 72.2662
7.38945 55.9668
7.43416 54.9149
7.47889 54.8712
7.5236 55.0575
7.56831 55.6878
7.61303 56.437
7.65774 57.0968
7.70247 57.2693
7.74719 56.8478
7.79191 57.4024
7.83663 57.6939
7.88135 58.6674
7.92607 59.429
7.97081 60.659
8.01553 61.8858
8.06026 63.3568
8.10498 65.066
8.14971 71.5321
8.19446 71.5577
8.23919 70.6415
8.28392 73.3425
8.32865 76.2348
8.37339 80.7988
8.41812 86.6889
8.46288 109.79
8.50761 210.929
8.55235 468.309
8.59709 1237.49
8.64183 2141.14
8.68658 970.96
8.73134 167.024
8.77609 101.823
8.82083 94.7269
8.86558 92.3517
8.91033 91.5908
8.9551 90.5409
8.99985 86.7626
9.04461 84.9755
9.08936 85.0382
9.13412 83.6705
9.17888 83.8235
9.22365 83.9452
9.26841 83.4187
9.31318 85.1322
9.35794 85.9901
9.4027 85.567
9.44749 86.1406
9.49226 86.2462
9.53703 87.3158
9.5818 90.2353
9.62657 93.4673
9.67134 96.6054
9.71614 95.0019
9.76091 96.7297
9.80569 99.6672
9.85047 102.722
9.89525 116.942
9.94005 135.428
9.98484 221.896
10.0296 411.963
10.0744 893.239
10.1192 1721.58
10.164 1609.35
10.2088 397.6
10.2536 129.546
10.2984 113.123
10.3432 112.331
10.388 108.523
10.4328 132.429
10.4776 179.807
10.5224 303.284
10.5672 505.532
10.612 492.341
10.6568 200.272
10.7017 97.4391
10.7465 88.2375
10.7913 84.7472
10.8361 82.6219
10.8809 80.2788
10.9257 78.9637
10.9706 78.875
11.0154 75.9151
11.0602 74.0294
11.105 72.8114
11.1499 74.4387
11.1947 76.9967
11.2395 72.374
11.2844 70.0078
11.3292 68.0847
11.374 67.0186
11.4189 66.9287
11.4637 66.0199
11.5086 65.7443
11.5534 67.0262
11.5983 65.5831
11.6431 64.5918
11.688 63.9123
11.7328 63.8264
11.7777 63.8582
11.8225 63.706
11.8674 63.2873
11.9122 63.8193
11.9571 64.3152
12.002 66.0453
12.0468 72.5561
12.0917 84.2651
12.1366 109.78
12.1814 156.76
12.2263 201.489
12.2712 169.652
12.3161 91.4428
12.3609 69.13
12.4058 65.2394
12.4507 65.1493
12.4956 65.7451
12.5405 65.719
12.5853 66.5101
12.6302 70.1172
12.6751 73.2257
12.72 69.5682
12.7649 69.2221
12.8098 69.7528
12.8547 70.6096
12.8996 72.5144
12.9445 74.2202
12.9894 75.91
13.0343 77.889
13.0792 82.2991
13.1242 97.8608
13.1691 122.795
13.214 163.334
13.2589 252.675
13.3038 369.916
13.3487 419.944
13.3937 258.814
13.4386 124.046
13.4835 114.06
13.5285 131.239
13.5734 171.94
13.6183 255.379
13.6633 340.248
13.7082 338.041
13.7531 186.189
13.7981 97.5119
13.843 82.9097
13.888 80.9556
13.9329 78.4377
13.9779 77.189
14.0228 76.0837
14.0678 74.2088
14.1127 73.4671
14.1577 73.3101
14.2027 72.5629
14.2476 71.8698
14.2926 71.3761
14.3376 71.9644
14.3825 70.9795
14.4275 70.1973
14.4725 70.0521
14.5175 70.1814
14.5624 70.1282
14.6074 71.3309
14.6524 72.1374
14.6974 72.3796
14.7424 76.2209
14.7874 84.0816
14.8324 95.5189
14.8774 118.851
14.9224 158.239
14.9674 203.449
15.0124 214.627
15.0574 146.613
15.1024 90.4263
15.1474 73.4402
15.1924 71.2327
15.2374 71.2797
15.2824 70.232
15.3274 68.9804
15.3725 67.9844
15.4175 67.5968
15.4625 67.3871
15.5076 67.052
15.5526 67.3799
15.5976 67.5018
15.6426 70.3301
15.6877 76.7605
15.7327 85.1443
15.7778 101.354
15.8228 131.336
15.8679 168.619
15.9129 190.439
15.958 153.944
16.003 95.0114
16.0481 68.1184
16.0931 64.3291
16.1382 62.5038
16.1833 61.4132
16.2283 59.7829
16.2734 59.1451
16.3185 59.0357
16.3636 59.1928
16.4086 58.079
16.4537 57.0251
16.4988 56.4394
16.5439 56.452
16.589 56.1186
16.6341 55.9251
16.6792 55.4533
16.7243 55.7591
16.7694 55.8704
16.8145 55.7314
16.8596 56.0862
16.9047 56.8378
16.9498 56.9928
16.9949 56.4651
17.04 57.2337
17.0851 58.5473
17.1302 60.5355
17.1754 63.5963
17.2205 68.8916
17.2656 75.4379
17.3108 82.7406
17.3559 82.408
17.401 71.7172
17.4462 63.0382
17.4913 60.1563
17.5365 60.118
17.5815 60.2663
17.6268 60.6001
17.6718 61.2461
17.7171 61.8841
17.7622 62.575
17.8074 63.7908
17.8525 67.3691
17.8977 71.2776
17.9428 77.3242
17.9881 87.1521
18.0331 102.938
18.0784 122.373
18.1237 139.975
18.1688 132.895
18.214 105.678
18.2591 88.9296
18.3044 92.3672
18.3495 100.446
18.3948 106.527
18.4399 97.0858
18.4852 78.0368
18.5303 66.5936
18.5756 63.1037
18.6207 62.1209
18.666 61.1506
18.7112 60.7823
18.7565 59.9918
18.8016 59.7789
18.8469 58.9418
18.892 58.662
18.9374 58.2662
18.9825 57.9385
19.0278 57.791
19.073 58.2038
19.1183 58.8407
19.1635 59.4419
19.2088 60.9905
19.254 63.9846
19.2993 67.9494
19.3447 72.8307
19.3898 76.4794
19.4352 72.8258
19.4804 63.8864
19.5257 57.4029
19.5709 55.1737
19.6163 54.7257
19.6615 54.7132
19.7068 54.3432
19.752 54.3655
19.7974 54.7592
19.8426 55.6445
19.888 56.2966
19.9332 57.5575
19.9786 60.3045
20.0238 63.8001
20.0692 68.0657
20.1144 70.6323
20.1598 69.2371
20.205 64.6089
20.2504 62.8796
20.2957 64.5962
20.3411 66.2216
20.3863 64.6896
20.4318 58.7289
20.477 54.1224
20.5224 52.0839
20.5677 51.5955
20.6131 51.0479
20.6586 50.3794
20.7038 50.2808
20.7493 49.7656
20.7945 49.7841
20.84 49.5048
20.8853 49.5787
20.9307 49.5462
20.976 49.6051
21.0215 49.634
21.0668 49.9642
21.1122 50.5219
21.1575 51.0175
21.203 51.4482
21.2483 52.2535
21.2938 52.2878
21.3391 50.891
21.3846 49.7035
21.4299 49.3434
21.4754 49.1278
21.5207 49.7047
21.5662 50.0258
21.6116 50.3955
21.6571 51.0884
21.7024 52.1597
21.7479 54.042
21.7933 56.7682
21.8388 59.8956
21.8843 63.3465
21.9297 65.226
21.9752 63.8068
22.0206 60.0458
22.0661 57.0316
22.1115 56.5201
22.157 56.6467
22.2024 55.006
22.248 52.2373
22.2933 50.6018
22.3389 49.8412
22.3843 49.6417
22.4299 49.4453
22.4753 49.5721
22.5208 49.4243
22.5662 49.2832
22.6118 49.666
22.6572 49.83
22.7028 50.2554
22.7483 50.8287
22.7939 51.6203
22.8393 53.0385
22.8849 54.9367
22.9303 56.6897
22.9759 58.3463
23.0214 57.8583
23.067 55.1146
23.1126 51.8599
23.1581 49.8664
23.2037 49.466
23.2492 49.8544
23.2948 49.7944
23.3403 50.2393
23.3859 50.8182
23.4314 52.1793
23.477 53.6259
23.5225 55.5064
23.5682 57.3476
23.6137 58.113
23.6593 56.1941
23.7048 52.1783
23.7505 48.7833
23.796 47.2724
23.8417 46.8264
23.8872 46.2169
23.9329 46.0066
23.9784 45.5605
24.0241 45.3272
24.0697 45.222
24.1154 44.7915
24.1609 44.6835
24.2066 44.3676
24.2522 44.3303
24.2979 44.2042
24.3434 44.0118
24.3892 43.8052
24.4349 43.8033
24.4805 43.675
24.5262 43.7576
24.5718 43.6562
24.6175 43.631
24.6631 43.3865
24.7089 43.1537
24.7545 43.0948
24.8002 42.9677
24.8458 43.0117
24.8916 42.7512
24.9372 42.9374
24.983 43.4395
25.0286 43.6068
25.0744 44.0868
25.12 44.4227
25.1658 45.095
25.2114 45.7116
25.2572 45.3186
25.3029 45.2835
25.3487 45.5547
25.3943 45.1737
25.4402 44.0973
25.4858 43.013
25.5316 42.0501
25.5773 41.4713
25.6231 41.4471
25.669 41.3344
25.7147 41.182
25.7605 41.1333
25.8062 41.2292
25.8521 41.3029
25.8977 41.3077
25.9436 41.5367
25.9893 41.6364
26.0352 42.0926
26.0809 42.0993
26.1268 42.3724
26.1725 42.0426
26.2184 41.4645
26.2641 41.0703
26.31 40.7011
26.3557 40.8403
26.4017 40.9989
26.4474 41.1072
26.4933 41.4937
26.5391 41.8103
26.585 42.4102
26.6308 42.5933
26.6767 42.7805
26.7225 42.5382
26.7684 41.9545
26.8142 41.4029
26.8601 40.9435
26.9059 40.6306
26.9519 40.0304
26.9979 39.8674
27.0437 39.5417
27.0896 39.4437
27.1354 39.3087
27.1814 39.2672
27.2272 39.2575
27.2732 39.1049
27.3191 38.984
27.3651 39.0948
27.4109 39.0261
27.4569 39.1121
27.5027 39.21
27.5488 39.2215
27.5946 39.0544
27.6407 38.6852
27.6865 38.6539
27.7326 38.4443
27.7784 38.4708
27.8245 38.4227
27.8703 38.6438
27.9164 39.0699
27.9623 38.9411
28.0084 39.2759
28.0543 39.668
28.1003 39.4818
28.1462 39.3839
28.1923 39.018
28.2384 38.5132
28.2843 38.2809
28.3304 37.6879
28.3764 37.2154
28.4225 37.0412
28.4684 36.9021
28.5145 36.5237
28.5605 36.4307
28.6066 36.229
28.6526 36.2038
28.6987 36.2143
28.7447 36.0385
28.7908 36.0437
28.8368 35.9856
28.8829 36.0806
28.9289 35.8536
28.9751 35.7656
29.0211 35.5782
29.0673 35.2063
29.1133 35.0628
29.1595 35.0102
29.2055 34.9074
29.2517 34.8958
29.2977 34.8498
29.3439 34.8249
29.3899 34.7032
29.4361 34.6365
29.4824 34.4621
29.5284 34.2624
29.5746 33.8684
29.6207 33.7253
29.6669 33.6017
29.713 33.4624
29.7593 33.3916
29.8053 33.3918
29.8516 33.3315
29.8977 33.3145
29.9439 33.1993
29.99 33.0973
30.0363 32.9703
30.0824 32.9752
30.1287 32.8372
30.1748 33.0481
30.2211 32.9366
30.2673 32.814
30.3136 32.8701
30.3597 32.7949
30.406 32.7876
30.4522 32.6065
30.4985 32.572
30.5447 32.7397
30.591 32.7114
30.6372 32.6992
30.6835 32.6289
30.7297 32.6849
30.7761 32.7234
30.8224 32.5641
30.8686 32.3499
30.915 32.0957
30.9612 31.935
31.0076 31.7462
31.0538 31.6285
31.1002 31.5357
31.1464 31.4566
31.1928 31.4641
31.2391 31.5087
31.2855 31.3076
31.3317 31.2014
31.3781 31.3914
31.4244 31.3658
31.4708 31.2574
31.5171 31.3187
31.5636 31.2192
31.6098 31.0082
31.6563 30.8823
31.7026 30.6661
31.7491 30.6491
31.7953 30.6529
31.8418 30.6393
31.8881 30.5921
31.9346 30.6442
31.9809 30.5288
32.0275 30.3363
32.074 30.2949
32.1203 30.0778
32.1668 30.0471
32.2132 29.8032
32.2597 29.6307
32.306 29.6633
32.3526 29.4263
32.399 29.4117
32.4455 29.3049
32.4919 29.151
32.5385 29.0987
32.5848 28.9406
32.6314 28.9723
32.6778 28.8779
32.7244 28.6681
32.7708 28.6792
32.8174 28.571
32.8638 28.3924
32.9104 28.5854
32.9569 28.3806
33.0035 28.3021
33.0499 28.3939
33.0966 28.3315
33.143 28.2302
33.1897 28.1518
33.2361 28.0075
33.2828 27.9415
33.3293 27.8044
33.3759 27.8856
33.4226 27.6483
33.4691 27.4474
33.5158 27.4958
33.5623 27.2593
33.609 27.1406
33.6555 27.1507
33.7022 26.945
33.7487 26.9198
33.7954 26.9106
33.842 26.7728
33.8887 26.7534
33.9353 26.6741
33.982 26.5782
34.0286 26.4163
34.0753 26.3504
34.1219 26.3226
34.1687 26.2269
34.2152 26.1115
34.262 26.0055
34.3086 26.0366
34.3554 25.9399
34.402 25.7834
34.4488 25.7161
34.4954 25.6891
34.5422 25.5424
34.5889 25.5077
34.6357 25.4063
34.6825 25.2487
34.7292 25.1507
34.776 25.1492
34.8227 25.1285
34.8695 25.0766
34.9162 24.9539
34.9631 24.8476
35.0098 24.9297
35.0566 24.8186
35.1033 24.6281
35.1502 24.6575
35.1969 24.602
35.2438 24.557
35.2906 24.4167
35.3375 24.4115
35.3842 24.4297
35.4311 24.3877
35.4779 24.2771
35.5248 24.2152
35.5716 24.0811
35.6185 24.0671
35.6653 23.9626
35.7123 23.8875
35.759 23.8251
35.806 23.7757
35.8528 23.6666
35.8998 23.5065
35.9468 23.4978
35.9936 23.4032
36.0406 23.3961
36.0874 23.3599
36.1345 23.2852
36.1813 23.1504
36.2283 23.0966
36.2752 22.9638
36.3222 22.9969
36.3691 22.8075
36.4161 22.8163
36.463 22.7384
36.5101 22.7485
36.557 22.6679
36.6041 22.532
36.651 22.555
36.6981 22.4881
36.745 22.3979
36.7921 22.3242
36.839 22.1736
36.8861 22.1746
36.9331 22.0761
36.9802 22.038
37.0272 21.9313
37.0743 21.825
37.1213 21.8473
37.1684 21.7291
37.2154 21.6402
37.2626 21.561
37.3098 21.4964
37.3568 21.4826
37.404 21.3853
37.451 21.3643
37.4982 21.2555
37.5452 21.1256
37.5924 21.074
37.6395 21.0972
37.6867 21.0726
37.7337 20.8804
37.781 20.8051
37.8281 20.8114
37.8753 20.7693
37.9224 20.6719
37.9697 20.6101
38.0168 20.4876
38.064 20.4573
38.1111 20.4371
38.1584 20.2684
38.2056 20.2951
38.2529 20.207
38.3 20.169
38.3473 20.1289
38.3945 20.0382
38.4418 19.9306
38.489 19.9172
38.5363 19.837
38.5837 19.7289
38.6309 19.6587
38.6782 19.629
38.7254 19.587
38.7728 19.5147
38.82 19.4204
38.8674 19.3951
38.9146 19.3001
38.9621 19.2677
39.0093 19.242
39.0567 19.1949
39.104 19.0757
39.1514 18.9815
39.1987 18.9506
39.2461 18.929
39.2934 18.8439
39.3409 18.7497
39.3882 18.6856
39.4356 18.683
39.483 18.5748
39.5304 18.5218
39.5778 18.5096
39.6253 18.4358
39.6726 18.3958
39.7201 18.3324
39.7675 18.2453
39.815 18.2559
39.8624 18.148
39.9099 18.0817
39.9575 18.0259
40.0049 17.9161
40.0525 17.8777
40.0999 17.8571
40.1474 17.8207
40.1949 17.7411
40.2425 17.6508
40.2899 17.63
40.3375 17.5578
40.385 17.5058
40.4326 17.4428
40.48 17.3923
40.5277 17.3975
40.5752 17.2705
40.6228 17.2396
40.6703 17.1492
40.718 17.1779
40.7655 17.0384
40.8132 17.0035
40.8607 17.0409
40.9084 16.9707
40.9559 16.8682
41.0036 16.848
41.0512 16.75
41.0989 16.7259
41.1465 16.655
41.1942 16.609
41.242 16.4993
41.2896 16.4829
41.3373 16.4045
41.3849 16.4055
41.4327 16.2838
41.4803 16.2053
41.5281 16.259
41.5758 16.1454
41.6236 16.0492
41.6712 15.9803
41.7191 15.9586
41.7667 15.9497
41.8146 15.8662
41.8622 15.8316
41.9101 15.8397
41.9578 15.64
42.0057 15.6566
42.0534 15.6429
42.1013 15.5645
42.149 15.463
42.1969 15.426
42.2446 15.4173
42.2925 15.3386
42.3403 15.2708
42.3882 15.2902
42.436 15.1953
42.4839 15.0955
42.5319 15.1273
42.5797 15.012
42.6277 15.0124
42.6755 14.981
42.7235 14.8554
42.7713 14.8248
42.8193 14.782
42.8671 14.7204
42.9152 14.7343
42.963 14.6684
43.0111 14.5906
43.0589 14.4984
43.107 14.4644
43.1549 14.4219
43.2029 14.3876
43.2508 14.3764
43.2989 14.2432
43.3468 14.2099
43.3949 14.2041
43.4429 14.1627
43.491 14.0675
43.5389 13.9931
43.5871 14.0131
43.635 13.9831
43.6832 13.84
43.7312 13.8411
43.7793 13.7685
43.8273 13.7262
43.8755 13.7046
43.9237 13.6573
43.9717 13.6161
44.0199 13.5918
44.068 13.5287
44.1162 13.4561
44.1642 13.5
44.2125 13.3677
44.2606 13.3717
44.3088 13.2773
44.3569 13.2159
44.4052 13.2265
44.4533 13.0848
44.5016 13.1226
44.5497 13.0601
44.598 12.9826
44.6461 12.9289
44.6945 12.9246
44.7426 12.8712
44.791 12.7891
44.8391 12.7696
44.8875 12.6924
44.9357 12.6837
44.984 12.6912
45.0322 12.5591
45.0806 12.5422
45.1288 12.5416
45.1773 12.4525
45.2257 12.4445
45.2739 12.354
45.3224 12.3591
45.3706 12.2774
45.4191 12.2104
45.4673 12.2399
45.5158 12.1668
45.5641 12.0989
45.6126 12.11
45.6609 11.9859
45.7094 12.0013
45.7577 11.922
45.8063 11.8254
45.8546 11.8691
45.9031 11.8183
45.9515 11.7596
46.0001 11.7515
46.0484 11.6938
46.097 11.6048
46.1454 11.6124
46.194 11.5703
46.2424 11.5663
46.291 11.4531
46.3395 11.4634
46.3881 11.3881
46.4365 11.3591
46.4852 11.3337
46.5337 11.2511
46.5823 11.2191
46.631 11.2182
46.6795 11.18
46.7282 11.1365
46.7767 11.0741
46.8254 10.9944
46.8739 10.9538
46.9226 10.906
46.9712 10.9001
47.0199 10.8401
47.0685 10.8011
47.1173 10.7752
47.1658 10.7201
47.2146 10.6828
47.2632 10.66
47.312 10.6271
47.3606 10.588
47.4095 10.5071
47.4581 10.4851
47.5069 10.5073
47.5556 10.4134
47.6044 10.3708
47.6531 10.327
47.702 10.3116
47.7507 10.2826
47.7996 10.2683
47.8483 10.1632
47.8972 10.2094
47.9461 10.1462
47.9948 10.0638
48.0438 10.0422
48.0925 9.98715
48.1415 9.93326
48.1902 9.97542
48.2392 9.93622
48.288 9.85941
48.337 9.80942
48.3858 9.80419
48.4348 9.76595
48.4837 9.80699
48.5327 9.70228
48.5815 9.67407
48.6306 9.6585
48.6795 9.59387
48.7285 9.52493
48.7774 9.53231
48.8265 9.50635
48.8754 9.43488
48.9245 9.42165
48.9734 9.36703
49.0226 9.3408
49.0715 9.28723
49.1206 9.26798
49.1696 9.22741
49.2188 9.21668
49.2679 9.18079
49.3169 9.16624
49.3661 9.09428
49.4151 9.04886
49.4643 9.03739
49.5134 8.99239
49.5626 8.92663
49.6117 8.91758
49.6609 8.88552
49.71 8.85736
49.7592 8.85871
49.8083 8.78939
49.8576 8.78259
49.9067 8.69614
49.956 8.71128
50.0052 8.66715
50.0545 8.64777
50.1036 8.58032
50.153 8.55368
50.2022 8.51351
50.2515 8.50735
50.3007 8.44978
50.3501 8.39584
50.3993 8.40348
50.4487 8.36847
50.498 8.33938
50.5474 8.30341
50.5966 8.23314
50.6461 8.23945
50.6955 8.17305
50.7448 8.19071
50.7943 8.11619
50.8436 8.10993
50.8931 8.05813
50.9424 8.06235
50.9919 8.03313
51.0413 7.98609
51.0908 7.94033
51.1402 7.9106
51.1897 7.90052
51.2391 7.852
51.2887 7.81513
51.3381 7.82679
51.3877 7.75323
51.4371 7.70061
51.4867 7.67168
51.5362 7.633
51.5858 7.653
51.6353 7.60138
51.6849 7.56846
51.7344 7.53311
51.7841 7.52401
51.8336 7.5105
51.8833 7.43781
51.9328 7.3846
51.9826 7.37575
52.0323 7.32358
52.0818 7.33691
52.1316 7.2921
52.1812 7.28428
52.231 7.21389
52.2806 7.18793
52.3304 7.17503
52.38 7.1307
52.4298 7.11796
52.4794 7.04113
52.5293 7.04786
52.5789 6.99279
52.6288 7.00531
52.6785 6.9715
52.7284 6.94032
52.7781 6.91596
52.828 6.88048
52.8777 6.84049
52.9276 6.7927
52.9774 6.79277
53.0273 6.76783
53.0771 6.728
53.1271 6.73855
53.1769 6.66673
53.2269 6.61741
53.2767 6.63712
53.3267 6.58856
53.3765 6.56917
53.4266 6.55226
53.4766 6.52532
53.5265 6.45427
53.5765 6.43959
53.6264 6.44793
53.6765 6.39971
53.7264 6.36979
53.7765 6.33691
53.8265 6.33809
53.8766 6.28741
53.9266 6.27041
53.9767 6.20621
54.0267 6.20448
54.0769 6.19484
54.1269 6.12134
54.1771 6.09437
54.2271 6.11521
54.2773 6.04189
54.3274 6.01157
54.3776 6.00692
54.4277 5.97556
54.478 5.93743
54.528 5.91149
54.5783 5.82048
54.6285 5.80606
54.6788 5.7771
54.7289 5.70399
54.7792 5.64146
54.8296 5.67731
54.8798 5.60605
54.9301 5.53385
54.9803 5.58191
55.0307 5.51022
55.0809 5.45694
55.1314 5.4388
55.1816 5.31503
55.232 5.34823
55.2823 5.27216
55.3328 5.24334
55.383 5.201
55.4335 5.10732
55.4838 5.06767
55.5344 4.99879
55.5847 5.02363
55.6352 4.95307
55.6856 4.931
55.7361 4.90399