File: XRD/Ni3Fe_FD0794.xy
TT I
1.27165 7.25865
1.31627 7.3836
1.36089 6.47816
1.40551 5.20289
1.45013 5.86494
1.49476 6.24889
1.53938 5.8412
1.584 4.94552
1.62863 5.42605
1.67325 4.82564
1.71787 5.35384
1.7625 4.90844
1.80712 4.8525
1.85174 4.79594
1.89636 4.4372
1.94099 5.20404
1.98562 4.85792
2.03025 4.66531
2.07487 4.57377
2.11949 4.98654
2.16411 4.95063
2.20874 10.9295
2.25338 14.9114
2.298 6.17232
2.34263 6.49453
2.38725 6.40723
2.43188 6.29823
2.4765 6.56512
2.52115 7.51564
2.56577 7.39415
2.6104 8.54739
2.65503 7.19627
2.69965 7.77362
2.7443 9.06006
2.78893 8.49664
2.83356 8.5938
2.87818 8.82308
2.92281 8.80575
2.96744 9.53351
3.01209 10.2981
3.05672 11.3005
3.10135 12.0723
3.14599 12.9513
3.19062 14.1992
3.23527 15.2245
3.2799 15.6844
3.32454 16.8355
3.36917 17.4694
3.4138 18.8507
3.45844 19.865
3.50309 20.976
3.54773 21.7354
3.59237 23.0758
3.637 63.9983
3.68164 43.7522
3.7263 25.5299
3.77094 25.829
3.81558 26.5097
3.86022 26.8136
3.90486 28.6311
3.9495 29.9752
3.99416 30.4851
4.0388 31.9054
4.08344 33.2785
4.12809 34.345
4.17273 36.3823
4.21738 39.8575
4.26204 163.817
4.30669 140.711
4.35133 45.114
4.39598 43.4732
4.44063 50.1798
4.4853 57.656
4.52995 52.1168
4.5746 53.1179
4.61925 53.4244
4.6639 55.0153
4.70855 57.8758
4.75322 60.6888
4.79788 65.3036
4.84253 67.7735
4.88719 72.2532
4.93184 75.7744
4.97652 80.0775
5.02118 86.661
5.06583 93.9088
5.11049 105.443
5.15515 158.056
5.19981 369.633
5.24449 2809.85
5.28916 12344.5
5.33382 2529.33
5.37848 179.696
5.42315 126.337
5.46783 113.745
5.5125 106.427
5.55716 101.329
5.60183 97.7047
5.6465 95.3199
5.69117 93.3231
5.73586 91.7305
5.78053 93.3363
5.8252 92.6697
5.86988 94.3792
5.91455 94.121
5.95924 103.538
6.00392 224.079
6.0486 969.988
6.09328 4542.01
6.13795 3035.1
6.18263 199.618
6.22733 89.5333
6.27201 80.2155
6.3167 89.9217
6.36138 75.7002
6.40606 68.4309
6.45075 67.3896
6.49545 64.8417
6.54014 63.0806
6.58483 61.8076
6.62952 62.1562
6.67421 79.9458
6.71892 107.629
6.76361 64.3908
6.8083 58.1571
6.853 57.3578
6.89769 56.0286
6.94239 56.0596
6.98711 55.0312
7.03181 55.0989
7.07651 54.6099
7.12121 54.1904
7.16591 55.0733
7.21063 54.8432
7.25533 63.8349
7.30004 127.102
7.34475 75.6638
7.38945 55.0577
7.43416 53.6829
7.47889 53.5255
7.5236 54.0788
7.56831 54.6445
7.61303 55.5322
7.65774 56.078
7.70247 55.7856
7.74719 55.4607
7.79191 56.0565
7.83663 56.3448
7.88135 57.3642
7.92607 57.9665
7.97081 59.1083
8.01553 60.0778
8.06026 61.8399
8.10498 63.5137
8.14971 70.3749
8.19446 70.3523
8.23919 68.8599
8.28392 70.9757
8.32865 73.4807
8.37339 78.0786
8.41812 84.0727
8.46288 106.117
8.50761 173.035
8.55235 383.279
8.59709 1205.67
8.64183 2198.61
8.68658 857.781
8.73134 146.29
8.77609 97.1461
8.82083 91.2173
8.86558 89.6358
8.91033 89.5472
8.9551 88.7788
8.99985 84.3239
9.04461 83.4829
9.08936 82.4987
9.13412 81.8246
9.17888 81.3125
9.22365 81.5844
9.26841 81.3543
9.31318 82.6448
9.35794 83.1904
9.4027 83.5462
9.44749 83.5189
9.49226 84.1771
9.53703 85.2816
9.5818 87.5856
9.62657 91.8888
9.67134 95.046
9.71614 92.2797
9.76091 93.5606
9.80569 96.6913
9.85047 99.0359
9.89525 114.852
9.94005 128.495
9.98484 184.755
10.0296 345.366
10.0744 836.221
10.1192 1796.42
10.164 1507.18
10.2088 344.312
10.2536 119.778
10.2984 110.023
10.3432 109.542
10.388 103.802
10.4328 120.248
10.4776 161.534
10.5224 290.682
10.5672 538.025
10.612 484.425
10.6568 182.621
10.7017 93.355
10.7465 85.7699
10.7913 82.3698
10.8361 79.9316
10.8809 78.2168
10.9257 77.2912
10.9706 77.181
11.0154 74.0078
11.0602 71.8977
11.105 70.9636
11.1499 73.1107
11.1947 77.1637
11.2395 71.1896
11.2844 68.4252
11.3292 66.2775
11.374 65.1729
11.4189 64.8843
11.4637 64.181
11.5086 64.2536
11.5534 65.7833
11.5983 64.2105
11.6431 62.8065
11.688 62.054
11.7328 62.4661
11.7777 62.0894
11.8225 62.1313
11.8674 61.8854
11.9122 62.1401
11.9571 62.1584
12.002 63.4032
12.0468 68.0245
12.0917 77.8084
12.1366 102.351
12.1814 157.39
12.2263 214.964
12.2712 165.029
12.3161 88.0025
12.3609 67.0144
12.4058 63.7564
12.4507 63.6317
12.4956 64.0009
12.5405 63.9979
12.5853 64.7153
12.6302 69.1403
12.6751 72.7104
12.72 67.9677
12.7649 67.2126
12.8098 67.5516
12.8547 69.2161
12.8996 70.5085
12.9445 71.9183
12.9894 73.7029
13.0343 75.3237
13.0792 79.0499
13.1242 89.8407
13.1691 111.386
13.214 149.022
13.2589 246.695
13.3038 386.949
13.3487 418.636
13.3937 237.327
13.4386 117.174
13.4835 105.366
13.5285 119.842
13.5734 159.527
13.6183 257.093
13.6633 362.926
13.7082 327.258
13.7531 167.896
13.7981 92.6868
13.843 80.7202
13.888 78.5944
13.9329 76.5496
13.9779 75.1262
14.0228 73.7069
14.0678 72.1283
14.1127 71.5932
14.1577 71.4894
14.2027 70.8021
14.2476 69.818
14.2926 69.5215
14.3376 70.0763
14.3825 69.301
14.4275 68.094
14.4725 68.1622
14.5175 68.2134
14.5624 68.3279
14.6074 69.7717
14.6524 70.3129
14.6974 69.8305
14.7424 72.1946
14.7874 79.2329
14.8324 88.7174
14.8774 111.442
14.9224 158.078
14.9674 216.205
15.0124 220.241
15.0574 140.414
15.1024 85.7825
15.1474 70.8942
15.1924 69.7867
15.2374 69.5224
15.2824 68.416
15.3274 66.9199
15.3725 66.1847
15.4175 65.6956
15.4625 65.509
15.5076 65.3779
15.5526 65.3687
15.5976 65.287
15.6426 67.0795
15.6877 72.2529
15.7327 79.2101
15.7778 94.6227
15.8228 129.214
15.8679 176.144
15.9129 196.719
15.958 146.785
16.003 89.4149
16.0481 65.6244
16.0931 62.7538
16.1382 61.1391
16.1833 59.6088
16.2283 58.0521
16.2734 57.488
16.3185 57.5208
16.3636 57.6602
16.4086 56.5839
16.4537 55.5455
16.4988 54.7914
16.5439 54.8307
16.589 54.5995
16.6341 54.2066
16.6792 53.7391
16.7243 54.2312
16.7694 54.1576
16.8145 54.2262
16.8596 54.4654
16.9047 55.4942
16.9498 55.5507
16.9949 54.9526
17.04 55.4608
17.0851 56.4759
17.1302 58.137
17.1754 61.2391
17.2205 66.9077
17.2656 75.1361
17.3108 83.2101
17.3559 81.3292
17.401 68.8581
17.4462 60.6523
17.4913 58.4599
17.5365 58.5203
17.5815 58.546
17.6268 58.9773
17.6718 59.6928
17.7171 60.09
17.7622 60.7476
17.8074 61.6207
17.8525 64.2363
17.8977 68.0845
17.9428 73.1697
17.9881 82.5668
18.0331 101.398
18.0784 125.396
18.1237 141.3
18.1688 126.641
18.214 98.3392
18.2591 84.4526
18.3044 91.1171
18.3495 101.826
18.3948 105.864
18.4399 92.6213
18.4852 73.9801
18.5303 64.3027
18.5756 61.2739
18.6207 60.3515
18.666 59.7196
18.7112 58.9054
18.7565 58.1349
18.8016 58.103
18.8469 57.4444
18.892 56.7948
18.9374 56.5741
18.9825 56.3277
19.0278 56.2679
19.073 56.5239
19.1183 56.905
19.1635 57.347
19.2088 58.7196
19.254 61.7438
19.2993 66.4322
19.3447 72.5943
19.3898 75.6618
19.4352 70.143
19.4804 61.0089
19.5257 55.4513
19.5709 53.5192
19.6163 53.1711
19.6615 53.0602
19.7068 52.7177
19.752 53.0502
19.7974 53.2427
19.8426 53.9604
19.888 54.3722
19.9332 55.4859
19.9786 58.4556
20.0238 62.7201
20.0692 67.7023
20.1144 69.5584
20.1598 66.9223
20.205 62.3507
20.2504 61.8369
20.2957 63.9571
20.3411 65.5326
20.3863 62.8555
20.4318 56.7183
20.477 52.491
20.5224 50.6451
20.5677 50.266
20.6131 49.5757
20.6586 49.2929
20.7038 49.0544
20.7493 48.6352
20.7945 48.3173
20.84 48.3202
20.8853 48.3527
20.9307 48.2071
20.976 48.2541
21.0215 48.1001
21.0668 48.4755
21.1122 49.0445
21.1575 49.6425
21.203 50.3935
21.2483 51.0065
21.2938 50.8109
21.3391 49.5122
21.3846 48.3367
21.4299 47.7636
21.4754 48.0506
21.5207 48.1686
21.5662 48.3906
21.6116 48.8462
21.6571 49.5421
21.7024 50.4867
21.7479 52.3647
21.7933 55.153
21.8388 59.1733
21.8843 63.208
21.9297 64.2926
21.9752 61.8759
22.0206 58.0347
22.0661 55.8304
22.1115 55.9173
22.157 55.3484
22.2024 53.2176
22.248 50.6235
22.2933 49.1009
22.3389 48.5307
22.3843 48.2311
22.4299 48.1929
22.4753 48.2954
22.5208 48.1322
22.5662 48.0493
22.6118 48.2868
22.6572 48.3465
22.7028 48.6661
22.7483 49.0688
22.7939 49.8978
22.8393 51.6155
22.8849 53.9269
22.9303 56.288
22.9759 57.7261
23.0214 56.4574
23.067 53.4756
23.1126 50.2305
23.1581 48.6032
23.2037 48.2445
23.2492 48.4327
23.2948 48.3487
23.3403 48.3684
23.3859 49.3644
23.4314 50.4273
23.477 52.4215
23.5225 54.7484
23.5682 57.0539
23.6137 57.6172
23.6593 54.5399
23.7048 50.4045
23.7505 47.3427
23.796 45.9615
23.8417 45.4847
23.8872 45.1561
23.9329 44.6972
23.9784 44.4173
24.0241 44.1304
24.0697 43.9784
24.1154 43.6391
24.1609 43.5066
24.2066 43.3133
24.2522 43.3636
24.2979 42.9905
24.3434 42.8413
24.3892 42.6301
24.4349 42.5952
24.4805 42.6617
24.5262 42.7598
24.5718 42.566
24.6175 42.489
24.6631 42.3725
24.7089 42.1258
24.7545 41.9177
24.8002 41.746
24.8458 41.8145
24.8916 41.5435
24.9372 41.73
24.983 42.0248
25.0286 42.4263
25.0744 42.971
25.12 43.3972
25.1658 44.0412
25.2114 44.0951
25.2572 44.3172
25.3029 44.4913
25.3487 44.5419
25.3943 44.1172
25.4402 42.8316
25.4858 41.8366
25.5316 40.8227
25.5773 40.5406
25.6231 40.4156
25.669 40.138
25.7147 40.1915
25.7605 40.034
25.8062 40.0687
25.8521 40.2282
25.8977 40.1528
25.9436 40.4403
25.9893 40.7626
26.0352 41.1504
26.0809 41.1986
26.1268 41.4029
26.1725 40.9709
26.2184 40.3294
26.2641 39.8519
26.31 39.6034
26.3557 39.7755
26.4017 39.8127
26.4474 40.0414
26.4933 40.41
26.5391 40.8976
26.585 41.4404
26.6308 41.7837
26.6767 41.7964
26.7225 41.4308
26.7684 40.8633
26.8142 40.2609
26.8601 40.009
26.9059 39.6715
26.9519 39.0649
26.9979 38.8513
27.0437 38.4553
27.0896 38.3135
27.1354 38.3235
27.1814 38.2035
27.2272 38.1895
27.2732 38.1127
27.3191 37.9918
27.3651 38.123
27.4109 37.9449
27.4569 38.1618
27.5027 38.2713
27.5488 38.255
27.5946 38.1041
27.6407 37.8357
27.6865 37.6472
27.7326 37.4325
27.7784 37.5776
27.8245 37.4016
27.8703 37.6325
27.9164 37.912
27.9623 38.0816
28.0084 38.3479
28.0543 38.754
28.1003 38.6316
28.1462 38.3995
28.1923 38.0547
28.2384 37.4744
28.2843 37.0896
28.3304 36.6731
28.3764 36.1961
28.4225 35.9366
28.4684 35.9033
28.5145 35.5351
28.5605 35.5322
28.6066 35.2576
28.6526 35.2622
28.6987 35.2673
28.7447 35.1534
28.7908 35.0864
28.8368 35.0641
28.8829 35.0816
28.9289 34.955
28.9751 34.7761
29.0211 34.3603
29.0673 34.247
29.1133 34.1843
29.1595 33.9838
29.2055 34.0516
29.2517 33.9434
29.2977 33.8985
29.3439 33.9203
29.3899 33.8723
29.4361 33.7376
29.4824 33.563
29.5284 33.4429
29.5746 32.9918
29.6207 32.7747
29.6669 32.7203
29.713 32.5843
29.7593 32.519
29.8053 32.4924
29.8516 32.5438
29.8977 32.4095
29.9439 32.1716
29.99 32.2556
30.0363 32.2084
30.0824 32.2278
30.1287 32.0515
30.1748 32.0523
30.2211 32.1768
30.2673 31.9941
30.3136 32.0023
30.3597 31.9214
30.406 31.9361
30.4522 31.7471
30.4985 31.6143
30.5447 31.8607
30.591 31.8744
30.6372 31.9304
30.6835 31.9206
30.7297 31.9501
30.7761 31.7935
30.8224 31.7034
30.8686 31.509
30.915 31.2395
30.9612 31.2323
31.0076 30.9043
31.0538 30.8352
31.1002 30.8848
31.1464 30.6018
31.1928 30.6367
31.2391 30.6854
31.2855 30.5345
31.3317 30.5493
31.3781 30.6336
31.4244 30.6597
31.4708 30.455
31.5171 30.5313
31.5636 30.4022
31.6098 30.1773
31.6563 29.94
31.7026 29.9016
31.7491 29.8019
31.7953 29.8944
31.8418 29.79
31.8881 29.8584
31.9346 29.7589
31.9809 29.7605
32.0275 29.6173
32.074 29.5455
32.1203 29.3195
32.1668 29.3152
32.2132 28.9685
32.2597 28.8692
32.306 28.865
32.3526 28.7371
32.399 28.6192
32.4455 28.4772
32.4919 28.4521
32.5385 28.4318
32.5848 28.2427
32.6314 28.2537
32.6778 28.2264
32.7244 27.9991
32.7708 27.8489
32.8174 27.8844
32.8638 27.7573
32.9104 27.7303
32.9569 27.7832
33.0035 27.5879
33.0499 27.4822
33.0966 27.5099
33.143 27.5247
33.1897 27.4106
33.2361 27.3604
33.2828 27.2564
33.3293 27.0775
33.3759 27.0744
33.4226 26.9944
33.4691 26.7968
33.5158 26.7559
33.5623 26.6504
33.609 26.3378
33.6555 26.3096
33.7022 26.2838
33.7487 26.2083
33.7954 26.2873
33.842 26.0271
33.8887 26.0305
33.9353 26.0476
33.982 25.8823
34.0286 25.7658
34.0753 25.7006
34.1219 25.5858
34.1687 25.5115
34.2152 25.5277
34.262 25.465
34.3086 25.3892
34.3554 25.2442
34.402 25.1577
34.4488 25.0186
34.4954 24.8848
34.5422 24.884
34.5889 24.8386
34.6357 24.6954
34.6825 24.7045
34.7292 24.5936
34.776 24.4418
34.8227 24.4665
34.8695 24.3088
34.9162 24.3424
34.9631 24.244
35.0098 24.2507
35.0566 24.1149
35.1033 24.0742
35.1502 24.009
35.1969 23.916
35.2438 23.9371
35.2906 23.8605
35.3375 23.8271
35.3842 23.713
35.4311 23.7171
35.4779 23.5965
35.5248 23.6304
35.5716 23.5506
35.6185 23.4567
35.6653 23.3908
35.7123 23.3615
35.759 23.1457
35.806 23.145
35.8528 23.0217
35.8998 22.991
35.9468 22.8418
35.9936 22.8408
36.0406 22.8031
36.0874 22.7825
36.1345 22.7022
36.1813 22.6301
36.2283 22.4893
36.2752 22.4342
36.3222 22.391
36.3691 22.3474
36.4161 22.1767
36.463 22.1986
36.5101 22.2311
36.557 22.1905
36.6041 22.0484
36.651 21.9457
36.6981 21.8454
36.745 21.8473
36.7921 21.6844
36.839 21.6417
36.8861 21.5655
36.9331 21.4644
36.9802 21.4419
37.0272 21.3755
37.0743 21.3345
37.1213 21.2513
37.1684 21.1714
37.2154 21.1026
37.2626 21.0588
37.3098 21.027
37.3568 20.8445
37.404 20.8834
37.451 20.7906
37.4982 20.7131
37.5452 20.6271
37.5924 20.6272
37.6395 20.5952
37.6867 20.4606
37.7337 20.3545
37.781 20.3369
37.8281 20.3228
37.8753 20.1245
37.9224 20.1672
37.9697 20.1479
38.0168 19.978
38.064 19.9077
38.1111 19.9026
38.1584 19.7774
38.2056 19.7437
38.2529 19.705
38.3 19.626
38.3473 19.6378
38.3945 19.4309
38.4418 19.3805
38.489 19.4699
38.5363 19.2614
38.5837 19.2308
38.6309 19.2301
38.6782 19.1573
38.7254 19.0665
38.7728 18.9896
38.82 18.8917
38.8674 18.9178
38.9146 18.8374
38.9621 18.7322
39.0093 18.7361
39.0567 18.6973
39.104 18.5664
39.1514 18.5368
39.1987 18.5373
39.2461 18.4538
39.2934 18.3642
39.3409 18.2852
39.3882 18.2609
39.4356 18.2083
39.483 18.1741
39.5304 18.0879
39.5778 18.0102
39.6253 17.9444
39.6726 17.8972
39.7201 17.8408
39.7675 17.8491
39.815 17.7314
39.8624 17.7107
39.9099 17.6303
39.9575 17.5151
40.0049 17.5395
40.0525 17.4595
40.0999 17.4052
40.1474 17.3558
40.1949 17.2567
40.2425 17.1676
40.2899 17.239
40.3375 17.2279
40.385 17.0597
40.4326 16.9792
40.48 16.9224
40.5277 16.8524
40.5752 16.8941
40.6228 16.7482
40.6703 16.7416
40.718 16.6923
40.7655 16.6448
40.8132 16.5667
40.8607 16.5706
40.9084 16.4791
40.9559 16.4879
41.0036 16.4221
41.0512 16.3297
41.0989 16.2799
41.1465 16.2212
41.1942 16.1434
41.242 16.0829
41.2896 16.0536
41.3373 16.0309
41.3849 15.9016
41.4327 15.8741
41.4803 15.7974
41.5281 15.8144
41.5758 15.7354
41.6236 15.6619
41.6712 15.6023
41.7191 15.5662
41.7667 15.5287
41.8146 15.5252
41.8622 15.4062
41.9101 15.3926
41.9578 15.3356
42.0057 15.2585
42.0534 15.1719
42.1013 15.1716
42.149 15.1458
42.1969 15.0541
42.2446 15.0068
42.2925 15.0042
42.3403 14.9591
42.3882 14.9122
42.436 14.8221
42.4839 14.7272
42.5319 14.7143
42.5797 14.6102
42.6277 14.5963
42.6755 14.5484
42.7235 14.5118
42.7713 14.4462
42.8193 14.4133
42.8671 14.3908
42.9152 14.3439
42.963 14.24
43.0111 14.2432
43.0589 14.1586
43.107 14.1859
43.1549 14.1099
43.2029 14.0205
43.2508 14.0071
43.2989 13.923
43.3468 13.8676
43.3949 13.8454
43.4429 13.8214
43.491 13.7583
43.5389 13.7007
43.5871 13.6458
43.635 13.6217
43.6832 13.5519
43.7312 13.5327
43.7793 13.4977
43.8273 13.4011
43.8755 13.3746
43.9237 13.3495
43.9717 13.2778
44.0199 13.2515
44.068 13.2065
44.1162 13.1214
44.1642 13.1141
44.2125 13.0456
44.2606 13.0051
44.3088 13.0035
44.3569 12.9037
44.4052 12.8846
44.4533 12.8118
44.5016 12.8038
44.5497 12.7598
44.598 12.7574
44.6461 12.6733
44.6945 12.6156
44.7426 12.58
44.791 12.4834
44.8391 12.4717
44.8875 12.4219
44.9357 12.4049
44.984 12.3542
45.0322 12.3187
45.0806 12.2186
45.1288 12.1893
45.1773 12.1128
45.2257 12.1257
45.2739 12.1128
45.3224 12.093
45.3706 12.0239
45.4191 11.9664
45.4673 11.9058
45.5158 11.921
45.5641 11.8687
45.6126 11.8119
45.6609 11.7627
45.7094 11.6742
45.7577 11.6318
45.8063 11.6085
45.8546 11.5793
45.9031 11.4878
45.9515 11.4288
46.0001 11.4391
46.0484 11.4285
46.097 11.3904
46.1454 11.3344
46.194 11.285
46.2424 11.2608
46.291 11.2485
46.3395 11.1935
46.3881 11.0873
46.4365 11.1165
46.4852 11.0829
46.5337 10.996
46.5823 10.9955
46.631 10.9396
46.6795 10.8906
46.7282 10.8534
46.7767 10.8386
46.8254 10.7488
46.8739 10.7229
46.9226 10.6504
46.9712 10.6335
47.0199 10.5934
47.0685 10.5399
47.1173 10.5496
47.1658 10.4785
47.2146 10.447
47.2632 10.3934
47.312 10.409
47.3606 10.3042
47.4095 10.2898
47.4581 10.2439
47.5069 10.2277
47.5556 10.151
47.6044 10.1557
47.6531 10.111
47.702 10.0437
47.7507 10.0792
47.7996 9.94639
47.8483 9.98118
47.8972 9.93716
47.9461 9.85921
47.9948 9.80954
48.0438 9.80024
48.0925 9.73629
48.1415 9.74434
48.1902 9.7022
48.2392 9.67122
48.288 9.63524
48.337 9.63491
48.3858 9.54896
48.4348 9.53528
48.4837 9.49765
48.5327 9.46748
48.5815 9.44472
48.6306 9.38274
48.6795 9.38335
48.7285 9.32637
48.7774 9.29832
48.8265 9.29228
48.8754 9.22421
48.9245 9.1733
48.9734 9.14155
49.0226 9.1352
49.0715 9.08744
49.1206 9.05747
49.1696 9.00634
49.2188 8.98031
49.2679 8.96
49.3169 8.88261
49.3661 8.84609
49.4151 8.83068
49.4643 8.80219
49.5134 8.76124
49.5626 8.70458
49.6117 8.70372
49.6609 8.69144
49.71 8.61329
49.7592 8.61057
49.8083 8.62123
49.8576 8.54355
49.9067 8.51383
49.956 8.4695
50.0052 8.44238
50.0545 8.43054
50.1036 8.39681
50.153 8.40452
50.2022 8.3082
50.2515 8.27543
50.3007 8.2286
50.3501 8.22941
50.3993 8.17696
50.4487 8.13723
50.498 8.12048
50.5474 8.07441
50.5966 8.03298
50.6461 8.05335
50.6955 8.01864
50.7448 7.98318
50.7943 7.96343
50.8436 7.9329
50.8931 7.86857
50.9424 7.84983
50.9919 7.79917
51.0413 7.79276
51.0908 7.77281
51.1402 7.71859
51.1897 7.68122
51.2391 7.66032
51.2887 7.69069
51.3381 7.61305
51.3877 7.60042
51.4371 7.53449
51.4867 7.46389
51.5362 7.48071
51.5858 7.43599
51.6353 7.41979
51.6849 7.36391
51.7344 7.35241
51.7841 7.33222
51.8336 7.30445
51.8833 7.27887
51.9328 7.20924
51.9826 7.16981
52.0323 7.15566
52.0818 7.15073
52.1316 7.10974
52.1812 7.05772
52.231 7.07898
52.2806 7.00199
52.3304 6.97319
52.38 6.99042
52.4298 6.95597
52.4794 6.90882
52.5293 6.88665
52.5789 6.87699
52.6288 6.81263
52.6785 6.80046
52.7284 6.73662
52.7781 6.74315
52.828 6.7245
52.8777 6.6539
52.9276 6.67561
52.9774 6.5928
53.0273 6.60514
53.0771 6.55081
53.1271 6.52266
53.1769 6.51037
53.2269 6.48494
53.2767 6.48004
53.3267 6.40883
53.3765 6.39931
53.4266 6.40614
53.4766 6.36478
53.5265 6.28787
53.5765 6.30046
53.6264 6.2702
53.6765 6.26395
53.7264 6.21731
53.7765 6.17173
53.8265 6.15467
53.8766 6.16176
53.9266 6.12579
53.9767 6.0896
54.0267 6.06298
54.0769 6.03605
54.1269 5.98483
54.1771 5.96486
54.2271 5.97553
54.2773 5.88379
54.3274 5.86863
54.3776 5.84987
54.4277 5.82932
54.478 5.76254
54.528 5.74308
54.5783 5.66676
54.6285 5.66889
54.6788 5.62745
54.7289 5.60222
54.7792 5.54049
54.8296 5.49266
54.8798 5.49424
54.9301 5.45898
54.9803 5.41995
55.0307 5.3361
55.0809 5.31768
55.1314 5.34096
55.1816 5.23299
55.232 5.20663
55.2823 5.13233
55.3328 5.10775
55.383 5.06572
55.4335 4.94674
55.4838 5.00781
55.5344 4.92178
55.5847 4.90455
55.6352 4.85995
55.6856 4.81462
55.7361 4.78901