File: XRD/Ni3Fe_FD0084.xy
TT I
1.27165 9.82996
1.31627 8.82595
1.36089 8.8393
1.40551 7.61385
1.45013 7.6853
1.49476 7.52929
1.53938 7.52954
1.584 6.221
1.62863 6.93903
1.67325 7.35568
1.71787 6.52324
1.7625 6.45482
1.80712 6.0416
1.85174 6.0564
1.89636 6.2445
1.94099 6.19359
1.98562 6.38041
2.03025 5.69895
2.07487 5.93603
2.11949 5.92364
2.16411 5.58535
2.20874 5.95969
2.25338 4.71533
2.298 5.13977
2.34263 5.01725
2.38725 4.31937
2.43188 3.97168
2.4765 4.91637
2.52115 3.9583
2.56577 4.11072
2.6104 4.63343
2.65503 4.59375
2.69965 5.10602
2.7443 5.65733
2.78893 5.57916
2.83356 6.3543
2.87818 7.02518
2.92281 7.77746
2.96744 9.45247
3.01209 9.95093
3.05672 11.1861
3.10135 11.9353
3.14599 12.7752
3.19062 13.9941
3.23527 15.3486
3.2799 15.6857
3.32454 16.2587
3.36917 17.3592
3.4138 18.3016
3.45844 18.6637
3.50309 20.6623
3.54773 20.9787
3.59237 21.3523
3.637 22.1646
3.68164 22.7779
3.7263 23.7539
3.77094 24.6146
3.81558 25.2728
3.86022 25.9658
3.90486 27.4663
3.9495 28.1201
3.99416 28.9717
4.0388 30.1076
4.08344 30.9378
4.12809 31.7496
4.17273 33.4499
4.21738 35.2055
4.26204 35.9087
4.30669 37.3448
4.35133 38.9496
4.39598 40.9043
4.44063 42.3129
4.4853 43.9286
4.52995 46.9007
4.5746 48.68
4.61925 51.0461
4.6639 53.1562
4.70855 55.9435
4.75322 59.2596
4.79788 62.1975
4.84253 66.5396
4.88719 71.1748
4.93184 77.289
4.97652 86.2599
5.02118 98.5188
5.06583 112.026
5.11049 135.378
5.15515 193.942
5.19981 757.815
5.24449 3568.7
5.28916 5110.49
5.33382 8041.97
5.37848 1122.95
5.42315 239.978
5.46783 156.206
5.5125 130.828
5.55716 119.151
5.60183 109.931
5.6465 106.481
5.69117 103.694
5.73586 101.882
5.78053 101.846
5.8252 102.89
5.86988 108.902
5.91455 120.864
5.95924 153.181
6.00392 382.532
6.0486 1385.96
6.09328 1627.35
6.13795 3561.73
6.18263 1228.21
6.22733 187.453
6.27201 107.041
6.3167 86.5137
6.36138 76.7929
6.40606 70.7367
6.45075 67.356
6.49545 64.2066
6.54014 62.3758
6.58483 60.6827
6.62952 59.4172
6.67421 57.5506
6.71892 56.5936
6.76361 55.4978
6.8083 54.7489
6.853 53.5861
6.89769 53.4081
6.94239 53.1842
6.98711 52.279
7.03181 51.9755
7.07651 51.5723
7.12121 51.2311
7.16591 51.1795
7.21063 50.7446
7.25533 50.4997
7.30004 51.0105
7.34475 51.0366
7.38945 51.3336
7.43416 51.18
7.47889 52.7092
7.5236 67.9011
7.56831 111.29
7.61303 71.7551
7.65774 54.3564
7.70247 53.4607
7.74719 53.3087
7.79191 53.6831
7.83663 53.6989
7.88135 54.8005
7.92607 55.7176
7.97081 56.5949
8.01553 57.5788
8.06026 59.3244
8.10498 60.4506
8.14971 62.3773
8.19446 64.1046
8.23919 66.5861
8.28392 69.9919
8.32865 73.1589
8.37339 78.382
8.41812 85.0534
8.46288 101.738
8.50761 202.948
8.55235 653.136
8.59709 624.091
8.64183 824.615
8.68658 1807.76
8.73134 761.484
8.77609 151.958
8.82083 105.995
8.86558 94.6682
8.91033 88.9933
8.9551 85.7367
8.99985 84.127
9.04461 83.0838
9.08936 82.0326
9.13412 81.4263
9.17888 83.2281
9.22365 107.554
9.26841 176.983
9.31318 123.232
9.35794 85.1449
9.4027 81.9582
9.44749 81.9069
9.49226 82.2116
9.53703 82.6928
9.5818 84.7301
9.62657 85.3249
9.67134 86.9563
9.71614 89.2147
9.76091 91.3105
9.80569 94.5017
9.85047 98.2329
9.89525 105.046
9.94005 119.62
9.98484 211.843
10.0296 596.38
10.0744 591.242
10.1192 531.777
10.164 1236.32
10.2088 1435.25
10.2536 375.004
10.2984 132.205
10.3432 112.744
10.388 106.955
10.4328 127.81
10.4776 230.965
10.5224 224.39
10.5672 198.474
10.612 360.08
10.6568 485.711
10.7017 210.119
10.7465 107.268
10.7913 85.3844
10.8361 80.0195
10.8809 76.8757
10.9257 74.3973
10.9706 73.1006
11.0154 71.4495
11.0602 69.5648
11.105 68.3315
11.1499 67.156
11.1947 65.9608
11.2395 64.7655
11.2844 64.1381
11.3292 63.5327
11.374 62.6608
11.4189 62.4049
11.4637 61.5924
11.5086 60.9485
11.5534 60.2313
11.5983 60.4771
11.6431 60.4118
11.688 59.9291
11.7328 60.0817
11.7777 59.8904
11.8225 59.8284
11.8674 60.4197
11.9122 64.3047
11.9571 80.8424
12.002 81.6178
12.0468 72.835
12.0917 93.8135
12.1366 102.903
12.1814 91.3384
12.2263 101.731
12.2712 162.839
12.3161 173.196
12.3609 91.0232
12.4058 65.3798
12.4507 62.3346
12.4956 61.6234
12.5405 61.4948
12.5853 61.9822
12.6302 61.8381
12.6751 62.4
12.72 63.1471
12.7649 64.1279
12.8098 64.8862
12.8547 65.9583
12.8996 67.4393
12.9445 68.9805
12.9894 70.8996
13.0343 73.1108
13.0792 79.5245
13.1242 91.1256
13.1691 141.922
13.214 192.048
13.2589 163.648
13.3038 153.841
13.3487 225.03
13.3937 387.971
13.4386 306.921
13.4835 148.632
13.5285 166.744
13.5734 179.617
13.6183 145.585
13.6633 148.103
13.7082 236.276
13.7531 351.523
13.7981 225.959
13.843 100.379
13.888 81.1014
13.9329 76.8457
13.9779 74.8106
14.0228 73.444
14.0678 71.7127
14.1127 73.7189
14.1577 85.1105
14.2027 84.4881
14.2476 73.6695
14.2926 68.7539
14.3376 67.4142
14.3825 66.8972
14.4275 66.3727
14.4725 66.2854
14.5175 66.5741
14.5624 66.3082
14.6074 66.732
14.6524 67.2223
14.6974 68.0126
14.7424 70.0268
14.7874 81.1101
14.8324 110.292
14.8774 116.475
14.9224 101.467
14.9674 101.765
15.0124 133.087
15.0574 205.123
15.1024 184.999
15.1474 99.112
15.1924 73.5941
15.2374 68.5604
15.2824 66.5945
15.3274 65.3258
15.3725 64.8058
15.4175 64.2386
15.4625 63.8368
15.5076 63.5798
15.5526 63.777
15.5976 64.2116
15.6426 65.3227
15.6877 73.9737
15.7327 97.8855
15.7778 105.67
15.8228 92.2938
15.8679 88.9596
15.9129 103.64
15.958 159.847
16.003 186.575
16.0481 120.814
16.0931 76.3411
16.1382 64.8012
16.1833 60.0774
16.2283 57.6984
16.2734 56.8169
16.3185 55.7907
16.3636 55.0784
16.4086 54.4896
16.4537 54.0695
16.4988 53.8153
16.5439 53.4067
16.589 53.218
16.6341 52.937
16.6792 52.4408
16.7243 52.5712
16.7694 52.5653
16.8145 52.4246
16.8596 52.8275
16.9047 53.5674
16.9498 55.4475
16.9949 55.117
17.04 54.405
17.0851 55.3534
17.1302 59.9401
17.1754 63.0898
17.2205 61.1156
17.2656 59.4839
17.3108 61.6435
17.3559 67.6079
17.401 79.642
17.4462 77.9317
17.4913 64.0492
17.5365 57.9601
17.5815 57.1788
17.6268 57.3566
17.6718 57.8085
17.7171 58.4234
17.7622 60.3993
17.8074 61.7013
17.8525 63.0141
17.8977 71.65
17.9428 84.5221
17.9881 85.2575
18.0331 78.327
18.0784 77.3303
18.1237 85.5051
18.1688 115.373
18.214 151.649
18.2591 132.431
18.3044 89.2607
18.3495 74.9884
18.3948 77.479
18.4399 91.773
18.4852 103.503
18.5303 88.0559
18.5756 68.6502
18.6207 62.4246
18.666 60.0852
18.7112 58.5234
18.7565 57.8014
18.8016 57.0541
18.8469 56.5828
18.892 56.2914
18.9374 55.6227
18.9825 55.4479
19.0278 55.0701
19.073 55.1774
19.1183 56.0657
19.1635 58.5525
19.2088 60.8282
19.254 59.8044
19.2993 59.1395
19.3447 60.4495
19.3898 61.9376
19.4352 66.6954
19.4804 73.4309
19.5257 69.5569
19.5709 58.6098
19.6163 53.6093
19.6615 52.5126
19.7068 51.9392
19.752 51.6888
19.7974 52.0261
19.8426 53.4012
19.888 55.7771
19.9332 56.8679
19.9786 55.7819
20.0238 54.5419
20.0692 55.8827
20.1144 59.5958
20.1598 65.7696
20.205 70.6861
20.2504 66.8807
20.2957 58.7073
20.3411 55.4871
20.3863 58.0003
20.4318 63.7547
20.477 62.9486
20.5224 55.3955
20.5677 50.3803
20.6131 49.18
20.6586 48.5459
20.7038 48.271
20.7493 48.3294
20.7945 48.647
20.84 48.3271
20.8853 47.8611
20.9307 47.2023
20.976 47.4408
21.0215 47.828
21.0668 48.1203
21.1122 47.7295
21.1575 47.3827
21.203 47.2789
21.2483 47.3558
21.2938 48.5571
21.3391 49.5912
21.3846 50.0829
21.4299 48.7857
21.4754 47.6307
21.5207 47.3634
21.5662 47.518
21.6116 48.0406
21.6571 50.0431
21.7024 52.2153
21.7479 52.4245
21.7933 51.086
21.8388 51.1638
21.8843 52.626
21.9297 54.6998
21.9752 59.1924
22.0206 64.5979
22.0661 63.0902
22.1115 56.5917
22.157 52.8741
22.2024 54.0921
22.248 55.3435
22.2933 53.7912
22.3389 50.0475
22.3843 48.1338
22.4299 47.7041
22.4753 47.4428
22.5208 47.3034
22.5662 47.1792
22.6118 47.5423
22.6572 47.9677
22.7028 48.9466
22.7483 50.3658
22.7939 50.6293
22.8393 49.7992
22.8849 49.2859
22.9303 49.3646
22.9759 49.882
23.0214 51.759
23.067 55.9357
23.1126 57.5587
23.1581 54.3004
23.2037 49.8725
23.2492 48.2159
23.2948 48.5965
23.3403 50.1051
23.3859 51.0085
23.4314 50.2473
23.477 49.3674
23.5225 48.7253
23.5682 48.8948
23.6137 49.7312
23.6593 52.9493
23.7048 57.045
23.7505 56.3195
23.796 50.9261
23.8417 46.8296
23.8872 45.0862
23.9329 44.4955
23.9784 44.087
24.0241 43.8286
24.0697 43.7379
24.1154 43.3403
24.1609 43.0669
24.2066 42.9962
24.2522 42.5486
24.2979 42.4745
24.3434 42.218
24.3892 42.1748
24.4349 42.0127
24.4805 41.8115
24.5262 41.6638
24.5718 41.595
24.6175 41.7474
24.6631 42.0393
24.7089 41.9189
24.7545 41.8756
24.8002 41.4169
24.8458 41.3717
24.8916 41.3069
24.9372 41.5227
24.983 41.5278
25.0286 41.7356
25.0744 42.002
25.12 42.2653
25.1658 42.3099
25.2114 42.3194
25.2572 42.8856
25.3029 43.1144
25.3487 43.0178
25.3943 42.6494
25.4402 43.1698
25.4858 44.044
25.5316 43.2867
25.5773 41.509
25.6231 40.4933
25.669 39.7972
25.7147 39.7954
25.7605 39.8028
25.8062 39.9075
25.8521 40.1268
25.8977 39.9108
25.9436 39.6954
25.9893 39.4124
26.0352 39.3836
26.0809 39.3109
26.1268 39.6724
26.1725 40.1668
26.2184 41.0442
26.2641 40.9134
26.31 40.4717
26.3557 39.9799
26.4017 39.6585
26.4474 39.6787
26.4933 39.5899
26.5391 39.5579
26.585 39.6664
26.6308 39.5501
26.6767 39.669
26.7225 40.4714
26.7684 41.3471
26.8142 41.4808
26.8601 40.5241
26.9059 39.8402
26.9519 39.5984
26.9979 39.5356
27.0437 38.8038
27.0896 38.2214
27.1354 38.0941
27.1814 37.881
27.2272 37.9222
27.2732 37.8426
27.3191 37.5947
27.3651 37.6076
27.4109 37.3588
27.4569 37.3857
27.5027 37.3756
27.5488 37.3421
27.5946 37.2167
27.6407 37.5811
27.6865 37.9296
27.7326 37.846
27.7784 37.5871
27.8245 37.2963
27.8703 37.2607
27.9164 37.2018
27.9623 37.0746
28.0084 37.185
28.0543 37.2333
28.1003 37.2393
28.1462 37.5781
28.1923 38.1833
28.2384 38.0638
28.2843 37.5699
28.3304 36.9622
28.3764 36.8794
28.4225 36.5773
28.4684 36.0797
28.5145 35.4267
28.5605 35.2812
28.6066 35.0257
28.6526 34.9839
28.6987 34.918
28.7447 34.6979
28.7908 34.4699
28.8368 34.3978
28.8829 34.3968
28.9289 34.2926
28.9751 34.2795
29.0211 34.357
29.0673 34.3037
29.1133 34.1945
29.1595 33.8315
29.2055 33.5739
29.2517 33.4102
29.2977 33.1954
29.3439 33.2141
29.3899 33.0478
29.4361 33.0797
29.4824 33.0181
29.5284 33.1893
29.5746 32.9779
29.6207 32.8011
29.6669 32.4768
29.713 32.2703
29.7593 32.1362
29.8053 32.027
29.8516 32.0251
29.8977 31.9311
29.9439 31.8326
29.99 31.8156
30.0363 31.5998
30.0824 31.7955
30.1287 31.5654
30.1748 31.4703
30.2211 31.4056
30.2673 31.4328
30.3136 31.5427
30.3597 31.6783
30.406 31.6902
30.4522 31.4966
30.4985 31.3455
30.5447 31.3016
30.591 31.2303
30.6372 31.1333
30.6835 31.0155
30.7297 31.0718
30.7761 31.1881
30.8224 31.1649
30.8686 31.2893
30.915 31.1883
30.9612 31.0868
31.0076 30.7957
31.0538 30.7364
31.1002 30.6694
31.1464 30.4112
31.1928 30.3113
31.2391 30.2801
31.2855 30.0811
31.3317 30.047
31.3781 30.0805
31.4244 29.9352
31.4708 29.9629
31.5171 29.8768
31.5636 29.9674
31.6098 30.043
31.6563 29.9472
31.7026 29.9843
31.7491 29.5229
31.7953 29.5381
31.8418 29.28
31.8881 29.2702
31.9346 29.0786
31.9809 29.2147
32.0275 29.1195
32.074 29.1143
32.1203 29.0544
32.1668 29.0497
32.2132 28.9304
32.2597 28.6868
32.306 28.5988
32.3526 28.4273
32.399 28.3322
32.4455 28.1195
32.4919 28.037
32.5385 28.0705
32.5848 27.7216
32.6314 27.8494
32.6778 27.7224
32.7244 27.5244
32.7708 27.499
32.8174 27.4549
32.8638 27.2889
32.9104 27.3731
32.9569 27.4021
33.0035 27.1747
33.0499 27.1803
33.0966 27.035
33.143 26.9066
33.1897 26.8445
33.2361 26.8274
33.2828 26.7701
33.3293 26.7448
33.3759 26.8163
33.4226 26.686
33.4691 26.67
33.5158 26.5532
33.5623 26.2691
33.609 26.1231
33.6555 26.0571
33.7022 25.9453
33.7487 25.7684
33.7954 25.7853
33.842 25.6707
33.8887 25.5549
33.9353 25.551
33.982 25.4252
34.0286 25.4257
34.0753 25.3635
34.1219 25.3162
34.1687 25.1787
34.2152 25.1197
34.262 25.0164
34.3086 24.891
34.3554 24.8916
34.402 24.751
34.4488 24.7731
34.4954 24.697
34.5422 24.5205
34.5889 24.4404
34.6357 24.2995
34.6825 24.2818
34.7292 24.1824
34.776 24.0942
34.8227 24.0566
34.8695 23.9577
34.9162 23.9507
34.9631 23.8133
35.0098 23.8303
35.0566 23.7012
35.1033 23.605
35.1502 23.6377
35.1969 23.6151
35.2438 23.5382
35.2906 23.4604
35.3375 23.3611
35.3842 23.3832
35.4311 23.2779
35.4779 23.2051
35.5248 23.2143
35.5716 23.0286
35.6185 23.1549
35.6653 23.1044
35.7123 22.9694
35.759 22.848
35.806 22.8674
35.8528 22.7298
35.8998 22.6709
35.9468 22.5567
35.9936 22.4732
36.0406 22.4286
36.0874 22.4052
36.1345 22.2701
36.1813 22.2477
36.2283 22.1247
36.2752 22.0533
36.3222 22.1332
36.3691 22.0496
36.4161 21.8395
36.463 21.8464
36.5101 21.891
36.557 21.8299
36.6041 21.6555
36.651 21.6086
36.6981 21.5476
36.745 21.5547
36.7921 21.406
36.839 21.441
36.8861 21.3136
36.9331 21.2217
36.9802 21.1144
37.0272 20.9944
37.0743 20.9805
37.1213 20.9278
37.1684 20.8661
37.2154 20.7457
37.2626 20.7323
37.3098 20.7065
37.3568 20.5932
37.404 20.492
37.451 20.471
37.4982 20.48
37.5452 20.2613
37.5924 20.2758
37.6395 20.2164
37.6867 20.176
37.7337 20.0866
37.781 20.0052
37.8281 19.9852
37.8753 19.9008
37.9224 19.8353
37.9697 19.7638
38.0168 19.7091
38.064 19.5651
38.1111 19.5384
38.1584 19.5134
38.2056 19.4286
38.2529 19.3779
38.3 19.3351
38.3473 19.2591
38.3945 19.2311
38.4418 19.164
38.489 19.1162
38.5363 18.9827
38.5837 18.9487
38.6309 18.8871
38.6782 18.8738
38.7254 18.761
38.7728 18.6986
38.82 18.6105
38.8674 18.6197
38.9146 18.5697
38.9621 18.5152
39.0093 18.4963
39.0567 18.3817
39.104 18.2648
39.1514 18.206
39.1987 18.2268
39.2461 18.1839
39.2934 18.1141
39.3409 18.0271
39.3882 17.9105
39.4356 17.9374
39.483 17.8378
39.5304 17.8364
39.5778 17.8402
39.6253 17.7125
39.6726 17.6203
39.7201 17.5793
39.7675 17.4589
39.815 17.4939
39.8624 17.3815
39.9099 17.3992
39.9575 17.3672
40.0049 17.2625
40.0525 17.2265
40.0999 17.151
40.1474 17.1377
40.1949 17.0405
40.2425 16.9668
40.2899 16.958
40.3375 16.8934
40.385 16.7733
40.4326 16.7932
40.48 16.7226
40.5277 16.6539
40.5752 16.6028
40.6228 16.4905
40.6703 16.5721
40.718 16.4385
40.7655 16.4151
40.8132 16.3375
40.8607 16.3385
40.9084 16.3065
40.9559 16.2557
41.0036 16.2155
41.0512 16.1234
41.0989 16.0831
41.1465 16.0189
41.1942 15.9983
41.242 15.9437
41.2896 15.7996
41.3373 15.7843
41.3849 15.7545
41.4327 15.7262
41.4803 15.6133
41.5281 15.5496
41.5758 15.5489
41.6236 15.4549
41.6712 15.4152
41.7191 15.3493
41.7667 15.3297
41.8146 15.2949
41.8622 15.1839
41.9101 15.1907
41.9578 15.0777
42.0057 15.0852
42.0534 15.0121
42.1013 14.9678
42.149 14.878
42.1969 14.9052
42.2446 14.8203
42.2925 14.7863
42.3403 14.7255
42.3882 14.6666
42.436 14.6717
42.4839 14.5377
42.5319 14.5455
42.5797 14.4609
42.6277 14.4651
42.6755 14.3375
42.7235 14.3087
42.7713 14.3048
42.8193 14.2032
42.8671 14.1837
42.9152 14.1103
42.963 14.083
43.0111 14.0156
43.0589 13.9801
43.107 13.9356
43.1549 13.8823
43.2029 13.8326
43.2508 13.8234
43.2989 13.7269
43.3468 13.6753
43.3949 13.645
43.4429 13.6336
43.491 13.5256
43.5389 13.4935
43.5871 13.4807
43.635 13.4247
43.6832 13.3463
43.7312 13.3163
43.7793 13.2725
43.8273 13.2028
43.8755 13.1316
43.9237 13.128
43.9717 13.1035
44.0199 13.0722
44.068 12.9874
44.1162 13.0045
44.1642 12.9561
44.2125 12.8274
44.2606 12.8465
44.3088 12.7979
44.3569 12.7571
44.4052 12.7006
44.4533 12.6369
44.5016 12.6143
44.5497 12.5706
44.598 12.5283
44.6461 12.4552
44.6945 12.4392
44.7426 12.3886
44.791 12.3296
44.8391 12.309
44.8875 12.2683
44.9357 12.2175
44.984 12.1781
45.0322 12.1184
45.0806 12.0947
45.1288 12.0726
45.1773 11.962
45.2257 11.9404
45.2739 11.9314
45.3224 11.8871
45.3706 11.8443
45.4191 11.7328
45.4673 11.7632
45.5158 11.7123
45.5641 11.6562
45.6126 11.6093
45.6609 11.5748
45.7094 11.5445
45.7577 11.5189
45.8063 11.4753
45.8546 11.4645
45.9031 11.3486
45.9515 11.337
46.0001 11.3127
46.0484 11.2544
46.097 11.2382
46.1454 11.1697
46.194 11.1219
46.2424 11.089
46.291 11.036
46.3395 11.0283
46.3881 10.9563
46.4365 10.9452
46.4852 10.9031
46.5337 10.833
46.5823 10.8671
46.631 10.8132
46.6795 10.7555
46.7282 10.7211
46.7767 10.6851
46.8254 10.6154
46.8739 10.589
46.9226 10.488
46.9712 10.4944
47.0199 10.4609
47.0685 10.4393
47.1173 10.352
47.1658 10.3518
47.2146 10.2969
47.2632 10.2564
47.312 10.2356
47.3606 10.185
47.4095 10.135
47.4581 10.1293
47.5069 10.0926
47.5556 10.0518
47.6044 10.0164
47.6531 9.98846
47.702 9.90908
47.7507 9.89355
47.7996 9.85383
47.8483 9.83876
47.8972 9.83333
47.9461 9.75101
47.9948 9.68994
48.0438 9.69336
48.0925 9.68567
48.1415 9.61139
48.1902 9.56775
48.2392 9.57106
48.288 9.50606
48.337 9.48551
48.3858 9.40543
48.4348 9.42702
48.4837 9.377
48.5327 9.3686
48.5815 9.30979
48.6306 9.30154
48.6795 9.27201
48.7285 9.22713
48.7774 9.18207
48.8265 9.14567
48.8754 9.10602
48.9245 9.10489
48.9734 9.05179
49.0226 9.04894
49.0715 8.98416
49.1206 8.96539
49.1696 8.91751
49.2188 8.88377
49.2679 8.8536
49.3169 8.79122
49.3661 8.76409
49.4151 8.75253
49.4643 8.69232
49.5134 8.67647
49.5626 8.61859
49.6117 8.61752
49.6609 8.61726
49.71 8.51644
49.7592 8.50925
49.8083 8.51098
49.8576 8.454
49.9067 8.43789
49.956 8.3979
50.0052 8.36953
50.0545 8.30944
50.1036 8.32872
50.153 8.2795
50.2022 8.22129
50.2515 8.24396
50.3007 8.15864
50.3501 8.1259
50.3993 8.11142
50.4487 8.08518
50.498 8.05088
50.5474 8.01978
50.5966 8.00282
50.6461 7.97832
50.6955 7.91623
50.7448 7.92423
50.7943 7.87353
50.8436 7.83283
50.8931 7.81223
50.9424 7.74317
50.9919 7.76229
51.0413 7.72056
51.0908 7.69095
51.1402 7.63647
51.1897 7.61483
51.2391 7.58317
51.2887 7.51351
51.3381 7.52621
51.3877 7.51829
51.4371 7.45206
51.4867 7.40798
51.5362 7.41694
51.5858 7.38512
51.6353 7.33789
51.6849 7.32072
51.7344 7.28017
51.7841 7.2545
51.8336 7.24065
51.8833 7.20302
51.9328 7.13408
51.9826 7.09731
52.0323 7.08782
52.0818 7.05212
52.1316 7.04277
52.1812 7.01924
52.231 7.00523
52.2806 6.93894
52.3304 6.90952
52.38 6.92115
52.4298 6.8935
52.4794 6.8283
52.5293 6.81415
52.5789 6.76894
52.6288 6.75955
52.6785 6.68153
52.7284 6.69122
52.7781 6.64598
52.828 6.61555
52.8777 6.59791
52.9276 6.57591
52.9774 6.56852
53.0273 6.55105
53.0771 6.4626
53.1271 6.48611
53.1769 6.4611
53.2269 6.44697
53.2767 6.39271
53.3267 6.40014
53.3765 6.32945
53.4266 6.34946
53.4766 6.30672
53.5265 6.23197
53.5765 6.23063
53.6264 6.19779
53.6765 6.1919
53.7264 6.15099
53.7765 6.11157
53.8265 6.07895
53.8766 6.01356
53.9266 6.04546
53.9767 6.00644
54.0267 5.99153
54.0769 5.94079
54.1269 5.90111
54.1771 5.86211
54.2271 5.83913
54.2773 5.78245
54.3274 5.76049
54.3776 5.729
54.4277 5.69003
54.478 5.63167
54.528 5.56622
54.5783 5.58616
54.6285 5.50455
54.6788 5.44335
54.7289 5.4271
54.7792 5.40989
54.8296 5.31716
54.8798 5.24658
54.9301 5.21702
54.9803 5.18223
55.0307 5.20108
55.0809 5.12835
55.1314 5.12525
55.1816 5.01986
55.232 4.93193
55.2823 4.94351
55.3328 4.91954
55.383 4.86323
55.4335 4.82772
55.4838 4.74443
55.5344 4.71457
55.5847 4.69679
55.6352 4.63982
55.6856 4.61906
55.7361 4.63571