File: XRD/Ni3Fe_FD0100.xy
TT I
1.27165 8.87407
1.31627 7.83747
1.36089 7.50452
1.40551 7.43906
1.45013 7.50271
1.49476 7.14087
1.53938 6.31728
1.584 6.19153
1.62863 5.97858
1.67325 6.36354
1.71787 6.16793
1.7625 5.48615
1.80712 5.60156
1.85174 5.03403
1.89636 5.73887
1.94099 5.88279
1.98562 5.75904
2.03025 5.07884
2.07487 4.80131
2.11949 5.84466
2.16411 5.00425
2.20874 4.84009
2.25338 4.68533
2.298 5.04037
2.34263 4.34502
2.38725 4.10575
2.43188 4.23415
2.4765 4.65534
2.52115 4.64767
2.56577 4.62123
2.6104 4.88856
2.65503 4.48491
2.69965 5.18773
2.7443 5.48626
2.78893 6.35157
2.83356 6.47158
2.87818 7.69072
2.92281 8.5057
2.96744 9.23447
3.01209 9.90571
3.05672 10.8253
3.10135 12.0083
3.14599 13.162
3.19062 14.0699
3.23527 14.8463
3.2799 15.4188
3.32454 16.7466
3.36917 17.453
3.4138 18.3436
3.45844 19.2164
3.50309 20.1113
3.54773 20.8991
3.59237 21.2342
3.637 22.062
3.68164 22.9748
3.7263 23.9287
3.77094 24.4669
3.81558 25.2429
3.86022 26.1517
3.90486 27.2355
3.9495 28.3052
3.99416 28.8594
4.0388 29.9498
4.08344 31.3173
4.12809 32.2301
4.17273 33.6476
4.21738 34.5896
4.26204 36.0052
4.30669 37.3377
4.35133 39.4186
4.39598 40.765
4.44063 42.6411
4.4853 44.4038
4.52995 46.1722
4.5746 48.4189
4.61925 51.0957
4.6639 52.8236
4.70855 56.5452
4.75322 58.9287
4.79788 62.1809
4.84253 66.1264
4.88719 70.329
4.93184 75.9235
4.97652 83.5355
5.02118 93.1374
5.06583 105.633
5.11049 124.811
5.15515 171.194
5.19981 666.217
5.24449 3789.09
5.28916 6595.91
5.33382 7086.14
5.37848 678.937
5.42315 190.304
5.46783 137.634
5.5125 120.17
5.55716 111.572
5.60183 104.414
5.6465 101.274
5.69117 99.9789
5.73586 97.4039
5.78053 97.6412
5.8252 98.2863
5.86988 102.407
5.91455 111.692
5.95924 135.998
6.00392 336.683
6.0486 1437.8
6.09328 2151.93
6.13795 3840.21
6.18263 916.116
6.22733 147.494
6.27201 95.6789
6.3167 81.0989
6.36138 73.9015
6.40606 68.8039
6.45075 66.4203
6.49545 64.6317
6.54014 61.7442
6.58483 60.5835
6.62952 59.2113
6.67421 57.8326
6.71892 56.7637
6.76361 55.7794
6.8083 54.6077
6.853 54.1806
6.89769 53.5025
6.94239 53.5719
6.98711 52.6129
7.03181 51.9423
7.07651 52.3589
7.12121 51.512
7.16591 51.8724
7.21063 51.2646
7.25533 51.2609
7.30004 51.0976
7.34475 51.5455
7.38945 51.6475
7.43416 51.0162
7.47889 51.5186
7.5236 58.3405
7.56831 76.089
7.61303 58.4326
7.65774 53.0023
7.70247 53.0953
7.74719 53.2326
7.79191 54.0926
7.83663 54.5368
7.88135 55.2157
7.92607 56.3146
7.97081 57.3236
8.01553 58.257
8.06026 59.8968
8.10498 61.1321
8.14971 62.7678
8.19446 64.0394
8.23919 66.8611
8.28392 70.1348
8.32865 73.1234
8.37339 77.922
8.41812 84.3021
8.46288 97.6095
8.50761 187.949
8.55235 649.711
8.59709 755.809
8.64183 1160.59
8.68658 1757.45
8.73134 569.295
8.77609 129.77
8.82083 100.376
8.86558 92.2043
8.91033 87.6871
8.9551 84.9672
8.99985 83.3417
9.04461 82.2551
9.08936 81.5329
9.13412 80.4835
9.17888 80.9437
9.22365 92.0669
9.26841 117.612
9.31318 94.9604
9.35794 82.3754
9.4027 81.4427
9.44749 81.6654
9.49226 82.244
9.53703 82.9519
9.5818 85.0617
9.62657 85.9697
9.67134 87.2086
9.71614 89.5456
9.76091 92.0612
9.80569 94.4715
9.85047 98.0448
9.89525 103.805
9.94005 115.845
9.98484 199.248
10.0296 589.254
10.0744 670.84
10.1192 773.091
10.164 1464.61
10.2088 1202.83
10.2536 278.468
10.2984 121.846
10.3432 109.154
10.388 104.882
10.4328 123.908
10.4776 227.12
10.5224 244.219
10.5672 261.697
10.612 432.344
10.6568 424.71
10.7017 161.89
10.7465 94.981
10.7913 83.6234
10.8361 80.0375
10.8809 76.9473
10.9257 74.981
10.9706 73.2958
11.0154 71.4952
11.0602 70.5166
11.105 68.951
11.1499 67.4687
11.1947 66.4891
11.2395 65.6395
11.2844 65.1366
11.3292 64.3458
11.374 63.2978
11.4189 63.0338
11.4637 62.3449
11.5086 61.6452
11.5534 61.2524
11.5983 60.9327
11.6431 61.0724
11.688 60.2192
11.7328 60.3363
11.7777 60.3004
11.8225 60.0935
11.8674 60.36
11.9122 62.4832
11.9571 69.3443
12.002 69.0504
12.0468 68.8745
12.0917 92.9503
12.1366 106.866
12.1814 103.727
12.2263 125.675
12.2712 178.39
12.3161 157.094
12.3609 81.4905
12.4058 64.0094
12.4507 62.4846
12.4956 61.9487
12.5405 61.6757
12.5853 62.4111
12.6302 62.6028
12.6751 63.2742
12.72 63.9989
12.7649 65.0576
12.8098 65.6852
12.8547 67.0702
12.8996 68.4779
12.9445 70.2431
12.9894 71.5542
13.0343 73.9639
13.0792 78.6555
13.1242 87.2959
13.1691 138.428
13.214 193.922
13.2589 184.583
13.3038 197.737
13.3487 288.638
13.3937 391.665
13.4386 253.691
13.4835 130.85
13.5285 162.28
13.5734 183.819
13.6183 167.642
13.6633 191.148
13.7082 285.395
13.7531 331.335
13.7981 187.628
13.843 91.9083
13.888 80.5076
13.9329 76.7301
13.9779 74.9323
14.0228 73.3261
14.0678 71.5904
14.1127 72.2041
14.1577 76.4805
14.2027 74.9963
14.2476 70.4971
14.2926 68.4971
14.3376 67.829
14.3825 67.4122
14.4275 66.906
14.4725 67.0779
14.5175 67.1725
14.5624 66.925
14.6074 67.4561
14.6524 67.8282
14.6974 68.5103
14.7424 70.2922
14.7874 80.8728
14.8324 109.925
14.8774 120.164
14.9224 113.437
14.9674 123.971
15.0124 163.222
15.0574 206.327
15.1024 160.46
15.1474 88.2515
15.1924 71.7529
15.2374 68.4531
15.2824 66.827
15.3274 65.9497
15.3725 65.315
15.4175 65.0568
15.4625 64.5337
15.5076 64.3633
15.5526 64.2837
15.5976 64.7306
15.6426 65.5586
15.6877 73.7146
15.7327 97.5103
15.7778 107.966
15.8228 101.185
15.8679 105.676
15.9129 129.126
15.958 175.037
16.003 169.092
16.0481 101.684
16.0931 69.0089
16.1382 62.0201
16.1833 59.8911
16.2283 58.1612
16.2734 57.0334
16.3185 56.4056
16.3636 55.9042
16.4086 54.7916
16.4537 54.5648
16.4988 53.8985
16.5439 54.0379
16.589 53.7288
16.6341 53.3152
16.6792 52.9675
16.7243 53.2086
16.7694 53.2001
16.8145 52.9807
16.8596 53.2297
16.9047 53.9396
16.9498 54.5939
16.9949 54.4067
17.04 54.5215
17.0851 56.0084
17.1302 60.6827
17.1754 63.8808
17.2205 62.977
17.2656 62.894
17.3108 66.6885
17.3559 73.6501
17.401 80.8752
17.4462 74.23
17.4913 62.2795
17.5365 58.3137
17.5815 57.9191
17.6268 58.3169
17.6718 58.4859
17.7171 59.0797
17.7622 60.6771
17.8074 61.396
17.8525 63.0777
17.8977 71.7717
17.9428 85.035
17.9881 87.5459
18.0331 84.3912
18.0784 87.0099
18.1237 99.987
18.1688 129.447
18.214 148.597
18.2591 120.695
18.3044 87.5914
18.3495 80.1672
18.3948 86.2654
18.4399 98.4566
18.4852 99.6366
18.5303 81.2961
18.5756 65.9987
18.6207 61.7976
18.666 60.2033
18.7112 59.0762
18.7565 58.3258
18.8016 57.6994
18.8469 57.141
18.892 56.6999
18.9374 56.4074
18.9825 56.009
19.0278 55.7979
19.073 55.7515
19.1183 56.3945
19.1635 59.0963
19.2088 61.3675
19.254 61.1244
19.2993 60.7096
19.3447 61.8176
19.3898 64.9267
19.4352 70.2506
19.4804 73.2645
19.5257 66.3761
19.5709 56.8594
19.6163 53.6873
19.6615 52.76
19.7068 52.4226
19.752 52.5316
19.7974 52.439
19.8426 53.8451
19.888 56.445
19.9332 57.679
19.9786 57.2534
20.0238 56.8917
20.0692 58.7471
20.1144 63.2935
20.1598 69.662
20.205 70.9509
20.2504 65.9079
20.2957 59.4421
20.3411 58.4145
20.3863 61.324
20.4318 64.0119
20.477 60.5512
20.5224 53.9682
20.5677 50.4195
20.6131 49.5548
20.6586 49.1092
20.7038 48.623
20.7493 48.3595
20.7945 48.4903
20.84 48.3477
20.8853 48.131
20.9307 47.7778
20.976 47.9175
21.0215 48.2345
21.0668 48.6518
21.1122 48.4354
21.1575 48.3293
21.203 48.4486
21.2483 48.7388
21.2938 49.8662
21.3391 50.4252
21.3846 50.2673
21.4299 48.8183
21.4754 48.0549
21.5207 47.9131
21.5662 48.1418
21.6116 48.588
21.6571 50.6529
21.7024 52.7249
21.7479 53.265
21.7933 52.8275
21.8388 53.272
21.8843 55.4285
21.9297 58.4593
21.9752 62.6463
22.0206 65.2296
22.0661 61.6225
22.1115 55.94
22.157 53.9788
22.2024 54.9835
22.248 55.0152
22.2933 53.1579
22.3389 49.6997
22.3843 48.3637
22.4299 47.9828
22.4753 48.1541
22.5208 47.9063
22.5662 47.8668
22.6118 48.0888
22.6572 48.2812
22.7028 49.6258
22.7483 50.8316
22.7939 51.3533
22.8393 50.8194
22.8849 50.8495
22.9303 51.0619
22.9759 52.3007
23.0214 54.4924
23.067 57.1085
23.1126 56.6574
23.1581 52.9232
23.2037 49.7163
23.2492 48.5652
23.2948 49.0692
23.3403 50.5103
23.3859 51.225
23.4314 50.943
23.477 50.2073
23.5225 50.3599
23.5682 50.9696
23.6137 52.845
23.6593 55.5294
23.7048 57.1463
23.7505 54.7559
23.796 49.6372
23.8417 46.6153
23.8872 45.3788
23.9329 44.9324
23.9784 44.4289
24.0241 44.3312
24.0697 44.0389
24.1154 43.5514
24.1609 43.5877
24.2066 43.2412
24.2522 43.1763
24.2979 42.9956
24.3434 42.7615
24.3892 42.6187
24.4349 42.4199
24.4805 42.1587
24.5262 42.339
24.5718 42.0535
24.6175 42.2328
24.6631 42.3355
24.7089 42.2656
24.7545 42.058
24.8002 41.9022
24.8458 41.8213
24.8916 41.8527
24.9372 41.9952
24.983 41.9778
25.0286 42.1688
25.0744 42.6345
25.12 43.0104
25.1658 43.206
25.2114 43.2862
25.2572 43.9276
25.3029 43.9291
25.3487 43.7528
25.3943 43.6483
25.4402 44.0319
25.4858 44.1593
25.5316 43.0882
25.5773 41.5289
25.6231 40.5677
25.669 40.1771
25.7147 40.1097
25.7605 40.1114
25.8062 40.2373
25.8521 40.5237
25.8977 40.4306
25.9436 40.2543
25.9893 40.1191
26.0352 40.2958
26.0809 40.1476
26.1268 40.5122
26.1725 41.0457
26.2184 41.3254
26.2641 41.1048
26.31 40.6414
26.3557 40.3134
26.4017 40.2077
26.4474 40.2513
26.4933 40.0312
26.5391 40.3131
26.585 40.4663
26.6308 40.4798
26.6767 40.7937
26.7225 41.4668
26.7684 41.9868
26.8142 41.5393
26.8601 40.8256
26.9059 40.23
26.9519 39.9661
26.9979 39.5715
27.0437 39.1067
27.0896 38.6146
27.1354 38.5063
27.1814 38.2988
27.2272 38.2892
27.2732 38.3266
27.3191 38.1617
27.3651 38.1584
27.4109 37.8549
27.4569 37.9647
27.5027 37.7822
27.5488 38.0461
27.5946 37.9118
27.6407 38.0302
27.6865 38.2722
27.7326 38.1645
27.7784 38.0387
27.8245 37.8926
27.8703 37.6495
27.9164 37.6425
27.9623 37.7622
28.0084 37.851
28.0543 37.9355
28.1003 38.1135
28.1462 38.3975
28.1923 38.717
28.2384 38.3656
28.2843 37.9307
28.3304 37.4287
28.3764 37.0815
28.4225 36.8386
28.4684 36.2624
28.5145 35.7542
28.5605 35.6203
28.6066 35.4137
28.6526 35.447
28.6987 35.406
28.7447 35.0804
28.7908 34.9772
28.8368 34.8341
28.8829 34.8472
28.9289 34.8652
28.9751 34.7068
29.0211 34.7849
29.0673 34.6613
29.1133 34.4476
29.1595 34.2213
29.2055 34.0492
29.2517 33.7974
29.2977 33.684
29.3439 33.7032
29.3899 33.523
29.4361 33.4895
29.4824 33.5875
29.5284 33.6062
29.5746 33.4481
29.6207 33.1094
29.6669 32.875
29.713 32.6969
29.7593 32.5774
29.8053 32.5766
29.8516 32.4551
29.8977 32.4812
29.9439 32.2303
29.99 32.2507
30.0363 32.1269
30.0824 32.0544
30.1287 31.9636
30.1748 31.8646
30.2211 31.8556
30.2673 31.7619
30.3136 31.9437
30.3597 31.9218
30.406 32.0465
30.4522 31.7995
30.4985 31.7351
30.5447 31.7948
30.591 31.6062
30.6372 31.6164
30.6835 31.5665
30.7297 31.5973
30.7761 31.689
30.8224 31.8426
30.8686 31.8079
30.915 31.5388
30.9612 31.4169
31.0076 31.1315
31.0538 31.0676
31.1002 30.8737
31.1464 30.7166
31.1928 30.7513
31.2391 30.7075
31.2855 30.4847
31.3317 30.4487
31.3781 30.3838
31.4244 30.3963
31.4708 30.4085
31.5171 30.3797
31.5636 30.5315
31.6098 30.3896
31.6563 30.3564
31.7026 30.2616
31.7491 30.0013
31.7953 29.8307
31.8418 29.7469
31.8881 29.7726
31.9346 29.5951
31.9809 29.6959
32.0275 29.5953
32.074 29.6296
32.1203 29.4469
32.1668 29.3675
32.2132 29.2461
32.2597 29.0535
32.306 28.9531
32.3526 28.828
32.399 28.6344
32.4455 28.4895
32.4919 28.4702
32.5385 28.338
32.5848 28.2054
32.6314 28.1655
32.6778 28.0836
32.7244 27.9532
32.7708 27.8258
32.8174 27.8245
32.8638 27.7786
32.9104 27.8154
32.9569 27.7533
33.0035 27.5756
33.0499 27.5261
33.0966 27.3949
33.143 27.4199
33.1897 27.2957
33.2361 27.2652
33.2828 27.2937
33.3293 27.0837
33.3759 27.1251
33.4226 27.1238
33.4691 27.0134
33.5158 26.8713
33.5623 26.6126
33.609 26.4771
33.6555 26.4353
33.7022 26.2432
33.7487 26.1995
33.7954 26.1093
33.842 26.084
33.8887 26.0458
33.9353 25.9254
33.982 25.8573
34.0286 25.8577
34.0753 25.7197
34.1219 25.6406
34.1687 25.5104
34.2152 25.4571
34.262 25.3861
34.3086 25.2654
34.3554 25.1666
34.402 25.1154
34.4488 24.9574
34.4954 24.9788
34.5422 24.8309
34.5889 24.8079
34.6357 24.6026
34.6825 24.6159
34.7292 24.5449
34.776 24.5114
34.8227 24.3468
34.8695 24.3497
34.9162 24.2378
34.9631 24.1474
35.0098 24.2039
35.0566 24.1108
35.1033 24.007
35.1502 23.9746
35.1969 23.9034
35.2438 23.8899
35.2906 23.7727
35.3375 23.7732
35.3842 23.6293
35.4311 23.5869
35.4779 23.6887
35.5248 23.5758
35.5716 23.4616
35.6185 23.4065
35.6653 23.4539
35.7123 23.2601
35.759 23.2953
35.806 23.1851
35.8528 23.0147
35.8998 22.9521
35.9468 22.8491
35.9936 22.8098
36.0406 22.735
36.0874 22.7029
36.1345 22.5513
36.1813 22.5827
36.2283 22.5182
36.2752 22.4287
36.3222 22.4795
36.3691 22.2913
36.4161 22.2007
36.463 22.1666
36.5101 22.1524
36.557 22.1169
36.6041 21.9269
36.651 21.9416
36.6981 21.8791
36.745 21.8709
36.7921 21.8119
36.839 21.7048
36.8861 21.6644
36.9331 21.5557
36.9802 21.3958
37.0272 21.3089
37.0743 21.2141
37.1213 21.2233
37.1684 21.1914
37.2154 21.1016
37.2626 20.9775
37.3098 20.9973
37.3568 20.8181
37.404 20.8307
37.451 20.781
37.4982 20.6218
37.5452 20.5933
37.5924 20.5973
37.6395 20.6144
37.6867 20.5269
37.7337 20.3159
37.781 20.3035
37.8281 20.2856
37.8753 20.1605
37.9224 20.0533
37.9697 20.1176
38.0168 20.0225
38.064 19.9259
38.1111 19.8379
38.1584 19.7828
38.2056 19.7944
38.2529 19.6663
38.3 19.5694
38.3473 19.5696
38.3945 19.4929
38.4418 19.4036
38.489 19.4422
38.5363 19.2247
38.5837 19.2289
38.6309 19.164
38.6782 19.0369
38.7254 19.0136
38.7728 18.9954
38.82 18.9634
38.8674 18.9168
38.9146 18.8271
38.9621 18.7672
39.0093 18.7266
39.0567 18.6401
39.104 18.6016
39.1514 18.5191
39.1987 18.5217
39.2461 18.4198
39.2934 18.3021
39.3409 18.2713
39.3882 18.1653
39.4356 18.1874
39.483 18.1227
39.5304 18.0563
39.5778 18.0278
39.6253 17.9525
39.6726 17.8398
39.7201 17.892
39.7675 17.8018
39.815 17.7107
39.8624 17.6474
39.9099 17.6138
39.9575 17.5747
40.0049 17.4211
40.0525 17.46
40.0999 17.4436
40.1474 17.3903
40.1949 17.2698
40.2425 17.1561
40.2899 17.1328
40.3375 17.1249
40.385 17.0601
40.4326 17.0329
40.48 16.9211
40.5277 16.9446
40.5752 16.8809
40.6228 16.7714
40.6703 16.7472
40.718 16.6881
40.7655 16.6427
40.8132 16.5425
40.8607 16.5444
40.9084 16.4842
40.9559 16.4396
41.0036 16.4855
41.0512 16.3142
41.0989 16.33
41.1465 16.227
41.1942 16.1964
41.242 16.0553
41.2896 16.0543
41.3373 15.9755
41.3849 15.9734
41.4327 15.8804
41.4803 15.813
41.5281 15.7925
41.5758 15.7874
41.6236 15.6423
41.6712 15.6282
41.7191 15.5826
41.7667 15.4672
41.8146 15.4831
41.8622 15.3863
41.9101 15.3534
41.9578 15.2979
42.0057 15.2473
42.0534 15.2037
42.1013 15.1825
42.149 15.0738
42.1969 15.0176
42.2446 15.0396
42.2925 14.9944
42.3403 14.8721
42.3882 14.889
42.436 14.8189
42.4839 14.7257
42.5319 14.7336
42.5797 14.6235
42.6277 14.6022
42.6755 14.545
42.7235 14.4953
42.7713 14.4337
42.8193 14.4408
42.8671 14.3778
42.9152 14.2833
42.963 14.311
43.0111 14.1626
43.0589 14.1021
43.107 14.194
43.1549 14.0456
43.2029 14.0081
43.2508 13.9863
43.2989 13.9549
43.3468 13.8854
43.3949 13.8273
43.4429 13.7498
43.491 13.7278
43.5389 13.664
43.5871 13.6491
43.635 13.5349
43.6832 13.57
43.7312 13.4675
43.7793 13.3991
43.8273 13.3535
43.8755 13.3519
43.9237 13.2774
43.9717 13.2436
44.0199 13.2179
44.068 13.1595
44.1162 13.1129
44.1642 13.0985
44.2125 13.0359
44.2606 12.9856
44.3088 13.0001
44.3569 12.8866
44.4052 12.887
44.4533 12.7743
44.5016 12.7314
44.5497 12.7109
44.598 12.7086
44.6461 12.6039
44.6945 12.5551
44.7426 12.4976
44.791 12.5052
44.8391 12.4687
44.8875 12.4065
44.9357 12.34
44.984 12.3181
45.0322 12.2524
45.0806 12.2065
45.1288 12.1947
45.1773 12.1601
45.2257 12.088
45.2739 12.0323
45.3224 12.0234
45.3706 12.0216
45.4191 11.8891
45.4673 11.9122
45.5158 11.8756
45.5641 11.8031
45.6126 11.7564
45.6609 11.7189
45.7094 11.6833
45.7577 11.6095
45.8063 11.5474
45.8546 11.5299
45.9031 11.5279
45.9515 11.4621
46.0001 11.4231
46.0484 11.3828
46.097 11.3916
46.1454 11.3313
46.194 11.2666
46.2424 11.216
46.291 11.1883
46.3395 11.1494
46.3881 11.0902
46.4365 11.0623
46.4852 11.066
46.5337 10.9945
46.5823 10.936
46.631 10.899
46.6795 10.8666
46.7282 10.8106
46.7767 10.8131
46.8254 10.723
46.8739 10.6809
46.9226 10.6631
46.9712 10.6221
47.0199 10.571
47.0685 10.5223
47.1173 10.5066
47.1658 10.4957
47.2146 10.44
47.2632 10.3722
47.312 10.3861
47.3606 10.3311
47.4095 10.2783
47.4581 10.2218
47.5069 10.1727
47.5556 10.1562
47.6044 10.1058
47.6531 10.0999
47.702 10.0177
47.7507 10.0423
47.7996 9.95767
47.8483 9.94646
47.8972 9.90126
47.9461 9.84396
47.9948 9.83328
48.0438 9.79563
48.0925 9.77212
48.1415 9.74669
48.1902 9.67093
48.2392 9.67226
48.288 9.63695
48.337 9.61233
48.3858 9.57405
48.4348 9.56211
48.4837 9.50147
48.5327 9.44717
48.5815 9.41378
48.6306 9.39956
48.6795 9.36338
48.7285 9.31499
48.7774 9.27746
48.8265 9.26124
48.8754 9.18794
48.9245 9.18437
48.9734 9.13832
49.0226 9.12818
49.0715 9.08017
49.1206 9.06755
49.1696 9.00724
49.2188 9.0069
49.2679 8.95259
49.3169 8.89157
49.3661 8.88482
49.4151 8.83006
49.4643 8.81818
49.5134 8.77951
49.5626 8.74014
49.6117 8.72321
49.6609 8.69265
49.71 8.62438
49.7592 8.61678
49.8083 8.60304
49.8576 8.56304
49.9067 8.51129
49.956 8.50292
50.0052 8.49943
50.0545 8.42551
50.1036 8.39719
50.153 8.34436
50.2022 8.31505
50.2515 8.2642
50.3007 8.24415
50.3501 8.20885
50.3993 8.17423
50.4487 8.177
50.498 8.14831
50.5474 8.10049
50.5966 8.09047
50.6461 8.05146
50.6955 7.9955
50.7448 7.98294
50.7943 7.9301
50.8436 7.90747
50.8931 7.88856
50.9424 7.86668
50.9919 7.82973
51.0413 7.8159
51.0908 7.74665
51.1402 7.74588
51.1897 7.69621
51.2391 7.66718
51.2887 7.59502
51.3381 7.62841
51.3877 7.58714
51.4371 7.54559
51.4867 7.46552
51.5362 7.49671
51.5858 7.46311
51.6353 7.40841
51.6849 7.37814
51.7344 7.32923
51.7841 7.31677
51.8336 7.30209
51.8833 7.27735
51.9328 7.21057
51.9826 7.17298
52.0323 7.20575
52.0818 7.13568
52.1316 7.11775
52.1812 7.08951
52.231 7.05333
52.2806 7.00983
52.3304 7.02391
52.38 6.96075
52.4298 6.94588
52.4794 6.92766
52.5293 6.90618
52.5789 6.8449
52.6288 6.85694
52.6785 6.7947
52.7284 6.75161
52.7781 6.76829
52.828 6.701
52.8777 6.66577
52.9276 6.64217
52.9774 6.64802
53.0273 6.65699
53.0771 6.58708
53.1271 6.62012
53.1769 6.53613
53.2269 6.5101
53.2767 6.45339
53.3267 6.39322
53.3765 6.41547
53.4266 6.37201
53.4766 6.36464
53.5265 6.33818
53.5765 6.27685
53.6264 6.27622
53.6765 6.22222
53.7264 6.1992
53.7765 6.18902
53.8265 6.14342
53.8766 6.13403
53.9266 6.10154
53.9767 6.08382
54.0267 6.0757
54.0769 5.98242
54.1269 6.00097
54.1771 5.92323
54.2271 5.93479
54.2773 5.85747
54.3274 5.87187
54.3776 5.80184
54.4277 5.79268
54.478 5.75782
54.528 5.68659
54.5783 5.61257
54.6285 5.62929
54.6788 5.53128
54.7289 5.51626
54.7792 5.51489
54.8296 5.40017
54.8798 5.3699
54.9301 5.36751
54.9803 5.29658
55.0307 5.24895
55.0809 5.21449
55.1314 5.21183
55.1816 5.12684
55.232 5.05395
55.2823 5.04679
55.3328 5.00604
55.383 4.8869
55.4335 4.88352
55.4838 4.82124
55.5344 4.78056
55.5847 4.77286
55.6352 4.72779
55.6856 4.69873
55.7361 4.62904