File: XRD/Ni3Fe_FD0309.xy
TT I
1.27165 7.76824
1.31627 6.97483
1.36089 7.02266
1.40551 6.14285
1.45013 6.42665
1.49476 6.592
1.53938 6.02698
1.584 5.86924
1.62863 5.22854
1.67325 5.25246
1.71787 5.60489
1.7625 5.09924
1.80712 5.38294
1.85174 4.73284
1.89636 4.91492
1.94099 4.59959
1.98562 4.71905
2.03025 4.96273
2.07487 4.94867
2.11949 4.81809
2.16411 5.11154
2.20874 18.6545
2.25338 34.1047
2.298 6.21661
2.34263 4.85782
2.38725 5.85724
2.43188 4.94277
2.4765 5.31971
2.52115 5.89999
2.56577 6.11675
2.6104 6.72678
2.65503 6.61402
2.69965 6.52998
2.7443 7.14682
2.78893 7.25799
2.83356 8.32746
2.87818 8.22991
2.92281 8.86302
2.96744 9.35957
3.01209 10.1994
3.05672 11.2343
3.10135 12.1203
3.14599 12.8073
3.19062 14.7998
3.23527 14.905
3.2799 16.4692
3.32454 16.6951
3.36917 18.2418
3.4138 19.4587
3.45844 20.1262
3.50309 21.2105
3.54773 22.5481
3.59237 25.4597
3.637 133.639
3.68164 82.5135
3.7263 27.7695
3.77094 27.3685
3.81558 27.5142
3.86022 28.5171
3.90486 29.5602
3.9495 30.5569
3.99416 31.5813
4.0388 32.9339
4.08344 34.9072
4.12809 36.2611
4.17273 38.8381
4.21738 47.1028
4.26204 367.598
4.30669 332.786
4.35133 54.531
4.39598 46.314
4.44063 58.9757
4.4853 79.213
4.52995 52.9333
4.5746 53.2631
4.61925 54.7956
4.6639 56.6631
4.70855 59.4237
4.75322 62.2984
4.79788 65.8384
4.84253 68.6087
4.88719 73.0426
4.93184 77.1079
4.97652 83.084
5.02118 90.2223
5.06583 98.2613
5.11049 112.485
5.15515 218.988
5.19981 479.292
5.24449 2844.73
5.28916 10991.3
5.33382 4188.42
5.37848 254.599
5.42315 144.604
5.46783 121.964
5.5125 111.776
5.55716 106.389
5.60183 102.45
5.6465 100.902
5.69117 97.4843
5.73586 95.2905
5.78053 95.7337
5.8252 95.4937
5.86988 96.3178
5.91455 99.1369
5.95924 109.948
6.00392 247.689
6.0486 1000.59
6.09328 3587.14
6.13795 3909.56
6.18263 361.936
6.22733 105.92
6.27201 89.7536
6.3167 122.442
6.36138 89.7225
6.40606 72.584
6.45075 70.3113
6.49545 68.2533
6.54014 66.3044
6.58483 65.4762
6.62952 65.9044
6.67421 111.296
6.71892 200.179
6.76361 77.3425
6.8083 61.6081
6.853 59.8907
6.89769 59.063
6.94239 58.7274
6.98711 58.2369
7.03181 57.7858
7.07651 57.2663
7.12121 57.8152
7.16591 58.0849
7.21063 58.3939
7.25533 78.9528
7.30004 258.611
7.34475 119.561
7.38945 59.9065
7.43416 56.8617
7.47889 56.1914
7.5236 57.0738
7.56831 57.7981
7.61303 60.0651
7.65774 60.9859
7.70247 58.3049
7.74719 57.9896
7.79191 58.4703
7.83663 58.7372
7.88135 59.8505
7.92607 60.6922
7.97081 61.4987
8.01553 62.6945
8.06026 64.2152
8.10498 65.935
8.14971 80.5032
8.19446 78.1302
8.23919 71.9255
8.28392 73.4413
8.32865 76.1332
8.37339 80.6232
8.41812 89.3855
8.46288 132.836
8.50761 187.752
8.55235 414.167
8.59709 950.495
8.64183 2017.94
8.68658 1284.91
8.73134 228.579
8.77609 107.592
8.82083 96.8013
8.86558 93.1589
8.91033 93.8307
8.9551 98.549
8.99985 88.3642
9.04461 85.7999
9.08936 85.1703
9.13412 84.0474
9.17888 84.3185
9.22365 85.5189
9.26841 84.2618
9.31318 84.9944
9.35794 85.1552
9.4027 85.5284
9.44749 85.8944
9.49226 86.323
9.53703 87.499
9.5818 89.8326
9.62657 96.5247
9.67134 107.081
9.71614 97.2819
9.76091 96.6923
9.80569 99.5463
9.85047 102.94
9.89525 138.047
9.94005 158.679
9.98484 193.932
10.0296 363.631
10.0744 681.048
10.1192 1450.72
10.164 1850.19
10.2088 597.895
10.2536 152.312
10.2984 123.183
10.3432 126.477
10.388 110.992
10.4328 124.771
10.4776 167.366
10.5224 248.902
10.5672 441.018
10.612 550.281
10.6568 260.759
10.7017 105.888
10.7465 90.6715
10.7913 86.3385
10.8361 83.9128
10.8809 81.814
10.9257 82.0034
10.9706 83.8626
11.0154 77.9544
11.0602 75.3127
11.105 74.4206
11.1499 81.4453
11.1947 95.1701
11.2395 80.9136
11.2844 74.5161
11.3292 70.0447
11.374 68.0854
11.4189 68.1072
11.4637 67.2788
11.5086 68.2518
11.5534 73.4009
11.5983 69.2153
11.6431 65.8039
11.688 65.0079
11.7328 65.0396
11.7777 65.2291
11.8225 64.6435
11.8674 64.4441
11.9122 65.07
11.9571 65.3165
12.002 65.8936
12.0468 70.6691
12.0917 83.1067
12.1366 101.076
12.1814 135.101
12.2263 195.381
12.2712 190.633
12.3161 118.245
12.3609 78.1624
12.4058 67.846
12.4507 66.8834
12.4956 66.8786
12.5405 66.9701
12.5853 68.0793
12.6302 79.8471
12.6751 89.8503
12.72 74.7205
12.7649 70.2547
12.8098 70.5526
12.8547 71.8272
12.8996 73.1509
12.9445 74.1723
12.9894 76.18
13.0343 77.8015
13.0792 81.3747
13.1242 91.7722
13.1691 119.336
13.214 150.519
13.2589 206.538
13.3038 316.741
13.3487 444.102
13.3937 330.02
13.4386 150.924
13.4835 113.267
13.5285 127.036
13.5734 152.5
13.6183 208.476
13.6633 308.744
13.7082 373.973
13.7531 236.453
13.7981 112.014
13.843 85.7889
13.888 82.5825
13.9329 79.6479
13.9779 78.3923
14.0228 76.8521
14.0678 75.2788
14.1127 74.8699
14.1577 75.4645
14.2027 74.2785
14.2476 72.5899
14.2926 73.0029
14.3376 75.1976
14.3825 73.3306
14.4275 70.9607
14.4725 70.6522
14.5175 70.8602
14.5624 71.2748
14.6074 74.5632
14.6524 75.3501
14.6974 72.7456
14.7424 74.0894
14.7874 81.9466
14.8324 92.5981
14.8774 107.272
14.9224 134.608
14.9674 183.499
15.0124 227.143
15.0574 177.002
15.1024 104.896
15.1474 76.5499
15.1924 73.621
15.2374 74.9725
15.2824 74.3967
15.3274 71.3276
15.3725 69.2817
15.4175 68.72
15.4625 68.2595
15.5076 68.8013
15.5526 68.7298
15.5976 67.8131
15.6426 69.1031
15.6877 75.3317
15.7327 83.1227
15.7778 93.6905
15.8228 114.015
15.8679 150.476
15.9129 194.189
15.958 182.488
16.003 117.234
16.0481 74.7525
16.0931 68.8791
16.1382 66.7303
16.1833 63.1044
16.2283 61.1081
16.2734 60.6525
16.3185 61.5084
16.3636 63.0094
16.4086 60.8608
16.4537 58.6305
16.4988 57.5035
16.5439 57.4689
16.589 57.1733
16.6341 56.9204
16.6792 56.36
16.7243 57.008
16.7694 57.1709
16.8145 56.9345
16.8596 57.2555
16.9047 59.798
16.9498 60.1638
16.9949 58.0095
17.04 57.8257
17.0851 58.9524
17.1302 61.0679
17.1754 63.4203
17.2205 66.6781
17.2656 71.9228
17.3108 81.2435
17.3559 85.4869
17.401 77.6676
17.4462 66.3078
17.4913 61.4946
17.5365 61.0503
17.5815 61.2124
17.6268 61.4325
17.6718 62.6693
17.7171 63.158
17.7622 63.2721
17.8074 63.8695
17.8525 66.2355
17.8977 71.0156
17.9428 76.3386
17.9881 82.0987
18.0331 93.1221
18.0784 110.748
18.1237 137.073
18.1688 144.529
18.214 118.898
18.2591 91.6608
18.3044 87.9081
18.3495 95.6692
18.3948 107.922
18.4399 106.609
18.4852 86.2681
18.5303 70.4171
18.5756 64.8483
18.6207 63.4759
18.666 62.5538
18.7112 61.6991
18.7565 61.1367
18.8016 60.6586
18.8469 60.0169
18.892 59.7016
18.9374 59.4529
18.9825 58.9807
19.0278 59.1391
19.073 59.2664
19.1183 59.7582
19.1635 60.8645
19.2088 61.7132
19.254 62.8542
19.2993 65.5672
19.3447 71.7065
19.3898 78.0983
19.4352 78.2089
19.4804 69.2825
19.5257 60.4598
19.5709 56.5058
19.6163 55.7883
19.6615 55.5712
19.7068 55.0432
19.752 55.098
19.7974 55.6155
19.8426 56.3564
19.888 57.3006
19.9332 57.9162
19.9786 59.3462
20.0238 61.7936
20.0692 66.5742
20.1144 71.1777
20.1598 72.2736
20.205 66.9784
20.2504 63.2701
20.2957 63.4632
20.3411 66.7362
20.3863 67.761
20.4318 62.964
20.477 56.9704
20.5224 54.0522
20.5677 53.2048
20.6131 52.1996
20.6586 51.568
20.7038 51.2839
20.7493 50.9441
20.7945 50.9219
20.84 50.5491
20.8853 50.3493
20.9307 50.1951
20.976 50.4273
21.0215 50.3059
21.0668 50.8152
21.1122 51.1674
21.1575 51.2269
21.203 51.9639
21.2483 52.7852
21.2938 53.4268
21.3391 52.1681
21.3846 50.9798
21.4299 50.3042
21.4754 49.854
21.5207 50.0529
21.5662 50.5686
21.6116 50.9441
21.6571 51.6821
21.7024 52.4463
21.7479 53.9457
21.7933 55.7407
21.8388 58.2972
21.8843 62.3227
21.9297 66.2493
21.9752 67.2703
22.0206 63.2999
22.0661 58.6504
22.1115 57.2023
22.157 57.983
22.2024 57.1117
22.248 54.2458
22.2933 52.1259
22.3389 51.0081
22.3843 50.8872
22.4299 50.9272
22.4753 50.8696
22.5208 50.422
22.5662 50.0721
22.6118 50.2444
22.6572 50.3865
22.7028 51.0184
22.7483 51.5244
22.7939 51.9364
22.8393 52.9326
22.8849 54.2178
22.9303 56.1657
22.9759 58.729
23.0214 60.0533
23.067 58.2246
23.1126 54.1038
23.1581 51.3592
23.2037 50.6545
23.2492 50.685
23.2948 50.4904
23.3403 50.8147
23.3859 51.33
23.4314 51.8495
23.477 53.0274
23.5225 54.735
23.5682 56.9426
23.6137 59.6044
23.6593 59.2243
23.7048 55.2577
23.7505 51.1602
23.796 48.5772
23.8417 47.8367
23.8872 47.1094
23.9329 46.8617
23.9784 46.4667
24.0241 46.3155
24.0697 46.1613
24.1154 45.7748
24.1609 45.7756
24.2066 45.548
24.2522 45.1929
24.2979 44.9591
24.3434 44.9674
24.3892 44.9411
24.4349 44.6634
24.4805 44.318
24.5262 44.4613
24.5718 44.4324
24.6175 44.2732
24.6631 44.4573
24.7089 44.0854
24.7545 44.0814
24.8002 43.8688
24.8458 43.5827
24.8916 43.4757
24.9372 43.7387
24.983 43.8833
25.0286 44.1673
25.0744 44.5673
25.12 44.953
25.1658 45.4731
25.2114 46.052
25.2572 46.027
25.3029 45.9731
25.3487 46.2227
25.3943 46.3463
25.4402 45.7035
25.4858 44.6012
25.5316 43.2315
25.5773 42.5069
25.6231 42.2342
25.669 42.037
25.7147 42.0131
25.7605 42.0101
25.8062 41.9576
25.8521 42.2166
25.8977 41.9102
25.9436 41.9869
25.9893 42.1189
26.0352 42.6194
26.0809 42.6178
26.1268 43.1046
26.1725 43.1179
26.2184 42.5329
26.2641 41.9383
26.31 41.5931
26.3557 41.6191
26.4017 41.5188
26.4474 41.6775
26.4933 41.9131
26.5391 42.3843
26.585 42.6811
26.6308 43.1408
26.6767 43.4635
26.7225 43.6786
26.7684 43.09
26.8142 42.2434
26.8601 41.9762
26.9059 41.6452
26.9519 40.9638
26.9979 40.7776
27.0437 40.322
27.0896 40.0576
27.1354 40.1049
27.1814 40.0712
27.2272 39.9055
27.2732 39.9324
27.3191 39.6269
27.3651 39.7885
27.4109 39.5485
27.4569 39.7896
27.5027 39.6836
27.5488 39.8439
27.5946 39.7182
27.6407 39.5625
27.6865 39.4518
27.7326 39.2406
27.7784 39.2719
27.8245 39.0746
27.8703 39.1698
27.9164 39.304
27.9623 39.4242
28.0084 39.6806
28.0543 40.1489
28.1003 40.2481
28.1462 40.2833
28.1923 39.8701
28.2384 39.4617
28.2843 39.1028
28.3304 38.6485
28.3764 38.2533
28.4225 37.8079
28.4684 37.5547
28.5145 37.1583
28.5605 37.1921
28.6066 36.8721
28.6526 36.9338
28.6987 36.9176
28.7447 36.6775
28.7908 36.6619
28.8368 36.6491
28.8829 36.6418
28.9289 36.5448
28.9751 36.4136
29.0211 36.205
29.0673 35.9587
29.1133 35.7888
29.1595 35.6094
29.2055 35.5152
29.2517 35.4503
29.2977 35.4083
29.3439 35.4311
29.3899 35.3934
29.4361 35.3432
29.4824 35.2142
29.5284 35.0468
29.5746 34.6589
29.6207 34.3287
29.6669 34.2532
29.713 34.0789
29.7593 34.0845
29.8053 34.0462
29.8516 34.0343
29.8977 33.9566
29.9439 33.7991
29.99 33.6893
30.0363 33.5515
30.0824 33.5634
30.1287 33.4828
30.1748 33.5313
30.2211 33.4047
30.2673 33.4674
30.3136 33.59
30.3597 33.4671
30.406 33.4002
30.4522 33.2313
30.4985 33.1003
30.5447 33.2473
30.591 33.2664
30.6372 33.3107
30.6835 33.2378
30.7297 33.2803
30.7761 33.2278
30.8224 33.1016
30.8686 33.0154
30.915 32.6939
30.9612 32.6198
31.0076 32.4283
31.0538 32.2601
31.1002 32.1634
31.1464 32.0885
31.1928 32.0498
31.2391 32.0882
31.2855 31.9557
31.3317 31.8904
31.3781 31.8708
31.4244 31.9083
31.4708 31.8824
31.5171 31.9169
31.5636 31.8312
31.6098 31.5933
31.6563 31.4541
31.7026 31.3762
31.7491 31.1361
31.7953 31.1542
31.8418 31.0953
31.8881 31.2594
31.9346 31.0401
31.9809 31.0743
32.0275 30.956
32.074 30.977
32.1203 30.6969
32.1668 30.593
32.2132 30.497
32.2597 30.2381
32.306 30.2313
32.3526 30.0217
32.399 29.9566
32.4455 29.8081
32.4919 29.8296
32.5385 29.6223
32.5848 29.508
32.6314 29.5435
32.6778 29.4442
32.7244 29.3834
32.7708 29.0874
32.8174 29.1986
32.8638 28.9725
32.9104 29.116
32.9569 28.9799
33.0035 28.7362
33.0499 28.7928
33.0966 28.7188
33.143 28.6481
33.1897 28.5922
33.2361 28.5295
33.2828 28.5699
33.3293 28.3385
33.3759 28.3928
33.4226 28.2901
33.4691 28.0566
33.5158 28.0524
33.5623 27.9365
33.609 27.7174
33.6555 27.6544
33.7022 27.4875
33.7487 27.4665
33.7954 27.4249
33.842 27.2604
33.8887 27.2595
33.9353 27.1711
33.982 27.0679
34.0286 27.0639
34.0753 26.9264
34.1219 26.8128
34.1687 26.774
34.2152 26.7562
34.262 26.661
34.3086 26.4291
34.3554 26.4383
34.402 26.2802
34.4488 26.268
34.4954 26.1174
34.5422 26.1998
34.5889 25.9813
34.6357 25.8175
34.6825 25.7947
34.7292 25.7252
34.776 25.612
34.8227 25.6178
34.8695 25.5119
34.9162 25.4134
34.9631 25.298
35.0098 25.3143
35.0566 25.23
35.1033 25.1212
35.1502 25.102
35.1969 24.9781
35.2438 25.0383
35.2906 24.8799
35.3375 24.9107
35.3842 24.8423
35.4311 24.8108
35.4779 24.7968
35.5248 24.6962
35.5716 24.6297
35.6185 24.5848
35.6653 24.3996
35.7123 24.3266
35.759 24.3185
35.806 24.2336
35.8528 24.0918
35.8998 24.0422
35.9468 23.8977
35.9936 23.8973
36.0406 23.8642
36.0874 23.7789
36.1345 23.7345
36.1813 23.6698
36.2283 23.5845
36.2752 23.4587
36.3222 23.532
36.3691 23.3591
36.4161 23.2163
36.463 23.1964
36.5101 23.1916
36.557 23.133
36.6041 22.9881
36.651 23.0877
36.6981 22.8983
36.745 22.8544
36.7921 22.8297
36.839 22.6503
36.8861 22.5983
36.9331 22.476
36.9802 22.443
37.0272 22.3635
37.0743 22.2645
37.1213 22.2028
37.1684 22.1909
37.2154 22.1621
37.2626 22.1183
37.3098 21.9534
37.3568 21.8639
37.404 21.8074
37.451 21.708
37.4982 21.6857
37.5452 21.5132
37.5924 21.5298
37.6395 21.5395
37.6867 21.4534
37.7337 21.3546
37.781 21.238
37.8281 21.2584
37.8753 21.1022
37.9224 21.0867
37.9697 21.0383
38.0168 20.8999
38.064 20.8272
38.1111 20.7943
38.1584 20.732
38.2056 20.6284
38.2529 20.6175
38.3 20.5627
38.3473 20.5464
38.3945 20.4031
38.4418 20.3738
38.489 20.3938
38.5363 20.1512
38.5837 20.1331
38.6309 20.025
38.6782 19.9503
38.7254 19.8957
38.7728 19.9678
38.82 19.7849
38.8674 19.7771
38.9146 19.7731
38.9621 19.684
39.0093 19.6133
39.0567 19.5637
39.104 19.414
39.1514 19.3882
39.1987 19.3178
39.2461 19.3144
39.2934 19.2559
39.3409 19.0923
39.3882 19.0917
39.4356 19.0729
39.483 18.9968
39.5304 18.8614
39.5778 18.8835
39.6253 18.8099
39.6726 18.7375
39.7201 18.6512
39.7675 18.6298
39.815 18.5553
39.8624 18.4673
39.9099 18.4605
39.9575 18.3998
40.0049 18.312
40.0525 18.2378
40.0999 18.2407
40.1474 18.2291
40.1949 18.0624
40.2425 18.0979
40.2899 18.0228
40.3375 17.9678
40.385 17.8551
40.4326 17.8007
40.48 17.7285
40.5277 17.7076
40.5752 17.6517
40.6228 17.5431
40.6703 17.5308
40.718 17.4647
40.7655 17.466
40.8132 17.3479
40.8607 17.3032
40.9084 17.3753
40.9559 17.2011
41.0036 17.1433
41.0512 17.1083
41.0989 17.0658
41.1465 16.9827
41.1942 16.8785
41.242 16.8667
41.2896 16.7812
41.3373 16.7638
41.3849 16.6808
41.4327 16.6184
41.4803 16.568
41.5281 16.5396
41.5758 16.4204
41.6236 16.3655
41.6712 16.3323
41.7191 16.314
41.7667 16.2974
41.8146 16.2797
41.8622 16.162
41.9101 16.0473
41.9578 15.973
42.0057 15.9621
42.0534 15.9763
42.1013 15.8802
42.149 15.8015
42.1969 15.7706
42.2446 15.7279
42.2925 15.6337
42.3403 15.6543
42.3882 15.5681
42.436 15.5663
42.4839 15.4921
42.5319 15.3966
42.5797 15.3716
42.6277 15.3354
42.6755 15.2733
42.7235 15.2022
42.7713 15.1231
42.8193 15.0909
42.8671 15.0442
42.9152 15.0088
42.963 14.9573
43.0111 14.8893
43.0589 14.8434
43.107 14.7744
43.1549 14.7108
43.2029 14.6733
43.2508 14.6438
43.2989 14.5859
43.3468 14.4347
43.3949 14.4556
43.4429 14.4209
43.491 14.412
43.5389 14.3385
43.5871 14.2995
43.635 14.1785
43.6832 14.2122
43.7312 14.197
43.7793 14.1036
43.8273 14.0611
43.8755 13.9769
43.9237 13.9619
43.9717 13.925
44.0199 13.8124
44.068 13.8246
44.1162 13.7529
44.1642 13.6801
44.2125 13.6516
44.2606 13.5933
44.3088 13.5673
44.3569 13.4985
44.4052 13.4825
44.4533 13.3694
44.5016 13.3628
44.5497 13.3196
44.598 13.2888
44.6461 13.2421
44.6945 13.1922
44.7426 13.1018
44.791 13.0873
44.8391 13.0438
44.8875 13.015
44.9357 12.9692
44.984 12.9469
45.0322 12.8377
45.0806 12.7651
45.1288 12.7827
45.1773 12.6911
45.2257 12.7014
45.2739 12.6562
45.3224 12.6366
45.3706 12.5638
45.4191 12.4673
45.4673 12.504
45.5158 12.4421
45.5641 12.3602
45.6126 12.3117
45.6609 12.2798
45.7094 12.234
45.7577 12.1571
45.8063 12.1474
45.8546 12.066
45.9031 12.0038
45.9515 12.0381
46.0001 11.956
46.0484 11.9733
46.097 11.8982
46.1454 11.8565
46.194 11.7925
46.2424 11.7413
46.291 11.6798
46.3395 11.6603
46.3881 11.6169
46.4365 11.6182
46.4852 11.5436
46.5337 11.4696
46.5823 11.4701
46.631 11.3944
46.6795 11.3723
46.7282 11.3389
46.7767 11.2752
46.8254 11.2592
46.8739 11.2013
46.9226 11.1568
46.9712 11.1046
47.0199 11.0786
47.0685 11.0632
47.1173 11.0042
47.1658 10.9562
47.2146 10.9439
47.2632 10.8907
47.312 10.853
47.3606 10.7829
47.4095 10.7665
47.4581 10.7797
47.5069 10.6801
47.5556 10.6175
47.6044 10.6009
47.6531 10.5651
47.702 10.473
47.7507 10.4744
47.7996 10.3881
47.8483 10.4044
47.8972 10.3909
47.9461 10.3474
47.9948 10.2911
48.0438 10.2675
48.0925 10.246
48.1415 10.1813
48.1902 10.1883
48.2392 10.1527
48.288 10.1008
48.337 10.0404
48.3858 10.0166
48.4348 9.98625
48.4837 9.95094
48.5327 9.89637
48.5815 9.89881
48.6306 9.85301
48.6795 9.79132
48.7285 9.73323
48.7774 9.73676
48.8265 9.70274
48.8754 9.5994
48.9245 9.59959
48.9734 9.57142
49.0226 9.56957
49.0715 9.50622
49.1206 9.4958
49.1696 9.44353
49.2188 9.41095
49.2679 9.3766
49.3169 9.33484
49.3661 9.25872
49.4151 9.23712
49.4643 9.25365
49.5134 9.20862
49.5626 9.12158
49.6117 9.12918
49.6609 9.0753
49.71 9.04672
49.7592 9.01472
49.8083 8.96376
49.8576 8.96697
49.9067 8.91282
49.956 8.87067
50.0052 8.82307
50.0545 8.84354
50.1036 8.75412
50.153 8.73944
50.2022 8.68488
50.2515 8.63607
50.3007 8.60205
50.3501 8.61746
50.3993 8.55385
50.4487 8.53834
50.498 8.51474
50.5474 8.47792
50.5966 8.38679
50.6461 8.42412
50.6955 8.37426
50.7448 8.33629
50.7943 8.34733
50.8436 8.31981
50.8931 8.2348
50.9424 8.23268
50.9919 8.19496
51.0413 8.15966
51.0908 8.15003
51.1402 8.09961
51.1897 8.0541
51.2391 8.01441
51.2887 7.98155
51.3381 7.93224
51.3877 7.93258
51.4371 7.87742
51.4867 7.84709
51.5362 7.85447
51.5858 7.79229
51.6353 7.75178
51.6849 7.70314
51.7344 7.64914
51.7841 7.69181
51.8336 7.64619
51.8833 7.61061
51.9328 7.56536
51.9826 7.54701
52.0323 7.48029
52.0818 7.45444
52.1316 7.42343
52.1812 7.39167
52.231 7.39463
52.2806 7.34999
52.3304 7.33214
52.38 7.29579
52.4298 7.26537
52.4794 7.22075
52.5293 7.18285
52.5789 7.17349
52.6288 7.15548
52.6785 7.09665
52.7284 7.06012
52.7781 7.06974
52.828 7.03994
52.8777 6.95002
52.9276 6.9573
52.9774 6.96214
53.0273 6.92839
53.0771 6.87517
53.1271 6.84652
53.1769 6.80683
53.2269 6.80413
53.2767 6.72171
53.3267 6.75483
53.3765 6.69515
53.4266 6.6766
53.4766 6.64034
53.5265 6.59563
53.5765 6.62412
53.6264 6.56536
53.6765 6.53711
53.7264 6.49104
53.7765 6.47157
53.8265 6.4312
53.8766 6.4216
53.9266 6.40575
53.9767 6.35606
54.0267 6.32148
54.0769 6.3053
54.1269 6.26789
54.1771 6.23079
54.2271 6.1879
54.2773 6.15299
54.3274 6.16402
54.3776 6.08009
54.4277 6.08138
54.478 6.04885
54.528 5.99079
54.5783 5.97122
54.6285 5.91077
54.6788 5.88827
54.7289 5.80989
54.7792 5.78794
54.8296 5.76861
54.8798 5.69075
54.9301 5.65997
54.9803 5.6673
55.0307 5.63278
55.0809 5.57205
55.1314 5.52602
55.1816 5.43825
55.232 5.42108
55.2823 5.40867
55.3328 5.28899
55.383 5.27528
55.4335 5.20697
55.4838 5.14082
55.5344 5.10481
55.5847 5.12608
55.6352 5.08328
55.6856 5.06118
55.7361 4.96956