File: XRD/Ni3Fe_FD0258.xy
TT I
1.27165 8.16578
1.31627 6.86107
1.36089 7.36356
1.40551 7.2185
1.45013 7.23756
1.49476 6.66051
1.53938 6.34202
1.584 5.39385
1.62863 5.65716
1.67325 5.56214
1.71787 5.54333
1.7625 5.33644
1.80712 5.41113
1.85174 4.80839
1.89636 5.34575
1.94099 4.52184
1.98562 4.97522
2.03025 4.83391
2.07487 4.49761
2.11949 4.99368
2.16411 4.73621
2.20874 7.86506
2.25338 11.8094
2.298 5.45291
2.34263 4.19141
2.38725 4.77454
2.43188 4.86006
2.4765 5.13106
2.52115 5.89717
2.56577 5.86861
2.6104 7.00302
2.65503 6.30733
2.69965 6.5681
2.7443 7.23851
2.78893 6.69368
2.83356 7.54119
2.87818 7.84585
2.92281 9.13737
2.96744 9.34963
3.01209 10.3145
3.05672 10.9943
3.10135 12.2004
3.14599 12.8395
3.19062 13.8858
3.23527 15.0777
3.2799 15.7922
3.32454 17.2431
3.36917 17.7889
3.4138 19.072
3.45844 19.8426
3.50309 20.9327
3.54773 21.3028
3.59237 23.6086
3.637 50.2523
3.68164 38.3572
3.7263 25.8661
3.77094 26.3145
3.81558 27.0966
3.86022 27.7353
3.90486 29.3219
3.9495 30.1571
3.99416 31.0371
4.0388 32.7928
4.08344 34.7165
4.12809 35.6423
4.17273 37.5028
4.21738 41.1752
4.26204 121.105
4.30669 110.19
4.35133 46.7532
4.39598 45.0428
4.44063 50.3659
4.4853 56.1844
4.52995 53.2633
4.5746 54.6017
4.61925 55.799
4.6639 57.7894
4.70855 60.8217
4.75322 64.0715
4.79788 67.82
4.84253 70.7499
4.88719 76.357
4.93184 80.2889
4.97652 86.3717
5.02118 94.8669
5.06583 104.388
5.11049 119.222
5.15515 173.014
5.19981 580.572
5.24449 3841.06
5.28916 10685.5
5.33382 4269.98
5.37848 280.359
5.42315 151.772
5.46783 128.806
5.5125 116.786
5.55716 111.057
5.60183 105.324
5.6465 103.595
5.69117 101.315
5.73586 98.983
5.78053 100.369
5.8252 100.325
5.86988 102.054
5.91455 106.23
5.95924 120.5
6.00392 301.785
6.0486 1341.08
6.09328 3645.35
6.13795 3797.35
6.18263 384.122
6.22733 109.328
6.27201 89.3259
6.3167 91.0226
6.36138 79.6987
6.40606 72.9971
6.45075 70.5809
6.49545 68.1639
6.54014 66.2562
6.58483 65.1381
6.62952 64.3347
6.67421 75.5503
6.71892 95.1097
6.76361 65.1821
6.8083 60.4835
6.853 59.7586
6.89769 58.7048
6.94239 58.324
6.98711 57.3912
7.03181 57.625
7.07651 56.9833
7.12121 57.0027
7.16591 57.5228
7.21063 56.815
7.25533 62.6302
7.30004 104.43
7.34475 71.6356
7.38945 57.2996
7.43416 55.8774
7.47889 55.8233
7.5236 56.3112
7.56831 57.0074
7.61303 57.663
7.65774 58.1641
7.70247 58.5071
7.74719 58.3527
7.79191 58.528
7.83663 59.0595
7.88135 59.9161
7.92607 61.0616
7.97081 62.1426
8.01553 63.8644
8.06026 64.8621
8.10498 66.0813
8.14971 71.6533
8.19446 72.6774
8.23919 72.488
8.28392 75.3061
8.32865 78.1014
8.37339 82.7776
8.41812 89.3536
8.46288 109.486
8.50761 204.08
8.55235 540.944
8.59709 1109.23
8.64183 1959.37
8.68658 1277.03
8.73134 237.976
8.77609 111.042
8.82083 100.536
8.86558 95.7612
8.91033 94.1672
8.9551 92.9531
8.99985 89.1961
9.04461 88.0588
9.08936 87.079
9.13412 86.4257
9.17888 85.8992
9.22365 86.2435
9.26841 85.902
9.31318 87.4398
9.35794 87.7153
9.4027 87.7934
9.44749 88.1528
9.49226 88.8747
9.53703 90.1821
9.5818 92.1148
9.62657 94.8737
9.67134 98.1398
9.71614 97.6345
9.76091 99.2189
9.80569 102.305
9.85047 105.386
9.89525 117.7
9.94005 131.594
9.98484 217.003
10.0296 480.411
10.0744 831.765
10.1192 1440.72
10.164 1716.38
10.2088 604.736
10.2536 153.687
10.2984 119.081
10.3432 115.567
10.388 110.964
10.4328 133.761
10.4776 200.024
10.5224 289.783
10.5672 440.253
10.612 527.723
10.6568 272.648
10.7017 112.499
10.7465 91.9983
10.7913 87.7353
10.8361 85.2673
10.8809 82.566
10.9257 81.1872
10.9706 80.5055
11.0154 77.8364
11.0602 75.7587
11.105 74.72
11.1499 75.2989
11.1947 77.6062
11.2395 73.4183
11.2844 71.3414
11.3292 69.6652
11.374 68.885
11.4189 68.2549
11.4637 67.6065
11.5086 67.38
11.5534 68.3656
11.5983 66.9518
11.6431 66.1937
11.688 65.3476
11.7328 65.4024
11.7777 65.289
11.8225 65.5102
11.8674 64.968
11.9122 65.4537
11.9571 65.6802
12.002 66.6726
12.0468 73.0441
12.0917 90.1377
12.1366 111.192
12.1814 143.177
12.2263 190.71
12.2712 189.473
12.3161 110.188
12.3609 72.5823
12.4058 67.3333
12.4507 66.8442
12.4956 67.3566
12.5405 67.2029
12.5853 67.8316
12.6302 70.8965
12.6751 73.884
12.72 70.8638
12.7649 70.5298
12.8098 71.3531
12.8547 72.5595
12.8996 74.4381
12.9445 76.0568
12.9894 77.4762
13.0343 79.2966
13.0792 83.7155
13.1242 95.6522
13.1691 132.732
13.214 176.011
13.2589 235.98
13.3038 322.894
13.3487 410.943
13.3937 319.986
13.4386 152.127
13.4835 118.741
13.5285 145.11
13.5734 178.236
13.6183 232.703
13.6633 307.845
13.7082 355.346
13.7531 239.127
13.7981 116.901
13.843 87.205
13.888 83.7547
13.9329 81.1197
13.9779 79.6583
14.0228 77.7859
14.0678 76.6574
14.1127 75.8231
14.1577 75.0003
14.2027 74.6836
14.2476 73.6894
14.2926 73.3515
14.3376 73.3516
14.3825 72.6746
14.4275 72.0272
14.4725 72.0455
14.5175 72.14
14.5624 72.3047
14.6074 73.0633
14.6524 73.6248
14.6974 73.7015
14.7424 76.1703
14.7874 86.326
14.8324 103.338
14.8774 120.847
14.9224 147.74
14.9674 185.838
15.0124 216.44
15.0574 174.978
15.1024 106.335
15.1474 77.6085
15.1924 73.8789
15.2374 73.0148
15.2824 72.1493
15.3274 70.6782
15.3725 69.9469
15.4175 69.4224
15.4625 68.9984
15.5076 68.8337
15.5526 68.8143
15.5976 69.0724
15.6426 70.5525
15.6877 78.9441
15.7327 91.7867
15.7778 105.331
15.8228 124.798
15.8679 153.177
15.9129 184.334
15.958 173.841
16.003 117.347
16.0481 75.016
16.0931 66.8515
16.1382 64.6339
16.1833 63.0718
16.2283 61.7991
16.2734 60.9275
16.3185 60.5301
16.3636 60.4934
16.4086 59.2993
16.4537 58.4555
16.4988 57.8856
16.5439 57.8522
16.589 57.3512
16.6341 57.2005
16.6792 56.7712
16.7243 56.9993
16.7694 57.0826
16.8145 57.1061
16.8596 57.3749
16.9047 57.9974
16.9498 58.1962
16.9949 57.6607
17.04 58.2637
17.0851 60.1276
17.1302 62.8041
17.1754 65.6826
17.2205 69.0273
17.2656 74.2768
17.3108 81.5936
17.3559 85.0778
17.401 77.5436
17.4462 67.5325
17.4913 62.4043
17.5365 61.7317
17.5815 61.811
17.6268 62.4179
17.6718 62.8505
17.7171 63.178
17.7622 64.2342
17.8074 64.7416
17.8525 67.9195
17.8977 74.499
17.9428 82.3687
17.9881 88.5721
18.0331 100.017
18.0784 114.692
18.1237 134.392
18.1688 142.523
18.214 121.845
18.2591 96.5991
18.3044 91.7095
18.3495 97.0311
18.3948 105.028
18.4399 101.819
18.4852 85.4999
18.5303 70.9721
18.5756 65.5787
18.6207 64.1716
18.666 63.0978
18.7112 62.5454
18.7565 61.6936
18.8016 61.4036
18.8469 60.8983
18.892 60.6436
18.9374 59.8971
18.9825 59.5743
19.0278 59.273
19.073 59.3545
19.1183 60.4176
19.1635 61.4682
19.2088 63.1111
19.254 64.8376
19.2993 67.5289
19.3447 71.4903
19.3898 76.1057
19.4352 76.3137
19.4804 69.1971
19.5257 61.2145
19.5709 57.1081
19.6163 56.4317
19.6615 56.1351
19.7068 55.9295
19.752 55.6464
19.7974 55.9606
19.8426 57.2296
19.888 58.4116
19.9332 59.5155
19.9786 61.2446
20.0238 63.4608
20.0692 67.639
20.1144 71.58
20.1598 72.8069
20.205 68.58
20.2504 64.9352
20.2957 64.6189
20.3411 66.6622
20.3863 67.0015
20.4318 62.6181
20.477 57.2271
20.5224 54.0126
20.5677 53.205
20.6131 52.3825
20.6586 51.8863
20.7038 51.8044
20.7493 51.2755
20.7945 51.1613
20.84 50.9045
20.8853 50.9114
20.9307 50.8213
20.976 50.8025
21.0215 50.9248
21.0668 51.3411
21.1122 51.5809
21.1575 52.0503
21.203 52.4336
21.2483 53.1682
21.2938 53.6129
21.3391 52.7807
21.3846 51.3046
21.4299 50.782
21.4754 50.6561
21.5207 50.8801
21.5662 51.1886
21.6116 51.747
21.6571 52.7628
21.7024 54.1684
21.7479 55.4315
21.7933 57.3298
21.8388 59.8024
21.8843 63.0615
21.9297 66.2826
21.9752 66.9245
22.0206 63.7452
22.0661 59.4206
22.1115 57.5327
22.157 57.974
22.2024 57.2581
22.248 54.7678
22.2933 52.6865
22.3389 51.4099
22.3843 51.2178
22.4299 50.8324
22.4753 50.9086
22.5208 50.8888
22.5662 50.5175
22.6118 50.8897
22.6572 51.2486
22.7028 51.8537
22.7483 52.7062
22.7939 52.9325
22.8393 54.1563
22.8849 55.5462
22.9303 56.932
22.9759 58.9542
23.0214 59.5909
23.067 58.0698
23.1126 54.7747
23.1581 52.0131
23.2037 51.1458
23.2492 51.0775
23.2948 51.3408
23.3403 51.9855
23.3859 52.5083
23.4314 53.3019
23.477 54.2313
23.5225 55.7906
23.5682 57.2287
23.6137 59.3753
23.6593 58.6371
23.7048 55.4117
23.7505 51.6153
23.796 49.1502
23.8417 48.2808
23.8872 47.5214
23.9329 47.2308
23.9784 46.987
24.0241 46.6771
24.0697 46.3253
24.1154 46.0436
24.1609 45.8402
24.2066 45.6627
24.2522 45.583
24.2979 45.3371
24.3434 45.2448
24.3892 44.942
24.4349 45.0353
24.4805 44.6975
24.5262 44.7725
24.5718 44.7682
24.6175 44.7485
24.6631 44.757
24.7089 44.403
24.7545 44.405
24.8002 44.1669
24.8458 44.1593
24.8916 44.0248
24.9372 44.1245
24.983 44.435
25.0286 44.7324
25.0744 45.2308
25.12 45.46
25.1658 46.0752
25.2114 46.53
25.2572 46.5583
25.3029 46.3828
25.3487 46.522
25.3943 46.3936
25.4402 45.826
25.4858 44.8088
25.5316 43.5776
25.5773 42.8225
25.6231 42.8275
25.669 42.3089
25.7147 42.3387
25.7605 42.3004
25.8062 42.2905
25.8521 42.3359
25.8977 42.32
25.9436 42.5361
25.9893 42.7375
26.0352 43.0769
26.0809 42.9888
26.1268 43.4776
26.1725 43.2166
26.2184 42.8667
26.2641 42.3042
26.31 42.0282
26.3557 42.189
26.4017 41.9745
26.4474 42.2668
26.4933 42.5215
26.5391 42.8625
26.585 43.0998
26.6308 43.4004
26.6767 43.7603
26.7225 43.9289
26.7684 43.4054
26.8142 42.7576
26.8601 42.2996
26.9059 41.8649
26.9519 41.4237
26.9979 41.1959
27.0437 40.5346
27.0896 40.5769
27.1354 40.4727
27.1814 40.323
27.2272 40.316
27.2732 40.3176
27.3191 40.0759
27.3651 40.1122
27.4109 40.1362
27.4569 39.9731
27.5027 40.0882
27.5488 40.198
27.5946 40.1769
27.6407 39.9601
27.6865 39.9635
27.7326 39.7154
27.7784 39.6101
27.8245 39.6123
27.8703 39.7929
27.9164 39.9387
27.9623 39.9121
28.0084 40.232
28.0543 40.6238
28.1003 40.5427
28.1462 40.6061
28.1923 40.0995
28.2384 39.5808
28.2843 39.4119
28.3304 38.9209
28.3764 38.5194
28.4225 38.1267
28.4684 37.8483
28.5145 37.5392
28.5605 37.5597
28.6066 37.2474
28.6526 37.1785
28.6987 37.1616
28.7447 37.0825
28.7908 37.026
28.8368 36.7898
28.8829 36.8982
28.9289 36.8413
28.9751 36.6605
29.0211 36.5406
29.0673 36.3441
29.1133 36.0965
29.1595 36.044
29.2055 35.8806
29.2517 35.7792
29.2977 35.6777
29.3439 35.7809
29.3899 35.6016
29.4361 35.5993
29.4824 35.492
29.5284 35.3051
29.5746 34.8897
29.6207 34.6927
29.6669 34.5679
29.713 34.3832
29.7593 34.3469
29.8053 34.3737
29.8516 34.3047
29.8977 34.2583
29.9439 34.0572
29.99 33.9624
30.0363 33.827
30.0824 33.8674
30.1287 33.8008
30.1748 33.8419
30.2211 33.8143
30.2673 33.6435
30.3136 33.9197
30.3597 33.7817
30.406 33.5326
30.4522 33.4747
30.4985 33.4717
30.5447 33.4921
30.591 33.5743
30.6372 33.4968
30.6835 33.4256
30.7297 33.6203
30.7761 33.6023
30.8224 33.4736
30.8686 33.2401
30.915 33.0362
30.9612 32.8765
31.0076 32.8593
31.0538 32.5633
31.1002 32.5067
31.1464 32.355
31.1928 32.3364
31.2391 32.3131
31.2855 32.2028
31.3317 32.1976
31.3781 32.2195
31.4244 32.2844
31.4708 32.012
31.5171 32.1269
31.5636 32.1572
31.6098 31.9092
31.6563 31.7364
31.7026 31.6104
31.7491 31.4988
31.7953 31.5521
31.8418 31.4551
31.8881 31.4891
31.9346 31.3817
31.9809 31.2769
32.0275 31.1985
32.074 31.2098
32.1203 30.9085
32.1668 30.9219
32.2132 30.7469
32.2597 30.5505
32.306 30.4745
32.3526 30.2409
32.399 30.1424
32.4455 29.9765
32.4919 30.0199
32.5385 29.9286
32.5848 29.7383
32.6314 29.7036
32.6778 29.5856
32.7244 29.5197
32.7708 29.2803
32.8174 29.3699
32.8638 29.2712
32.9104 29.3694
32.9569 29.2202
33.0035 29.0118
33.0499 28.9687
33.0966 28.9757
33.143 28.9416
33.1897 28.876
33.2361 28.7721
33.2828 28.776
33.3293 28.6181
33.3759 28.5811
33.4226 28.4824
33.4691 28.405
33.5158 28.2768
33.5623 28.1208
33.609 27.9652
33.6555 27.8526
33.7022 27.7415
33.7487 27.6447
33.7954 27.6926
33.842 27.4194
33.8887 27.444
33.9353 27.4318
33.982 27.295
34.0286 27.1844
34.0753 27.1256
34.1219 26.9333
34.1687 26.9395
34.2152 26.906
34.262 26.7222
34.3086 26.7268
34.3554 26.7454
34.402 26.5025
34.4488 26.4253
34.4954 26.3343
34.5422 26.2815
34.5889 26.1333
34.6357 26.0085
34.6825 25.9995
34.7292 25.8917
34.776 25.8592
34.8227 25.8459
34.8695 25.6503
34.9162 25.6373
34.9631 25.4616
35.0098 25.5603
35.0566 25.3732
35.1033 25.4329
35.1502 25.3383
35.1969 25.1846
35.2438 25.2527
35.2906 25.1172
35.3375 25.052
35.3842 25.0212
35.4311 25.003
35.4779 24.9503
35.5248 24.8462
35.5716 24.7681
35.6185 24.7732
35.6653 24.6493
35.7123 24.5861
35.759 24.5164
35.806 24.3578
35.8528 24.3349
35.8998 24.1727
35.9468 24.1157
35.9936 24.1526
36.0406 24.0083
36.0874 24.0235
36.1345 23.9172
36.1813 23.815
36.2283 23.731
36.2752 23.6683
36.3222 23.5711
36.3691 23.5377
36.4161 23.4072
36.463 23.3811
36.5101 23.319
36.557 23.3502
36.6041 23.1515
36.651 23.1388
36.6981 23.0355
36.745 22.9888
36.7921 22.97
36.839 22.8333
36.8861 22.6762
36.9331 22.7226
36.9802 22.7016
37.0272 22.4721
37.0743 22.5186
37.1213 22.3876
37.1684 22.3233
37.2154 22.2673
37.2626 22.1589
37.3098 22.134
37.3568 22.0948
37.404 22.0027
37.451 21.9076
37.4982 21.8251
37.5452 21.7244
37.5924 21.679
37.6395 21.8002
37.6867 21.571
37.7337 21.5024
37.781 21.4522
37.8281 21.4177
37.8753 21.2869
37.9224 21.2414
37.9697 21.2358
38.0168 21.1053
38.064 21.031
38.1111 20.9712
38.1584 20.8772
38.2056 20.8225
38.2529 20.7578
38.3 20.6877
38.3473 20.6605
38.3945 20.5278
38.4418 20.576
38.489 20.4698
38.5363 20.3474
38.5837 20.2979
38.6309 20.2448
38.6782 20.1559
38.7254 20.0903
38.7728 20.0797
38.82 19.9947
38.8674 19.9211
38.9146 19.8395
38.9621 19.7562
39.0093 19.7412
39.0567 19.6105
39.104 19.5902
39.1514 19.5104
39.1987 19.4756
39.2461 19.4309
39.2934 19.3637
39.3409 19.1953
39.3882 19.2144
39.4356 19.1782
39.483 19.1109
39.5304 18.9707
39.5778 19.0651
39.6253 18.9521
39.6726 18.8848
39.7201 18.8128
39.7675 18.7746
39.815 18.7004
39.8624 18.5902
39.9099 18.6097
39.9575 18.4954
40.0049 18.4792
40.0525 18.4027
40.0999 18.3708
40.1474 18.3133
40.1949 18.248
40.2425 18.1207
40.2899 18.146
40.3375 18.0993
40.385 18.0363
40.4326 17.9882
40.48 17.8503
40.5277 17.8556
40.5752 17.7931
40.6228 17.6857
40.6703 17.6592
40.718 17.65
40.7655 17.5649
40.8132 17.4534
40.8607 17.466
40.9084 17.4527
40.9559 17.329
41.0036 17.2971
41.0512 17.2289
41.0989 17.1905
41.1465 17.0777
41.1942 17.1004
41.242 16.9563
41.2896 16.8716
41.3373 16.8499
41.3849 16.7702
41.4327 16.7533
41.4803 16.6979
41.5281 16.6201
41.5758 16.473
41.6236 16.5023
41.6712 16.4651
41.7191 16.4332
41.7667 16.3155
41.8146 16.3618
41.8622 16.207
41.9101 16.1612
41.9578 16.0784
42.0057 16.06
42.0534 16.0248
42.1013 16.0131
42.149 15.9321
42.1969 15.8611
42.2446 15.8059
42.2925 15.752
42.3403 15.7398
42.3882 15.6751
42.436 15.6289
42.4839 15.5244
42.5319 15.5013
42.5797 15.4743
42.6277 15.3566
42.6755 15.3598
42.7235 15.3064
42.7713 15.2189
42.8193 15.1727
42.8671 15.1453
42.9152 15.0965
42.963 15.0742
43.0111 14.9307
43.0589 14.9572
43.107 14.8424
43.1549 14.8191
43.2029 14.7972
43.2508 14.7487
43.2989 14.7029
43.3468 14.6026
43.3949 14.5717
43.4429 14.4907
43.491 14.4848
43.5389 14.4128
43.5871 14.3758
43.635 14.3035
43.6832 14.3117
43.7312 14.2026
43.7793 14.1371
43.8273 14.1553
43.8755 14.0568
43.9237 14.0394
43.9717 14.0065
44.0199 13.9266
44.068 13.9296
44.1162 13.8019
44.1642 13.8106
44.2125 13.713
44.2606 13.6654
44.3088 13.6175
44.3569 13.5907
44.4052 13.5406
44.4533 13.495
44.5016 13.4009
44.5497 13.3965
44.598 13.3601
44.6461 13.3431
44.6945 13.2513
44.7426 13.2358
44.791 13.1495
44.8391 13.1059
44.8875 13.0602
44.9357 13.0328
44.984 12.9742
45.0322 12.9239
45.0806 12.8725
45.1288 12.822
45.1773 12.8392
45.2257 12.7507
45.2739 12.6717
45.3224 12.6538
45.3706 12.611
45.4191 12.5721
45.4673 12.5186
45.5158 12.502
45.5641 12.4072
45.6126 12.414
45.6609 12.3315
45.7094 12.2535
45.7577 12.2128
45.8063 12.2052
45.8546 12.1607
45.9031 12.1144
45.9515 12.0629
46.0001 12.0295
46.0484 11.9999
46.097 11.9944
46.1454 11.9637
46.194 11.8769
46.2424 11.8142
46.291 11.7858
46.3395 11.706
46.3881 11.6484
46.4365 11.6759
46.4852 11.5878
46.5337 11.5477
46.5823 11.5333
46.631 11.4793
46.6795 11.4284
46.7282 11.4448
46.7767 11.3695
46.8254 11.3229
46.8739 11.2659
46.9226 11.229
46.9712 11.1944
47.0199 11.1264
47.0685 11.1012
47.1173 11.0277
47.1658 10.9955
47.2146 10.9887
47.2632 10.9779
47.312 10.9146
47.3606 10.8356
47.4095 10.8158
47.4581 10.8081
47.5069 10.7046
47.5556 10.6838
47.6044 10.6455
47.6531 10.6032
47.702 10.5723
47.7507 10.5538
47.7996 10.4866
47.8483 10.4954
47.8972 10.4319
47.9461 10.3829
47.9948 10.3269
48.0438 10.3262
48.0925 10.2931
48.1415 10.2307
48.1902 10.2137
48.2392 10.2028
48.288 10.1829
48.337 10.1148
48.3858 10.0506
48.4348 10.0509
48.4837 10.0226
48.5327 9.99553
48.5815 9.95086
48.6306 9.87932
48.6795 9.87471
48.7285 9.83393
48.7774 9.75568
48.8265 9.73152
48.8754 9.71439
48.9245 9.62685
48.9734 9.64995
49.0226 9.60946
49.0715 9.53638
49.1206 9.50102
49.1696 9.46575
49.2188 9.41968
49.2679 9.39625
49.3169 9.3408
49.3661 9.34025
49.4151 9.29809
49.4643 9.26558
49.5134 9.25498
49.5626 9.1897
49.6117 9.16529
49.6609 9.13833
49.71 9.08135
49.7592 9.06093
49.8083 9.00707
49.8576 9.00979
49.9067 8.91906
49.956 8.90853
50.0052 8.88922
50.0545 8.87491
50.1036 8.834
50.153 8.77248
50.2022 8.77692
50.2515 8.74444
50.3007 8.64851
50.3501 8.66524
50.3993 8.61681
50.4487 8.58308
50.498 8.533
50.5474 8.54656
50.5966 8.48831
50.6461 8.45311
50.6955 8.43963
50.7448 8.38797
50.7943 8.37317
50.8436 8.36836
50.8931 8.29068
50.9424 8.25338
50.9919 8.23518
51.0413 8.16298
51.0908 8.16918
51.1402 8.13661
51.1897 8.0823
51.2391 8.06136
51.2887 8.02089
51.3381 7.981
51.3877 7.93552
51.4371 7.91662
51.4867 7.84689
51.5362 7.88083
51.5858 7.7946
51.6353 7.80627
51.6849 7.73476
51.7344 7.76344
51.7841 7.70071
51.8336 7.65157
51.8833 7.6378
51.9328 7.59061
51.9826 7.56823
52.0323 7.55247
52.0818 7.50214
52.1316 7.47015
52.1812 7.44488
52.231 7.40686
52.2806 7.37918
52.3304 7.35107
52.38 7.31202
52.4298 7.30444
52.4794 7.28893
52.5293 7.23317
52.5789 7.1988
52.6288 7.16898
52.6785 7.08235
52.7284 7.11057
52.7781 7.07385
52.828 7.03312
52.8777 7.00779
52.9276 6.95617
52.9774 6.96113
53.0273 6.96318
53.0771 6.93597
53.1271 6.88441
53.1769 6.83358
53.2269 6.85998
53.2767 6.77736
53.3267 6.73569
53.3765 6.76413
53.4266 6.71147
53.4766 6.638
53.5265 6.64865
53.5765 6.60784
53.6264 6.56696
53.6765 6.57075
53.7264 6.51669
53.7765 6.48821
53.8265 6.4819
53.8766 6.42691
53.9266 6.39012
53.9767 6.37517
54.0267 6.41687
54.0769 6.3423
54.1269 6.31874
54.1771 6.21678
54.2271 6.23821
54.2773 6.19673
54.3274 6.13983
54.3776 6.10213
54.4277 6.10723
54.478 6.06013
54.528 6.00801
54.5783 5.98576
54.6285 5.94923
54.6788 5.87041
54.7289 5.81077
54.7792 5.82577
54.8296 5.72251
54.8798 5.68902
54.9301 5.66751
54.9803 5.62924
55.0307 5.63024
55.0809 5.55302
55.1314 5.57156
55.1816 5.48027
55.232 5.42503
55.2823 5.37039
55.3328 5.3474
55.383 5.24542
55.4335 5.27082
55.4838 5.1653
55.5344 5.10676
55.5847 5.09518
55.6352 5.01235
55.6856 5.04694
55.7361 4.99965