File: XRD/Ni3Fe_FD0718.xy
TT I
1.27165 7.28257
1.31627 6.98275
1.36089 6.872
1.40551 6.1587
1.45013 6.28543
1.49476 5.88164
1.53938 5.96477
1.584 5.03987
1.62863 5.10276
1.67325 4.77836
1.71787 4.86327
1.7625 4.81746
1.80712 4.92396
1.85174 4.88443
1.89636 4.66137
1.94099 5.10697
1.98562 3.98974
2.03025 4.70039
2.07487 4.62448
2.11949 5.12625
2.16411 4.5692
2.20874 10.1277
2.25338 13.4864
2.298 5.61446
2.34263 5.41512
2.38725 5.81627
2.43188 6.0342
2.4765 6.34732
2.52115 6.55816
2.56577 7.95075
2.6104 7.43771
2.65503 7.86278
2.69965 7.98529
2.7443 8.11467
2.78893 8.03088
2.83356 8.33574
2.87818 8.85462
2.92281 8.57688
2.96744 8.97452
3.01209 10.6466
3.05672 10.8333
3.10135 11.8185
3.14599 12.8229
3.19062 13.9255
3.23527 14.4757
3.2799 15.6213
3.32454 16.7016
3.36917 17.7265
3.4138 18.5895
3.45844 18.8989
3.50309 20.2469
3.54773 21.2367
3.59237 23.3837
3.637 59.8754
3.68164 41.9409
3.7263 25.9759
3.77094 26.1495
3.81558 26.0242
3.86022 27.5843
3.90486 28.8003
3.9495 29.3794
3.99416 30.468
4.0388 31.3868
4.08344 33.6259
4.12809 34.0843
4.17273 36.3827
4.21738 40.8446
4.26204 154.264
4.30669 130.832
4.35133 46.0227
4.39598 44.2618
4.44063 50.2139
4.4853 56.4011
4.52995 53.3153
4.5746 54.2508
4.61925 53.2875
4.6639 55.5857
4.70855 58.1667
4.75322 61.7718
4.79788 66.1317
4.84253 67.9614
4.88719 73.1066
4.93184 76.4528
4.97652 80.717
5.02118 87.6791
5.06583 96.3677
5.11049 106.968
5.15515 156.897
5.19981 375.177
5.24449 3012.14
5.28916 12571.0
5.33382 3010.35
5.37848 195.451
5.42315 130.819
5.46783 117.261
5.5125 109.535
5.55716 102.72
5.60183 98.4272
5.6465 96.3953
5.69117 94.433
5.73586 92.6467
5.78053 95.2442
5.8252 94.5805
5.86988 96.5382
5.91455 95.1013
5.95924 103.242
6.00392 227.186
6.0486 1003.68
6.09328 4443.16
6.13795 3177.25
6.18263 230.308
6.22733 91.4406
6.27201 81.3777
6.3167 88.8207
6.36138 75.7962
6.40606 69.5557
6.45075 68.3673
6.49545 65.4129
6.54014 63.3907
6.58483 62.4587
6.62952 62.7991
6.67421 79.2205
6.71892 102.094
6.76361 63.6536
6.8083 58.6781
6.853 58.3015
6.89769 56.5535
6.94239 55.98
6.98711 55.7003
7.03181 55.863
7.07651 54.9047
7.12121 55.4329
7.16591 55.8002
7.21063 55.138
7.25533 63.6178
7.30004 117.246
7.34475 72.3079
7.38945 55.4119
7.43416 54.3589
7.47889 53.8556
7.5236 54.0499
7.56831 54.8383
7.61303 56.4033
7.65774 56.3508
7.70247 56.3439
7.74719 56.3863
7.79191 56.6757
7.83663 56.494
7.88135 57.7975
7.92607 58.5447
7.97081 59.3191
8.01553 61.0093
8.06026 62.2412
8.10498 63.8632
8.14971 71.1628
8.19446 70.7695
8.23919 69.3595
8.28392 72.0037
8.32865 73.7414
8.37339 78.8511
8.41812 84.3857
8.46288 104.116
8.50761 172.767
8.55235 404.106
8.59709 1214.31
8.64183 2132.13
8.68658 943.878
8.73134 166.641
8.77609 99.2951
8.82083 92.6773
8.86558 90.8058
8.91033 90.8024
8.9551 89.4102
8.99985 85.4598
9.04461 83.7789
9.08936 83.833
9.13412 82.472
9.17888 81.9171
9.22365 82.4338
9.26841 82.0624
9.31318 83.5905
9.35794 84.5703
9.4027 84.5764
9.44749 84.8403
9.49226 84.9098
9.53703 85.5496
9.5818 88.2488
9.62657 92.6829
9.67134 95.5329
9.71614 92.9866
9.76091 94.9968
9.80569 98.1325
9.85047 100.84
9.89525 115.212
9.94005 126.993
9.98484 186.389
10.0296 359.484
10.0744 849.923
10.1192 1740.86
10.164 1587.52
10.2088 404.12
10.2536 125.647
10.2984 110.838
10.3432 109.894
10.388 104.313
10.4328 121.557
10.4776 165.599
10.5224 294.059
10.5672 495.728
10.612 498.755
10.6568 205.159
10.7017 96.0295
10.7465 86.6374
10.7913 83.0706
10.8361 80.8807
10.8809 79.095
10.9257 77.8529
10.9706 77.8402
11.0154 74.9159
11.0602 72.8701
11.105 71.2415
11.1499 73.6804
11.1947 76.3154
11.2395 71.1808
11.2844 68.8867
11.3292 67.1116
11.374 65.767
11.4189 65.5967
11.4637 64.7151
11.5086 64.6936
11.5534 65.843
11.5983 64.1166
11.6431 63.4095
11.688 62.5162
11.7328 62.8696
11.7777 62.5356
11.8225 62.4385
11.8674 62.3569
11.9122 62.6432
11.9571 62.9264
12.002 63.8959
12.0468 68.3712
12.0917 79.3318
12.1366 104.622
12.1814 153.276
12.2263 199.073
12.2712 161.517
12.3161 93.4552
12.3609 68.2535
12.4058 64.2659
12.4507 64.111
12.4956 64.7128
12.5405 64.583
12.5853 65.096
12.6302 69.3535
12.6751 72.2385
12.72 68.0834
12.7649 67.605
12.8098 68.3041
12.8547 69.5863
12.8996 71.4001
12.9445 72.6757
12.9894 74.4309
13.0343 75.8604
13.0792 79.3657
13.1242 90.5382
13.1691 112.711
13.214 152.922
13.2589 250.185
13.3038 371.504
13.3487 417.055
13.3937 264.332
13.4386 126.118
13.4835 107.115
13.5285 122.524
13.5734 163.982
13.6183 254.391
13.6633 343.878
13.7082 328.868
13.7531 185.13
13.7981 97.4823
13.843 81.6481
13.888 79.6659
13.9329 77.1608
13.9779 75.6932
14.0228 74.3258
14.0678 72.9387
14.1127 72.3032
14.1577 72.1517
14.2027 71.2584
14.2476 70.4036
14.2926 70.1447
14.3376 70.4542
14.3825 69.7318
14.4275 68.8887
14.4725 68.5864
14.5175 68.9236
14.5624 69.0713
14.6074 70.3828
14.6524 70.604
14.6974 70.5535
14.7424 72.8054
14.7874 79.591
14.8324 90.2567
14.8774 113.538
14.9224 158.131
14.9674 206.428
15.0124 213.736
15.0574 147.729
15.1024 90.3435
15.1474 72.5385
15.1924 70.3102
15.2374 69.8071
15.2824 69.1734
15.3274 67.614
15.3725 66.849
15.4175 66.4948
15.4625 65.9019
15.5076 65.9669
15.5526 66.1071
15.5976 65.6729
15.6426 67.2939
15.6877 72.6082
15.7327 80.7398
15.7778 97.102
15.8228 129.68
15.8679 171.311
15.9129 188.449
15.958 153.614
16.003 97.0348
16.0481 67.9184
16.0931 63.5486
16.1382 61.5424
16.1833 60.184
16.2283 58.8887
16.2734 58.1282
16.3185 57.9796
16.3636 57.8204
16.4086 56.9395
16.4537 55.9516
16.4988 55.3722
16.5439 55.2715
16.589 54.8946
16.6341 54.7366
16.6792 54.3763
16.7243 54.7063
16.7694 54.6385
16.8145 54.5298
16.8596 54.9716
16.9047 55.7972
16.9498 55.9253
16.9949 55.252
17.04 55.7964
17.0851 56.9564
17.1302 58.6506
17.1754 61.7
17.2205 67.3268
17.2656 74.9623
17.3108 81.91
17.3559 80.8661
17.401 70.7163
17.4462 61.8694
17.4913 59.0624
17.5365 58.8781
17.5815 59.2218
17.6268 59.5639
17.6718 60.0693
17.7171 60.7857
17.7622 61.1368
17.8074 62.1375
17.8525 64.6472
17.8977 68.52
17.9428 74.1332
17.9881 83.9666
18.0331 101.931
18.0784 122.718
18.1237 138.05
18.1688 130.595
18.214 104.521
18.2591 87.5745
18.3044 91.4622
18.3495 99.7887
18.3948 104.348
18.4399 94.7603
18.4852 76.7509
18.5303 65.5862
18.5756 62.0311
18.6207 61.2106
18.666 60.4156
18.7112 59.5751
18.7565 58.9024
18.8016 58.5928
18.8469 58.0516
18.892 57.6241
18.9374 57.088
18.9825 56.7618
19.0278 56.5261
19.073 56.8236
19.1183 57.2524
19.1635 57.9056
19.2088 59.3697
19.254 62.4826
19.2993 67.1937
19.3447 72.5025
19.3898 75.158
19.4352 71.3114
19.4804 63.2842
19.5257 56.8518
19.5709 54.0649
19.6163 53.7162
19.6615 53.5914
19.7068 53.4158
19.752 53.2265
19.7974 53.6848
19.8426 54.3582
19.888 54.9946
19.9332 56.3342
19.9786 59.1563
20.0238 62.6092
20.0692 66.983
20.1144 69.1319
20.1598 67.9973
20.205 63.752
20.2504 62.4276
20.2957 63.6427
20.3411 64.8307
20.3863 63.3459
20.4318 58.0896
20.477 53.5345
20.5224 51.338
20.5677 50.6146
20.6131 50.1168
20.6586 49.5748
20.7038 49.4572
20.7493 49.0101
20.7945 48.8197
20.84 48.6197
20.8853 48.7616
20.9307 48.4429
20.976 48.5385
21.0215 48.4161
21.0668 48.9311
21.1122 49.3029
21.1575 50.0833
21.203 50.8482
21.2483 51.1438
21.2938 51.237
21.3391 50.0056
21.3846 48.8948
21.4299 48.4171
21.4754 48.3444
21.5207 48.4003
21.5662 48.7411
21.6116 49.089
21.6571 49.8077
21.7024 51.0165
21.7479 52.7631
21.7933 55.8089
21.8388 59.3442
21.8843 62.4109
21.9297 63.9768
21.9752 62.7606
22.0206 59.5307
22.0661 56.4841
22.1115 55.7361
22.157 55.6043
22.2024 54.0548
22.248 51.4191
22.2933 49.7916
22.3389 49.1413
22.3843 48.8706
22.4299 48.5435
22.4753 48.663
22.5208 48.4657
22.5662 48.3271
22.6118 48.5371
22.6572 48.7875
22.7028 49.2707
22.7483 49.7742
22.7939 50.4462
22.8393 52.2584
22.8849 54.2246
22.9303 55.9383
22.9759 57.3464
23.0214 57.1264
23.067 54.4156
23.1126 51.1434
23.1581 49.2587
23.2037 48.8176
23.2492 48.7681
23.2948 48.863
23.3403 49.0273
23.3859 49.7473
23.4314 50.8064
23.477 52.8876
23.5225 55.0148
23.5682 56.7359
23.6137 57.3983
23.6593 54.9178
23.7048 51.4079
23.7505 48.3344
23.796 46.5675
23.8417 45.8868
23.8872 45.4265
23.9329 45.1904
23.9784 44.8089
24.0241 44.4809
24.0697 44.3017
24.1154 44.0996
24.1609 43.8953
24.2066 43.7216
24.2522 43.5106
24.2979 43.357
24.3434 43.2822
24.3892 43.0998
24.4349 42.9578
24.4805 42.8085
24.5262 42.916
24.5718 42.8927
24.6175 42.8351
24.6631 42.7395
24.7089 42.4171
24.7545 42.4232
24.8002 42.0732
24.8458 42.0483
24.8916 42.0452
24.9372 42.1184
24.983 42.4711
25.0286 42.7665
25.0744 43.1374
25.12 43.7068
25.1658 44.261
25.2114 44.6366
25.2572 44.7703
25.3029 44.8058
25.3487 44.784
25.3943 44.4934
25.4402 43.3291
25.4858 42.3442
25.5316 41.4644
25.5773 40.7852
25.6231 40.8738
25.669 40.3572
25.7147 40.4378
25.7605 40.4489
25.8062 40.4054
25.8521 40.4722
25.8977 40.4752
25.9436 40.6353
25.9893 40.9314
26.0352 41.4535
26.0809 41.4067
26.1268 41.5371
26.1725 41.2622
26.2184 40.7851
26.2641 40.2644
26.31 40.044
26.3557 40.0023
26.4017 40.1052
26.4474 40.3782
26.4933 40.7659
26.5391 41.1434
26.585 41.726
26.6308 42.0277
26.6767 41.9752
26.7225 41.8015
26.7684 41.3921
26.8142 40.7406
26.8601 40.4059
26.9059 39.8992
26.9519 39.5121
26.9979 39.0955
27.0437 38.83
27.0896 38.6757
27.1354 38.6776
27.1814 38.5277
27.2272 38.4572
27.2732 38.4966
27.3191 38.2775
27.3651 38.3646
27.4109 38.3243
27.4569 38.4862
27.5027 38.4908
27.5488 38.478
27.5946 38.2028
27.6407 38.106
27.6865 38.0002
27.7326 37.7572
27.7784 37.831
27.8245 37.761
27.8703 37.9606
27.9164 38.3204
27.9623 38.4003
28.0084 38.718
28.0543 39.0876
28.1003 38.8981
28.1462 38.7548
28.1923 38.3866
28.2384 37.9166
28.2843 37.5973
28.3304 37.1504
28.3764 36.6241
28.4225 36.4272
28.4684 36.2408
28.5145 35.8625
28.5605 35.816
28.6066 35.695
28.6526 35.5743
28.6987 35.5641
28.7447 35.5608
28.7908 35.411
28.8368 35.3533
28.8829 35.374
28.9289 35.3049
28.9751 35.1047
29.0211 34.8353
29.0673 34.591
29.1133 34.4884
29.1595 34.363
29.2055 34.3682
29.2517 34.2797
29.2977 34.2696
29.3439 34.2883
29.3899 34.244
29.4361 34.1861
29.4824 33.8419
29.5284 33.7583
29.5746 33.404
29.6207 33.0355
29.6669 33.0791
29.713 32.9576
29.7593 32.7962
29.8053 32.8331
29.8516 32.7079
29.8977 32.7173
29.9439 32.5764
29.99 32.4702
30.0363 32.475
30.0824 32.4509
30.1287 32.3113
30.1748 32.3538
30.2211 32.4663
30.2673 32.2092
30.3136 32.2675
30.3597 32.2086
30.406 32.1197
30.4522 32.0999
30.4985 31.9642
30.5447 32.0505
30.591 32.166
30.6372 32.1104
30.6835 32.1834
30.7297 32.2092
30.7761 32.1144
30.8224 31.9594
30.8686 31.7056
30.915 31.5202
30.9612 31.4513
31.0076 31.3421
31.0538 31.255
31.1002 31.083
31.1464 30.9592
31.1928 30.8567
31.2391 30.9712
31.2855 30.7966
31.3317 30.8177
31.3781 30.8621
31.4244 30.8002
31.4708 30.8012
31.5171 30.8554
31.5636 30.7003
31.6098 30.5573
31.6563 30.2905
31.7026 30.2055
31.7491 30.2188
31.7953 30.2301
31.8418 30.0775
31.8881 30.0568
31.9346 30.0443
31.9809 29.9837
32.0275 29.925
32.074 29.7994
32.1203 29.6235
32.1668 29.477
32.2132 29.3483
32.2597 29.2786
32.306 29.0901
32.3526 28.9321
32.399 28.922
32.4455 28.6931
32.4919 28.6233
32.5385 28.6727
32.5848 28.4134
32.6314 28.444
32.6778 28.4291
32.7244 28.2515
32.7708 28.1522
32.8174 28.1431
32.8638 27.981
32.9104 28.005
32.9569 28.0072
33.0035 27.8003
33.0499 27.775
33.0966 27.8764
33.143 27.7447
33.1897 27.6672
33.2361 27.6164
33.2828 27.5848
33.3293 27.3133
33.3759 27.3427
33.4226 27.1574
33.4691 27.0607
33.5158 27.0448
33.5623 26.8412
33.609 26.7042
33.6555 26.5841
33.7022 26.5481
33.7487 26.4447
33.7954 26.436
33.842 26.3205
33.8887 26.3073
33.9353 26.2501
33.982 26.0488
34.0286 26.0306
34.0753 25.9234
34.1219 25.7903
34.1687 25.8169
34.2152 25.6317
34.262 25.6508
34.3086 25.4819
34.3554 25.4609
34.402 25.3637
34.4488 25.2878
34.4954 25.201
34.5422 25.1462
34.5889 24.9898
34.6357 24.9943
34.6825 24.9561
34.7292 24.8226
34.776 24.6877
34.8227 24.7674
34.8695 24.5853
34.9162 24.5767
34.9631 24.4509
35.0098 24.5413
35.0566 24.3011
35.1033 24.2649
35.1502 24.1567
35.1969 24.1547
35.2438 24.1493
35.2906 24.0755
35.3375 24.0307
35.3842 23.9617
35.4311 23.9112
35.4779 23.9465
35.5248 23.8329
35.5716 23.772
35.6185 23.6183
35.6653 23.6163
35.7123 23.5206
35.759 23.4372
35.806 23.3768
35.8528 23.2481
35.8998 23.168
35.9468 22.9985
35.9936 23.0681
36.0406 22.9747
36.0874 22.9045
36.1345 22.8333
36.1813 22.6978
36.2283 22.6414
36.2752 22.6088
36.3222 22.652
36.3691 22.5117
36.4161 22.4142
36.463 22.4162
36.5101 22.2706
36.557 22.2542
36.6041 22.0937
36.651 22.1648
36.6981 22.0533
36.745 21.9852
36.7921 21.9216
36.839 21.8036
36.8861 21.7637
36.9331 21.6302
36.9802 21.6101
37.0272 21.5137
37.0743 21.4854
37.1213 21.4335
37.1684 21.4123
37.2154 21.3411
37.2626 21.1299
37.3098 21.1846
37.3568 21.0396
37.404 21.0408
37.451 20.9855
37.4982 20.9245
37.5452 20.7976
37.5924 20.8004
37.6395 20.8113
37.6867 20.6836
37.7337 20.6405
37.781 20.513
37.8281 20.4845
37.8753 20.3228
37.9224 20.3062
37.9697 20.2185
38.0168 20.1101
38.064 20.0679
38.1111 20.072
38.1584 19.9507
38.2056 19.9686
38.2529 19.8751
38.3 19.7721
38.3473 19.7771
38.3945 19.6583
38.4418 19.7015
38.489 19.5527
38.5363 19.5321
38.5837 19.3635
38.6309 19.4617
38.6782 19.2485
38.7254 19.2181
38.7728 19.1628
38.82 19.1056
38.8674 19.0343
38.9146 19.0479
38.9621 18.9462
39.0093 18.8975
39.0567 18.8334
39.104 18.7388
39.1514 18.6741
39.1987 18.6759
39.2461 18.5508
39.2934 18.5499
39.3409 18.4162
39.3882 18.3642
39.4356 18.2752
39.483 18.2643
39.5304 18.2298
39.5778 18.2005
39.6253 18.0801
39.6726 18.0284
39.7201 17.9913
39.7675 17.9209
39.815 17.9051
39.8624 17.8232
39.9099 17.7855
39.9575 17.7167
40.0049 17.6554
40.0525 17.5664
40.0999 17.5816
40.1474 17.5028
40.1949 17.4219
40.2425 17.3463
40.2899 17.3102
40.3375 17.2743
40.385 17.152
40.4326 17.1653
40.48 17.051
40.5277 17.0518
40.5752 16.9736
40.6228 16.9877
40.6703 16.8391
40.718 16.7914
40.7655 16.7659
40.8132 16.6959
40.8607 16.7207
40.9084 16.6509
40.9559 16.5745
41.0036 16.5561
41.0512 16.4736
41.0989 16.4041
41.1465 16.3538
41.1942 16.2784
41.242 16.2561
41.2896 16.1878
41.3373 16.1453
41.3849 16.1292
41.4327 16.0188
41.4803 15.9237
41.5281 15.9582
41.5758 15.8906
41.6236 15.8041
41.6712 15.7112
41.7191 15.688
41.7667 15.6194
41.8146 15.6289
41.8622 15.5638
41.9101 15.5371
41.9578 15.4121
42.0057 15.3923
42.0534 15.3305
42.1013 15.2936
42.149 15.2197
42.1969 15.2371
42.2446 15.1267
42.2925 15.0853
42.3403 15.0456
42.3882 15.0056
42.436 14.9499
42.4839 14.8668
42.5319 14.8515
42.5797 14.8059
42.6277 14.7524
42.6755 14.6837
42.7235 14.6524
42.7713 14.6554
42.8193 14.5419
42.8671 14.4757
42.9152 14.3888
42.963 14.4341
43.0111 14.296
43.0589 14.3229
43.107 14.225
43.1549 14.1915
43.2029 14.1134
43.2508 14.1065
43.2989 14.0294
43.3468 13.9865
43.3949 13.9674
43.4429 13.9226
43.491 13.8668
43.5389 13.7725
43.5871 13.752
43.635 13.6758
43.6832 13.7378
43.7312 13.5999
43.7793 13.5481
43.8273 13.5419
43.8755 13.4937
43.9237 13.431
43.9717 13.3949
44.0199 13.3157
44.068 13.3414
44.1162 13.2405
44.1642 13.2
44.2125 13.2073
44.2606 13.1008
44.3088 13.0498
44.3569 13.0182
44.4052 12.9741
44.4533 12.9187
44.5016 12.8506
44.5497 12.79
44.598 12.8136
44.6461 12.7276
44.6945 12.6945
44.7426 12.6275
44.791 12.5904
44.8391 12.5732
44.8875 12.5152
44.9357 12.4911
44.984 12.4059
45.0322 12.4261
45.0806 12.3317
45.1288 12.3109
45.1773 12.2427
45.2257 12.2441
45.2739 12.1872
45.3224 12.1456
45.3706 12.0678
45.4191 12.0123
45.4673 11.9968
45.5158 11.9471
45.5641 11.8794
45.6126 11.8921
45.6609 11.8067
45.7094 11.7827
45.7577 11.7273
45.8063 11.7237
45.8546 11.6511
45.9031 11.6097
45.9515 11.5628
46.0001 11.5306
46.0484 11.4767
46.097 11.4175
46.1454 11.4213
46.194 11.4329
46.2424 11.3361
46.291 11.2447
46.3395 11.2775
46.3881 11.1868
46.4365 11.1673
46.4852 11.1542
46.5337 11.0701
46.5823 11.0358
46.631 10.9767
46.6795 10.9775
46.7282 10.9325
46.7767 10.9065
46.8254 10.8264
46.8739 10.8092
46.9226 10.7755
46.9712 10.6907
47.0199 10.6779
47.0685 10.6456
47.1173 10.6071
47.1658 10.5816
47.2146 10.5669
47.2632 10.4898
47.312 10.4599
47.3606 10.4255
47.4095 10.3291
47.4581 10.3538
47.5069 10.2466
47.5556 10.2176
47.6044 10.1979
47.6531 10.2183
47.702 10.1295
47.7507 10.0853
47.7996 10.0918
47.8483 10.0385
47.8972 9.97909
47.9461 9.95882
47.9948 9.91928
48.0438 9.89685
48.0925 9.89005
48.1415 9.81035
48.1902 9.7664
48.2392 9.75507
48.288 9.71882
48.337 9.71051
48.3858 9.67213
48.4348 9.61568
48.4837 9.57391
48.5327 9.52829
48.5815 9.51554
48.6306 9.44745
48.6795 9.43462
48.7285 9.40491
48.7774 9.3722
48.8265 9.3735
48.8754 9.28211
48.9245 9.25489
48.9734 9.26883
49.0226 9.18768
49.0715 9.1429
49.1206 9.12399
49.1696 9.1071
49.2188 9.085
49.2679 9.02797
49.3169 8.9754
49.3661 8.94791
49.4151 8.89571
49.4643 8.90566
49.5134 8.85083
49.5626 8.76048
49.6117 8.77541
49.6609 8.75025
49.71 8.69695
49.7592 8.65034
49.8083 8.62462
49.8576 8.61871
49.9067 8.5332
49.956 8.57988
50.0052 8.52328
50.0545 8.45502
50.1036 8.42982
50.153 8.39975
50.2022 8.35654
50.2515 8.33332
50.3007 8.30751
50.3501 8.25167
50.3993 8.25048
50.4487 8.21196
50.498 8.19095
50.5474 8.16494
50.5966 8.11504
50.6461 8.10843
50.6955 8.07227
50.7448 8.05494
50.7943 7.98035
50.8436 7.92175
50.8931 7.90253
50.9424 7.90924
50.9919 7.85169
51.0413 7.82545
51.0908 7.83472
51.1402 7.80784
51.1897 7.73819
51.2391 7.72568
51.2887 7.7012
51.3381 7.63021
51.3877 7.645
51.4371 7.60776
51.4867 7.57396
51.5362 7.53735
51.5858 7.49565
51.6353 7.48114
51.6849 7.44232
51.7344 7.3939
51.7841 7.37511
51.8336 7.32955
51.8833 7.29335
51.9328 7.27069
51.9826 7.2192
52.0323 7.22082
52.0818 7.21195
52.1316 7.15363
52.1812 7.1146
52.231 7.10854
52.2806 7.09169
52.3304 7.04339
52.38 7.01288
52.4298 6.99862
52.4794 6.94152
52.5293 6.92081
52.5789 6.87512
52.6288 6.88607
52.6785 6.84179
52.7284 6.81572
52.7781 6.80022
52.828 6.79832
52.8777 6.72315
52.9276 6.65361
52.9774 6.67338
53.0273 6.66164
53.0771 6.6015
53.1271 6.62283
53.1769 6.56541
53.2269 6.50766
53.2767 6.49303
53.3267 6.49985
53.3765 6.39848
53.4266 6.43788
53.4766 6.41347
53.5265 6.37244
53.5765 6.35888
53.6264 6.33408
53.6765 6.28676
53.7264 6.25125
53.7765 6.20732
53.8265 6.20834
53.8766 6.20198
53.9266 6.15319
53.9767 6.11868
54.0267 6.1222
54.0769 6.06083
54.1269 6.0552
54.1771 6.02475
54.2271 5.99262
54.2773 5.99554
54.3274 5.90445
54.3776 5.8939
54.4277 5.81959
54.478 5.87924
54.528 5.78328
54.5783 5.73012
54.6285 5.69609
54.6788 5.66002
54.7289 5.63486
54.7792 5.594
54.8296 5.49032
54.8798 5.51758
54.9301 5.46885
54.9803 5.42178
55.0307 5.4117
55.0809 5.34998
55.1314 5.3879
55.1816 5.29822
55.232 5.25488
55.2823 5.21587
55.3328 5.14403
55.383 5.06711
55.4335 5.04241
55.4838 5.00747
55.5344 4.94358
55.5847 4.90553
55.6352 4.90282
55.6856 4.89247
55.7361 4.80106