File: XRD/Ni3Fe_FD0498.xy
TT I
1.27165 7.74171
1.31627 6.84391
1.36089 6.56659
1.40551 5.88328
1.45013 5.95393
1.49476 5.53779
1.53938 5.81135
1.584 5.67479
1.62863 5.49976
1.67325 5.03002
1.71787 5.0091
1.7625 4.6426
1.80712 5.01622
1.85174 4.55527
1.89636 4.5972
1.94099 5.08298
1.98562 4.49027
2.03025 4.04764
2.07487 4.40223
2.11949 4.69471
2.16411 4.9586
2.20874 13.0165
2.25338 20.9757
2.298 6.10426
2.34263 5.92722
2.38725 5.35248
2.43188 5.03222
2.4765 5.76168
2.52115 6.0262
2.56577 7.00632
2.6104 7.62323
2.65503 7.22598
2.69965 7.30754
2.7443 7.72534
2.78893 7.74702
2.83356 8.27235
2.87818 8.15371
2.92281 8.86954
2.96744 9.32727
3.01209 10.199
3.05672 11.5276
3.10135 12.4721
3.14599 12.6346
3.19062 14.2423
3.23527 15.0688
3.2799 15.5242
3.32454 17.0046
3.36917 17.8371
3.4138 18.9755
3.45844 20.0175
3.50309 21.2921
3.54773 22.1091
3.59237 23.6953
3.637 85.0158
3.68164 54.5824
3.7263 26.2842
3.77094 26.4867
3.81558 26.9422
3.86022 27.7387
3.90486 28.8724
3.9495 30.1346
3.99416 31.3603
4.0388 32.506
4.08344 33.5486
4.12809 35.0349
4.17273 37.0709
4.21738 43.0889
4.26204 225.967
4.30669 195.323
4.35133 48.6731
4.39598 44.858
4.44063 53.8212
4.4853 64.239
4.52995 51.4366
4.5746 51.8075
4.61925 54.4351
4.6639 56.0997
4.70855 58.6108
4.75322 61.5679
4.79788 64.7676
4.84253 68.4168
4.88719 72.5208
4.93184 76.0722
4.97652 82.4784
5.02118 88.3157
5.06583 96.8855
5.11049 109.505
5.15515 173.943
5.19981 403.995
5.24449 3098.07
5.28916 11875.1
5.33382 3211.8
5.37848 204.407
5.42315 133.93
5.46783 117.12
5.5125 108.423
5.55716 104.024
5.60183 100.415
5.6465 98.3306
5.69117 96.4842
5.73586 93.8667
5.78053 93.3275
5.8252 93.3035
5.86988 93.8363
5.91455 96.8634
5.95924 105.732
6.00392 227.953
6.0486 1055.77
6.09328 4251.72
6.13795 3482.95
6.18263 292.754
6.22733 97.2158
6.27201 84.8574
6.3167 100.433
6.36138 80.8376
6.40606 69.9829
6.45075 68.2298
6.49545 66.3976
6.54014 65.0529
6.58483 63.6828
6.62952 63.4762
6.67421 91.8231
6.71892 135.292
6.76361 68.5768
6.8083 59.6359
6.853 58.1562
6.89769 57.4597
6.94239 57.1853
6.98711 56.6284
7.03181 56.0507
7.07651 56.0103
7.12121 55.684
7.16591 56.1766
7.21063 56.1679
7.25533 69.5246
7.30004 164.116
7.34475 88.0488
7.38945 57.1422
7.43416 55.2452
7.47889 54.919
7.5236 55.5353
7.56831 55.6705
7.61303 57.6392
7.65774 57.4934
7.70247 56.7621
7.74719 57.1241
7.79191 57.0211
7.83663 57.5408
7.88135 58.4705
7.92607 59.2637
7.97081 60.5517
8.01553 61.9162
8.06026 63.1679
8.10498 64.7877
8.14971 73.6167
8.19446 72.9136
8.23919 70.3731
8.28392 72.5302
8.32865 75.1509
8.37339 79.5063
8.41812 86.4891
8.46288 113.476
8.50761 174.35
8.55235 416.007
8.59709 1201.17
8.64183 2130.32
8.68658 1060.08
8.73134 183.018
8.77609 102.125
8.82083 94.4976
8.86558 91.0677
8.91033 90.8717
8.9551 92.2189
8.99985 86.6417
9.04461 84.8137
9.08936 84.3611
9.13412 83.3924
9.17888 83.4753
9.22365 83.7414
9.26841 83.1199
9.31318 83.8765
9.35794 83.8337
9.4027 84.2966
9.44749 85.1715
9.49226 85.7047
9.53703 86.8461
9.5818 88.4541
9.62657 93.0101
9.67134 99.021
9.71614 94.8065
9.76091 94.9847
9.80569 98.1181
9.85047 101.27
9.89525 123.445
9.94005 136.368
9.98484 186.802
10.0296 367.486
10.0744 832.96
10.1192 1658.1
10.164 1660.39
10.2088 454.677
10.2536 136.196
10.2984 115.192
10.3432 115.865
10.388 106.334
10.4328 121.701
10.4776 166.808
10.5224 290.719
10.5672 507.92
10.612 501.011
10.6568 227.35
10.7017 100.333
10.7465 88.0665
10.7913 84.1889
10.8361 82.1424
10.8809 80.0721
10.9257 79.4682
10.9706 79.7518
11.0154 75.67
11.0602 73.6713
11.105 72.8744
11.1499 76.4746
11.1947 82.9589
11.2395 74.8018
11.2844 71.3114
11.3292 68.2102
11.374 67.075
11.4189 66.4821
11.4637 65.7061
11.5086 66.2353
11.5534 68.7104
11.5983 66.3643
11.6431 64.577
11.688 63.7854
11.7328 63.6501
11.7777 63.7404
11.8225 63.4884
11.8674 63.2683
11.9122 63.5446
11.9571 63.7327
12.002 64.468
12.0468 69.0491
12.0917 81.5318
12.1366 106.385
12.1814 154.337
12.2263 197.755
12.2712 169.977
12.3161 101.853
12.3609 71.5964
12.4058 65.4118
12.4507 65.0556
12.4956 65.2933
12.5405 65.5165
12.5853 66.0379
12.6302 73.5454
12.6751 78.3506
12.72 70.6611
12.7649 68.7961
12.8098 69.2794
12.8547 70.6418
12.8996 71.979
12.9445 73.17
12.9894 75.0171
13.0343 76.7502
13.0792 80.0961
13.1242 90.352
13.1691 115.462
13.214 153.567
13.2589 242.144
13.3038 357.016
13.3487 414.053
13.3937 279.038
13.4386 132.574
13.4835 109.023
13.5285 124.76
13.5734 163.406
13.6183 246.786
13.6633 332.514
13.7082 338.063
13.7531 200.292
13.7981 102.885
13.843 83.2821
13.888 80.8689
13.9329 78.3859
13.9779 76.92
14.0228 75.3873
14.0678 74.03
14.1127 73.7213
14.1577 73.5595
14.2027 72.1522
14.2476 71.4405
14.2926 71.4466
14.3376 72.4403
14.3825 71.1513
14.4275 69.8923
14.4725 69.6952
14.5175 69.9019
14.5624 70.0467
14.6074 71.9461
14.6524 72.7407
14.6974 71.324
14.7424 73.1662
14.7874 80.4831
14.8324 91.0654
14.8774 113.605
14.9224 154.232
14.9674 200.97
15.0124 213.57
15.0574 157.591
15.1024 96.2294
15.1474 74.0179
15.1924 71.548
15.2374 71.8522
15.2824 71.1609
15.3274 69.0392
15.3725 67.999
15.4175 67.3482
15.4625 67.0159
15.5076 67.0223
15.5526 66.9691
15.5976 66.6765
15.6426 67.7418
15.6877 73.7405
15.7327 82.0286
15.7778 97.5795
15.8228 128.203
15.8679 167.348
15.9129 189.178
15.958 159.505
16.003 103.102
16.0481 70.344
16.0931 65.2734
16.1382 63.4991
16.1833 61.548
16.2283 59.8929
16.2734 59.2184
16.3185 59.4669
16.3636 60.0148
16.4086 58.3772
16.4537 57.2004
16.4988 56.459
16.5439 56.3872
16.589 55.8674
16.6341 55.7596
16.6792 55.3902
16.7243 55.6009
16.7694 55.6835
16.8145 55.5869
16.8596 55.9105
16.9047 57.205
16.9498 57.7247
16.9949 56.4914
17.04 56.6104
17.0851 58.0342
17.1302 59.6933
17.1754 62.8702
17.2205 67.78
17.2656 74.6581
17.3108 81.2536
17.3559 82.306
17.401 72.5853
17.4462 63.6673
17.4913 60.152
17.5365 60.0328
17.5815 60.0882
17.6268 60.5233
17.6718 61.1613
17.7171 61.594
17.7622 61.9566
17.8074 62.7327
17.8525 65.543
17.8977 69.6949
17.9428 75.631
17.9881 84.1001
18.0331 100.732
18.0784 120.396
18.1237 136.705
18.1688 132.833
18.214 107.66
18.2591 89.5079
18.3044 91.7887
18.3495 99.7165
18.3948 105.306
18.4399 98.6086
18.4852 80.6243
18.5303 67.8406
18.5756 63.1483
18.6207 62.1649
18.666 61.3775
18.7112 60.655
18.7565 59.787
18.8016 59.5096
18.8469 58.8598
18.892 58.4923
18.9374 58.0035
18.9825 58.0592
19.0278 57.5377
19.073 57.8542
19.1183 58.4443
19.1635 59.291
19.2088 60.5381
19.254 63.1524
19.2993 67.3338
19.3447 72.8553
19.3898 76.0924
19.4352 73.1107
19.4804 64.9337
19.5257 57.9133
19.5709 55.0501
19.6163 54.6801
19.6615 54.5593
19.7068 54.0402
19.752 54.2285
19.7974 54.2813
19.8426 55.1796
19.888 56.0056
19.9332 57.2356
19.9786 59.667
20.0238 63.112
20.0692 67.4956
20.1144 69.9929
20.1598 69.3294
20.205 65.2794
20.2504 63.4629
20.2957 64.2458
20.3411 65.8266
20.3863 64.8654
20.4318 59.8039
20.477 54.7712
20.5224 52.4727
20.5677 51.6168
20.6131 51.1249
20.6586 50.4157
20.7038 50.281
20.7493 49.9498
20.7945 49.6745
20.84 49.4446
20.8853 49.2335
20.9307 49.3811
20.976 49.4844
21.0215 49.328
21.0668 49.6743
21.1122 50.1368
21.1575 50.8832
21.203 51.5139
21.2483 51.8851
21.2938 52.2002
21.3391 50.9995
21.3846 49.6036
21.4299 49.301
21.4754 49.1039
21.5207 49.4013
21.5662 49.4152
21.6116 49.8614
21.6571 50.7217
21.7024 51.7215
21.7479 53.2752
21.7933 56.2271
21.8388 59.4776
21.8843 62.8663
21.9297 64.8594
21.9752 64.2265
22.0206 60.792
22.0661 57.5117
22.1115 56.5338
22.157 56.3664
22.2024 55.2239
22.248 52.377
22.2933 50.8374
22.3389 49.8837
22.3843 49.8113
22.4299 49.6836
22.4753 49.6795
22.5208 49.2562
22.5662 49.1953
22.6118 49.3899
22.6572 49.4598
22.7028 49.8521
22.7483 50.5005
22.7939 51.36
22.8393 52.6767
22.8849 54.7069
22.9303 56.3483
22.9759 57.9232
23.0214 57.9767
23.067 55.576
23.1126 52.1886
23.1581 50.1015
23.2037 49.4935
23.2492 49.5109
23.2948 49.6986
23.3403 50.0112
23.3859 50.4818
23.4314 51.6086
23.477 53.3661
23.5225 55.2335
23.5682 57.0208
23.6137 58.1085
23.6593 56.3748
23.7048 52.6899
23.7505 49.3759
23.796 47.34
23.8417 46.7271
23.8872 46.1653
23.9329 45.7806
23.9784 45.4577
24.0241 45.1892
24.0697 45.194
24.1154 44.7726
24.1609 44.6403
24.2066 44.3901
24.2522 44.3953
24.2979 44.0254
24.3434 43.9446
24.3892 43.642
24.4349 43.5868
24.4805 43.4594
24.5262 43.7599
24.5718 43.5642
24.6175 43.4904
24.6631 43.5184
24.7089 43.0282
24.7545 43.075
24.8002 42.8386
24.8458 42.8022
24.8916 42.6614
24.9372 42.885
24.983 43.3027
25.0286 43.5669
25.0744 43.9269
25.12 44.3002
25.1658 44.9156
25.2114 45.1732
25.2572 45.5048
25.3029 45.4426
25.3487 45.4033
25.3943 45.2142
25.4402 44.329
25.4858 43.181
25.5316 42.1838
25.5773 41.4785
25.6231 41.5038
25.669 41.1717
25.7147 40.9606
25.7605 40.9927
25.8062 41.1421
25.8521 41.1166
25.8977 41.1854
25.9436 41.4216
25.9893 41.3877
26.0352 42.0497
26.0809 42.0003
26.1268 42.2453
26.1725 41.9424
26.2184 41.5055
26.2641 40.8681
26.31 40.8236
26.3557 40.7563
26.4017 40.767
26.4474 41.037
26.4933 41.2409
26.5391 41.8435
26.585 42.1358
26.6308 42.4329
26.6767 42.652
26.7225 42.7256
26.7684 42.1332
26.8142 41.4456
26.8601 41.0859
26.9059 40.5001
26.9519 40.0922
26.9979 39.7491
27.0437 39.4323
27.0896 39.3284
27.1354 39.3153
27.1814 39.1901
27.2272 39.1596
27.2732 39.0959
27.3191 38.8835
27.3651 39.0435
27.4109 38.8802
27.4569 39.0242
27.5027 38.9977
27.5488 38.9905
27.5946 38.8906
27.6407 38.7034
27.6865 38.6735
27.7326 38.442
27.7784 38.3997
27.8245 38.4496
27.8703 38.5314
27.9164 38.835
27.9623 38.8761
28.0084 39.1089
28.0543 39.4885
28.1003 39.4412
28.1462 39.3235
28.1923 39.113
28.2384 38.5173
28.2843 38.2296
28.3304 37.6658
28.3764 37.2515
28.4225 36.9782
28.4684 36.8262
28.5145 36.4694
28.5605 36.4348
28.6066 36.1976
28.6526 36.1398
28.6987 36.2109
28.7447 35.9131
28.7908 35.9616
28.8368 35.8896
28.8829 35.8836
28.9289 35.9032
28.9751 35.6213
29.0211 35.47
29.0673 35.1888
29.1133 35.0408
29.1595 34.9575
29.2055 34.821
29.2517 34.7269
29.2977 34.8317
29.3439 34.7337
29.3899 34.8054
29.4361 34.6175
29.4824 34.5584
29.5284 34.2703
29.5746 33.9728
29.6207 33.6927
29.6669 33.7048
29.713 33.5209
29.7593 33.3629
29.8053 33.4328
29.8516 33.3134
29.8977 33.2096
29.9439 33.0877
29.99 33.0284
30.0363 33.006
30.0824 32.9454
30.1287 32.8726
30.1748 32.9315
30.2211 32.8298
30.2673 32.7756
30.3136 32.9394
30.3597 32.733
30.406 32.6236
30.4522 32.6002
30.4985 32.5112
30.5447 32.5834
30.591 32.6222
30.6372 32.6081
30.6835 32.664
30.7297 32.5769
30.7761 32.5292
30.8224 32.4999
30.8686 32.3178
30.915 32.0548
30.9612 31.9917
31.0076 31.649
31.0538 31.6906
31.1002 31.5789
31.1464 31.4071
31.1928 31.3765
31.2391 31.3796
31.2855 31.2093
31.3317 31.3486
31.3781 31.373
31.4244 31.359
31.4708 31.266
31.5171 31.145
31.5636 31.2703
31.6098 30.9253
31.6563 30.8388
31.7026 30.6436
31.7491 30.6197
31.7953 30.5163
31.8418 30.5874
31.8881 30.6096
31.9346 30.5181
31.9809 30.3795
32.0275 30.403
32.074 30.328
32.1203 30.0653
32.1668 29.905
32.2132 29.7024
32.2597 29.7176
32.306 29.6263
32.3526 29.4289
32.399 29.422
32.4455 29.2568
32.4919 29.1247
32.5385 29.0531
32.5848 28.9523
32.6314 28.8614
32.6778 28.8033
32.7244 28.6533
32.7708 28.4826
32.8174 28.5704
32.8638 28.4335
32.9104 28.4509
32.9569 28.3249
33.0035 28.2379
33.0499 28.2835
33.0966 28.2411
33.143 28.2161
33.1897 28.1117
33.2361 27.982
33.2828 27.9269
33.3293 27.8228
33.3759 27.8061
33.4226 27.5517
33.4691 27.4777
33.5158 27.3815
33.5623 27.3334
33.609 27.2256
33.6555 27.0549
33.7022 26.9619
33.7487 26.9146
33.7954 26.8505
33.842 26.7631
33.8887 26.7124
33.9353 26.6265
33.982 26.5865
34.0286 26.4781
34.0753 26.3188
34.1219 26.217
34.1687 26.1912
34.2152 26.0924
34.262 25.9385
34.3086 25.9342
34.3554 25.8813
34.402 25.8013
34.4488 25.7108
34.4954 25.5613
34.5422 25.5522
34.5889 25.3717
34.6357 25.3068
34.6825 25.2451
34.7292 25.1503
34.776 25.0303
34.8227 25.0747
34.8695 24.9909
34.9162 24.8778
34.9631 24.7985
35.0098 24.8672
35.0566 24.7082
35.1033 24.5441
35.1502 24.5414
35.1969 24.527
35.2438 24.5435
35.2906 24.5381
35.3375 24.3904
35.3842 24.3503
35.4311 24.3496
35.4779 24.271
35.5248 24.2317
35.5716 24.1136
35.6185 24.1022
35.6653 23.9203
35.7123 23.8948
35.759 23.8581
35.806 23.7112
35.8528 23.5614
35.8998 23.5147
35.9468 23.4569
35.9936 23.4566
36.0406 23.2981
36.0874 23.2097
36.1345 23.178
36.1813 23.1811
36.2283 22.9866
36.2752 22.9194
36.3222 22.9754
36.3691 22.8897
36.4161 22.7421
36.463 22.7508
36.5101 22.7625
36.557 22.673
36.6041 22.5719
36.651 22.4741
36.6981 22.4358
36.745 22.3094
36.7921 22.2462
36.839 22.2108
36.8861 22.0809
36.9331 22.0556
36.9802 21.926
37.0272 21.9236
37.0743 21.7949
37.1213 21.8119
37.1684 21.6562
37.2154 21.6102
37.2626 21.5113
37.3098 21.479
37.3568 21.3922
37.404 21.4401
37.451 21.2564
37.4982 21.2179
37.5452 21.1172
37.5924 21.0718
37.6395 21.1193
37.6867 21.0563
37.7337 20.9907
37.781 20.8349
37.8281 20.7558
37.8753 20.7109
37.9224 20.5777
37.9697 20.592
38.0168 20.4608
38.064 20.4747
38.1111 20.4104
38.1584 20.2953
38.2056 20.2118
38.2529 20.2037
38.3 20.0886
38.3473 20.1166
38.3945 19.9596
38.4418 19.9313
38.489 19.8741
38.5363 19.8345
38.5837 19.6934
38.6309 19.7031
38.6782 19.6432
38.7254 19.5273
38.7728 19.4806
38.82 19.419
38.8674 19.379
38.9146 19.2804
38.9621 19.2202
39.0093 19.2028
39.0567 19.1299
39.104 19.0721
39.1514 18.9392
39.1987 18.936
39.2461 18.9197
39.2934 18.8365
39.3409 18.717
39.3882 18.6928
39.4356 18.5704
39.483 18.6178
39.5304 18.4954
39.5778 18.4599
39.6253 18.4648
39.6726 18.374
39.7201 18.3131
39.7675 18.2831
39.815 18.2065
39.8624 18.0422
39.9099 18.1411
39.9575 17.9804
40.0049 17.9789
40.0525 17.8342
40.0999 17.8267
40.1474 17.703
40.1949 17.6481
40.2425 17.6229
40.2899 17.6369
40.3375 17.522
40.385 17.5077
40.4326 17.4197
40.48 17.3485
40.5277 17.342
40.5752 17.2683
40.6228 17.1763
40.6703 17.1015
40.718 17.1409
40.7655 17.0316
40.8132 16.9812
40.8607 16.9995
40.9084 16.8951
40.9559 16.8507
41.0036 16.8496
41.0512 16.7437
41.0989 16.7019
41.1465 16.5619
41.1942 16.5433
41.242 16.4467
41.2896 16.4333
41.3373 16.4002
41.3849 16.3133
41.4327 16.3183
41.4803 16.1904
41.5281 16.1898
41.5758 16.1493
41.6236 16.0825
41.6712 16.0348
41.7191 15.9625
41.7667 15.8713
41.8146 15.8812
41.8622 15.7812
41.9101 15.6948
41.9578 15.7156
42.0057 15.6345
42.0534 15.6326
42.1013 15.5592
42.149 15.4617
42.1969 15.444
42.2446 15.3912
42.2925 15.3499
42.3403 15.2715
42.3882 15.2558
42.436 15.187
42.4839 15.1197
42.5319 15.0649
42.5797 15.0283
42.6277 14.9621
42.6755 14.9379
42.7235 14.8965
42.7713 14.8345
42.8193 14.7727
42.8671 14.6719
42.9152 14.6924
42.963 14.5753
43.0111 14.5774
43.0589 14.5124
43.107 14.4903
43.1549 14.4004
43.2029 14.3656
43.2508 14.3312
43.2989 14.2317
43.3468 14.2554
43.3949 14.1246
43.4429 14.1095
43.491 14.0839
43.5389 14.0244
43.5871 13.947
43.635 13.9879
43.6832 13.8733
43.7312 13.7773
43.7793 13.7924
43.8273 13.7313
43.8755 13.6957
43.9237 13.6852
43.9717 13.5833
44.0199 13.5617
44.068 13.5162
44.1162 13.4211
44.1642 13.447
44.2125 13.354
44.2606 13.3013
44.3088 13.2806
44.3569 13.1854
44.4052 13.1886
44.4533 13.1496
44.5016 13.0625
44.5497 13.0272
44.598 12.9808
44.6461 12.9828
44.6945 12.9101
44.7426 12.8776
44.791 12.782
44.8391 12.7673
44.8875 12.7015
44.9357 12.6925
44.984 12.6495
45.0322 12.6048
45.0806 12.5682
45.1288 12.4712
45.1773 12.4241
45.2257 12.3811
45.2739 12.4092
45.3224 12.3283
45.3706 12.3003
45.4191 12.1955
45.4673 12.1773
45.5158 12.1637
45.5641 12.0618
45.6126 12.0781
45.6609 11.9885
45.7094 11.9549
45.7577 11.9123
45.8063 11.8578
45.8546 11.8692
45.9031 11.7476
45.9515 11.7481
46.0001 11.7339
46.0484 11.6783
46.097 11.6162
46.1454 11.6647
46.194 11.5927
46.2424 11.5468
46.291 11.4743
46.3395 11.3929
46.3881 11.3744
46.4365 11.3503
46.4852 11.2776
46.5337 11.2349
46.5823 11.212
46.631 11.1939
46.6795 11.1734
46.7282 11.1352
46.7767 11.0912
46.8254 11.0226
46.8739 10.9867
46.9226 10.939
46.9712 10.8826
47.0199 10.8763
47.0685 10.7826
47.1173 10.7293
47.1658 10.7474
47.2146 10.7452
47.2632 10.6968
47.312 10.6591
47.3606 10.592
47.4095 10.515
47.4581 10.4937
47.5069 10.4546
47.5556 10.4304
47.6044 10.3525
47.6531 10.3436
47.702 10.2915
47.7507 10.2588
47.7996 10.1925
47.8483 10.1944
47.8972 10.155
47.9461 10.1411
47.9948 10.047
48.0438 10.0404
48.0925 10.0171
48.1415 9.98965
48.1902 9.9155
48.2392 9.91437
48.288 9.86052
48.337 9.82669
48.3858 9.79558
48.4348 9.7734
48.4837 9.74978
48.5327 9.72604
48.5815 9.64495
48.6306 9.59795
48.6795 9.57528
48.7285 9.57005
48.7774 9.53498
48.8265 9.50699
48.8754 9.47863
48.9245 9.43574
48.9734 9.36302
49.0226 9.36933
49.0715 9.26983
49.1206 9.27725
49.1696 9.22881
49.2188 9.16704
49.2679 9.19068
49.3169 9.12141
49.3661 9.03603
49.4151 9.06503
49.4643 9.02098
49.5134 9.00246
49.5626 8.93222
49.6117 8.90662
49.6609 8.88166
49.71 8.81945
49.7592 8.82937
49.8083 8.77276
49.8576 8.79
49.9067 8.73303
49.956 8.68386
50.0052 8.63402
50.0545 8.62
50.1036 8.55973
50.153 8.56903
50.2022 8.53182
50.2515 8.47899
50.3007 8.44223
50.3501 8.43147
50.3993 8.41131
50.4487 8.35674
50.498 8.31104
50.5474 8.24442
50.5966 8.24284
50.6461 8.23884
50.6955 8.19797
50.7448 8.1926
50.7943 8.12769
50.8436 8.10462
50.8931 8.07136
50.9424 8.02111
50.9919 8.01141
51.0413 7.98523
51.0908 7.94057
51.1402 7.9205
51.1897 7.86504
51.2391 7.8729
51.2887 7.78599
51.3381 7.77984
51.3877 7.73154
51.4371 7.70411
51.4867 7.65883
51.5362 7.64754
51.5858 7.6581
51.6353 7.5693
51.6849 7.57306
51.7344 7.49439
51.7841 7.51795
51.8336 7.5085
51.8833 7.43582
51.9328 7.39518
51.9826 7.32996
52.0323 7.34215
52.0818 7.29165
52.1316 7.25191
52.1812 7.30486
52.231 7.2035
52.2806 7.18482
52.3304 7.16307
52.38 7.14257
52.4298 7.10416
52.4794 7.06387
52.5293 7.06777
52.5789 7.03016
52.6288 6.97293
52.6785 6.9325
52.7284 6.93715
52.7781 6.87103
52.828 6.80752
52.8777 6.83996
52.9276 6.83185
52.9774 6.74814
53.0273 6.78425
53.0771 6.7283
53.1271 6.7336
53.1769 6.6819
53.2269 6.66492
53.2767 6.60226
53.3267 6.56342
53.3765 6.54697
53.4266 6.53567
53.4766 6.49467
53.5265 6.41873
53.5765 6.4294
53.6264 6.38875
53.6765 6.3789
53.7264 6.3434
53.7765 6.33813
53.8265 6.32092
53.8766 6.26465
53.9266 6.26303
53.9767 6.22836
54.0267 6.17687
54.0769 6.19577
54.1269 6.11154
54.1771 6.1249
54.2271 6.0763
54.2773 6.03925
54.3274 6.0042
54.3776 5.97097
54.4277 5.94323
54.478 5.9321
54.528 5.87668
54.5783 5.83498
54.6285 5.79415
54.6788 5.75355
54.7289 5.70926
54.7792 5.63456
54.8296 5.64658
54.8798 5.5949
54.9301 5.57746
54.9803 5.5153
55.0307 5.48468
55.0809 5.45688
55.1314 5.41412
55.1816 5.35799
55.232 5.32344
55.2823 5.33463
55.3328 5.2174
55.383 5.14721
55.4335 5.15545
55.4838 5.09504
55.5344 5.0178
55.5847 4.98403
55.6352 4.91457
55.6856 4.86977
55.7361 4.90932