File: XRD/Ni3Fe_FD0374.xy
TT I
1.27165 7.57607
1.31627 7.42636
1.36089 6.4309
1.40551 5.63262
1.45013 6.78738
1.49476 6.47424
1.53938 6.29255
1.584 5.41339
1.62863 5.1465
1.67325 4.97478
1.71787 5.11709
1.7625 5.16649
1.80712 4.73753
1.85174 5.09774
1.89636 4.63293
1.94099 4.86608
1.98562 4.95511
2.03025 4.98211
2.07487 4.37592
2.11949 4.9678
2.16411 4.84757
2.20874 11.6206
2.25338 16.6407
2.298 5.58512
2.34263 4.75856
2.38725 5.36758
2.43188 5.34476
2.4765 5.89685
2.52115 5.97934
2.56577 6.66789
2.6104 7.06587
2.65503 7.28161
2.69965 7.08539
2.7443 7.71455
2.78893 7.87193
2.83356 7.78188
2.87818 8.52792
2.92281 8.95731
2.96744 9.57359
3.01209 10.6271
3.05672 10.9402
3.10135 12.2809
3.14599 12.7115
3.19062 13.8394
3.23527 15.0738
3.2799 15.73
3.32454 16.4501
3.36917 17.8426
3.4138 19.0517
3.45844 20.209
3.50309 21.0813
3.54773 22.3187
3.59237 23.8628
3.637 73.511
3.68164 48.7279
3.7263 26.3427
3.77094 26.3514
3.81558 26.9993
3.86022 28.0539
3.90486 29.4908
3.9495 30.0615
3.99416 31.5442
4.0388 32.6753
4.08344 34.2227
4.12809 35.7513
4.17273 37.2558
4.21738 42.9907
4.26204 191.085
4.30669 164.904
4.35133 48.1196
4.39598 44.9434
4.44063 52.7375
4.4853 60.418
4.52995 52.7804
4.5746 53.4777
4.61925 54.6848
4.6639 57.4393
4.70855 59.9434
4.75322 62.9092
4.79788 65.9943
4.84253 69.6745
4.88719 74.1254
4.93184 77.5119
4.97652 83.6359
5.02118 90.43
5.06583 99.8052
5.11049 113.446
5.15515 177.246
5.19981 506.954
5.24449 3416.96
5.28916 11197.0
5.33382 3554.27
5.37848 228.478
5.42315 139.564
5.46783 121.142
5.5125 111.942
5.55716 106.073
5.60183 102.373
5.6465 100.399
5.69117 97.7661
5.73586 95.7858
5.78053 96.5714
5.8252 95.6279
5.86988 97.6304
5.91455 99.9011
5.95924 112.464
6.00392 276.434
6.0486 1199.35
6.09328 4047.08
6.13795 3477.49
6.18263 310.623
6.22733 100.953
6.27201 86.6177
6.3167 97.0894
6.36138 80.252
6.40606 71.658
6.45075 69.2079
6.49545 66.9908
6.54014 65.5092
6.58483 64.3862
6.62952 64.4032
6.67421 85.9335
6.71892 120.254
6.76361 67.1904
6.8083 60.1009
6.853 58.9065
6.89769 58.4362
6.94239 57.6324
6.98711 56.9469
7.03181 56.9491
7.07651 56.2878
7.12121 56.1696
7.16591 56.7712
7.21063 56.6593
7.25533 67.667
7.30004 144.573
7.34475 81.6419
7.38945 57.0525
7.43416 55.502
7.47889 55.4764
7.5236 56.1827
7.56831 56.4538
7.61303 57.6092
7.65774 58.2431
7.70247 57.6847
7.74719 57.707
7.79191 57.962
7.83663 58.2705
7.88135 59.3656
7.92607 60.0732
7.97081 61.6004
8.01553 62.5957
8.06026 63.9992
8.10498 65.4937
8.14971 73.2761
8.19446 72.7
8.23919 71.4181
8.28392 74.0692
8.32865 76.6275
8.37339 81.081
8.41812 87.9498
8.46288 113.755
8.50761 197.318
8.55235 465.714
8.59709 1195.53
8.64183 2045.0
8.68658 1138.38
8.73134 199.691
8.77609 105.119
8.82083 96.5576
8.86558 92.9229
8.91033 92.3437
8.9551 92.579
8.99985 87.6375
9.04461 86.3006
9.08936 85.492
9.13412 84.3042
9.17888 84.5032
9.22365 85.0075
9.26841 84.4264
9.31318 85.6015
9.35794 85.4789
9.4027 85.6966
9.44749 86.3137
9.49226 87.2744
9.53703 88.0464
9.5818 90.2214
9.62657 93.8099
9.67134 98.7525
9.71614 96.2726
9.76091 97.0412
9.80569 99.8668
9.85047 103.763
9.89525 122.021
9.94005 136.472
9.98484 208.728
10.0296 412.346
10.0744 856.969
10.1192 1560.6
10.164 1664.13
10.2088 516.495
10.2536 142.335
10.2984 116.981
10.3432 116.013
10.388 109.219
10.4328 129.751
10.4776 179.346
10.5224 295.423
10.5672 482.825
10.612 513.59
10.6568 227.843
10.7017 102.565
10.7465 89.7297
10.7913 85.7736
10.8361 83.3598
10.8809 81.125
10.9257 80.2456
10.9706 80.3475
11.0154 76.6947
11.0602 75.003
11.105 73.7842
11.1499 76.2475
11.1947 81.2914
11.2395 74.4459
11.2844 71.4486
11.3292 69.037
11.374 67.8405
11.4189 67.5709
11.4637 66.5679
11.5086 66.9677
11.5534 68.7154
11.5983 66.7067
11.6431 65.3391
11.688 64.8435
11.7328 64.3919
11.7777 64.5149
11.8225 64.0363
11.8674 64.1498
11.9122 64.7098
11.9571 64.8345
12.002 65.9477
12.0468 71.7845
12.0917 85.2846
12.1366 108.698
12.1814 150.232
12.2263 196.325
12.2712 176.857
12.3161 104.866
12.3609 72.3627
12.4058 66.2505
12.4507 66.0598
12.4956 66.2788
12.5405 66.4811
12.5853 67.1563
12.6302 72.5683
12.6751 76.5292
12.72 70.8857
12.7649 69.8408
12.8098 70.2622
12.8547 71.8941
12.8996 73.3115
12.9445 74.5081
12.9894 76.3335
13.0343 78.2476
13.0792 81.9565
13.1242 94.8186
13.1691 122.632
13.214 163.215
13.2589 245.34
13.3038 349.593
13.3487 418.842
13.3937 299.337
13.4386 141.281
13.4835 114.711
13.5285 132.414
13.5734 171.245
13.6183 244.253
13.6633 323.792
13.7082 341.919
13.7531 213.458
13.7981 107.624
13.843 84.974
13.888 82.2887
13.9329 79.7332
13.9779 78.3587
14.0228 76.6004
14.0678 75.3414
14.1127 74.6515
14.1577 74.2674
14.2027 73.3633
14.2476 72.6357
14.2926 72.5677
14.3376 72.9149
14.3825 72.0265
14.4275 70.9378
14.4725 70.5173
14.5175 70.7109
14.5624 71.0144
14.6074 72.6906
14.6524 73.3861
14.6974 72.6652
14.7424 75.3637
14.7874 83.8993
14.8324 95.7993
14.8774 118.006
14.9224 154.671
14.9674 196.197
15.0124 212.998
15.0574 161.089
15.1024 99.3747
15.1474 75.3448
15.1924 72.5817
15.2374 72.4714
15.2824 71.5578
15.3274 69.8707
15.3725 68.7512
15.4175 68.523
15.4625 68.0297
15.5076 68.1735
15.5526 67.9967
15.5976 67.8194
15.6426 69.7152
15.6877 76.8023
15.7327 85.6795
15.7778 101.243
15.8228 128.574
15.8679 162.765
15.9129 187.601
15.958 167.916
16.003 108.172
16.0481 72.0047
16.0931 65.9796
16.1382 63.9392
16.1833 62.1841
16.2283 60.6516
16.2734 60.069
16.3185 59.9588
16.3636 60.4677
16.4086 59.0733
16.4537 57.9278
16.4988 57.0545
16.5439 57.0841
16.589 56.9253
16.6341 56.5743
16.6792 56.2765
16.7243 56.3692
16.7694 56.4569
16.8145 56.3471
16.8596 56.7967
16.9047 57.7976
16.9498 58.0495
16.9949 57.1103
17.04 57.5382
17.0851 59.0559
17.1302 61.0287
17.1754 64.1081
17.2205 68.9705
17.2656 74.9033
17.3108 81.2453
17.3559 83.0271
17.401 74.5081
17.4462 65.2402
17.4913 61.1234
17.5365 60.7313
17.5815 60.9694
17.6268 61.3485
17.6718 61.9327
17.7171 62.7266
17.7622 63.1191
17.8074 64.0041
17.8525 67.0067
17.8977 71.8196
17.9428 77.8726
17.9881 86.951
18.0331 101.896
18.0784 118.571
18.1237 134.721
18.1688 136.075
18.214 113.359
18.2591 93.0465
18.3044 92.5744
18.3495 98.5476
18.3948 104.399
18.4399 99.4159
18.4852 81.9809
18.5303 68.67
18.5756 64.1039
18.6207 63.2863
18.666 62.1426
18.7112 61.5115
18.7565 60.8817
18.8016 60.2731
18.8469 59.8348
18.892 59.5624
18.9374 58.8538
18.9825 58.6752
19.0278 58.5168
19.073 58.8178
19.1183 59.2242
19.1635 60.1483
19.2088 61.5578
19.254 64.1356
19.2993 67.661
19.3447 72.2887
19.3898 76.1358
19.4352 74.5889
19.4804 66.8408
19.5257 59.238
19.5709 56.0029
19.6163 55.4103
19.6615 55.2345
19.7068 54.8116
19.752 54.9671
19.7974 55.5485
19.8426 56.2518
19.888 56.93
19.9332 58.3481
19.9786 60.6535
20.0238 63.537
20.0692 67.6275
20.1144 70.5443
20.1598 71.0014
20.205 66.7677
20.2504 64.0756
20.2957 64.4486
20.3411 65.8658
20.3863 65.8451
20.4318 61.0169
20.477 55.7854
20.5224 53.2245
20.5677 52.3761
20.6131 51.7265
20.6586 51.1303
20.7038 51.0301
20.7493 50.6039
20.7945 50.3924
20.84 50.301
20.8853 49.9892
20.9307 49.9759
20.976 50.4578
21.0215 49.9781
21.0668 50.649
21.1122 51.1646
21.1575 51.4664
21.203 52.0175
21.2483 52.6468
21.2938 52.8911
21.3391 51.5788
21.3846 50.7599
21.4299 49.9737
21.4754 49.7208
21.5207 50.0973
21.5662 50.4301
21.6116 50.8446
21.6571 51.6453
21.7024 52.639
21.7479 54.5552
21.7933 57.052
21.8388 60.0134
21.8843 63.044
21.9297 65.4064
21.9752 65.3923
22.0206 62.0597
22.0661 58.5148
22.1115 57.0948
22.157 57.1503
22.2024 56.0782
22.248 53.4729
22.2933 51.3657
22.3389 50.7007
22.3843 50.4271
22.4299 50.2525
22.4753 50.4183
22.5208 50.0276
22.5662 49.9743
22.6118 50.1072
22.6572 50.5039
22.7028 50.9646
22.7483 51.4968
22.7939 52.1939
22.8393 53.8085
22.8849 55.4535
22.9303 57.0019
22.9759 58.4551
23.0214 58.865
23.067 56.6627
23.1126 53.2987
23.1581 51.1057
23.2037 50.3015
23.2492 50.4618
23.2948 50.4607
23.3403 50.9095
23.3859 51.5391
23.4314 52.5467
23.477 53.9816
23.5225 55.6431
23.5682 57.326
23.6137 58.594
23.6593 57.5311
23.7048 53.8137
23.7505 50.3631
23.796 48.2646
23.8417 47.5024
23.8872 46.9053
23.9329 46.5455
23.9784 46.2727
24.0241 45.8975
24.0697 45.8015
24.1154 45.504
24.1609 45.3467
24.2066 45.0403
24.2522 44.9941
24.2979 44.6799
24.3434 44.6656
24.3892 44.3407
24.4349 44.4601
24.4805 44.1549
24.5262 44.3581
24.5718 44.0273
24.6175 44.1079
24.6631 44.019
24.7089 43.8564
24.7545 43.6536
24.8002 43.6105
24.8458 43.6375
24.8916 43.3721
24.9372 43.3835
24.983 43.9378
25.0286 44.2117
25.0744 44.5155
25.12 44.8741
25.1658 45.5277
25.2114 45.9142
25.2572 46.0865
25.3029 45.8482
25.3487 45.8642
25.3943 45.9079
25.4402 45.0017
25.4858 43.9729
25.5316 42.7752
25.5773 42.2284
25.6231 42.1243
25.669 41.6348
25.7147 41.5662
25.7605 41.6413
25.8062 41.7492
25.8521 41.8177
25.8977 41.7984
25.9436 42.01
25.9893 42.118
26.0352 42.4634
26.0809 42.6111
26.1268 42.8094
26.1725 42.638
26.2184 42.231
26.2641 41.7672
26.31 41.3867
26.3557 41.3756
26.4017 41.1981
26.4474 41.7589
26.4933 41.953
26.5391 42.3951
26.585 42.6872
26.6308 43.0149
26.6767 43.3623
26.7225 43.2007
26.7684 42.6799
26.8142 41.9699
26.8601 41.5706
26.9059 41.2936
26.9519 40.8009
26.9979 40.4587
27.0437 40.1081
27.0896 39.9254
27.1354 39.8944
27.1814 39.6625
27.2272 39.6981
27.2732 39.6449
27.3191 39.5805
27.3651 39.5244
27.4109 39.5241
27.4569 39.7874
27.5027 39.5895
27.5488 39.8047
27.5946 39.5672
27.6407 39.3506
27.6865 39.264
27.7326 39.1103
27.7784 39.0223
27.8245 39.0568
27.8703 39.1071
27.9164 39.4199
27.9623 39.4905
28.0084 39.7647
28.0543 40.1116
28.1003 40.0159
28.1462 39.9963
28.1923 39.5724
28.2384 38.946
28.2843 38.7665
28.3304 38.1889
28.3764 37.9497
28.4225 37.4757
28.4684 37.3687
28.5145 37.0161
28.5605 36.8437
28.6066 36.7851
28.6526 36.6056
28.6987 36.5289
28.7447 36.6364
28.7908 36.4615
28.8368 36.4455
28.8829 36.4064
28.9289 36.3515
28.9751 36.2024
29.0211 36.0168
29.0673 35.6795
29.1133 35.5546
29.1595 35.3967
29.2055 35.321
29.2517 35.3482
29.2977 35.2756
29.3439 35.1862
29.3899 35.1761
29.4361 35.0905
29.4824 34.9888
29.5284 34.7129
29.5746 34.3961
29.6207 34.0456
29.6669 34.1114
29.713 34.0075
29.7593 33.8285
29.8053 33.8819
29.8516 33.8171
29.8977 33.7229
29.9439 33.423
29.99 33.5033
30.0363 33.4281
30.0824 33.5174
30.1287 33.2514
30.1748 33.3965
30.2211 33.4029
30.2673 33.1847
30.3136 33.4406
30.3597 33.1253
30.406 33.1487
30.4522 32.9853
30.4985 32.9325
30.5447 33.1214
30.591 33.0168
30.6372 33.1157
30.6835 33.0245
30.7297 33.135
30.7761 33.1449
30.8224 32.9691
30.8686 32.8504
30.915 32.5534
30.9612 32.3735
31.0076 32.2258
31.0538 32.1425
31.1002 31.9294
31.1464 31.7873
31.1928 31.8423
31.2391 31.8519
31.2855 31.7201
31.3317 31.7312
31.3781 31.8287
31.4244 31.6916
31.4708 31.6075
31.5171 31.5648
31.5636 31.6407
31.6098 31.4142
31.6563 31.3101
31.7026 31.0633
31.7491 31.0615
31.7953 31.1387
31.8418 30.9109
31.8881 30.8718
31.9346 30.9866
31.9809 30.9301
32.0275 30.7373
32.074 30.6853
32.1203 30.4565
32.1668 30.4836
32.2132 30.3052
32.2597 30.1063
32.306 29.9988
32.3526 29.6778
32.399 29.7618
32.4455 29.7052
32.4919 29.4457
32.5385 29.3682
32.5848 29.2948
32.6314 29.2877
32.6778 29.3041
32.7244 29.1716
32.7708 28.9327
32.8174 28.9431
32.8638 28.8379
32.9104 28.855
32.9569 28.7653
33.0035 28.6814
33.0499 28.6669
33.0966 28.6789
33.143 28.5402
33.1897 28.4808
33.2361 28.4032
33.2828 28.3719
33.3293 28.1251
33.3759 28.2282
33.4226 28.0108
33.4691 27.8861
33.5158 27.7992
33.5623 27.6635
33.609 27.4898
33.6555 27.5203
33.7022 27.3564
33.7487 27.1853
33.7954 27.2327
33.842 27.1604
33.8887 27.0926
33.9353 26.9854
33.982 26.8947
34.0286 26.8807
34.0753 26.8215
34.1219 26.6699
34.1687 26.527
34.2152 26.5303
34.262 26.322
34.3086 26.3016
34.3554 26.2567
34.402 26.1086
34.4488 26.0145
34.4954 26.0077
34.5422 25.8608
34.5889 25.7168
34.6357 25.6943
34.6825 25.6081
34.7292 25.5081
34.776 25.4669
34.8227 25.3141
34.8695 25.2901
34.9162 25.289
34.9631 25.1315
35.0098 25.2362
35.0566 24.9799
35.1033 24.9373
35.1502 24.9584
35.1969 24.8323
35.2438 24.8724
35.2906 24.7616
35.3375 24.7038
35.3842 24.5956
35.4311 24.6688
35.4779 24.665
35.5248 24.5614
35.5716 24.5099
35.6185 24.3348
35.6653 24.2475
35.7123 24.2441
35.759 24.1227
35.806 23.9895
35.8528 23.8866
35.8998 23.8774
35.9468 23.7693
35.9936 23.7701
36.0406 23.67
36.0874 23.6779
36.1345 23.5212
36.1813 23.3921
36.2283 23.3643
36.2752 23.2975
36.3222 23.2808
36.3691 23.207
36.4161 23.1364
36.463 23.1044
36.5101 23.0676
36.557 22.9518
36.6041 22.8142
36.651 22.7524
36.6981 22.7493
36.745 22.7486
36.7921 22.5553
36.839 22.4226
36.8861 22.4254
36.9331 22.4342
36.9802 22.3493
37.0272 22.1608
37.0743 22.0399
37.1213 22.0763
37.1684 21.9421
37.2154 21.939
37.2626 21.8982
37.3098 21.7811
37.3568 21.7873
37.404 21.7151
37.451 21.5841
37.4982 21.5337
37.5452 21.4424
37.5924 21.4093
37.6395 21.4317
37.6867 21.3159
37.7337 21.1124
37.781 21.1324
37.8281 21.0447
37.8753 20.9932
37.9224 20.8856
37.9697 20.8851
38.0168 20.7447
38.064 20.7208
38.1111 20.777
38.1584 20.5552
38.2056 20.5015
38.2529 20.4983
38.3 20.3526
38.3473 20.3597
38.3945 20.243
38.4418 20.1526
38.489 20.156
38.5363 20.0772
38.5837 19.9775
38.6309 19.9643
38.6782 19.8103
38.7254 19.7536
38.7728 19.7572
38.82 19.6714
38.8674 19.6241
38.9146 19.6234
38.9621 19.5495
39.0093 19.453
39.0567 19.4213
39.104 19.3396
39.1514 19.208
39.1987 19.2148
39.2461 19.1036
39.2934 19.0786
39.3409 19.0101
39.3882 18.8775
39.4356 18.9176
39.483 18.8291
39.5304 18.7343
39.5778 18.7182
39.6253 18.6908
39.6726 18.5802
39.7201 18.594
39.7675 18.4822
39.815 18.4013
39.8624 18.3259
39.9099 18.316
39.9575 18.2255
40.0049 18.1589
40.0525 18.1118
40.0999 18.1264
40.1474 18.0435
40.1949 17.8735
40.2425 17.8618
40.2899 17.8247
40.3375 17.8196
40.385 17.7321
40.4326 17.6656
40.48 17.5462
40.5277 17.6022
40.5752 17.486
40.6228 17.5105
40.6703 17.372
40.718 17.2983
40.7655 17.3167
40.8132 17.221
40.8607 17.1884
40.9084 17.1294
40.9559 17.0522
41.0036 17.0477
41.0512 16.997
41.0989 16.957
41.1465 16.8375
41.1942 16.815
41.242 16.7166
41.2896 16.6729
41.3373 16.6132
41.3849 16.6032
41.4327 16.4706
41.4803 16.4836
41.5281 16.3958
41.5758 16.2995
41.6236 16.2488
41.6712 16.1954
41.7191 16.1976
41.7667 16.1588
41.8146 16.0585
41.8622 16.0172
41.9101 15.9795
41.9578 15.9065
42.0057 15.8537
42.0534 15.8123
42.1013 15.7758
42.149 15.6558
42.1969 15.6059
42.2446 15.5842
42.2925 15.5632
42.3403 15.5292
42.3882 15.4579
42.436 15.4581
42.4839 15.3626
42.5319 15.3148
42.5797 15.2525
42.6277 15.1279
42.6755 15.1309
42.7235 15.0958
42.7713 15.0175
42.8193 14.9962
42.8671 14.9403
42.9152 14.8763
42.963 14.7412
43.0111 14.6999
43.0589 14.7031
43.107 14.6344
43.1549 14.6067
43.2029 14.5371
43.2508 14.5199
43.2989 14.4712
43.3468 14.3688
43.3949 14.3705
43.4429 14.3177
43.491 14.236
43.5389 14.2243
43.5871 14.1814
43.635 14.0899
43.6832 14.0902
43.7312 14.0096
43.7793 14.0117
43.8273 13.9517
43.8755 13.8285
43.9237 13.831
43.9717 13.8441
44.0199 13.721
44.068 13.7087
44.1162 13.6062
44.1642 13.6246
44.2125 13.5585
44.2606 13.491
44.3088 13.431
44.3569 13.4151
44.4052 13.3449
44.4533 13.3091
44.5016 13.2419
44.5497 13.2194
44.598 13.1339
44.6461 13.1387
44.6945 13.0967
44.7426 13.0203
44.791 12.9807
44.8391 12.8711
44.8875 12.9248
44.9357 12.8309
44.984 12.765
45.0322 12.8282
45.0806 12.6814
45.1288 12.6892
45.1773 12.6098
45.2257 12.5587
45.2739 12.5217
45.3224 12.512
45.3706 12.4269
45.4191 12.4232
45.4673 12.3836
45.5158 12.2908
45.5641 12.2814
45.6126 12.2095
45.6609 12.2184
45.7094 12.1693
45.7577 12.1432
45.8063 12.0184
45.8546 12.0543
45.9031 11.9352
45.9515 11.9025
46.0001 11.8222
46.0484 11.8192
46.097 11.8125
46.1454 11.804
46.194 11.6923
46.2424 11.6899
46.291 11.6559
46.3395 11.5805
46.3881 11.4975
46.4365 11.5018
46.4852 11.4507
46.5337 11.4208
46.5823 11.3991
46.631 11.3354
46.6795 11.2872
46.7282 11.2577
46.7767 11.2398
46.8254 11.0867
46.8739 11.1319
46.9226 11.0366
46.9712 11.024
47.0199 10.9519
47.0685 10.9506
47.1173 10.923
47.1658 10.8636
47.2146 10.8458
47.2632 10.8027
47.312 10.7871
47.3606 10.7498
47.4095 10.6496
47.4581 10.6583
47.5069 10.5657
47.5556 10.5972
47.6044 10.5315
47.6531 10.4531
47.702 10.4253
47.7507 10.3807
47.7996 10.3841
47.8483 10.341
47.8972 10.3063
47.9461 10.2657
47.9948 10.2129
48.0438 10.1747
48.0925 10.1458
48.1415 10.1009
48.1902 10.067
48.2392 10.0547
48.288 10.0039
48.337 9.95076
48.3858 9.90323
48.4348 9.8672
48.4837 9.88089
48.5327 9.85343
48.5815 9.78879
48.6306 9.74483
48.6795 9.72032
48.7285 9.68735
48.7774 9.61887
48.8265 9.59327
48.8754 9.5762
48.9245 9.51033
48.9734 9.47593
49.0226 9.46308
49.0715 9.41607
49.1206 9.38692
49.1696 9.33861
49.2188 9.31921
49.2679 9.2722
49.3169 9.29039
49.3661 9.21925
49.4151 9.20773
49.4643 9.14862
49.5134 9.11233
49.5626 9.03791
49.6117 9.03365
49.6609 8.98701
49.71 8.95468
49.7592 8.92011
49.8083 8.90365
49.8576 8.85769
49.9067 8.82456
49.956 8.79929
50.0052 8.75371
50.0545 8.75314
50.1036 8.70572
50.153 8.63295
50.2022 8.6443
50.2515 8.62029
50.3007 8.52298
50.3501 8.51249
50.3993 8.47029
50.4487 8.46091
50.498 8.40701
50.5474 8.40705
50.5966 8.3723
50.6461 8.30546
50.6955 8.29232
50.7448 8.25123
50.7943 8.23128
50.8436 8.21369
50.8931 8.17499
50.9424 8.1641
50.9919 8.11392
51.0413 8.07067
51.0908 8.03614
51.1402 8.01833
51.1897 7.93071
51.2391 7.97871
51.2887 7.88253
51.3381 7.88673
51.3877 7.88289
51.4371 7.8095
51.4867 7.77572
51.5362 7.79348
51.5858 7.74351
51.6353 7.68335
51.6849 7.62577
51.7344 7.62198
51.7841 7.59543
51.8336 7.56799
51.8833 7.53291
51.9328 7.48024
51.9826 7.48171
52.0323 7.45794
52.0818 7.40162
52.1316 7.35639
52.1812 7.34446
52.231 7.3153
52.2806 7.29408
52.3304 7.25571
52.38 7.22099
52.4298 7.17585
52.4794 7.13558
52.5293 7.1263
52.5789 7.08648
52.6288 7.07394
52.6785 7.03392
52.7284 7.02238
52.7781 7.03345
52.828 6.95518
52.8777 6.96357
52.9276 6.90013
52.9774 6.9167
53.0273 6.83831
53.0771 6.81803
53.1271 6.815
53.1769 6.76145
53.2269 6.73422
53.2767 6.67991
53.3267 6.62297
53.3765 6.68579
53.4266 6.61006
53.4766 6.59564
53.5265 6.55039
53.5765 6.52279
53.6264 6.51483
53.6765 6.48483
53.7264 6.41769
53.7765 6.44582
53.8265 6.36943
53.8766 6.36899
53.9266 6.33971
53.9767 6.30714
54.0267 6.2982
54.0769 6.25612
54.1269 6.20227
54.1771 6.15535
54.2271 6.13844
54.2773 6.14129
54.3274 6.10315
54.3776 6.04452
54.4277 6.04932
54.478 5.94898
54.528 5.95341
54.5783 5.93211
54.6285 5.8655
54.6788 5.84045
54.7289 5.78697
54.7792 5.72103
54.8296 5.70369
54.8798 5.67616
54.9301 5.63499
54.9803 5.60119
55.0307 5.59476
55.0809 5.53047
55.1314 5.49804
55.1816 5.46703
55.232 5.3395
55.2823 5.35967
55.3328 5.27024
55.383 5.21019
55.4335 5.21351
55.4838 5.13135
55.5344 5.13183
55.5847 5.04293
55.6352 5.0319
55.6856 4.97947
55.7361 4.98431