File: XRD/Ni3Fe_FD0173.xy
TT I
1.27165 7.8414
1.31627 6.6613
1.36089 6.90697
1.40551 6.10211
1.45013 6.4914
1.49476 6.2315
1.53938 6.62028
1.584 5.71419
1.62863 6.31209
1.67325 5.73742
1.71787 5.50282
1.7625 5.14437
1.80712 4.70547
1.85174 5.24734
1.89636 4.67343
1.94099 5.3059
1.98562 4.90467
2.03025 4.73664
2.07487 4.60431
2.11949 5.24913
2.16411 4.77023
2.20874 4.36819
2.25338 4.85545
2.298 4.85085
2.34263 4.8675
2.38725 4.7092
2.43188 4.24754
2.4765 4.92091
2.52115 4.97018
2.56577 4.90646
2.6104 5.51759
2.65503 5.95298
2.69965 6.22281
2.7443 6.24987
2.78893 6.63982
2.83356 7.94375
2.87818 8.21489
2.92281 8.93917
2.96744 9.82266
3.01209 10.7752
3.05672 11.2389
3.10135 12.2124
3.14599 13.3424
3.19062 13.939
3.23527 15.755
3.2799 15.6319
3.32454 17.2179
3.36917 17.5026
3.4138 18.6751
3.45844 19.7674
3.50309 20.5278
3.54773 21.1098
3.59237 22.3007
3.637 22.8024
3.68164 23.1864
3.7263 24.2647
3.77094 25.0357
3.81558 26.1615
3.86022 26.3588
3.90486 28.0666
3.9495 28.5849
3.99416 29.2501
4.0388 30.8456
4.08344 31.8052
4.12809 33.0436
4.17273 34.482
4.21738 36.0781
4.26204 36.5417
4.30669 38.1228
4.35133 40.3589
4.39598 41.4117
4.44063 43.5395
4.4853 45.4401
4.52995 47.4419
4.5746 49.7584
4.61925 52.0393
4.6639 53.7832
4.70855 57.0276
4.75322 59.8605
4.79788 62.6065
4.84253 66.6818
4.88719 71.2327
4.93184 75.5608
4.97652 82.1982
5.02118 90.5058
5.06583 100.847
5.11049 116.1
5.15515 153.06
5.19981 527.166
5.24449 3754.85
5.28916 8577.32
5.33382 6188.76
5.37848 414.545
5.42315 160.575
5.46783 126.957
5.5125 114.344
5.55716 107.978
5.60183 101.466
5.6465 98.9049
5.69117 97.5329
5.73586 95.848
5.78053 94.9364
5.8252 96.1969
5.86988 98.4847
5.91455 105.244
5.95924 122.701
6.00392 282.227
6.0486 1373.27
6.09328 2867.51
6.13795 4023.69
6.18263 642.709
6.22733 119.228
6.27201 88.4263
6.3167 78.3902
6.36138 72.7977
6.40606 68.8019
6.45075 66.4856
6.49545 64.7432
6.54014 62.8049
6.58483 61.2056
6.62952 60.128
6.67421 58.7263
6.71892 58.2604
6.76361 56.6769
6.8083 56.2471
6.853 55.3107
6.89769 54.7015
6.94239 54.6623
6.98711 53.8516
7.03181 53.4839
7.07651 53.4046
7.12121 52.8368
7.16591 53.0658
7.21063 52.2804
7.25533 52.3798
7.30004 52.4474
7.34475 52.506
7.38945 52.6183
7.43416 52.0791
7.47889 52.2942
7.5236 56.112
7.56831 62.4112
7.61303 55.1643
7.65774 53.3259
7.70247 54.3269
7.74719 54.7586
7.79191 55.1055
7.83663 55.4962
7.88135 56.5813
7.92607 57.0982
7.97081 58.2296
8.01553 59.7122
8.06026 60.9793
8.10498 61.988
8.14971 64.0697
8.19446 65.7936
8.23919 68.6504
8.28392 71.2536
8.32865 73.8358
8.37339 78.4852
8.41812 84.2781
8.46288 95.8173
8.50761 171.092
8.55235 592.386
8.59709 913.403
8.64183 1583.82
8.68658 1638.77
8.73134 395.891
8.77609 115.94
8.82083 97.4703
8.86558 91.5321
8.91033 88.1501
8.9551 85.5598
8.99985 84.2634
9.04461 83.5149
9.08936 82.7377
9.13412 81.7982
9.17888 81.7963
9.22365 87.3868
9.26841 95.0183
9.31318 86.0667
9.35794 82.5648
9.4027 82.4612
9.44749 83.2526
9.49226 83.7
9.53703 84.9634
9.5818 86.5942
9.62657 87.3692
9.67134 88.9954
9.71614 91.194
9.76091 93.7006
9.80569 96.245
9.85047 99.4909
9.89525 104.166
9.94005 113.986
9.98484 183.547
10.0296 537.468
10.0744 751.005
10.1192 1079.54
10.164 1697.09
10.2088 943.86
10.2536 207.326
10.2984 116.136
10.3432 107.78
10.388 105.314
10.4328 121.517
10.4776 213.38
10.5224 266.096
10.5672 342.682
10.612 494.883
10.6568 365.005
10.7017 133.021
10.7465 90.8266
10.7913 83.8356
10.8361 80.8318
10.8809 78.1771
10.9257 76.2251
10.9706 74.7797
11.0154 73.2681
11.0602 71.956
11.105 70.5108
11.1499 69.1674
11.1947 68.1834
11.2395 67.1113
11.2844 66.4019
11.3292 65.7917
11.374 64.707
11.4189 64.6634
11.4637 63.7755
11.5086 63.4801
11.5534 62.69
11.5983 62.4244
11.6431 62.5415
11.688 61.9059
11.7328 61.76
11.7777 61.8108
11.8225 61.5598
11.8674 61.3825
11.9122 62.8135
11.9571 65.8321
12.002 65.3748
12.0468 67.9159
12.0917 90.4139
12.1366 108.521
12.1814 120.589
12.2263 155.729
12.2712 193.779
12.3161 135.54
12.3609 74.5321
12.4058 64.3494
12.4507 63.5179
12.4956 63.4411
12.5405 63.5616
12.5853 64.0323
12.6302 64.1663
12.6751 65.0079
12.72 65.582
12.7649 66.7014
12.8098 67.1273
12.8547 68.9743
12.8996 70.0812
12.9445 71.8625
12.9894 73.4848
13.0343 75.5336
13.0792 79.5099
13.1242 86.4782
13.1691 132.436
13.214 185.504
13.2589 209.054
13.3038 256.171
13.3487 362.683
13.3937 379.623
13.4386 203.413
13.4835 118.38
13.5285 153.62
13.5734 182.565
13.6183 198.303
13.6633 248.081
13.7082 340.15
13.7531 303.368
13.7981 148.584
13.843 87.6325
13.888 80.9709
13.9329 78.1145
13.9779 76.4271
14.0228 74.8608
14.0678 73.5761
14.1127 73.3978
14.1577 74.0597
14.2027 72.5669
14.2476 70.7252
14.2926 69.7322
14.3376 69.4205
14.3825 69.1774
14.4275 68.6265
14.4725 68.6517
14.5175 68.6122
14.5624 68.4544
14.6074 69.0394
14.6524 69.3597
14.6974 70.1014
14.7424 71.8422
14.7874 80.5147
14.8324 106.684
14.8774 121.91
14.9224 129.85
14.9674 153.768
15.0124 198.682
15.0574 205.232
15.1024 134.713
15.1474 81.322
15.1924 71.612
15.2374 69.2279
15.2824 68.396
15.3274 67.3445
15.3725 66.6787
15.4175 66.577
15.4625 66.0561
15.5076 65.9103
15.5526 65.7392
15.5976 65.825
15.6426 66.8773
15.6877 74.0756
15.7327 94.5265
15.7778 107.62
15.8228 112.846
15.8679 128.607
15.9129 159.465
15.958 187.026
16.003 148.615
16.0481 87.3016
16.0931 66.0891
16.1382 61.8876
16.1833 60.6231
16.2283 59.3413
16.2734 58.2815
16.3185 57.6712
16.3636 56.9076
16.4086 56.2811
16.4537 55.8219
16.4988 55.3063
16.5439 55.3869
16.589 55.0528
16.6341 54.7557
16.6792 54.2894
16.7243 54.4136
16.7694 54.4222
16.8145 54.3814
16.8596 54.4692
16.9047 54.9078
16.9498 55.5218
16.9949 55.0786
17.04 55.5091
17.0851 56.9759
17.1302 61.493
17.1754 64.6776
17.2205 65.9991
17.2656 67.9199
17.3108 73.7377
17.3559 80.8313
17.401 81.5115
17.4462 70.6214
17.4913 61.5495
17.5365 59.5706
17.5815 59.2947
17.6268 59.4206
17.6718 60.1681
17.7171 60.676
17.7622 61.8154
17.8074 62.6259
17.8525 64.3088
17.8977 72.2713
17.9428 83.6871
17.9881 88.8762
18.0331 92.3604
18.0784 100.623
18.1237 118.052
18.1688 143.091
18.214 141.447
18.2591 110.034
18.3044 89.0407
18.3495 88.1129
18.3948 96.6664
18.4399 104.833
18.4852 94.6234
18.5303 76.0892
18.5756 65.0903
18.6207 62.4951
18.666 61.2768
18.7112 60.0977
18.7565 59.5805
18.8016 59.288
18.8469 58.597
18.892 58.0528
18.9374 57.6198
18.9825 57.2577
19.0278 57.1227
19.073 56.8877
19.1183 57.52
19.1635 59.5743
19.2088 62.0153
19.254 62.7843
19.2993 63.7027
19.3447 66.0468
19.3898 70.161
19.4352 74.5574
19.4804 72.2136
19.5257 63.4726
19.5709 56.3631
19.6163 54.5881
19.6615 54.1213
19.7068 53.7913
19.752 53.784
19.7974 53.8069
19.8426 54.9698
19.888 57.0209
19.9332 58.3936
19.9786 59.0378
20.0238 59.9887
20.0692 62.6805
20.1144 67.8058
20.1598 72.7651
20.205 71.4004
20.2504 65.6829
20.2957 61.751
20.3411 62.3929
20.3863 65.3093
20.4318 64.4964
20.477 59.1341
20.5224 53.5655
20.5677 51.2834
20.6131 50.6062
20.6586 50.0594
20.7038 50.0399
20.7493 49.5226
20.7945 49.3927
20.84 49.382
20.8853 49.1904
20.9307 48.8773
20.976 49.2409
21.0215 49.4203
21.0668 49.7682
21.1122 49.8783
21.1575 49.8906
21.203 50.1798
21.2483 50.8269
21.2938 51.7921
21.3391 51.8424
21.3846 50.6677
21.4299 49.4751
21.4754 48.997
21.5207 49.171
21.5662 49.3213
21.6116 49.7343
21.6571 51.5154
21.7024 53.3343
21.7479 54.435
21.7933 54.9033
21.8388 56.6061
21.8843 59.3401
21.9297 63.0485
21.9752 66.7987
22.0206 66.0274
22.0661 61.0459
22.1115 56.6361
22.157 56.2371
22.2024 57.0496
22.248 55.3872
22.2933 52.5628
22.3389 50.5047
22.3843 49.4472
22.4299 49.2177
22.4753 49.1845
22.5208 49.1342
22.5662 48.9747
22.6118 49.2119
22.6572 49.4668
22.7028 50.6513
22.7483 51.8251
22.7939 52.2235
22.8393 52.5867
22.8849 53.1353
22.9303 54.0654
22.9759 55.8068
23.0214 57.8979
23.067 58.5725
23.1126 56.1714
23.1581 52.4138
23.2037 50.2202
23.2492 49.6712
23.2948 50.0093
23.3403 51.3337
23.3859 52.212
23.4314 52.2774
23.477 52.3581
23.5225 53.0904
23.5682 54.4108
23.6137 56.6949
23.6593 58.2645
23.7048 57.3332
23.7505 53.4645
23.796 49.3163
23.8417 47.4017
23.8872 46.4033
23.9329 45.8628
23.9784 45.7074
24.0241 45.2875
24.0697 45.1347
24.1154 44.7249
24.1609 44.5579
24.2066 44.2046
24.2522 44.1867
24.2979 44.0229
24.3434 43.8764
24.3892 43.6734
24.4349 43.7119
24.4805 43.48
24.5262 43.4963
24.5718 43.3418
24.6175 43.409
24.6631 43.4003
24.7089 43.2988
24.7545 42.9241
24.8002 42.8156
24.8458 42.7485
24.8916 42.8056
24.9372 42.9964
24.983 43.1937
25.0286 43.4036
25.0744 43.9153
25.12 44.16
25.1658 44.7412
25.2114 45.206
25.2572 45.4265
25.3029 45.3324
25.3487 45.2837
25.3943 45.4063
25.4402 45.3315
25.4858 44.8306
25.5316 43.4184
25.5773 42.0672
25.6231 41.7035
25.669 41.1811
25.7147 41.1661
25.7605 40.9142
25.8062 41.3556
25.8521 41.2791
25.8977 41.3081
25.9436 41.3264
25.9893 41.2801
26.0352 41.5723
26.0809 41.5846
26.1268 42.0966
26.1725 42.3258
26.2184 42.1946
26.2641 41.8226
26.31 41.1583
26.3557 41.0863
26.4017 41.0277
26.4474 41.2084
26.4933 41.2431
26.5391 41.5363
26.585 41.9053
26.6308 42.2184
26.6767 42.4364
26.7225 43.1418
26.7684 43.012
26.8142 42.4331
26.8601 41.7111
26.9059 41.0771
26.9519 40.7228
26.9979 40.4843
27.0437 39.8344
27.0896 39.5599
27.1354 39.421
27.1814 39.1548
27.2272 39.2352
27.2732 39.1865
27.3191 39.1142
27.3651 39.1415
27.4109 39.025
27.4569 39.0102
27.5027 38.9582
27.5488 39.1721
27.5946 39.0591
27.6407 39.1457
27.6865 39.063
27.7326 38.9059
27.7784 38.8213
27.8245 38.5533
27.8703 38.6577
27.9164 38.8916
27.9623 38.8899
28.0084 39.1112
28.0543 39.3602
28.1003 39.5619
28.1462 39.7667
28.1923 39.5856
28.2384 39.136
28.2843 38.796
28.3304 38.2357
28.3764 37.8842
28.4225 37.4877
28.4684 37.0872
28.5145 36.6716
28.5605 36.5032
28.6066 36.2296
28.6526 36.3275
28.6987 36.3278
28.7447 36.0203
28.7908 35.8872
28.8368 35.8985
28.8829 35.9521
28.9289 35.8154
28.9751 35.6596
29.0211 35.6475
29.0673 35.388
29.1133 35.2007
29.1595 34.9509
29.2055 34.8728
29.2517 34.8819
29.2977 34.6806
29.3439 34.554
29.3899 34.5873
29.4361 34.6233
29.4824 34.5211
29.5284 34.522
29.5746 34.1395
29.6207 33.8158
29.6669 33.5418
29.713 33.4282
29.7593 33.3971
29.8053 33.3848
29.8516 33.217
29.8977 33.2018
29.9439 33.1678
29.99 33.0319
30.0363 32.9505
30.0824 33.1015
30.1287 32.9289
30.1748 32.9032
30.2211 32.7979
30.2673 32.7042
30.3136 32.9588
30.3597 32.8797
30.406 32.8853
30.4522 32.7138
30.4985 32.6648
30.5447 32.6338
30.591 32.5403
30.6372 32.5981
30.6835 32.533
30.7297 32.5864
30.7761 32.7219
30.8224 32.7287
30.8686 32.5659
30.915 32.368
30.9612 32.2045
31.0076 32.0153
31.0538 31.8314
31.1002 31.7183
31.1464 31.4823
31.1928 31.5202
31.2391 31.5194
31.2855 31.3666
31.3317 31.3375
31.3781 31.4419
31.4244 31.3399
31.4708 31.1724
31.5171 31.3185
31.5636 31.4067
31.6098 31.2835
31.6563 31.0892
31.7026 30.9217
31.7491 30.7139
31.7953 30.6389
31.8418 30.6327
31.8881 30.5623
31.9346 30.579
31.9809 30.4162
32.0275 30.5145
32.074 30.5156
32.1203 30.1858
32.1668 30.1606
32.2132 30.0406
32.2597 29.8263
32.306 29.7461
32.3526 29.546
32.399 29.3836
32.4455 29.2375
32.4919 29.1766
32.5385 29.0754
32.5848 28.9435
32.6314 28.9538
32.6778 28.9843
32.7244 28.7579
32.7708 28.5404
32.8174 28.6103
32.8638 28.4821
32.9104 28.5027
32.9569 28.484
33.0035 28.3055
33.0499 28.2273
33.0966 28.1706
33.143 28.1681
33.1897 28.2064
33.2361 28.0545
33.2828 28.0985
33.3293 27.8618
33.3759 27.9106
33.4226 27.8422
33.4691 27.7703
33.5158 27.5306
33.5623 27.3751
33.609 27.1982
33.6555 27.1145
33.7022 27.0405
33.7487 26.9434
33.7954 26.8907
33.842 26.6955
33.8887 26.6306
33.9353 26.6806
33.982 26.634
34.0286 26.4679
34.0753 26.5091
34.1219 26.3038
34.1687 26.255
34.2152 26.1435
34.262 25.9409
34.3086 26.0002
34.3554 25.9452
34.402 25.7963
34.4488 25.6883
34.4954 25.7092
34.5422 25.4886
34.5889 25.4303
34.6357 25.3533
34.6825 25.3384
34.7292 25.24
34.776 25.1053
34.8227 25.0411
34.8695 24.9983
34.9162 24.872
34.9631 24.8565
35.0098 24.9105
35.0566 24.7715
35.1033 24.7095
35.1502 24.6276
35.1969 24.5307
35.2438 24.5552
35.2906 24.4191
35.3375 24.4512
35.3842 24.3207
35.4311 24.3207
35.4779 24.3169
35.5248 24.3374
35.5716 24.2056
35.6185 24.0859
35.6653 24.0568
35.7123 23.9848
35.759 23.8238
35.806 23.778
35.8528 23.5607
35.8998 23.5948
35.9468 23.4344
35.9936 23.4716
36.0406 23.3912
36.0874 23.4046
36.1345 23.2105
36.1813 23.1359
36.2283 23.1236
36.2752 22.9825
36.3222 23.0796
36.3691 22.9394
36.4161 22.7942
36.463 22.8511
36.5101 22.8036
36.557 22.6744
36.6041 22.5402
36.651 22.5841
36.6981 22.4963
36.745 22.4587
36.7921 22.2941
36.839 22.247
36.8861 22.1583
36.9331 22.1289
36.9802 22.0241
37.0272 21.9655
37.0743 21.8674
37.1213 21.8265
37.1684 21.7293
37.2154 21.7241
37.2626 21.5801
37.3098 21.5413
37.3568 21.474
37.404 21.4569
37.451 21.313
37.4982 21.2986
37.5452 21.1634
37.5924 21.1386
37.6395 21.1731
37.6867 21.0062
37.7337 20.9675
37.781 20.8618
37.8281 20.7952
37.8753 20.6831
37.9224 20.6729
37.9697 20.5754
38.0168 20.5522
38.064 20.5237
38.1111 20.2982
38.1584 20.4332
38.2056 20.2499
38.2529 20.2241
38.3 20.1946
38.3473 20.1338
38.3945 20.0393
38.4418 20.0538
38.489 19.9431
38.5363 19.8328
38.5837 19.7779
38.6309 19.6972
38.6782 19.651
38.7254 19.5921
38.7728 19.519
38.82 19.406
38.8674 19.382
38.9146 19.3502
38.9621 19.196
39.0093 19.2596
39.0567 19.182
39.104 19.0336
39.1514 18.9462
39.1987 19.0215
39.2461 18.9211
39.2934 18.8785
39.3409 18.7795
39.3882 18.6617
39.4356 18.6992
39.483 18.5695
39.5304 18.5542
39.5778 18.5652
39.6253 18.4616
39.6726 18.3639
39.7201 18.4053
39.7675 18.2968
39.815 18.2741
39.8624 18.1326
39.9099 18.0641
39.9575 18.0389
40.0049 17.9608
40.0525 17.9022
40.0999 17.8117
40.1474 17.8444
40.1949 17.7446
40.2425 17.68
40.2899 17.6653
40.3375 17.555
40.385 17.551
40.4326 17.4642
40.48 17.447
40.5277 17.4273
40.5752 17.2854
40.6228 17.2274
40.6703 17.2278
40.718 17.1985
40.7655 17.0978
40.8132 16.999
40.8607 16.9779
40.9084 16.9881
40.9559 16.8985
41.0036 16.8135
41.0512 16.8088
41.0989 16.7306
41.1465 16.6415
41.1942 16.5787
41.242 16.5017
41.2896 16.5144
41.3373 16.4028
41.3849 16.4091
41.4327 16.3373
41.4803 16.2608
41.5281 16.2384
41.5758 16.1604
41.6236 16.0994
41.6712 15.9697
41.7191 16.0101
41.7667 15.9228
41.8146 15.8558
41.8622 15.7991
41.9101 15.761
41.9578 15.6582
42.0057 15.6626
42.0534 15.6274
42.1013 15.5722
42.149 15.5306
42.1969 15.4333
42.2446 15.4259
42.2925 15.2866
42.3403 15.2949
42.3882 15.2577
42.436 15.2538
42.4839 15.1467
42.5319 15.095
42.5797 15.0289
42.6277 15.0211
42.6755 14.9403
42.7235 14.8934
42.7713 14.8316
42.8193 14.7296
42.8671 14.7567
42.9152 14.7245
42.963 14.6721
43.0111 14.5569
43.0589 14.5575
43.107 14.4926
43.1549 14.4119
43.2029 14.3756
43.2508 14.3516
43.2989 14.2951
43.3468 14.2204
43.3949 14.18
43.4429 14.168
43.491 14.0687
43.5389 14.0926
43.5871 13.9794
43.635 13.9291
43.6832 13.9096
43.7312 13.8891
43.7793 13.8309
43.8273 13.7584
43.8755 13.6695
43.9237 13.6622
43.9717 13.5947
44.0199 13.5546
44.068 13.5136
44.1162 13.491
44.1642 13.4555
44.2125 13.3596
44.2606 13.3353
44.3088 13.2539
44.3569 13.2714
44.4052 13.2126
44.4533 13.1438
44.5016 13.0822
44.5497 13.0587
44.598 13.0403
44.6461 12.9948
44.6945 12.9314
44.7426 12.9008
44.791 12.8474
44.8391 12.7502
44.8875 12.7413
44.9357 12.7112
44.984 12.6537
45.0322 12.5393
45.0806 12.5249
45.1288 12.5099
45.1773 12.4463
45.2257 12.4452
45.2739 12.3394
45.3224 12.311
45.3706 12.3023
45.4191 12.2437
45.4673 12.224
45.5158 12.1911
45.5641 12.0956
45.6126 12.0865
45.6609 12.0323
45.7094 12.007
45.7577 11.9117
45.8063 11.8797
45.8546 11.8775
45.9031 11.8488
45.9515 11.7988
46.0001 11.7582
46.0484 11.7168
46.097 11.659
46.1454 11.6334
46.194 11.6127
46.2424 11.5455
46.291 11.4796
46.3395 11.4583
46.3881 11.4007
46.4365 11.3304
46.4852 11.3283
46.5337 11.245
46.5823 11.2205
46.631 11.1568
46.6795 11.1481
46.7282 11.1492
46.7767 11.0552
46.8254 11.0299
46.8739 10.9291
46.9226 10.9452
46.9712 10.8984
47.0199 10.8829
47.0685 10.8055
47.1173 10.8183
47.1658 10.7625
47.2146 10.7378
47.2632 10.6455
47.312 10.6697
47.3606 10.6028
47.4095 10.5467
47.4581 10.516
47.5069 10.4644
47.5556 10.4476
47.6044 10.3941
47.6531 10.3447
47.702 10.3013
47.7507 10.2958
47.7996 10.2172
47.8483 10.1925
47.8972 10.2052
47.9461 10.1473
47.9948 10.0722
48.0438 10.0571
48.0925 10.0154
48.1415 9.98124
48.1902 9.94218
48.2392 9.94994
48.288 9.891
48.337 9.87101
48.3858 9.80642
48.4348 9.78087
48.4837 9.73967
48.5327 9.70895
48.5815 9.67544
48.6306 9.63517
48.6795 9.62301
48.7285 9.61922
48.7774 9.55133
48.8265 9.5503
48.8754 9.42137
48.9245 9.40814
48.9734 9.38448
49.0226 9.37095
49.0715 9.32184
49.1206 9.30061
49.1696 9.21013
49.2188 9.22077
49.2679 9.19526
49.3169 9.12901
49.3661 9.1005
49.4151 9.06819
49.4643 9.02691
49.5134 9.01816
49.5626 8.96072
49.6117 8.96415
49.6609 8.88237
49.71 8.83863
49.7592 8.82896
49.8083 8.7664
49.8576 8.74338
49.9067 8.70296
49.956 8.70898
50.0052 8.66871
50.0545 8.6301
50.1036 8.6565
50.153 8.55573
50.2022 8.55788
50.2515 8.49257
50.3007 8.44418
50.3501 8.43331
50.3993 8.42396
50.4487 8.37336
50.498 8.35016
50.5474 8.3137
50.5966 8.27373
50.6461 8.25984
50.6955 8.18421
50.7448 8.22591
50.7943 8.1793
50.8436 8.15333
50.8931 8.07717
50.9424 8.0736
50.9919 8.01767
51.0413 7.99149
51.0908 7.93793
51.1402 7.89406
51.1897 7.90166
51.2391 7.87622
51.2887 7.85099
51.3381 7.78166
51.3877 7.77212
51.4371 7.75642
51.4867 7.71211
51.5362 7.65985
51.5858 7.66794
51.6353 7.59593
51.6849 7.58445
51.7344 7.54028
51.7841 7.54334
51.8336 7.48183
51.8833 7.45404
51.9328 7.44503
51.9826 7.35708
52.0323 7.35484
52.0818 7.31806
52.1316 7.27213
52.1812 7.25929
52.231 7.23596
52.2806 7.18276
52.3304 7.17017
52.38 7.13207
52.4298 7.10381
52.4794 7.09839
52.5293 7.0522
52.5789 7.02298
52.6288 7.00951
52.6785 6.96591
52.7284 6.92472
52.7781 6.90261
52.828 6.89354
52.8777 6.85994
52.9276 6.815
52.9774 6.86267
53.0273 6.78175
53.0771 6.73591
53.1271 6.73635
53.1769 6.686
53.2269 6.68155
53.2767 6.61778
53.3267 6.57573
53.3765 6.57408
53.4266 6.56543
53.4766 6.50755
53.5265 6.46532
53.5765 6.48119
53.6264 6.42536
53.6765 6.39267
53.7264 6.38901
53.7765 6.32325
53.8265 6.31832
53.8766 6.23723
53.9266 6.28141
53.9767 6.21501
54.0267 6.20577
54.0769 6.171
54.1269 6.13221
54.1771 6.08258
54.2271 6.07107
54.2773 6.00786
54.3274 6.01256
54.3776 5.96175
54.4277 5.90147
54.478 5.91041
54.528 5.84569
54.5783 5.83513
54.6285 5.77312
54.6788 5.70598
54.7289 5.6813
54.7792 5.6117
54.8296 5.60809
54.8798 5.51749
54.9301 5.50117
54.9803 5.44096
55.0307 5.41045
55.0809 5.37863
55.1314 5.36105
55.1816 5.27032
55.232 5.28237
55.2823 5.13373
55.3328 5.13589
55.383 5.07475
55.4335 5.04961
55.4838 4.97528
55.5344 4.94817
55.5847 4.89121
55.6352 4.90805
55.6856 4.85158
55.7361 4.86295