File: XRD/Ni3Fe_FD0890.xy
TT I
1.27165 7.16498
1.31627 6.96756
1.36089 6.72545
1.40551 6.30686
1.45013 5.68033
1.49476 6.05463
1.53938 5.86383
1.584 5.29751
1.62863 5.33051
1.67325 5.37981
1.71787 4.68588
1.7625 4.66312
1.80712 5.1644
1.85174 4.66602
1.89636 4.32016
1.94099 4.99212
1.98562 5.20781
2.03025 4.68553
2.07487 4.52623
2.11949 4.85716
2.16411 5.27289
2.20874 14.4694
2.25338 24.7917
2.298 6.55155
2.34263 6.23479
2.38725 6.17947
2.43188 6.27784
2.4765 7.05505
2.52115 7.17477
2.56577 7.98396
2.6104 8.57483
2.65503 7.5098
2.69965 8.38955
2.7443 8.66626
2.78893 8.26862
2.83356 8.39329
2.87818 9.29883
2.92281 9.27056
2.96744 10.1758
3.01209 10.1184
3.05672 11.4999
3.10135 12.4226
3.14599 13.2526
3.19062 15.151
3.23527 15.0037
3.2799 15.9834
3.32454 16.706
3.36917 17.4412
3.4138 19.2417
3.45844 19.5425
3.50309 20.6401
3.54773 22.1031
3.59237 23.8811
3.637 96.5747
3.68164 61.0155
3.7263 26.1251
3.77094 26.0825
3.81558 26.8285
3.86022 27.2868
3.90486 28.7995
3.9495 29.652
3.99416 30.8097
4.0388 32.3615
4.08344 33.2241
4.12809 34.6325
4.17273 37.121
4.21738 42.5277
4.26204 259.325
4.30669 231.107
4.35133 48.6852
4.39598 43.9841
4.44063 53.355
4.4853 65.984
4.52995 49.5215
4.5746 50.2221
4.61925 52.5843
4.6639 54.5492
4.70855 56.9802
4.75322 60.1472
4.79788 62.9956
4.84253 65.8542
4.88719 70.0222
4.93184 73.1728
4.97652 78.5086
5.02118 84.9228
5.06583 91.6197
5.11049 102.273
5.15515 168.953
5.19981 286.662
5.24449 2430.08
5.28916 13392.4
5.33382 2705.36
5.37848 172.737
5.42315 122.797
5.46783 109.561
5.5125 103.063
5.55716 99.4439
5.60183 96.2084
5.6465 94.5552
5.69117 91.8196
5.73586 90.2892
5.78053 89.7361
5.8252 88.7601
5.86988 89.3167
5.91455 91.7622
5.95924 97.4297
6.00392 169.135
6.0486 831.652
6.09328 4463.16
6.13795 3089.89
6.18263 210.45
6.22733 89.4367
6.27201 80.8492
6.3167 101.582
6.36138 80.0213
6.40606 67.7251
6.45075 66.2544
6.49545 64.2664
6.54014 63.2348
6.58483 61.8823
6.62952 61.8798
6.67421 94.5972
6.71892 147.944
6.76361 68.7446
6.8083 57.8961
6.853 56.8533
6.89769 56.496
6.94239 56.2038
6.98711 55.2684
7.03181 54.8954
7.07651 54.6799
7.12121 54.5204
7.16591 54.5972
7.21063 54.7793
7.25533 70.7974
7.30004 185.395
7.34475 92.996
7.38945 55.9889
7.43416 54.0619
7.47889 53.5151
7.5236 54.1848
7.56831 54.8908
7.61303 56.2516
7.65774 56.6316
7.70247 55.0957
7.74719 55.1898
7.79191 55.7496
7.83663 55.8084
7.88135 56.8235
7.92607 57.8635
7.97081 58.9661
8.01553 59.7955
8.06026 61.1905
8.10498 62.6755
8.14971 72.3769
8.19446 71.2471
8.23919 68.2483
8.28392 70.5955
8.32865 72.6875
8.37339 76.723
8.41812 83.2786
8.46288 111.686
8.50761 143.854
8.55235 333.175
8.59709 1148.43
8.64183 2333.07
8.68658 963.007
8.73134 154.953
8.77609 96.5322
8.82083 90.5817
8.86558 87.7925
8.91033 88.0197
8.9551 90.4532
8.99985 83.9012
9.04461 82.0456
9.08936 81.2033
9.13412 80.2622
9.17888 80.6391
9.22365 81.528
9.26841 80.7903
9.31318 80.9903
9.35794 81.1828
9.4027 81.8455
9.44749 82.3836
9.49226 82.5095
9.53703 83.9928
9.5818 85.5278
9.62657 90.1468
9.67134 97.4187
9.71614 92.0551
9.76091 91.8516
9.80569 94.3624
9.85047 97.7709
9.89525 122.75
9.94005 134.423
9.98484 154.977
10.0296 299.253
10.0744 758.471
10.1192 1829.48
10.164 1582.35
10.2088 368.343
10.2536 120.17
10.2984 110.523
10.3432 113.023
10.388 102.234
10.4328 110.643
10.4776 147.368
10.5224 268.818
10.5672 534.654
10.612 511.942
10.6568 188.469
10.7017 93.3199
10.7465 84.3258
10.7913 81.6145
10.8361 79.5788
10.8809 77.1508
10.9257 77.317
10.9706 77.7241
11.0154 73.4858
11.0602 71.1927
11.105 70.7334
11.1499 74.9487
11.1947 82.9121
11.2395 73.7251
11.2844 69.5311
11.3292 66.1759
11.374 65.1454
11.4189 64.3656
11.4637 63.9284
11.5086 64.3077
11.5534 67.445
11.5983 64.5262
11.6431 62.8247
11.688 61.7579
11.7328 61.757
11.7777 61.6256
11.8225 61.2372
11.8674 61.0923
11.9122 61.5157
11.9571 61.8407
12.002 62.3299
12.0468 64.9699
12.0917 74.8518
12.1366 97.8017
12.1814 155.702
12.2263 216.322
12.2712 163.763
12.3161 91.7428
12.3609 69.274
12.4058 63.5047
12.4507 63.3545
12.4956 63.1854
12.5405 63.2274
12.5853 64.4227
12.6302 72.3468
12.6751 78.3243
12.72 69.1647
12.7649 66.9098
12.8098 67.2156
12.8547 68.0024
12.8996 69.488
12.9445 70.5295
12.9894 72.165
13.0343 74.0122
13.0792 77.179
13.1242 83.9871
13.1691 104.183
13.214 137.821
13.2589 228.582
13.3038 384.65
13.3487 434.378
13.3937 248.837
13.4386 116.912
13.4835 99.6909
13.5285 112.452
13.5734 148.647
13.6183 244.877
13.6633 364.916
13.7082 341.06
13.7531 171.93
13.7981 92.4966
13.843 80.0289
13.888 77.8671
13.9329 75.3807
13.9779 74.3269
14.0228 73.0032
14.0678 71.4608
14.1127 71.5241
14.1577 71.038
14.2027 70.2152
14.2476 68.9973
14.2926 69.1055
14.3376 70.2577
14.3825 68.9136
14.4275 67.2003
14.4725 67.0927
14.5175 67.4691
14.5624 67.6213
14.6074 70.1786
14.6524 70.7518
14.6974 68.9871
14.7424 69.7652
14.7874 74.9675
14.8324 84.1416
14.8774 105.114
14.9224 150.798
14.9674 217.293
15.0124 220.049
15.0574 141.354
15.1024 86.6755
15.1474 70.5922
15.1924 68.9435
15.2374 69.8204
15.2824 69.0732
15.3274 66.9535
15.3725 65.5252
15.4175 65.2604
15.4625 64.8995
15.5076 65.0631
15.5526 64.8906
15.5976 64.3502
15.6426 64.8412
15.6877 69.0545
15.7327 75.9559
15.7778 90.359
15.8228 123.117
15.8679 174.543
15.9129 200.24
15.958 152.055
16.003 90.5314
16.0481 66.3029
16.0931 63.5567
16.1382 61.5326
16.1833 59.4832
16.2283 57.897
16.2734 57.4053
16.3185 57.7856
16.3636 58.6659
16.4086 56.6801
16.4537 55.1834
16.4988 54.4785
16.5439 54.4912
16.589 54.0623
16.6341 53.7978
16.6792 53.6727
16.7243 53.7936
16.7694 54.1432
16.8145 53.8779
16.8596 54.2319
16.9047 55.7923
16.9498 56.137
16.9949 54.8827
17.04 54.5785
17.0851 55.5394
17.1302 57.1568
17.1754 59.9705
17.2205 64.9447
17.2656 73.3931
17.3108 83.3115
17.3559 81.2078
17.401 68.5497
17.4462 60.1962
17.4913 57.6971
17.5365 58.0409
17.5815 58.0439
17.6268 58.2887
17.6718 59.1949
17.7171 59.7294
17.7622 60.0925
17.8074 60.444
17.8525 62.0497
17.8977 65.7849
17.9428 70.6697
17.9881 79.0627
18.0331 97.4861
18.0784 123.551
18.1237 141.06
18.1688 127.489
18.214 97.9892
18.2591 82.9297
18.3044 88.9389
18.3495 101.282
18.3948 106.831
18.4399 93.6758
18.4852 74.3258
18.5303 64.1081
18.5756 61.1977
18.6207 60.0741
18.666 59.2149
18.7112 58.601
18.7565 57.8822
18.8016 57.5717
18.8469 56.9092
18.892 56.7702
18.9374 56.4784
18.9825 55.9045
19.0278 55.8614
19.073 55.9163
19.1183 56.2414
19.1635 57.0389
19.2088 58.3524
19.254 60.6203
19.2993 65.5467
19.3447 72.5466
19.3898 76.6525
19.4352 70.7022
19.4804 61.3971
19.5257 55.2391
19.5709 53.14
19.6163 53.0943
19.6615 52.8753
19.7068 52.4115
19.752 52.3178
19.7974 52.4662
19.8426 53.3458
19.888 54.0659
19.9332 55.0854
19.9786 57.2532
20.0238 61.1082
20.0692 66.6589
20.1144 69.3291
20.1598 66.6603
20.205 61.532
20.2504 60.7949
20.2957 63.6955
20.3411 65.7923
20.3863 63.1711
20.4318 57.0225
20.477 52.3673
20.5224 50.6346
20.5677 50.2628
20.6131 49.2929
20.6586 48.8057
20.7038 48.6219
20.7493 48.3062
20.7945 48.1488
20.84 47.9748
20.8853 47.7716
20.9307 47.5724
20.976 47.7665
21.0215 47.7608
21.0668 47.9901
21.1122 48.5267
21.1575 49.1298
21.203 50.0888
21.2483 50.7882
21.2938 50.5948
21.3391 49.0104
21.3846 47.9586
21.4299 47.5013
21.4754 47.6536
21.5207 47.5341
21.5662 47.7826
21.6116 48.163
21.6571 48.8695
21.7024 49.822
21.7479 51.3817
21.7933 54.1177
21.8388 58.2696
21.8843 62.6216
21.9297 64.3133
21.9752 61.9454
22.0206 57.9283
22.0661 55.5896
22.1115 55.353
22.157 55.2432
22.2024 53.0498
22.248 50.3038
22.2933 48.9016
22.3389 48.2502
22.3843 48.1669
22.4299 48.0847
22.4753 47.9305
22.5208 47.7362
22.5662 47.6182
22.6118 47.8802
22.6572 47.9683
22.7028 48.3227
22.7483 48.6811
22.7939 49.5148
22.8393 50.9784
22.8849 53.3117
22.9303 55.9437
22.9759 57.6014
23.0214 56.5782
23.067 53.2706
23.1126 50.0306
23.1581 48.2696
23.2037 47.772
23.2492 47.9124
23.2948 47.8147
23.3403 48.0235
23.3859 48.7717
23.4314 49.781
23.477 51.6238
23.5225 54.3398
23.5682 56.7515
23.6137 57.7888
23.6593 54.5839
23.7048 50.2724
23.7505 47.2092
23.796 45.8917
23.8417 45.169
23.8872 44.7864
23.9329 44.5272
23.9784 44.1374
24.0241 43.9033
24.0697 43.6265
24.1154 43.4989
24.1609 43.283
24.2066 43.0641
24.2522 42.9538
24.2979 42.7918
24.3434 42.5749
24.3892 42.4157
24.4349 42.3531
24.4805 42.1972
24.5262 42.5697
24.5718 42.3814
24.6175 42.2493
24.6631 42.0688
24.7089 41.8786
24.7545 41.5915
24.8002 41.3541
24.8458 41.5044
24.8916 41.3072
24.9372 41.5218
24.983 41.7857
25.0286 42.0633
25.0744 42.4679
25.12 43.1468
25.1658 43.7582
25.2114 44.0778
25.2572 43.9745
25.3029 44.1817
25.3487 44.4824
25.3943 43.9845
25.4402 42.6942
25.4858 41.5104
25.5316 40.6967
25.5773 40.3012
25.6231 40.2609
25.669 39.7704
25.7147 39.8455
25.7605 39.8144
25.8062 39.8091
25.8521 39.9357
25.8977 39.7066
25.9436 40.2325
25.9893 40.2499
26.0352 40.9353
26.0809 40.8562
26.1268 41.1011
26.1725 40.5656
26.2184 39.9277
26.2641 39.5633
26.31 39.3216
26.3557 39.4391
26.4017 39.3889
26.4474 39.6713
26.4933 39.9973
26.5391 40.5543
26.585 41.2728
26.6308 41.6365
26.6767 41.5859
26.7225 41.2585
26.7684 40.7671
26.8142 40.1605
26.8601 39.8736
26.9059 39.37
26.9519 38.9223
26.9979 38.4275
27.0437 38.2503
27.0896 38.0386
27.1354 38.1355
27.1814 37.9133
27.2272 37.8932
27.2732 37.8742
27.3191 37.6695
27.3651 37.793
27.4109 37.7509
27.4569 37.8965
27.5027 37.9517
27.5488 38.0309
27.5946 37.6911
27.6407 37.4841
27.6865 37.459
27.7326 37.1575
27.7784 37.24
27.8245 37.1198
27.8703 37.436
27.9164 37.5775
27.9623 37.7831
28.0084 38.3205
28.0543 38.5158
28.1003 38.4202
28.1462 38.1508
28.1923 37.7538
28.2384 37.341
28.2843 37.0087
28.3304 36.4661
28.3764 36.1315
28.4225 35.8014
28.4684 35.6227
28.5145 35.2927
28.5605 35.3077
28.6066 35.0826
28.6526 35.0321
28.6987 35.0015
28.7447 35.0007
28.7908 34.8537
28.8368 34.8871
28.8829 34.9047
28.9289 34.8269
28.9751 34.5695
29.0211 34.3901
29.0673 34.0354
29.1133 34.013
29.1595 33.8678
29.2055 33.6881
29.2517 33.656
29.2977 33.7804
29.3439 33.7625
29.3899 33.7406
29.4361 33.5948
29.4824 33.4402
29.5284 33.2153
29.5746 32.735
29.6207 32.517
29.6669 32.5984
29.713 32.4345
29.7593 32.3187
29.8053 32.4695
29.8516 32.2874
29.8977 32.376
29.9439 32.0633
29.99 32.0461
30.0363 31.8794
30.0824 31.9911
30.1287 31.9067
30.1748 31.9808
30.2211 31.9192
30.2673 31.7664
30.3136 31.7787
30.3597 31.8415
30.406 31.5961
30.4522 31.5393
30.4985 31.4702
30.5447 31.5929
30.591 31.5603
30.6372 31.6693
30.6835 31.6731
30.7297 31.7327
30.7761 31.6466
30.8224 31.4374
30.8686 31.3999
30.915 30.9755
30.9612 30.9757
31.0076 30.8121
31.0538 30.6782
31.1002 30.5795
31.1464 30.4064
31.1928 30.4767
31.2391 30.4272
31.2855 30.3534
31.3317 30.3333
31.3781 30.4594
31.4244 30.4371
31.4708 30.3356
31.5171 30.2955
31.5636 30.1876
31.6098 29.9113
31.6563 29.8998
31.7026 29.7479
31.7491 29.6128
31.7953 29.6101
31.8418 29.6922
31.8881 29.7133
31.9346 29.6452
31.9809 29.5559
32.0275 29.4925
32.074 29.3316
32.1203 29.0928
32.1668 29.0589
32.2132 28.9171
32.2597 28.7935
32.306 28.5714
32.3526 28.4914
32.399 28.5116
32.4455 28.3217
32.4919 28.1671
32.5385 28.0893
32.5848 28.0112
32.6314 28.1026
32.6778 28.0106
32.7244 27.7941
32.7708 27.7276
32.8174 27.6851
32.8638 27.5469
32.9104 27.584
32.9569 27.5102
33.0035 27.4916
33.0499 27.3673
33.0966 27.3424
33.143 27.3134
33.1897 27.2325
33.2361 27.1647
33.2828 27.1547
33.3293 27.0005
33.3759 26.9117
33.4226 26.7477
33.4691 26.646
33.5158 26.5577
33.5623 26.4259
33.609 26.3945
33.6555 26.2152
33.7022 26.1559
33.7487 26.0847
33.7954 26.0953
33.842 25.9974
33.8887 25.9615
33.9353 25.7665
33.982 25.7135
34.0286 25.6833
34.0753 25.5896
34.1219 25.5559
34.1687 25.4461
34.2152 25.3189
34.262 25.238
34.3086 25.2079
34.3554 25.0876
34.402 24.934
34.4488 24.8358
34.4954 24.8838
34.5422 24.8209
34.5889 24.6474
34.6357 24.5878
34.6825 24.5061
34.7292 24.4098
34.776 24.3514
34.8227 24.3654
34.8695 24.2804
34.9162 24.1857
34.9631 24.0598
35.0098 24.1073
35.0566 23.9623
35.1033 23.9227
35.1502 23.7767
35.1969 23.8453
35.2438 23.7983
35.2906 23.7835
35.3375 23.7017
35.3842 23.6776
35.4311 23.5832
35.4779 23.5811
35.5248 23.4972
35.5716 23.3166
35.6185 23.3399
35.6653 23.2768
35.7123 23.1388
35.759 23.0954
35.806 22.9693
35.8528 22.8659
35.8998 22.8742
35.9468 22.7617
35.9936 22.6843
36.0406 22.6205
36.0874 22.668
36.1345 22.5212
36.1813 22.4498
36.2283 22.3256
36.2752 22.2995
36.3222 22.2719
36.3691 22.2222
36.4161 22.1637
36.463 22.0281
36.5101 22.1245
36.557 21.9724
36.6041 21.7754
36.651 21.8759
36.6981 21.7602
36.745 21.6824
36.7921 21.6364
36.839 21.5123
36.8861 21.5447
36.9331 21.4219
36.9802 21.3207
37.0272 21.2616
37.0743 21.1639
37.1213 21.0859
37.1684 20.9896
37.2154 21.0117
37.2626 20.9046
37.3098 20.842
37.3568 20.7644
37.404 20.7024
37.451 20.7174
37.4982 20.531
37.5452 20.5462
37.5924 20.4666
37.6395 20.4511
37.6867 20.3731
37.7337 20.3487
37.781 20.2746
37.8281 20.2354
37.8753 20.0147
37.9224 20.0229
37.9697 19.9808
38.0168 19.8915
38.064 19.8017
38.1111 19.7771
38.1584 19.7163
38.2056 19.6507
38.2529 19.6374
38.3 19.5454
38.3473 19.4723
38.3945 19.3458
38.4418 19.337
38.489 19.3102
38.5363 19.2374
38.5837 19.1405
38.6309 19.1677
38.6782 19.008
38.7254 18.9522
38.7728 18.9555
38.82 18.8262
38.8674 18.7565
38.9146 18.6706
38.9621 18.6682
39.0093 18.6061
39.0567 18.5515
39.104 18.5411
39.1514 18.4135
39.1987 18.443
39.2461 18.3467
39.2934 18.2238
39.3409 18.1887
39.3882 18.0956
39.4356 18.0544
39.483 18.0745
39.5304 17.9189
39.5778 17.95
39.6253 17.8607
39.6726 17.8081
39.7201 17.7274
39.7675 17.6916
39.815 17.6653
39.8624 17.5434
39.9099 17.5477
39.9575 17.4142
40.0049 17.4449
40.0525 17.3712
40.0999 17.2899
40.1474 17.2789
40.1949 17.2178
40.2425 17.1342
40.2899 17.0521
40.3375 17.0336
40.385 17.0255
40.4326 16.9248
40.48 16.8372
40.5277 16.8887
40.5752 16.7787
40.6228 16.6893
40.6703 16.6744
40.718 16.5842
40.7655 16.5614
40.8132 16.5191
40.8607 16.4496
40.9084 16.4513
40.9559 16.3025
41.0036 16.3367
41.0512 16.3011
41.0989 16.2154
41.1465 16.1607
41.1942 16.077
41.242 16.0315
41.2896 15.9982
41.3373 15.9066
41.3849 15.7959
41.4327 15.8582
41.4803 15.7468
41.5281 15.7334
41.5758 15.6112
41.6236 15.5692
41.6712 15.5461
41.7191 15.4766
41.7667 15.4388
41.8146 15.4266
41.8622 15.3091
41.9101 15.3193
41.9578 15.2206
42.0057 15.2154
42.0534 15.1728
42.1013 15.0924
42.149 15.0413
42.1969 14.9889
42.2446 14.9828
42.2925 14.9116
42.3403 14.8062
42.3882 14.7837
42.436 14.7601
42.4839 14.6337
42.5319 14.6646
42.5797 14.6121
42.6277 14.5709
42.6755 14.4666
42.7235 14.4525
42.7713 14.3969
42.8193 14.4426
42.8671 14.2682
42.9152 14.289
42.963 14.2531
43.0111 14.1289
43.0589 14.1372
43.107 14.0232
43.1549 13.9956
43.2029 13.9133
43.2508 13.9147
43.2989 13.8725
43.3468 13.8352
43.3949 13.759
43.4429 13.7242
43.491 13.6979
43.5389 13.6571
43.5871 13.6457
43.635 13.5474
43.6832 13.5245
43.7312 13.4093
43.7793 13.3647
43.8273 13.3397
43.8755 13.2759
43.9237 13.303
43.9717 13.2134
44.0199 13.1846
44.068 13.1524
44.1162 13.0834
44.1642 13.0534
44.2125 12.976
44.2606 12.9729
44.3088 12.8913
44.3569 12.843
44.4052 12.8383
44.4533 12.7872
44.5016 12.7219
44.5497 12.6338
44.598 12.6873
44.6461 12.6089
44.6945 12.563
44.7426 12.5429
44.791 12.4248
44.8391 12.4515
44.8875 12.3775
44.9357 12.2915
44.984 12.2548
45.0322 12.2246
45.0806 12.1798
45.1288 12.1671
45.1773 12.1198
45.2257 12.0438
45.2739 11.9859
45.3224 11.9716
45.3706 11.9784
45.4191 11.8558
45.4673 11.8434
45.5158 11.8247
45.5641 11.7957
45.6126 11.7606
45.6609 11.6821
45.7094 11.5837
45.7577 11.6252
45.8063 11.5535
45.8546 11.5362
45.9031 11.4774
45.9515 11.4305
46.0001 11.3968
46.0484 11.3718
46.097 11.3302
46.1454 11.2913
46.194 11.2906
46.2424 11.2124
46.291 11.1629
46.3395 11.1389
46.3881 11.0692
46.4365 11.0459
46.4852 10.9894
46.5337 10.9676
46.5823 10.9344
46.631 10.8447
46.6795 10.8395
46.7282 10.8155
46.7767 10.7903
46.8254 10.7072
46.8739 10.6841
46.9226 10.6145
46.9712 10.569
47.0199 10.5334
47.0685 10.5367
47.1173 10.5007
47.1658 10.4061
47.2146 10.4023
47.2632 10.3455
47.312 10.3624
47.3606 10.2697
47.4095 10.2317
47.4581 10.2194
47.5069 10.1559
47.5556 10.1111
47.6044 10.0929
47.6531 10.0407
47.702 10.0075
47.7507 9.97334
47.7996 9.91556
47.8483 9.90912
47.8972 9.86301
47.9461 9.83395
47.9948 9.79478
48.0438 9.76125
48.0925 9.74347
48.1415 9.68041
48.1902 9.63394
48.2392 9.6205
48.288 9.60802
48.337 9.57256
48.3858 9.4908
48.4348 9.50392
48.4837 9.44255
48.5327 9.43282
48.5815 9.37516
48.6306 9.36301
48.6795 9.31382
48.7285 9.27023
48.7774 9.25763
48.8265 9.24401
48.8754 9.1991
48.9245 9.14563
48.9734 9.1466
49.0226 9.11677
49.0715 9.02292
49.1206 9.04709
49.1696 8.95192
49.2188 8.97692
49.2679 8.9156
49.3169 8.86355
49.3661 8.83423
49.4151 8.82242
49.4643 8.77741
49.5134 8.7215
49.5626 8.65811
49.6117 8.66006
49.6609 8.62647
49.71 8.63287
49.7592 8.52637
49.8083 8.55517
49.8576 8.48558
49.9067 8.46288
49.956 8.42306
50.0052 8.39046
50.0545 8.34053
50.1036 8.35595
50.153 8.32582
50.2022 8.29143
50.2515 8.25934
50.3007 8.20464
50.3501 8.17568
50.3993 8.15869
50.4487 8.11151
50.498 8.10214
50.5474 8.05034
50.5966 8.02245
50.6461 7.98259
50.6955 7.9828
50.7448 7.94605
50.7943 7.93215
50.8436 7.8532
50.8931 7.83403
50.9424 7.81897
50.9919 7.77021
51.0413 7.76339
51.0908 7.73401
51.1402 7.69869
51.1897 7.68315
51.2391 7.63084
51.2887 7.5981
51.3381 7.56095
51.3877 7.54577
51.4371 7.4792
51.4867 7.47011
51.5362 7.47182
51.5858 7.42316
51.6353 7.36015
51.6849 7.35274
51.7344 7.31935
51.7841 7.30812
51.8336 7.28996
51.8833 7.2578
51.9328 7.17444
51.9826 7.15783
52.0323 7.11601
52.0818 7.11218
52.1316 7.07007
52.1812 7.07816
52.231 7.0587
52.2806 6.99868
52.3304 6.95652
52.38 6.9364
52.4298 6.87351
52.4794 6.90661
52.5293 6.84435
52.5789 6.81438
52.6288 6.82461
52.6785 6.7651
52.7284 6.76197
52.7781 6.72649
52.828 6.71167
52.8777 6.63086
52.9276 6.6198
52.9774 6.60842
53.0273 6.57769
53.0771 6.5707
53.1271 6.53463
53.1769 6.497
53.2269 6.47428
53.2767 6.43719
53.3267 6.44895
53.3765 6.3825
53.4266 6.36954
53.4766 6.31423
53.5265 6.30022
53.5765 6.26514
53.6264 6.28267
53.6765 6.2095
53.7264 6.21629
53.7765 6.16392
53.8265 6.11172
53.8766 6.09027
53.9266 6.05203
53.9767 6.11618
54.0267 6.00024
54.0769 5.9924
54.1269 5.9689
54.1771 5.9686
54.2271 5.93568
54.2773 5.83953
54.3274 5.88603
54.3776 5.81432
54.4277 5.81095
54.478 5.73689
54.528 5.75452
54.5783 5.66965
54.6285 5.63899
54.6788 5.6573
54.7289 5.58181
54.7792 5.53289
54.8296 5.47241
54.8798 5.43876
54.9301 5.41004
54.9803 5.34666
55.0307 5.34957
55.0809 5.28693
55.1314 5.23127
55.1816 5.20492
55.232 5.18987
55.2823 5.19806
55.3328 5.09446
55.383 5.013
55.4335 4.98957
55.4838 4.95251
55.5344 4.92628
55.5847 4.85019
55.6352 4.85109
55.6856 4.81254
55.7361 4.74332