File: XRD/Ni3Fe_FD0033.xy
TT I
1.27165 32.923
1.31627 32.1928
1.36089 30.6048
1.40551 28.8775
1.45013 27.9209
1.49476 26.5642
1.53938 26.1684
1.584 25.3697
1.62863 24.0673
1.67325 23.9123
1.71787 23.2492
1.7625 22.8464
1.80712 22.087
1.85174 22.6344
1.89636 22.0275
1.94099 22.9034
1.98562 21.8709
2.03025 22.5074
2.07487 22.3543
2.11949 23.0905
2.16411 24.3273
2.20874 25.0042
2.25338 25.2833
2.298 25.4559
2.34263 24.6885
2.38725 23.9579
2.43188 23.9632
2.4765 24.4688
2.52115 23.3265
2.56577 24.5793
2.6104 25.1332
2.65503 25.4087
2.69965 27.2435
2.7443 29.5133
2.78893 31.28
2.83356 33.5495
2.87818 37.4571
2.92281 42.0281
2.96744 47.5594
3.01209 55.7513
3.05672 64.4554
3.10135 74.5353
3.14599 79.6128
3.19062 79.3998
3.23527 72.3362
3.2799 61.9424
3.32454 51.0846
3.36917 43.4446
3.4138 38.666
3.45844 35.7313
3.50309 34.8788
3.54773 34.7931
3.59237 36.608
3.637 39.1276
3.68164 39.6313
3.7263 38.6551
3.77094 35.4632
3.81558 33.2386
3.86022 32.4759
3.90486 32.353
3.9495 32.9494
3.99416 33.6614
4.0388 35.8645
4.08344 38.9049
4.12809 42.9543
4.17273 50.817
4.21738 62.9976
4.26204 76.387
4.30669 82.9114
4.35133 76.5013
4.39598 65.1099
4.44063 58.0884
4.4853 55.1513
4.52995 50.5683
4.5746 47.224
4.61925 45.9802
4.6639 44.481
4.70855 45.5106
4.75322 46.8265
4.79788 49.2902
4.84253 52.5386
4.88719 57.1103
4.93184 63.0418
4.97652 72.3655
5.02118 89.0386
5.06583 114.015
5.11049 140.794
5.15515 191.283
5.19981 298.297
5.24449 627.338
5.28916 1317.26
5.33382 3477.43
5.37848 3503.15
5.42315 1011.72
5.46783 342.206
5.5125 206.43
5.55716 154.314
5.60183 126.225
5.6465 113.148
5.69117 107.404
5.73586 101.221
5.78053 97.3536
5.8252 98.092
5.86988 103.336
5.91455 114.001
5.95924 134.536
6.00392 181.748
6.0486 293.904
6.09328 501.385
6.13795 897.946
6.18263 1278.41
6.22733 673.833
6.27201 279.05
6.3167 154.453
6.36138 104.625
6.40606 81.4472
6.45075 69.7326
6.49545 61.9114
6.54014 57.0283
6.58483 54.9629
6.62952 54.6666
6.67421 55.4971
6.71892 56.9798
6.76361 56.5909
6.8083 52.9767
6.853 49.3494
6.89769 46.3035
6.94239 44.4586
6.98711 42.0851
7.03181 42.2019
7.07651 42.7595
7.12121 43.3075
7.16591 45.5827
7.21063 49.5629
7.25533 56.5564
7.30004 68.0618
7.34475 72.0811
7.38945 63.4486
7.43416 53.3771
7.47889 48.6082
7.5236 53.6765
7.56831 104.436
7.61303 149.929
7.65774 68.2122
7.70247 43.8677
7.74719 39.6309
7.79191 38.3615
7.83663 37.4809
7.88135 37.9919
7.92607 37.9376
7.97081 38.0309
8.01553 38.6935
8.06026 39.6907
8.10498 40.4542
8.14971 41.9646
8.19446 43.4333
8.23919 45.2954
8.28392 47.1319
8.32865 48.9285
8.37339 52.9771
8.41812 58.2279
8.46288 67.4613
8.50761 81.7287
8.55235 113.486
8.59709 175.398
8.64183 237.003
8.68658 443.476
8.73134 786.823
8.77609 558.399
8.82083 233.682
8.86558 124.109
8.91033 91.3886
8.9551 77.3854
8.99985 70.7539
9.04461 65.2794
9.08936 61.9757
9.13412 60.5573
9.17888 62.0622
9.22365 71.4595
9.26841 143.972
9.31318 261.015
9.35794 135.323
9.4027 68.4805
9.44749 57.9783
9.49226 54.702
9.53703 53.5244
9.5818 53.7772
9.62657 53.9112
9.67134 54.8454
9.71614 56.7269
9.76091 57.4443
9.80569 59.6854
9.85047 62.4058
9.89525 67.0951
9.94005 73.5029
9.98484 85.0311
10.0296 108.473
10.0744 153.405
10.1192 195.276
10.164 275.938
10.2088 568.468
10.2536 800.899
10.2984 457.836
10.3432 206.046
10.388 119.904
10.4328 91.9779
10.4776 84.3923
10.5224 89.0329
10.5672 95.1632
10.612 108.301
10.6568 176.423
10.7017 281.353
10.7465 237.728
10.7913 124.232
10.8361 69.4755
10.8809 55.0914
10.9257 49.5178
10.9706 47.3823
11.0154 45.7555
11.0602 44.7087
11.105 43.8417
11.1499 43.0953
11.1947 43.2529
11.2395 43.09
11.2844 42.7277
11.3292 41.6886
11.374 40.2278
11.4189 39.7309
11.4637 38.7843
11.5086 38.4257
11.5534 38.749
11.5983 38.6243
11.6431 38.4165
11.688 37.6969
11.7328 37.5711
11.7777 37.6922
11.8225 37.5541
11.8674 38.4671
11.9122 40.5715
11.9571 49.1187
12.002 80.366
12.0468 88.9151
12.0917 56.9614
12.1366 47.3012
12.1814 48.6789
12.2263 51.0299
12.2712 58.6506
12.3161 76.7389
12.3609 95.6369
12.4058 83.0229
12.4507 59.4196
12.4956 48.8377
12.5405 43.9157
12.5853 42.0219
12.6302 41.3755
12.6751 41.8824
12.72 42.3574
12.7649 42.0027
12.8098 40.6148
12.8547 40.2883
12.8996 40.3464
12.9445 40.3984
12.9894 41.108
13.0343 41.7416
13.0792 44.038
13.1242 49.0084
13.1691 60.0307
13.214 63.834
13.2589 67.0904
13.3038 71.8346
13.3487 79.3599
13.3937 105.823
13.4386 168.106
13.4835 218.992
13.5285 168.222
13.5734 109.67
13.6183 88.5921
13.6633 81.203
13.7082 84.7635
13.7531 111.461
13.7981 176.233
13.843 199.706
13.888 130.339
13.9329 76.8937
13.9779 58.3071
14.0228 50.8296
14.0678 47.2872
14.1127 46.6445
14.1577 50.8453
14.2027 72.4676
14.2476 87.4716
14.2926 63.3415
14.3376 46.4674
14.3825 42.0698
14.4275 40.5675
14.4725 40.052
14.5175 39.3554
14.5624 39.1697
14.6074 39.2025
14.6524 39.4828
14.6974 39.6826
14.7424 40.0732
14.7874 40.4951
14.8324 42.0314
14.8774 45.3789
14.9224 49.4796
14.9674 50.939
15.0124 54.1937
15.0574 65.2221
15.1024 90.7244
15.1474 121.97
15.1924 112.53
15.2374 77.4159
15.2824 56.5949
15.3274 47.5754
15.3725 43.6212
15.4175 41.646
15.4625 40.5281
15.5076 39.9992
15.5526 39.6552
15.5976 39.3747
15.6426 39.1163
15.6877 39.679
15.7327 40.6524
15.7778 43.0679
15.8228 46.6733
15.8679 48.583
15.9129 50.2493
15.958 57.0226
16.003 73.6314
16.0481 104.975
16.0931 120.501
16.1382 100.09
16.1833 73.1109
16.2283 52.1015
16.2734 42.9452
16.3185 39.2153
16.3636 37.2983
16.4086 36.0221
16.4537 35.1986
16.4988 34.2614
16.5439 33.8338
16.589 33.4039
16.6341 32.999
16.6792 32.5167
16.7243 32.5994
16.7694 32.5324
16.8145 32.551
16.8596 32.6502
16.9047 33.031
16.9498 34.3084
16.9949 37.9751
17.04 40.4893
17.0851 37.9051
17.1302 34.6148
17.1754 33.9926
17.2205 34.5332
17.2656 35.115
17.3108 35.328
17.3559 35.8799
17.401 38.0032
17.4462 42.3377
17.4913 49.0924
17.5365 50.2609
17.5815 44.131
17.6268 38.8373
17.6718 36.5854
17.7171 35.9307
17.7622 36.1948
17.8074 38.0022
17.8525 41.5818
17.8977 42.5728
17.9428 40.372
17.9881 40.4763
18.0331 42.4355
18.0784 43.3938
18.1237 44.1461
18.1688 47.0351
18.214 54.9711
18.2591 71.1544
18.3044 92.9733
18.3495 93.3971
18.3948 72.3105
18.4399 57.8243
18.4852 55.2051
18.5303 62.334
18.5756 70.7643
18.6207 68.2996
18.666 56.9713
18.7112 47.0477
18.7565 40.72
18.8016 37.8246
18.8469 36.5541
18.892 35.8128
18.9374 35.0647
18.9825 34.6183
19.0278 34.3783
19.073 34.4193
19.1183 34.1436
19.1635 34.0926
19.2088 34.6487
19.254 35.2563
19.2993 35.9104
19.3447 37.5377
19.3898 41.5111
19.4352 46.6543
19.4804 46.8455
19.5257 45.1284
19.5709 46.9928
19.6163 47.3301
19.6615 42.7163
19.7068 37.492
19.752 35.0351
19.7974 33.4052
19.8426 32.9464
19.888 32.4401
19.9332 32.501
19.9786 32.8441
20.0238 33.0975
20.0692 33.2525
20.1144 33.2306
20.1598 34.278
20.205 35.7654
20.2504 39.3155
20.2957 43.9454
20.3411 45.7076
20.3863 42.678
20.4318 39.1301
20.477 38.9239
20.5224 41.7322
20.5677 43.6786
20.6131 40.7407
20.6586 35.9475
20.7038 33.402
20.7493 31.7395
20.7945 31.6057
20.84 32.6616
20.8853 33.774
20.9307 33.3854
20.976 31.3137
21.0215 29.9544
21.0668 29.7014
21.1122 29.4895
21.1575 29.4219
21.203 29.3305
21.2483 29.2602
21.2938 29.5377
21.3391 29.5409
21.3846 29.9834
21.4299 30.9732
21.4754 32.2191
21.5207 32.445
21.5662 31.8812
21.6116 30.8958
21.6571 30.0768
21.7024 30.0119
21.7479 30.2209
21.7933 30.8097
21.8388 31.0545
21.8843 31.4369
21.9297 31.7241
21.9752 32.7376
22.0206 34.6269
22.0661 37.5184
22.1115 42.097
22.157 45.7105
22.2024 45.3428
22.248 42.0362
22.2933 40.0622
22.3389 38.9725
22.3843 38.3006
22.4299 36.2464
22.4753 33.708
22.5208 32.1633
22.5662 31.1269
22.6118 30.7625
22.6572 30.4101
22.7028 30.125
22.7483 30.1005
22.7939 30.4076
22.8393 31.1646
22.8849 32.0229
22.9303 32.3236
22.9759 31.8876
23.0214 31.5926
23.067 32.1266
23.1126 33.2768
23.1581 35.9384
23.2037 39.643
23.2492 40.8504
23.2948 38.1364
23.3403 34.4511
23.3859 32.7092
23.4314 32.1863
23.477 32.7937
23.5225 33.773
23.5682 33.8852
23.6137 33.3204
23.6593 32.5381
23.7048 33.1176
23.7505 34.886
23.796 38.2114
23.8417 41.5668
23.8872 40.9875
23.9329 36.783
23.9784 32.9684
24.0241 30.7902
24.0697 29.8226
24.1154 29.3409
24.1609 29.096
24.2066 28.7346
24.2522 28.154
24.2979 27.7198
24.3434 27.2893
24.3892 27.3038
24.4349 27.0934
24.4805 26.9332
24.5262 26.8877
24.5718 26.8485
24.6175 26.715
24.6631 26.992
24.7089 27.3314
24.7545 27.8821
24.8002 28.1208
24.8458 27.8102
24.8916 27.1271
24.9372 26.7858
24.983 26.6585
25.0286 26.5159
25.0744 26.4741
25.12 26.4305
25.1658 26.6167
25.2114 26.7949
25.2572 27.0381
25.3029 27.5177
25.3487 28.1364
25.3943 28.9995
25.4402 29.4303
25.4858 29.5811
25.5316 29.6649
25.5773 30.1947
25.6231 31.0634
25.669 30.609
25.7147 29.0298
25.7605 27.551
25.8062 26.8294
25.8521 26.5501
25.8977 26.5389
25.9436 26.8475
25.9893 26.6412
26.0352 26.2317
26.0809 25.7882
26.1268 25.771
26.1725 25.7682
26.2184 25.991
26.2641 26.2907
26.31 26.964
26.3557 27.8485
26.4017 28.0426
26.4474 27.7619
26.4933 27.0268
26.5391 26.5439
26.585 26.2222
26.6308 26.2092
26.6767 26.0312
26.7225 26.1022
26.7684 26.4608
26.8142 26.8978
26.8601 27.6195
26.9059 28.8473
26.9519 29.4955
26.9979 29.5824
27.0437 28.9556
27.0896 28.4879
27.1354 28.0946
27.1814 27.0419
27.2272 26.1027
27.2732 25.6325
27.3191 25.2486
27.3651 25.0534
27.4109 24.9431
27.4569 24.8333
27.5027 24.8077
27.5488 24.784
27.5946 24.8811
27.6407 24.8899
27.6865 24.8959
27.7326 24.8996
27.7784 25.2718
27.8245 25.4723
27.8703 25.5548
27.9164 25.4176
27.9623 24.9655
28.0084 24.8594
28.0543 24.9691
28.1003 25.3059
28.1462 25.5535
28.1923 25.7288
28.2384 25.6337
28.2843 26.0701
28.3304 27.0279
28.3764 27.4623
28.4225 27.2119
28.4684 26.7125
28.5145 26.2043
28.5605 25.9038
28.6066 25.4264
28.6526 24.7249
28.6987 24.343
28.7447 23.8626
28.7908 23.4935
28.8368 23.2495
28.8829 23.1821
28.9289 22.8933
28.9751 22.9414
29.0211 22.858
29.0673 22.8403
29.1133 22.9024
29.1595 23.0589
29.2055 23.2773
29.2517 23.2631
29.2977 22.8411
29.3439 22.5367
29.3899 22.3094
29.4361 22.1668
29.4824 22.11
29.5284 22.1896
29.5746 22.014
29.6207 22.118
29.6669 22.481
29.713 22.5669
29.7593 22.514
29.8053 22.3158
29.8516 21.8738
29.8977 21.6992
29.9439 21.5446
29.99 21.3395
30.0363 21.3498
30.0824 21.3574
30.1287 21.3919
30.1748 21.4519
30.2211 21.4179
30.2673 21.2557
30.3136 21.1921
30.3597 21.1568
30.406 21.2006
30.4522 21.172
30.4985 21.2357
30.5447 21.3357
30.591 21.4031
30.6372 21.2497
30.6835 21.1017
30.7297 20.9839
30.7761 21.051
30.8224 21.0074
30.8686 21.1559
30.915 21.2723
30.9612 21.6888
31.0076 21.8945
31.0538 22.1484
31.1002 22.1614
31.1464 21.8923
31.1928 21.7705
31.2391 21.514
31.2855 21.1539
31.3317 20.9882
31.3781 20.7272
31.4244 20.6526
31.4708 20.4467
31.5171 20.471
31.5636 20.4525
31.6098 20.524
31.6563 20.5368
31.7026 20.6375
31.7491 20.7491
31.7953 20.9397
31.8418 21.1048
31.8881 20.9911
31.9346 20.6901
31.9809 20.3841
32.0275 20.1839
32.074 20.2656
32.1203 20.1815
32.1668 20.2764
32.2132 20.3017
32.2597 20.4802
32.306 20.5542
32.3526 20.444
32.399 20.251
32.4455 20.0838
32.4919 19.8295
32.5385 19.6496
32.5848 19.4925
32.6314 19.3402
32.6778 19.3016
32.7244 19.1137
32.7708 18.9759
32.8174 18.9168
32.8638 18.7914
32.9104 18.8788
32.9569 18.8273
33.0035 18.812
33.0499 18.8203
33.0966 18.8001
33.143 18.7731
33.1897 18.6136
33.2361 18.5457
33.2828 18.516
33.3293 18.4071
33.3759 18.4923
33.4226 18.5822
33.4691 18.6103
33.5158 18.7467
33.5623 18.7433
33.609 18.6648
33.6555 18.6014
33.7022 18.5362
33.7487 18.3823
33.7954 18.2333
33.842 17.9537
33.8887 17.8757
33.9353 17.8614
33.982 17.7162
34.0286 17.6949
34.0753 17.654
34.1219 17.5992
34.1687 17.6672
34.2152 17.5994
34.262 17.5182
34.3086 17.4363
34.3554 17.4023
34.402 17.2535
34.4488 17.2
34.4954 17.1948
34.5422 17.1244
34.5889 17.0551
34.6357 16.9928
34.6825 16.9991
34.7292 16.9688
34.776 16.8471
34.8227 16.7995
34.8695 16.6906
34.9162 16.7085
34.9631 16.5128
35.0098 16.4958
35.0566 16.4365
35.1033 16.3422
35.1502 16.3877
35.1969 16.3975
35.2438 16.3896
35.2906 16.3627
35.3375 16.2375
35.3842 16.3569
35.4311 16.3165
35.4779 16.2059
35.5248 16.227
35.5716 16.163
35.6185 16.1648
35.6653 16.2803
35.7123 16.2286
35.759 16.3507
35.806 16.3632
35.8528 16.3686
35.8998 16.356
35.9468 16.1847
35.9936 16.1195
36.0406 16.052
36.0874 15.9444
36.1345 15.7844
36.1813 15.7224
36.2283 15.6351
36.2752 15.5937
36.3222 15.586
36.3691 15.5156
36.4161 15.4245
36.463 15.4897
36.5101 15.5005
36.557 15.553
36.6041 15.3923
36.651 15.3674
36.6981 15.3335
36.745 15.2246
36.7921 15.1514
36.839 15.1122
36.8861 15.1246
36.9331 15.1119
36.9802 15.0877
37.0272 15.1229
37.0743 14.9515
37.1213 14.9728
37.1684 14.9139
37.2154 14.8139
37.2626 14.6968
37.3098 14.6415
37.3568 14.5849
37.404 14.5772
37.451 14.4672
37.4982 14.414
37.5452 14.3888
37.5924 14.3593
37.6395 14.379
37.6867 14.2834
37.7337 14.1722
37.781 14.2036
37.8281 14.1921
37.8753 14.0434
37.9224 14.0353
37.9697 14.0247
38.0168 13.9892
38.064 13.9271
38.1111 13.9186
38.1584 13.898
38.2056 13.8611
38.2529 13.7476
38.3 13.682
38.3473 13.6557
38.3945 13.6192
38.4418 13.5122
38.489 13.5187
38.5363 13.487
38.5837 13.4526
38.6309 13.4167
38.6782 13.4074
38.7254 13.3115
38.7728 13.298
38.82 13.2467
38.8674 13.2105
38.9146 13.1271
38.9621 13.1749
39.0093 13.1591
39.0567 13.1521
39.104 13.1152
39.1514 13.0576
39.1987 12.9712
39.2461 12.9306
39.2934 12.8627
39.3409 12.8431
39.3882 12.7875
39.4356 12.7147
39.483 12.6601
39.5304 12.6983
39.5778 12.6191
39.6253 12.5972
39.6726 12.5152
39.7201 12.4878
39.7675 12.4836
39.815 12.4534
39.8624 12.3869
39.9099 12.4021
39.9575 12.3402
40.0049 12.3126
40.0525 12.3183
40.0999 12.2498
40.1474 12.2613
40.1949 12.1956
40.2425 12.159
40.2899 12.1463
40.3375 12.1365
40.385 12.0747
40.4326 12.0154
40.48 11.9084
40.5277 11.9925
40.5752 11.9368
40.6228 11.9096
40.6703 11.8039
40.718 11.8319
40.7655 11.7851
40.8132 11.7441
40.8607 11.7321
40.9084 11.6377
40.9559 11.6172
41.0036 11.5918
41.0512 11.6111
41.0989 11.5705
41.1465 11.4972
41.1942 11.4753
41.242 11.4816
41.2896 11.4183
41.3373 11.3564
41.3849 11.3192
41.4327 11.2923
41.4803 11.2486
41.5281 11.1779
41.5758 11.1252
41.6236 11.1084
41.6712 11.1354
41.7191 11.0213
41.7667 10.9947
41.8146 10.9924
41.8622 10.9261
41.9101 10.9477
41.9578 10.8702
42.0057 10.8451
42.0534 10.8373
42.1013 10.798
42.149 10.7905
42.1969 10.7758
42.2446 10.7228
42.2925 10.6424
42.3403 10.6364
42.3882 10.6077
42.436 10.556
42.4839 10.5179
42.5319 10.4685
42.5797 10.3906
42.6277 10.3776
42.6755 10.3507
42.7235 10.3568
42.7713 10.2895
42.8193 10.2168
42.8671 10.2514
42.9152 10.1488
42.963 10.1721
43.0111 10.0953
43.0589 10.0927
43.107 10.0172
43.1549 10.0722
43.2029 9.98894
43.2508 9.95213
43.2989 9.90123
43.3468 9.83327
43.3949 9.8017
43.4429 9.81359
43.491 9.73821
43.5389 9.72923
43.5871 9.67019
43.635 9.68832
43.6832 9.65842
43.7312 9.66769
43.7793 9.58883
43.8273 9.56385
43.8755 9.51348
43.9237 9.50161
43.9717 9.47979
44.0199 9.42674
44.068 9.41142
44.1162 9.39003
44.1642 9.35449
44.2125 9.33291
44.2606 9.27286
44.3088 9.24139
44.3569 9.24107
44.4052 9.19356
44.4533 9.13362
44.5016 9.13645
44.5497 9.13156
44.598 9.08586
44.6461 9.05631
44.6945 9.01796
44.7426 8.9876
44.791 8.91834
44.8391 8.8927
44.8875 8.91712
44.9357 8.88844
44.984 8.83319
45.0322 8.795
45.0806 8.78238
45.1288 8.7538
45.1773 8.7289
45.2257 8.64433
45.2739 8.64456
45.3224 8.6544
45.3706 8.61465
45.4191 8.56497
45.4673 8.53863
45.5158 8.50856
45.5641 8.48969
45.6126 8.46172
45.6609 8.44756
45.7094 8.43083
45.7577 8.34881
45.8063 8.3843
45.8546 8.32215
45.9031 8.32286
45.9515 8.26062
46.0001 8.24893
46.0484 8.22185
46.097 8.20388
46.1454 8.12903
46.194 8.12355
46.2424 8.10188
46.291 8.06405
46.3395 8.03664
46.3881 8.00475
46.4365 8.01797
46.4852 7.93955
46.5337 7.96295
46.5823 7.93409
46.631 7.874
46.6795 7.85811
46.7282 7.81523
46.7767 7.78543
46.8254 7.72447
46.8739 7.74537
46.9226 7.70154
46.9712 7.68403
47.0199 7.66521
47.0685 7.64183
47.1173 7.59196
47.1658 7.55824
47.2146 7.53514
47.2632 7.5021
47.312 7.46365
47.3606 7.4394
47.4095 7.40828
47.4581 7.43572
47.5069 7.39282
47.5556 7.3724
47.6044 7.2985
47.6531 7.31047
47.702 7.27491
47.7507 7.25514
47.7996 7.19286
47.8483 7.21903
47.8972 7.20832
47.9461 7.15267
47.9948 7.11346
48.0438 7.13475
48.0925 7.08525
48.1415 7.03244
48.1902 7.05386
48.2392 7.01714
48.288 6.99049
48.337 6.95883
48.3858 6.91253
48.4348 6.9162
48.4837 6.89182
48.5327 6.89824
48.5815 6.83381
48.6306 6.81846
48.6795 6.80346
48.7285 6.75879
48.7774 6.73671
48.8265 6.72065
48.8754 6.71685
48.9245 6.67468
48.9734 6.63332
49.0226 6.59115
49.0715 6.59342
49.1206 6.55333
49.1696 6.56705
49.2188 6.50196
49.2679 6.48443
49.3169 6.47747
49.3661 6.4277
49.4151 6.43631
49.4643 6.40695
49.5134 6.38787
49.5626 6.34765
49.6117 6.33807
49.6609 6.26613
49.71 6.2735
49.7592 6.27366
49.8083 6.25841
49.8576 6.20178
49.9067 6.18844
49.956 6.16525
50.0052 6.17384
50.0545 6.14567
50.1036 6.10072
50.153 6.09378
50.2022 6.08123
50.2515 6.02238
50.3007 6.03165
50.3501 6.00254
50.3993 5.98661
50.4487 5.9731
50.498 5.92179
50.5474 5.92763
50.5966 5.91525
50.6461 5.84743
50.6955 5.85745
50.7448 5.83934
50.7943 5.81234
50.8436 5.79392
50.8931 5.77615
50.9424 5.75971
50.9919 5.71393
51.0413 5.70691
51.0908 5.67732
51.1402 5.67316
51.1897 5.6701
51.2391 5.63193
51.2887 5.60711
51.3381 5.57903
51.3877 5.55462
51.4371 5.53245
51.4867 5.515
51.5362 5.4945
51.5858 5.45253
51.6353 5.43676
51.6849 5.41269
51.7344 5.4066
51.7841 5.40682
51.8336 5.33817
51.8833 5.35046
51.9328 5.32139
51.9826 5.29282
52.0323 5.26798
52.0818 5.25657
52.1316 5.18936
52.1812 5.21767
52.231 5.1718
52.2806 5.16619
52.3304 5.15428
52.38 5.16234
52.4298 5.13624
52.4794 5.08604
52.5293 5.05919
52.5789 5.01853
52.6288 5.0117
52.6785 4.97434
52.7284 4.98037
52.7781 4.96339
52.828 4.95976
52.8777 4.92336
52.9276 4.90613
52.9774 4.89141
53.0273 4.85516
53.0771 4.84624
53.1271 4.8435
53.1769 4.77766
53.2269 4.78909
53.2767 4.77484
53.3267 4.75999
53.3765 4.68844
53.4266 4.72702
53.4766 4.7072
53.5265 4.67331
53.5765 4.67666
53.6264 4.65261
53.6765 4.63968
53.7264 4.58071
53.7765 4.58492
53.8265 4.52525
53.8766 4.53705
53.9266 4.50742
53.9767 4.47709
54.0267 4.45944
54.0769 4.44473
54.1269 4.436
54.1771 4.39523
54.2271 4.36817
54.2773 4.34313
54.3274 4.33845
54.3776 4.30184
54.4277 4.30206
54.478 4.24262
54.528 4.15122
54.5783 4.14659
54.6285 4.07522
54.6788 4.08382
54.7289 4.03155
54.7792 4.0952
54.8296 4.00875
54.8798 4.02306
54.9301 3.97084
54.9803 3.94897
55.0307 3.92398
55.0809 3.8701
55.1314 3.87838
55.1816 3.82504
55.232 3.77711
55.2823 3.76063
55.3328 3.69414
55.383 3.59567
55.4335 3.58328
55.4838 3.56899
55.5344 3.52188
55.5847 3.50221
55.6352 3.51734
55.6856 3.49128
55.7361 3.42709