File: XRD/Ni3Fe_FD0454.xy
TT I
1.27165 7.4821
1.31627 6.78564
1.36089 6.56034
1.40551 5.58424
1.45013 6.39104
1.49476 6.64209
1.53938 5.93713
1.584 5.24255
1.62863 5.64065
1.67325 4.53572
1.71787 4.96244
1.7625 5.02726
1.80712 4.55843
1.85174 4.60983
1.89636 4.5675
1.94099 4.86453
1.98562 4.87251
2.03025 4.07427
2.07487 4.65224
2.11949 4.78879
2.16411 4.53586
2.20874 10.3543
2.25338 15.9346
2.298 5.65474
2.34263 4.99828
2.38725 5.16198
2.43188 5.5208
2.4765 6.44112
2.52115 6.30307
2.56577 7.48295
2.6104 8.34177
2.65503 7.80726
2.69965 7.71238
2.7443 7.47925
2.78893 8.34204
2.83356 8.2705
2.87818 8.56908
2.92281 9.01382
2.96744 9.50157
3.01209 10.1943
3.05672 10.9966
3.10135 12.1264
3.14599 12.765
3.19062 13.7645
3.23527 15.3721
3.2799 15.502
3.32454 16.9077
3.36917 17.9154
3.4138 19.0107
3.45844 19.5998
3.50309 20.9103
3.54773 22.1707
3.59237 23.7194
3.637 65.5047
3.68164 43.7824
3.7263 25.9768
3.77094 25.9698
3.81558 27.1444
3.86022 27.4959
3.90486 29.2875
3.9495 29.7722
3.99416 31.0014
4.0388 32.7548
4.08344 34.0844
4.12809 34.9649
4.17273 36.7253
4.21738 41.3502
4.26204 165.763
4.30669 141.944
4.35133 46.0345
4.39598 44.3091
4.44063 51.2485
4.4853 58.4236
4.52995 52.3354
4.5746 52.6879
4.61925 54.3854
4.6639 56.8321
4.70855 58.9982
4.75322 62.2902
4.79788 65.4341
4.84253 68.717
4.88719 73.3318
4.93184 76.8201
4.97652 83.0594
5.02118 90.4512
5.06583 98.1951
5.11049 111.583
5.15515 169.232
5.19981 510.174
5.24449 3444.35
5.28916 11800.8
5.33382 3003.05
5.37848 203.162
5.42315 134.169
5.46783 118.097
5.5125 109.258
5.55716 104.35
5.60183 100.345
5.6465 98.167
5.69117 96.6761
5.73586 94.5425
5.78053 95.1646
5.8252 94.6125
5.86988 96.0303
5.91455 98.9225
5.95924 111.433
6.00392 282.949
6.0486 1188.65
6.09328 4240.24
6.13795 3371.03
6.18263 267.122
6.22733 96.7492
6.27201 84.0321
6.3167 92.7303
6.36138 77.7734
6.40606 70.1837
6.45075 68.4729
6.49545 66.5192
6.54014 64.4362
6.58483 63.9974
6.62952 63.3873
6.67421 81.2246
6.71892 109.756
6.76361 65.1594
6.8083 59.1468
6.853 57.8952
6.89769 57.2174
6.94239 56.9704
6.98711 56.5467
7.03181 56.361
7.07651 55.8406
7.12121 55.7188
7.16591 56.073
7.21063 55.4599
7.25533 64.9707
7.30004 127.136
7.34475 76.8064
7.38945 56.2747
7.43416 55.0208
7.47889 55.156
7.5236 55.3981
7.56831 55.8579
7.61303 56.878
7.65774 57.1096
7.70247 57.0737
7.74719 57.2532
7.79191 57.5373
7.83663 57.605
7.88135 58.3317
7.92607 59.4605
7.97081 60.6926
8.01553 61.5981
8.06026 63.28
8.10498 64.6896
8.14971 71.4764
8.19446 71.3723
8.23919 70.9389
8.28392 73.2592
8.32865 76.024
8.37339 80.2012
8.41812 86.822
8.46288 111.286
8.50761 205.364
8.55235 462.267
8.59709 1232.52
8.64183 2119.76
8.68658 989.202
8.73134 172.339
8.77609 101.948
8.82083 94.0895
8.86558 91.9886
8.91033 90.7325
8.9551 90.885
8.99985 86.3264
9.04461 85.0625
9.08936 84.3844
9.13412 83.7489
9.17888 83.0666
9.22365 83.8039
9.26841 83.2024
9.31318 84.678
9.35794 84.5999
9.4027 84.7384
9.44749 85.6537
9.49226 86.3692
9.53703 86.9982
9.5818 89.0505
9.62657 92.772
9.67134 96.95
9.71614 94.9616
9.76091 96.2809
9.80569 98.9358
9.85047 102.362
9.89525 118.609
9.94005 135.407
9.98484 217.074
10.0296 408.062
10.0744 876.774
10.1192 1695.39
10.164 1624.12
10.2088 413.003
10.2536 130.256
10.2984 113.488
10.3432 113.005
10.388 107.948
10.4328 130.894
10.4776 178.366
10.5224 299.653
10.5672 493.948
10.612 498.519
10.6568 203.81
10.7017 97.8681
10.7465 88.034
10.7913 84.2396
10.8361 82.4315
10.8809 80.2541
10.9257 79.2457
10.9706 78.8398
11.0154 75.7962
11.0602 73.6996
11.105 72.6126
11.1499 74.8898
11.1947 78.5526
11.2395 73.1341
11.2844 70.3041
11.3292 68.2918
11.374 67.1656
11.4189 66.6037
11.4637 65.9065
11.5086 66.0793
11.5534 67.4572
11.5983 65.5847
11.6431 64.5815
11.688 63.6962
11.7328 63.8131
11.7777 63.6224
11.8225 63.5739
11.8674 63.4575
11.9122 63.9498
11.9571 64.0674
12.002 65.3743
12.0468 71.8226
12.0917 84.0029
12.1366 108.715
12.1814 155.764
12.2263 203.91
12.2712 172.521
12.3161 93.7716
12.3609 69.601
12.4058 65.4844
12.4507 65.27
12.4956 65.3526
12.5405 65.3596
12.5853 66.2325
12.6302 71.0516
12.6751 74.9698
12.72 69.7518
12.7649 69.0305
12.8098 69.5674
12.8547 70.9451
12.8996 72.5114
12.9445 74.046
12.9894 75.8512
13.0343 77.491
13.0792 81.5959
13.1242 96.2524
13.1691 122.092
13.214 162.782
13.2589 250.237
13.3038 363.382
13.3487 418.461
13.3937 264.675
13.4386 125.443
13.4835 113.752
13.5285 130.501
13.5734 170.692
13.6183 252.338
13.6633 338.27
13.7082 338.139
13.7531 188.892
13.7981 98.0832
13.843 83.2758
13.888 81.1417
13.9329 78.2716
13.9779 77.2781
14.0228 75.7253
14.0678 74.0049
14.1127 73.8513
14.1577 73.3952
14.2027 72.6053
14.2476 71.3993
14.2926 71.6313
14.3376 71.9784
14.3825 71.0768
14.4275 70.0073
14.4725 69.7724
14.5175 70.1844
14.5624 70.3521
14.6074 71.513
14.6524 72.611
14.6974 72.1283
14.7424 75.4436
14.7874 83.8908
14.8324 95.1467
14.8774 117.93
14.9224 157.435
14.9674 202.846
15.0124 216.249
15.0574 149.25
15.1024 91.4265
15.1474 73.4328
15.1924 71.4719
15.2374 71.3061
15.2824 70.5678
15.3274 69.0722
15.3725 67.6133
15.4175 67.5781
15.4625 67.2738
15.5076 67.2902
15.5526 67.2998
15.5976 67.1463
15.6426 69.9226
15.6877 76.3881
15.7327 85.1156
15.7778 101.341
15.8228 130.553
15.8679 168.687
15.9129 192.256
15.958 156.677
16.003 96.9381
16.0481 69.008
16.0931 64.5093
16.1382 62.9346
16.1833 61.3748
16.2283 59.7535
16.2734 59.0795
16.3185 58.9166
16.3636 59.2167
16.4086 58.1525
16.4537 57.0642
16.4988 56.4251
16.5439 56.3471
16.589 56.0207
16.6341 55.8298
16.6792 55.3407
16.7243 55.762
16.7694 55.6693
16.8145 55.5731
16.8596 56.099
16.9047 56.9266
16.9498 56.9724
16.9949 56.4448
17.04 57.0857
17.0851 58.6883
17.1302 60.396
17.1754 63.5695
17.2205 68.5167
17.2656 75.2346
17.3108 81.9109
17.3559 82.6668
17.401 71.7158
17.4462 62.9266
17.4913 60.1369
17.5365 59.9815
17.5815 60.3861
17.6268 60.6684
17.6718 61.439
17.7171 61.7834
17.7622 62.3892
17.8074 63.6748
17.8525 67.0729
17.8977 71.2789
17.9428 77.3024
17.9881 86.5589
18.0331 102.735
18.0784 121.581
18.1237 139.137
18.1688 132.825
18.214 105.311
18.2591 88.4742
18.3044 91.83
18.3495 100.397
18.3948 106.546
18.4399 97.3535
18.4852 78.1627
18.5303 66.8279
18.5756 63.2143
18.6207 62.325
18.666 61.3031
18.7112 60.7245
18.7565 59.897
18.8016 59.6571
18.8469 59.0244
18.892 58.6974
18.9374 58.2057
18.9825 58.0585
19.0278 57.959
19.073 58.1574
19.1183 58.7154
19.1635 59.2778
19.2088 61.1077
19.254 63.6396
19.2993 67.7605
19.3447 72.8578
19.3898 76.6851
19.4352 73.2769
19.4804 63.9571
19.5257 57.1192
19.5709 55.0664
19.6163 54.8532
19.6615 54.5694
19.7068 54.2352
19.752 54.2715
19.7974 54.9094
19.8426 55.6039
19.888 56.2832
19.9332 57.8119
19.9786 60.4236
20.0238 63.8001
20.0692 68.1
20.1144 70.9407
20.1598 69.4388
20.205 64.7486
20.2504 63.0069
20.2957 64.4502
20.3411 66.1288
20.3863 64.7187
20.4318 58.9195
20.477 54.5078
20.5224 52.2215
20.5677 51.5427
20.6131 51.2107
20.6586 50.5459
20.7038 50.3135
20.7493 49.7835
20.7945 49.7706
20.84 49.6308
20.8853 49.5391
20.9307 49.4288
20.976 49.5848
21.0215 49.3774
21.0668 50.0033
21.1122 50.4798
21.1575 51.1055
21.203 51.5707
21.2483 52.1883
21.2938 52.5143
21.3391 50.9218
21.3846 49.8633
21.4299 49.315
21.4754 49.139
21.5207 49.493
21.5662 49.8676
21.6116 50.4943
21.6571 51.1084
21.7024 52.2439
21.7479 53.8825
21.7933 56.8266
21.8388 59.8574
21.8843 63.2836
21.9297 65.3649
21.9752 64.1341
22.0206 60.4154
22.0661 57.1008
22.1115 56.6268
22.157 56.5126
22.2024 55.212
22.248 52.5087
22.2933 50.6373
22.3389 49.8575
22.3843 49.7068
22.4299 49.5339
22.4753 49.4839
22.5208 49.5129
22.5662 49.2886
22.6118 49.5092
22.6572 49.9019
22.7028 50.2786
22.7483 50.9641
22.7939 51.6226
22.8393 53.1024
22.8849 54.9935
22.9303 56.5738
22.9759 58.3448
23.0214 58.1245
23.067 55.4957
23.1126 52.0025
23.1581 50.103
23.2037 49.716
23.2492 49.7653
23.2948 49.8506
23.3403 50.1374
23.3859 50.8026
23.4314 51.9813
23.477 53.6547
23.5225 55.4991
23.5682 57.381
23.6137 58.5706
23.6593 56.4148
23.7048 52.4118
23.7505 49.0926
23.796 47.3545
23.8417 46.7784
23.8872 46.1409
23.9329 46.1189
23.9784 45.6675
24.0241 45.3811
24.0697 45.1636
24.1154 44.8203
24.1609 44.8096
24.2066 44.4289
24.2522 44.3617
24.2979 44.1665
24.3434 43.9337
24.3892 43.7765
24.4349 43.803
24.4805 43.6306
24.5262 43.7771
24.5718 43.5279
24.6175 43.5455
24.6631 43.5919
24.7089 43.3
24.7545 43.0468
24.8002 42.9785
24.8458 42.9196
24.8916 42.7028
24.9372 42.9847
24.983 43.3226
25.0286 43.6763
25.0744 44.0344
25.12 44.5579
25.1658 45.0959
25.2114 45.3846
25.2572 45.4934
25.3029 45.5291
25.3487 45.5462
25.3943 45.2126
25.4402 44.1279
25.4858 43.0606
25.5316 42.0346
25.5773 41.5437
25.6231 41.6077
25.669 41.2459
25.7147 41.2953
25.7605 41.1652
25.8062 41.1855
25.8521 41.3644
25.8977 41.2836
25.9436 41.5562
25.9893 41.6458
26.0352 42.1884
26.0809 42.1681
26.1268 42.3236
26.1725 42.1618
26.2184 41.5314
26.2641 41.0438
26.31 40.8153
26.3557 40.8652
26.4017 40.8368
26.4474 41.112
26.4933 41.4426
26.5391 41.9046
26.585 42.2529
26.6308 42.6043
26.6767 42.8568
26.7225 42.6273
26.7684 42.0102
26.8142 41.5153
26.8601 41.0012
26.9059 40.6638
26.9519 40.0885
26.9979 39.7788
27.0437 39.5317
27.0896 39.3774
27.1354 39.375
27.1814 39.1905
27.2272 39.0556
27.2732 39.2106
27.3191 38.9061
27.3651 39.1698
27.4109 38.935
27.4569 39.0821
27.5027 39.0849
27.5488 39.1894
27.5946 39.0395
27.6407 38.8224
27.6865 38.7268
27.7326 38.5291
27.7784 38.4986
27.8245 38.5157
27.8703 38.601
27.9164 39.0183
27.9623 39.0155
28.0084 39.2792
28.0543 39.6749
28.1003 39.6497
28.1462 39.4975
28.1923 38.9767
28.2384 38.446
28.2843 38.2142
28.3304 37.7555
28.3764 37.2582
28.4225 37.0618
28.4684 36.7905
28.5145 36.6667
28.5605 36.6023
28.6066 36.2995
28.6526 36.2245
28.6987 36.2361
28.7447 36.2116
28.7908 36.1449
28.8368 36.0197
28.8829 36.0248
28.9289 35.9158
28.9751 35.7028
29.0211 35.5108
29.0673 35.3122
29.1133 35.1651
29.1595 35.0279
29.2055 34.8581
29.2517 34.8323
29.2977 34.8764
29.3439 34.7692
29.3899 34.7755
29.4361 34.6218
29.4824 34.5584
29.5284 34.3413
29.5746 33.9674
29.6207 33.6616
29.6669 33.6102
29.713 33.5147
29.7593 33.4476
29.8053 33.4448
29.8516 33.4882
29.8977 33.2933
29.9439 33.0955
29.99 33.091
30.0363 33.0068
30.0824 33.0872
30.1287 32.9117
30.1748 32.9593
30.2211 32.9201
30.2673 32.7319
30.3136 32.8376
30.3597 32.7863
30.406 32.7347
30.4522 32.6406
30.4985 32.5039
30.5447 32.7107
30.591 32.6428
30.6372 32.7127
30.6835 32.656
30.7297 32.6444
30.7761 32.6173
30.8224 32.5818
30.8686 32.4061
30.915 32.1797
30.9612 32.0222
31.0076 31.8542
31.0538 31.7131
31.1002 31.586
31.1464 31.4788
31.1928 31.3959
31.2391 31.5098
31.2855 31.3168
31.3317 31.3103
31.3781 31.4144
31.4244 31.4803
31.4708 31.3512
31.5171 31.2758
31.5636 31.2657
31.6098 31.0936
31.6563 30.8109
31.7026 30.8069
31.7491 30.6766
31.7953 30.6902
31.8418 30.6093
31.8881 30.6341
31.9346 30.5917
31.9809 30.5528
32.0275 30.357
32.074 30.2185
32.1203 30.1239
32.1668 29.9971
32.2132 29.9096
32.2597 29.7245
32.306 29.6237
32.3526 29.3418
32.399 29.333
32.4455 29.3033
32.4919 29.1549
32.5385 29.1231
32.5848 29.0169
32.6314 28.9985
32.6778 28.9115
32.7244 28.7682
32.7708 28.5845
32.8174 28.5778
32.8638 28.4205
32.9104 28.5626
32.9569 28.3913
33.0035 28.2888
33.0499 28.2917
33.0966 28.2219
33.143 28.2956
33.1897 28.1558
33.2361 28.0304
33.2828 28.1269
33.3293 27.8336
33.3759 27.7736
33.4226 27.6961
33.4691 27.5913
33.5158 27.52
33.5623 27.3472
33.609 27.1621
33.6555 27.1071
33.7022 27.02
33.7487 26.9722
33.7954 26.9336
33.842 26.809
33.8887 26.7346
33.9353 26.664
33.982 26.6087
34.0286 26.5101
34.0753 26.4308
34.1219 26.3498
34.1687 26.2274
34.2152 26.2415
34.262 26.0516
34.3086 25.9415
34.3554 25.911
34.402 25.7469
34.4488 25.7039
34.4954 25.6855
34.5422 25.5844
34.5889 25.4105
34.6357 25.3472
34.6825 25.3802
34.7292 25.2214
34.776 25.2024
34.8227 25.1236
34.8695 25.0491
34.9162 25.0509
34.9631 24.8837
35.0098 24.8837
35.0566 24.6834
35.1033 24.7017
35.1502 24.6998
35.1969 24.536
35.2438 24.6014
35.2906 24.4568
35.3375 24.3883
35.3842 24.3841
35.4311 24.3449
35.4779 24.3465
35.5248 24.226
35.5716 24.149
35.6185 24.0567
35.6653 23.9441
35.7123 23.8485
35.759 23.8488
35.806 23.7741
35.8528 23.5234
35.8998 23.5684
35.9468 23.4148
35.9936 23.4815
36.0406 23.3518
36.0874 23.3772
36.1345 23.2804
36.1813 23.1747
36.2283 23.0584
36.2752 22.9409
36.3222 23.0194
36.3691 22.9322
36.4161 22.8774
36.463 22.8114
36.5101 22.7455
36.557 22.7502
36.6041 22.5075
36.651 22.5358
36.6981 22.4686
36.745 22.3805
36.7921 22.3377
36.839 22.164
36.8861 22.1483
36.9331 22.0557
36.9802 22.0351
37.0272 21.9188
37.0743 21.7992
37.1213 21.8545
37.1684 21.7506
37.2154 21.7104
37.2626 21.586
37.3098 21.5224
37.3568 21.4643
37.404 21.4641
37.451 21.2921
37.4982 21.2326
37.5452 21.1587
37.5924 21.1271
37.6395 21.129
37.6867 21.0532
37.7337 20.9285
37.781 20.8702
37.8281 20.8401
37.8753 20.6682
37.9224 20.6548
37.9697 20.5432
38.0168 20.579
38.064 20.4506
38.1111 20.4161
38.1584 20.2849
38.2056 20.2457
38.2529 20.242
38.3 20.1888
38.3473 20.049
38.3945 20.0418
38.4418 19.9254
38.489 19.9294
38.5363 19.8134
38.5837 19.7513
38.6309 19.6856
38.6782 19.6067
38.7254 19.5671
38.7728 19.5335
38.82 19.389
38.8674 19.3278
38.9146 19.2655
38.9621 19.2639
39.0093 19.2378
39.0567 19.1819
39.104 19.1207
39.1514 19.0358
39.1987 18.9235
39.2461 18.8523
39.2934 18.8714
39.3409 18.7285
39.3882 18.654
39.4356 18.6823
39.483 18.6498
39.5304 18.4953
39.5778 18.5785
39.6253 18.4361
39.6726 18.4314
39.7201 18.3274
39.7675 18.2677
39.815 18.226
39.8624 18.107
39.9099 18.1116
39.9575 17.9988
40.0049 18.0139
40.0525 17.9148
40.0999 17.8916
40.1474 17.7924
40.1949 17.7226
40.2425 17.6322
40.2899 17.6165
40.3375 17.5633
40.385 17.4932
40.4326 17.4736
40.48 17.4075
40.5277 17.3178
40.5752 17.3514
40.6228 17.2134
40.6703 17.2468
40.718 17.1875
40.7655 17.095
40.8132 17.0245
40.8607 17.0263
40.9084 16.8812
40.9559 16.8698
41.0036 16.8523
41.0512 16.7444
41.0989 16.7304
41.1465 16.6658
41.1942 16.6079
41.242 16.5122
41.2896 16.4597
41.3373 16.4104
41.3849 16.3701
41.4327 16.263
41.4803 16.197
41.5281 16.2184
41.5758 16.1253
41.6236 16.151
41.6712 15.9871
41.7191 16.0095
41.7667 15.8923
41.8146 15.9003
41.8622 15.8152
41.9101 15.8211
41.9578 15.6778
42.0057 15.6657
42.0534 15.5996
42.1013 15.5921
42.149 15.5008
42.1969 15.4051
42.2446 15.4156
42.2925 15.3506
42.3403 15.34
42.3882 15.284
42.436 15.2755
42.4839 15.1403
42.5319 15.1058
42.5797 15.0455
42.6277 14.9795
42.6755 14.946
42.7235 14.8713
42.7713 14.8986
42.8193 14.7847
42.8671 14.7846
42.9152 14.6914
42.963 14.6374
43.0111 14.6108
43.0589 14.5276
43.107 14.4502
43.1549 14.4674
43.2029 14.3512
43.2508 14.3357
43.2989 14.3379
43.3468 14.2182
43.3949 14.182
43.4429 14.1468
43.491 14.0854
43.5389 14.0688
43.5871 14.022
43.635 13.955
43.6832 13.925
43.7312 13.8684
43.7793 13.7483
43.8273 13.7638
43.8755 13.7099
43.9237 13.65
43.9717 13.6219
44.0199 13.561
44.068 13.5444
44.1162 13.4555
44.1642 13.4042
44.2125 13.4083
44.2606 13.338
44.3088 13.2631
44.3569 13.2668
44.4052 13.1984
44.4533 13.1389
44.5016 13.0657
44.5497 13.0508
44.598 13.0382
44.6461 12.9934
44.6945 12.9326
44.7426 12.8884
44.791 12.8301
44.8391 12.7794
44.8875 12.7839
44.9357 12.6867
44.984 12.6633
45.0322 12.6294
45.0806 12.5478
45.1288 12.5437
45.1773 12.4583
45.2257 12.4321
45.2739 12.4487
45.3224 12.3653
45.3706 12.3304
45.4191 12.229
45.4673 12.1856
45.5158 12.1794
45.5641 12.1343
45.6126 12.0504
45.6609 12.0223
45.7094 12.0166
45.7577 11.9307
45.8063 11.8517
45.8546 11.8605
45.9031 11.8241
45.9515 11.7852
46.0001 11.729
46.0484 11.6975
46.097 11.7164
46.1454 11.6655
46.194 11.5959
46.2424 11.5347
46.291 11.4934
46.3395 11.4269
46.3881 11.3498
46.4365 11.3752
46.4852 11.3379
46.5337 11.2956
46.5823 11.2657
46.631 11.1623
46.6795 11.1409
46.7282 11.1354
46.7767 11.0751
46.8254 11.0112
46.8739 10.9703
46.9226 10.9249
46.9712 10.912
47.0199 10.8986
47.0685 10.8106
47.1173 10.8045
47.1658 10.7801
47.2146 10.7521
47.2632 10.6671
47.312 10.6593
47.3606 10.5679
47.4095 10.5721
47.4581 10.5335
47.5069 10.4775
47.5556 10.4318
47.6044 10.3775
47.6531 10.3491
47.702 10.3004
47.7507 10.2765
47.7996 10.2367
47.8483 10.1968
47.8972 10.1603
47.9461 10.1411
47.9948 10.1096
48.0438 10.07
48.0925 10.0507
48.1415 9.99803
48.1902 9.91936
48.2392 9.93058
48.288 9.90118
48.337 9.82766
48.3858 9.8105
48.4348 9.80881
48.4837 9.76913
48.5327 9.74307
48.5815 9.65592
48.6306 9.62887
48.6795 9.60715
48.7285 9.54115
48.7774 9.50355
48.8265 9.50186
48.8754 9.41122
48.9245 9.39382
48.9734 9.41328
49.0226 9.38493
49.0715 9.30903
49.1206 9.2912
49.1696 9.26169
49.2188 9.23325
49.2679 9.2048
49.3169 9.12427
49.3661 9.07929
49.4151 9.0539
49.4643 9.02611
49.5134 8.98916
49.5626 8.93765
49.6117 8.92395
49.6609 8.92907
49.71 8.86551
49.7592 8.81752
49.8083 8.7373
49.8576 8.81256
49.9067 8.67887
49.956 8.68034
50.0052 8.65275
50.0545 8.62708
50.1036 8.59328
50.153 8.54429
50.2022 8.55732
50.2515 8.48182
50.3007 8.41561
50.3501 8.44501
50.3993 8.40837
50.4487 8.38366
50.498 8.32797
50.5474 8.29891
50.5966 8.27231
50.6461 8.28066
50.6955 8.19608
50.7448 8.20871
50.7943 8.1513
50.8436 8.1132
50.8931 8.09878
50.9424 8.05189
50.9919 8.00266
51.0413 7.97351
51.0908 7.98184
51.1402 7.9219
51.1897 7.88669
51.2391 7.87884
51.2887 7.84313
51.3381 7.78059
51.3877 7.76958
51.4371 7.70481
51.4867 7.66385
51.5362 7.67918
51.5858 7.60038
51.6353 7.55287
51.6849 7.56144
51.7344 7.54173
51.7841 7.53551
51.8336 7.49111
51.8833 7.4596
51.9328 7.40965
51.9826 7.35583
52.0323 7.32195
52.0818 7.32541
52.1316 7.27954
52.1812 7.29209
52.231 7.26819
52.2806 7.18823
52.3304 7.20781
52.38 7.14568
52.4298 7.08785
52.4794 7.09003
52.5293 7.05656
52.5789 7.04481
52.6288 6.98269
52.6785 6.95584
52.7284 6.94127
52.7781 6.94741
52.828 6.86947
52.8777 6.84538
52.9276 6.82565
52.9774 6.79098
53.0273 6.77789
53.0771 6.76714
53.1271 6.69917
53.1769 6.68697
53.2269 6.6293
53.2767 6.62571
53.3267 6.58518
53.3765 6.6023
53.4266 6.53691
53.4766 6.55501
53.5265 6.47958
53.5765 6.44461
53.6264 6.43563
53.6765 6.39974
53.7264 6.37784
53.7765 6.39262
53.8265 6.32607
53.8766 6.28917
53.9266 6.27355
53.9767 6.21845
54.0267 6.2017
54.0769 6.17652
54.1269 6.14232
54.1771 6.11723
54.2271 6.09177
54.2773 6.04058
54.3274 6.07777
54.3776 5.96744
54.4277 5.95834
54.478 5.94246
54.528 5.87465
54.5783 5.86752
54.6285 5.79435
54.6788 5.74147
54.7289 5.72748
54.7792 5.69086
54.8296 5.62622
54.8798 5.57185
54.9301 5.54175
54.9803 5.5151
55.0307 5.5228
55.0809 5.44362
55.1314 5.4656
55.1816 5.39332
55.232 5.31719
55.2823 5.28291
55.3328 5.23207
55.383 5.21065
55.4335 5.16274
55.4838 5.06406
55.5344 5.02284
55.5847 4.97888
55.6352 4.97489
55.6856 4.93323
55.7361 4.86749