File: XRD/Ni3Fe_FD0145.xy
TT I
1.27165 8.27878
1.31627 7.60761
1.36089 7.45586
1.40551 6.32947
1.45013 6.79091
1.49476 6.48609
1.53938 5.56657
1.584 5.90743
1.62863 5.64153
1.67325 4.9347
1.71787 5.41626
1.7625 5.67223
1.80712 5.15103
1.85174 5.28695
1.89636 5.48028
1.94099 5.18968
1.98562 4.50406
2.03025 5.11446
2.07487 4.54386
2.11949 5.1182
2.16411 4.86388
2.20874 4.56724
2.25338 4.10034
2.298 4.55016
2.34263 4.70837
2.38725 3.50917
2.43188 4.01435
2.4765 4.12783
2.52115 4.77617
2.56577 4.3587
2.6104 5.61496
2.65503 4.91343
2.69965 5.49771
2.7443 6.28889
2.78893 6.76049
2.83356 7.24197
2.87818 7.76511
2.92281 9.18323
2.96744 9.82953
3.01209 10.5717
3.05672 11.2364
3.10135 12.2645
3.14599 13.1595
3.19062 14.0989
3.23527 15.1229
3.2799 15.4332
3.32454 16.799
3.36917 17.7782
3.4138 19.1235
3.45844 19.658
3.50309 20.0182
3.54773 20.6988
3.59237 21.6168
3.637 22.3719
3.68164 23.3978
3.7263 24.1132
3.77094 25.0772
3.81558 25.5781
3.86022 26.4876
3.90486 27.6462
3.9495 28.5248
3.99416 29.5666
4.0388 30.5786
4.08344 31.7935
4.12809 32.9532
4.17273 33.7058
4.21738 35.0338
4.26204 36.2684
4.30669 37.2921
4.35133 39.6876
4.39598 41.0942
4.44063 42.9029
4.4853 44.9279
4.52995 46.7136
4.5746 48.8919
4.61925 51.231
4.6639 53.6748
4.70855 56.3364
4.75322 59.2636
4.79788 62.0142
4.84253 66.1634
4.88719 70.3315
4.93184 75.1153
4.97652 81.9654
5.02118 90.6612
5.06583 101.287
5.11049 117.348
5.15515 155.139
5.19981 553.591
5.24449 3767.14
5.28916 8120.8
5.33382 6374.77
5.37848 459.702
5.42315 163.983
5.46783 127.94
5.5125 113.86
5.55716 107.147
5.60183 102.065
5.6465 99.1226
5.69117 97.2576
5.73586 95.168
5.78053 94.6566
5.8252 95.2718
5.86988 98.1648
5.91455 105.042
5.95924 124.095
6.00392 289.132
6.0486 1381.87
6.09328 2670.21
6.13795 4007.37
6.18263 731.423
6.22733 123.295
6.27201 89.3431
6.3167 78.0924
6.36138 72.595
6.40606 68.3428
6.45075 66.2715
6.49545 63.9897
6.54014 62.2178
6.58483 60.533
6.62952 59.5551
6.67421 58.3166
6.71892 57.5033
6.76361 56.4914
6.8083 55.3855
6.853 54.872
6.89769 54.1581
6.94239 54.1597
6.98711 53.594
7.03181 52.9243
7.07651 52.461
7.12121 52.0244
7.16591 51.9627
7.21063 51.4863
7.25533 51.5666
7.30004 52.0511
7.34475 51.7193
7.38945 52.1327
7.43416 51.3651
7.47889 52.068
7.5236 55.7248
7.56831 63.6492
7.61303 55.2594
7.65774 53.3969
7.70247 53.6454
7.74719 53.8693
7.79191 54.6361
7.83663 54.9182
7.88135 56.153
7.92607 57.0578
7.97081 57.7208
8.01553 58.923
8.06026 60.5772
8.10498 61.75
8.14971 63.4205
8.19446 64.8732
8.23919 68.025
8.28392 70.5128
8.32865 73.0362
8.37339 77.8834
8.41812 83.0952
8.46288 95.3805
8.50761 173.117
8.55235 603.405
8.59709 876.321
8.64183 1461.16
8.68658 1645.35
8.73134 423.064
8.77609 116.442
8.82083 97.2682
8.86558 90.6768
8.91033 87.3408
8.9551 84.8303
8.99985 83.571
9.04461 82.8912
9.08936 81.9962
9.13412 81.1783
9.17888 81.4969
9.22365 87.0913
9.26841 98.0089
9.31318 86.6017
9.35794 82.2303
9.4027 81.9116
9.44749 82.7887
9.49226 83.0227
9.53703 84.0255
9.5818 85.6325
9.62657 86.8563
9.67134 87.9586
9.71614 90.4694
9.76091 92.5818
9.80569 95.2191
9.85047 98.353
9.89525 103.422
9.94005 113.944
9.98484 185.33
10.0296 548.018
10.0744 729.45
10.1192 1015.13
10.164 1642.53
10.2088 996.978
10.2536 221.954
10.2984 116.202
10.3432 107.442
10.388 104.137
10.4328 121.298
10.4776 215.381
10.5224 259.978
10.5672 327.635
10.612 491.998
10.6568 386.173
10.7017 136.188
10.7465 91.1475
10.7913 83.4502
10.8361 80.2834
10.8809 77.5391
10.9257 75.2064
10.9706 74.4174
11.0154 72.5564
11.0602 70.9023
11.105 69.7462
11.1499 68.2562
11.1947 67.2331
11.2395 66.5077
11.2844 65.6444
11.3292 65.1269
11.374 64.2551
11.4189 63.7377
11.4637 63.1019
11.5086 62.2873
11.5534 62.0548
11.5983 61.7669
11.6431 61.9494
11.688 61.261
11.7328 61.3533
11.7777 61.118
11.8225 61.1755
11.8674 61.1568
11.9122 62.0839
11.9571 65.8839
12.002 65.1928
12.0468 67.7561
12.0917 90.3284
12.1366 107.533
12.1814 116.497
12.2263 147.964
12.2712 189.219
12.3161 138.013
12.3609 74.7144
12.4058 63.9787
12.4507 62.9026
12.4956 62.9079
12.5405 62.7998
12.5853 63.3368
12.6302 63.1622
12.6751 64.2627
12.72 64.8072
12.7649 65.9016
12.8098 66.6695
12.8547 67.958
12.8996 69.5714
12.9445 71.0818
12.9894 72.5948
13.0343 74.7413
13.0792 79.0705
13.1242 86.2107
13.1691 132.745
13.214 187.125
13.2589 202.49
13.3038 241.191
13.3487 345.189
13.3937 382.421
13.4386 214.193
13.4835 120.129
13.5285 154.679
13.5734 181.455
13.6183 190.568
13.6633 234.175
13.7082 327.153
13.7531 306.832
13.7981 153.662
13.843 88.2285
13.888 80.6523
13.9329 77.2759
13.9779 75.6579
14.0228 74.4856
14.0678 72.6229
14.1127 72.4379
14.1577 74.0641
14.2027 72.3802
14.2476 70.2669
14.2926 69.1164
14.3376 68.524
14.3825 68.21
14.4275 67.7663
14.4725 67.8193
14.5175 67.8145
14.5624 67.9675
14.6074 68.442
14.6524 68.7688
14.6974 69.3663
14.7424 71.0965
14.7874 80.1022
14.8324 106.71
14.8774 120.606
14.9224 125.559
14.9674 146.096
15.0124 189.239
15.0574 204.944
15.1024 140.634
15.1474 82.3524
15.1924 70.9792
15.2374 68.644
15.2824 67.5137
15.3274 66.5976
15.3725 66.3406
15.4175 65.8307
15.4625 65.319
15.5076 65.1383
15.5526 65.3586
15.5976 65.257
15.6426 66.2813
15.6877 73.6562
15.7327 94.9627
15.7778 107.128
15.8228 109.864
15.8679 122.555
15.9129 152.043
15.958 184.075
16.003 152.307
16.0481 89.1562
16.0931 66.2339
16.1382 61.633
16.1833 60.0857
16.2283 58.525
16.2734 57.8906
16.3185 57.1272
16.3636 56.2461
16.4086 55.6496
16.4537 55.3052
16.4988 54.7414
16.5439 54.7756
16.589 54.5313
16.6341 54.2941
16.6792 53.8203
16.7243 54.0565
16.7694 53.9945
16.8145 53.9451
16.8596 53.9229
16.9047 54.2261
16.9498 54.675
16.9949 54.6582
17.04 55.1451
17.0851 56.7202
17.1302 60.6873
17.1754 64.0841
17.2205 64.7636
17.2656 66.6953
17.3108 71.7869
17.3559 78.5854
17.401 80.4225
17.4462 71.1667
17.4913 61.3371
17.5365 58.8189
17.5815 58.7029
17.6268 59.0749
17.6718 59.4423
17.7171 59.8224
17.7622 61.0016
17.8074 62.0281
17.8525 63.6457
17.8977 71.688
17.9428 83.4973
17.9881 88.2382
18.0331 90.046
18.0784 97.0219
18.1237 113.24
18.1688 139.528
18.214 142.132
18.2591 111.065
18.3044 88.0058
18.3495 86.0824
18.3948 94.0685
18.4399 102.803
18.4852 95.347
18.5303 76.3992
18.5756 64.9504
18.6207 62.071
18.666 60.5596
18.7112 59.6848
18.7565 58.8851
18.8016 58.4991
18.8469 57.9476
18.892 57.7728
18.9374 56.9903
18.9825 56.8794
19.0278 56.355
19.073 56.5609
19.1183 57.0449
19.1635 59.5587
19.2088 61.6664
19.254 62.2698
19.2993 62.7513
19.3447 64.9455
19.3898 68.5973
19.4352 73.2863
19.4804 72.4641
19.5257 63.9059
19.5709 56.0973
19.6163 54.1812
19.6615 53.6988
19.7068 53.1896
19.752 53.212
19.7974 53.3742
19.8426 54.5439
19.888 56.5667
19.9332 57.9415
19.9786 58.483
20.0238 58.8123
20.0692 61.6156
20.1144 66.5897
20.1598 72.1144
20.205 70.7344
20.2504 65.285
20.2957 60.6186
20.3411 61.2434
20.3863 64.281
20.4318 64.233
20.477 58.9175
20.5224 53.0577
20.5677 50.9269
20.6131 50.2095
20.6586 49.5437
20.7038 49.358
20.7493 49.1702
20.7945 48.9649
20.84 48.8328
20.8853 48.5474
20.9307 48.4924
20.976 48.5764
21.0215 48.6872
21.0668 49.3706
21.1122 49.455
21.1575 49.304
21.203 49.5283
21.2483 50.0989
21.2938 51.1554
21.3391 51.244
21.3846 50.3293
21.4299 49.1052
21.4754 48.5114
21.5207 48.6503
21.5662 48.693
21.6116 49.3957
21.6571 51.2334
21.7024 52.7893
21.7479 53.8832
21.7933 54.2749
21.8388 55.4018
21.8843 58.3372
21.9297 61.558
21.9752 65.47
22.0206 65.487
22.0661 60.3908
22.1115 56.021
22.157 55.2723
22.2024 56.4411
22.248 55.0206
22.2933 52.3148
22.3389 49.9949
22.3843 49.0941
22.4299 48.7536
22.4753 48.6807
22.5208 48.607
22.5662 48.4728
22.6118 48.7763
22.6572 48.9562
22.7028 50.0776
22.7483 51.2942
22.7939 51.8113
22.8393 51.8812
22.8849 52.3362
22.9303 53.0215
22.9759 54.6984
23.0214 56.9976
23.067 58.1904
23.1126 55.9039
23.1581 52.2722
23.2037 49.6094
23.2492 49.1648
23.2948 49.4207
23.3403 50.8598
23.3859 51.8335
23.4314 51.7052
23.477 51.5295
23.5225 52.1683
23.5682 53.1666
23.6137 55.7002
23.6593 57.4447
23.7048 57.038
23.7505 53.3263
23.796 49.0742
23.8417 46.7963
23.8872 45.9652
23.9329 45.4915
23.9784 45.2167
24.0241 44.9233
24.0697 44.4958
24.1154 44.0933
24.1609 44.0106
24.2066 43.7102
24.2522 43.7627
24.2979 43.5255
24.3434 43.4375
24.3892 43.1389
24.4349 43.1023
24.4805 42.7758
24.5262 42.8804
24.5718 42.7933
24.6175 42.9313
24.6631 42.9506
24.7089 42.8265
24.7545 42.7278
24.8002 42.2514
24.8458 42.5667
24.8916 42.4237
24.9372 42.4752
24.983 42.7368
25.0286 42.879
25.0744 43.3639
25.12 43.7954
25.1658 44.1291
25.2114 44.4284
25.2572 44.8363
25.3029 44.7837
25.3487 44.4601
25.3943 44.7628
25.4402 44.8173
25.4858 44.4049
25.5316 42.9721
25.5773 41.6063
25.6231 41.1939
25.669 40.7299
25.7147 40.8237
25.7605 40.7102
25.8062 40.857
25.8521 41.0215
25.8977 40.8258
25.9436 40.9472
25.9893 40.8065
26.0352 41.1479
26.0809 41.0736
26.1268 41.6667
26.1725 41.9373
26.2184 41.855
26.2641 41.4163
26.31 40.8169
26.3557 40.7653
26.4017 40.6223
26.4474 40.8035
26.4933 40.7245
26.5391 41.0265
26.585 41.3766
26.6308 41.6161
26.6767 42.029
26.7225 42.4209
26.7684 42.5948
26.8142 41.9487
26.8601 41.3113
26.9059 40.6506
26.9519 40.4067
26.9979 40.025
27.0437 39.3604
27.0896 39.0784
27.1354 38.9979
27.1814 38.9244
27.2272 38.6666
27.2732 38.8498
27.3191 38.6885
27.3651 38.7472
27.4109 38.5187
27.4569 38.5254
27.5027 38.5671
27.5488 38.6829
27.5946 38.6376
27.6407 38.6222
27.6865 38.6726
27.7326 38.469
27.7784 38.3811
27.8245 38.3461
27.8703 38.2446
27.9164 38.4434
27.9623 38.4488
28.0084 38.6158
28.0543 38.7506
28.1003 38.997
28.1462 39.3714
28.1923 39.3192
28.2384 38.6481
28.2843 38.232
28.3304 37.9299
28.3764 37.4803
28.4225 37.129
28.4684 36.7156
28.5145 36.241
28.5605 36.1513
28.6066 35.9639
28.6526 35.8126
28.6987 35.8144
28.7447 35.6217
28.7908 35.5171
28.8368 35.3989
28.8829 35.4242
28.9289 35.3772
28.9751 35.3494
29.0211 35.301
29.0673 34.9965
29.1133 34.9593
29.1595 34.6356
29.2055 34.4724
29.2517 34.427
29.2977 34.2467
29.3439 34.2339
29.3899 34.1099
29.4361 34.1832
29.4824 34.0259
29.5284 34.0562
29.5746 33.8287
29.6207 33.4239
29.6669 33.3214
29.713 33.021
29.7593 33.0633
29.8053 32.9658
29.8516 32.8104
29.8977 32.8353
29.9439 32.7606
29.99 32.6559
30.0363 32.5694
30.0824 32.6603
30.1287 32.4576
30.1748 32.431
30.2211 32.377
30.2673 32.3111
30.3136 32.5784
30.3597 32.4801
30.406 32.4795
30.4522 32.348
30.4985 32.206
30.5447 32.3215
30.591 32.1315
30.6372 32.1847
30.6835 32.1888
30.7297 32.2126
30.7761 32.2507
30.8224 32.3652
30.8686 32.3354
30.915 31.9229
30.9612 31.8216
31.0076 31.6299
31.0538 31.4489
31.1002 31.3642
31.1464 31.2147
31.1928 31.2219
31.2391 31.1644
31.2855 31.0582
31.3317 30.9977
31.3781 31.0369
31.4244 30.9559
31.4708 30.8842
31.5171 30.918
31.5636 30.9762
31.6098 30.8232
31.6563 30.7545
31.7026 30.696
31.7491 30.3539
31.7953 30.5008
31.8418 30.3169
31.8881 30.1789
31.9346 30.0912
31.9809 30.2608
32.0275 30.1381
32.074 30.0998
32.1203 29.9152
32.1668 29.8811
32.2132 29.6517
32.2597 29.3953
32.306 29.4638
32.3526 29.1573
32.399 29.059
32.4455 28.8955
32.4919 28.8647
32.5385 28.7554
32.5848 28.6836
32.6314 28.6891
32.6778 28.4888
32.7244 28.4273
32.7708 28.3289
32.8174 28.3385
32.8638 28.1465
32.9104 28.1959
32.9569 28.1331
33.0035 27.9968
33.0499 27.9868
33.0966 27.9474
33.143 27.8539
33.1897 27.7043
33.2361 27.6671
33.2828 27.7281
33.3293 27.6241
33.3759 27.5707
33.4226 27.5221
33.4691 27.3568
33.5158 27.2283
33.5623 27.0145
33.609 26.9071
33.6555 26.7587
33.7022 26.8016
33.7487 26.6613
33.7954 26.6292
33.842 26.4532
33.8887 26.4718
33.9353 26.3643
33.982 26.1881
34.0286 26.2229
34.0753 26.1739
34.1219 26.0581
34.1687 25.9848
34.2152 25.8734
34.262 25.7094
34.3086 25.6596
34.3554 25.5854
34.402 25.5031
34.4488 25.4305
34.4954 25.4034
34.5422 25.3648
34.5889 25.2044
34.6357 25.0666
34.6825 24.9611
34.7292 24.9047
34.776 24.7655
34.8227 24.835
34.8695 24.7525
34.9162 24.7024
34.9631 24.5152
35.0098 24.5985
35.0566 24.4537
35.1033 24.4066
35.1502 24.4114
35.1969 24.351
35.2438 24.275
35.2906 24.1807
35.3375 24.1728
35.3842 23.9758
35.4311 24.0912
35.4779 23.9846
35.5248 24.0186
35.5716 23.8895
35.6185 23.829
35.6653 23.6498
35.7123 23.7305
35.759 23.5774
35.806 23.5288
35.8528 23.3918
35.8998 23.1881
35.9468 23.2417
35.9936 23.1877
36.0406 23.0222
36.0874 23.0232
36.1345 22.9893
36.1813 22.8363
36.2283 22.8511
36.2752 22.7872
36.3222 22.8168
36.3691 22.6336
36.4161 22.6014
36.463 22.515
36.5101 22.5376
36.557 22.4693
36.6041 22.2914
36.651 22.2992
36.6981 22.2325
36.745 22.2008
36.7921 22.0888
36.839 21.9761
36.8861 21.9299
36.9331 21.8261
36.9802 21.7975
37.0272 21.6081
37.0743 21.6019
37.1213 21.6582
37.1684 21.4661
37.2154 21.3898
37.2626 21.3378
37.3098 21.2895
37.3568 21.2421
37.404 21.182
37.451 21.106
37.4982 21.0045
37.5452 20.8375
37.5924 20.8637
37.6395 20.9535
37.6867 20.7926
37.7337 20.7593
37.781 20.7008
37.8281 20.5628
37.8753 20.4493
37.9224 20.4171
37.9697 20.3979
38.0168 20.2758
38.064 20.2261
38.1111 20.2031
38.1584 20.1495
38.2056 20.0152
38.2529 20.0554
38.3 19.9279
38.3473 19.9435
38.3945 19.7578
38.4418 19.7569
38.489 19.6933
38.5363 19.5727
38.5837 19.4584
38.6309 19.5294
38.6782 19.4421
38.7254 19.3754
38.7728 19.3036
38.82 19.1729
38.8674 19.2018
38.9146 19.0797
38.9621 19.058
39.0093 19.0139
39.0567 18.9254
39.104 18.9086
39.1514 18.8045
39.1987 18.7978
39.2461 18.6953
39.2934 18.6878
39.3409 18.5652
39.3882 18.444
39.4356 18.3673
39.483 18.3476
39.5304 18.3805
39.5778 18.2851
39.6253 18.2156
39.6726 18.1719
39.7201 18.1104
39.7675 18.0758
39.815 18.0125
39.8624 17.9476
39.9099 17.889
39.9575 17.7745
40.0049 17.8048
40.0525 17.7024
40.0999 17.6471
40.1474 17.5916
40.1949 17.5401
40.2425 17.4682
40.2899 17.4758
40.3375 17.4007
40.385 17.2985
40.4326 17.2451
40.48 17.2318
40.5277 17.1621
40.5752 17.1554
40.6228 17.0012
40.6703 17.0156
40.718 16.9792
40.7655 16.9295
40.8132 16.7981
40.8607 16.8468
40.9084 16.7485
40.9559 16.6845
41.0036 16.6363
41.0512 16.5951
41.0989 16.5506
41.1465 16.4656
41.1942 16.4603
41.242 16.3223
41.2896 16.2816
41.3373 16.2467
41.3849 16.218
41.4327 16.1619
41.4803 16.0595
41.5281 16.0124
41.5758 15.9668
41.6236 15.9143
41.6712 15.8543
41.7191 15.8042
41.7667 15.7945
41.8146 15.7084
41.8622 15.642
41.9101 15.6203
41.9578 15.5177
42.0057 15.487
42.0534 15.4759
42.1013 15.4811
42.149 15.3246
42.1969 15.2817
42.2446 15.281
42.2925 15.1553
42.3403 15.1841
42.3882 15.0511
42.436 15.0356
42.4839 14.974
42.5319 14.9109
42.5797 14.9208
42.6277 14.836
42.6755 14.7807
42.7235 14.7334
42.7713 14.6576
42.8193 14.6521
42.8671 14.5913
42.9152 14.5083
42.963 14.459
43.0111 14.3876
43.0589 14.4079
43.107 14.2886
43.1549 14.3248
43.2029 14.229
43.2508 14.2114
43.2989 14.1352
43.3468 14.0455
43.3949 13.9998
43.4429 13.9944
43.491 13.9039
43.5389 13.9268
43.5871 13.8889
43.635 13.7921
43.6832 13.704
43.7312 13.6828
43.7793 13.6386
43.8273 13.6112
43.8755 13.5525
43.9237 13.5034
43.9717 13.4864
44.0199 13.4175
44.068 13.3792
44.1162 13.2789
44.1642 13.2724
44.2125 13.2168
44.2606 13.2337
44.3088 13.1314
44.3569 13.1283
44.4052 13.0472
44.4533 13.03
44.5016 12.9825
44.5497 12.9178
44.598 12.9239
44.6461 12.8368
44.6945 12.7685
44.7426 12.7256
44.791 12.6739
44.8391 12.6655
44.8875 12.5753
44.9357 12.563
44.984 12.5372
45.0322 12.4329
45.0806 12.4261
45.1288 12.384
45.1773 12.316
45.2257 12.2912
45.2739 12.273
45.3224 12.2074
45.3706 12.1679
45.4191 12.0941
45.4673 12.1317
45.5158 12.0502
45.5641 11.9747
45.6126 11.9644
45.6609 11.8753
45.7094 11.9019
45.7577 11.7947
45.8063 11.7402
45.8546 11.7158
45.9031 11.6534
45.9515 11.6744
46.0001 11.6161
46.0484 11.6091
46.097 11.525
46.1454 11.5024
46.194 11.461
46.2424 11.3937
46.291 11.3313
46.3395 11.3263
46.3881 11.2784
46.4365 11.2525
46.4852 11.1694
46.5337 11.1427
46.5823 11.0972
46.631 11.0815
46.6795 11.0754
46.7282 10.9893
46.7767 10.9708
46.8254 10.8885
46.8739 10.879
46.9226 10.8458
46.9712 10.7914
47.0199 10.7254
47.0685 10.6658
47.1173 10.7057
47.1658 10.6507
47.2146 10.5808
47.2632 10.54
47.312 10.5517
47.3606 10.4737
47.4095 10.4448
47.4581 10.4247
47.5069 10.366
47.5556 10.3289
47.6044 10.2758
47.6531 10.2839
47.702 10.1685
47.7507 10.1742
47.7996 10.1201
47.8483 10.1066
47.8972 10.0714
47.9461 10.0119
47.9948 9.99951
48.0438 9.91598
48.0925 9.93861
48.1415 9.87146
48.1902 9.86317
48.2392 9.87564
48.288 9.76703
48.337 9.76887
48.3858 9.70053
48.4348 9.66882
48.4837 9.65996
48.5327 9.57352
48.5815 9.57614
48.6306 9.53844
48.6795 9.49195
48.7285 9.44159
48.7774 9.41286
48.8265 9.39927
48.8754 9.345
48.9245 9.33243
48.9734 9.26057
49.0226 9.26543
49.0715 9.25427
49.1206 9.15059
49.1696 9.14153
49.2188 9.09309
49.2679 9.11648
49.3169 9.00229
49.3661 8.98664
49.4151 8.97034
49.4643 8.96559
49.5134 8.92677
49.5626 8.85931
49.6117 8.83477
49.6609 8.79893
49.71 8.77574
49.7592 8.71096
49.8083 8.70127
49.8576 8.66845
49.9067 8.60252
49.956 8.59298
50.0052 8.55081
50.0545 8.52805
50.1036 8.5152
50.153 8.49475
50.2022 8.4647
50.2515 8.39833
50.3007 8.30996
50.3501 8.30902
50.3993 8.30506
50.4487 8.30545
50.498 8.25261
50.5474 8.22309
50.5966 8.18801
50.6461 8.14551
50.6955 8.15107
50.7448 8.06282
50.7943 8.0616
50.8436 8.02387
50.8931 7.99761
50.9424 7.96687
50.9919 7.9447
51.0413 7.90635
51.0908 7.89469
51.1402 7.80917
51.1897 7.82202
51.2391 7.79066
51.2887 7.77785
51.3381 7.72269
51.3877 7.69973
51.4371 7.64651
51.4867 7.60653
51.5362 7.58253
51.5858 7.5745
51.6353 7.5277
51.6849 7.5006
51.7344 7.42539
51.7841 7.43377
51.8336 7.41198
51.8833 7.37812
51.9328 7.35056
51.9826 7.28889
52.0323 7.27609
52.0818 7.22995
52.1316 7.23315
52.1812 7.17251
52.231 7.16242
52.2806 7.12108
52.3304 7.09558
52.38 7.06001
52.4298 7.04592
52.4794 6.96229
52.5293 6.97279
52.5789 6.97141
52.6288 6.92385
52.6785 6.90005
52.7284 6.89434
52.7781 6.83739
52.828 6.80252
52.8777 6.75533
52.9276 6.8004
52.9774 6.73681
53.0273 6.69713
53.0771 6.65568
53.1271 6.67628
53.1769 6.57386
53.2269 6.57014
53.2767 6.54727
53.3267 6.51964
53.3765 6.51305
53.4266 6.47921
53.4766 6.41312
53.5265 6.41972
53.5765 6.3985
53.6264 6.314
53.6765 6.3543
53.7264 6.30145
53.7765 6.29088
53.8265 6.23911
53.8766 6.19589
53.9266 6.19379
53.9767 6.16187
54.0267 6.12636
54.0769 6.08441
54.1269 6.0655
54.1771 5.99043
54.2271 6.02119
54.2773 5.9638
54.3274 5.9472
54.3776 5.90248
54.4277 5.8587
54.478 5.81699
54.528 5.79509
54.5783 5.71759
54.6285 5.64324
54.6788 5.60544
54.7289 5.64494
54.7792 5.58004
54.8296 5.4813
54.8798 5.45304
54.9301 5.44785
54.9803 5.41629
55.0307 5.40132
55.0809 5.30104
55.1314 5.30238
55.1816 5.18696
55.232 5.16293
55.2823 5.17712
55.3328 5.06611
55.383 4.98035
55.4335 4.98569
55.4838 4.91667
55.5344 4.89421
55.5847 4.83966
55.6352 4.80279
55.6856 4.80186
55.7361 4.79721