File: XRD/Ni3Fe_FD0638.xy
TT I
1.27165 7.65974
1.31627 7.08757
1.36089 6.81582
1.40551 5.83929
1.45013 5.68634
1.49476 5.59978
1.53938 5.79973
1.584 5.2686
1.62863 5.45653
1.67325 5.49051
1.71787 4.89469
1.7625 4.80948
1.80712 4.69447
1.85174 4.57581
1.89636 4.75227
1.94099 4.81369
1.98562 5.33589
2.03025 4.77596
2.07487 4.5541
2.11949 4.41069
2.16411 5.37971
2.20874 16.0542
2.25338 26.9119
2.298 6.60933
2.34263 5.62463
2.38725 5.89632
2.43188 6.31879
2.4765 6.94236
2.52115 6.96896
2.56577 7.41592
2.6104 8.19356
2.65503 7.94453
2.69965 8.03323
2.7443 8.15754
2.78893 8.12094
2.83356 8.06916
2.87818 9.16842
2.92281 9.00585
2.96744 10.0426
3.01209 10.2159
3.05672 11.3429
3.10135 12.0753
3.14599 12.7691
3.19062 14.2961
3.23527 14.8842
3.2799 15.5284
3.32454 16.5032
3.36917 17.7918
3.4138 19.0931
3.45844 19.8574
3.50309 21.0102
3.54773 21.7574
3.59237 24.5236
3.637 106.615
3.68164 67.1259
3.7263 26.7882
3.77094 26.3263
3.81558 27.2936
3.86022 27.8113
3.90486 29.1989
3.9495 29.9228
3.99416 31.2671
4.0388 32.4499
4.08344 34.0952
4.12809 34.9499
4.17273 37.5386
4.21738 44.358
4.26204 289.131
4.30669 256.049
4.35133 49.8387
4.39598 45.2892
4.44063 56.1934
4.4853 69.6746
4.52995 50.8217
4.5746 51.3405
4.61925 53.42
4.6639 55.3057
4.70855 58.2605
4.75322 60.7034
4.79788 64.0499
4.84253 67.4952
4.88719 70.9256
4.93184 75.1186
4.97652 80.9458
5.02118 86.3001
5.06583 93.7629
5.11049 105.136
5.15515 182.877
5.19981 336.704
5.24449 2685.1
5.28916 12528.0
5.33382 3056.09
5.37848 196.032
5.42315 130.357
5.46783 113.72
5.5125 106.561
5.55716 102.1
5.60183 98.7556
5.6465 96.7507
5.69117 94.1867
5.73586 92.0633
5.78053 91.1476
5.8252 90.797
5.86988 91.692
5.91455 93.5653
5.95924 100.718
6.00392 194.303
6.0486 922.387
6.09328 4381.52
6.13795 3541.71
6.18263 260.323
6.22733 94.7845
6.27201 84.6492
6.3167 108.352
6.36138 82.534
6.40606 69.6235
6.45075 67.1238
6.49545 65.8013
6.54014 64.2411
6.58483 63.408
6.62952 63.4053
6.67421 100.834
6.71892 162.319
6.76361 71.5448
6.8083 59.305
6.853 57.606
6.89769 57.1253
6.94239 57.1171
6.98711 56.2344
7.03181 55.8556
7.07651 55.8022
7.12121 55.526
7.16591 55.8249
7.21063 56.5447
7.25533 73.7248
7.30004 207.231
7.34475 100.661
7.38945 57.555
7.43416 55.1401
7.47889 54.8645
7.5236 55.2687
7.56831 55.7244
7.61303 57.8287
7.65774 58.358
7.70247 56.4593
7.74719 56.6581
7.79191 57.1998
7.83663 57.2287
7.88135 57.9873
7.92607 59.1223
7.97081 60.2038
8.01553 61.1516
8.06026 62.6192
8.10498 64.2366
8.14971 75.3297
8.19446 73.9354
8.23919 69.9287
8.28392 72.0519
8.32865 74.2661
8.37339 78.152
8.41812 85.843
8.46288 118.022
8.50761 158.124
8.55235 366.786
8.59709 1119.9
8.64183 2210.41
8.68658 1028.49
8.73134 178.284
8.77609 100.5
8.82083 92.9476
8.86558 89.8458
8.91033 91.1047
8.9551 92.9551
8.99985 86.0655
9.04461 83.7549
9.08936 82.9959
9.13412 82.2589
9.17888 81.7761
9.22365 82.8009
9.26841 82.4329
9.31318 82.5591
9.35794 82.9446
9.4027 83.1894
9.44749 84.259
9.49226 84.4632
9.53703 85.1062
9.5818 87.1557
9.62657 92.7152
9.67134 100.71
9.71614 94.2791
9.76091 94.2449
9.80569 96.3535
9.85047 99.7375
9.89525 127.809
9.94005 140.985
9.98484 169.069
10.0296 326.863
10.0744 771.707
10.1192 1709.8
10.164 1659.95
10.2088 436.082
10.2536 130.612
10.2984 115.557
10.3432 117.449
10.388 105.052
10.4328 115.884
10.4776 154.69
10.5224 269.319
10.5672 500.068
10.612 521.102
10.6568 216.201
10.7017 99.4135
10.7465 87.0035
10.7913 84.0274
10.8361 81.6769
10.8809 79.3039
10.9257 79.0016
10.9706 80.1763
11.0154 74.9742
11.0602 73.2154
11.105 72.267
11.1499 77.6945
11.1947 86.8859
11.2395 75.8823
11.2844 71.3611
11.3292 67.7848
11.374 66.3893
11.4189 65.6631
11.4637 65.2628
11.5086 66.0597
11.5534 69.6703
11.5983 66.1801
11.6431 64.1691
11.688 63.1558
11.7328 63.2023
11.7777 63.0703
11.8225 62.8871
11.8674 62.2984
11.9122 63.05
11.9571 63.0081
12.002 63.7172
12.0468 67.4301
12.0917 78.5712
12.1366 100.916
12.1814 147.41
12.2263 204.126
12.2712 171.589
12.3161 102.507
12.3609 72.3508
12.4058 65.1481
12.4507 64.8743
12.4956 64.6406
12.5405 64.9059
12.5853 66.099
12.6302 75.3007
12.6751 81.8656
12.72 71.1871
12.7649 68.1988
12.8098 68.3754
12.8547 69.7664
12.8996 71.0021
12.9445 72.2397
12.9894 74.0768
13.0343 75.6691
13.0792 78.6026
13.1242 86.5221
13.1691 109.649
13.214 144.578
13.2589 229.744
13.3038 362.121
13.3487 430.681
13.3937 276.043
13.4386 127.679
13.4835 104.756
13.5285 118.371
13.5734 154.828
13.6183 240.818
13.6633 344.715
13.7082 345.163
13.7531 195.349
13.7981 100.764
13.843 82.0548
13.888 79.9106
13.9329 77.398
13.9779 76.0249
14.0228 74.523
14.0678 73.2665
14.1127 72.9433
14.1577 73.0687
14.2027 71.4563
14.2476 70.8571
14.2926 71.2119
14.3376 72.3923
14.3825 70.719
14.4275 69.1781
14.4725 68.7154
14.5175 68.8737
14.5624 69.273
14.6074 71.7712
14.6524 72.4493
14.6974 70.7105
14.7424 71.5323
14.7874 77.6922
14.8324 87.5996
14.8774 108.012
14.9224 150.209
14.9674 202.719
15.0124 217.894
15.0574 152.622
15.1024 93.2858
15.1474 72.7651
15.1924 70.7634
15.2374 71.927
15.2824 71.1859
15.3274 68.8787
15.3725 67.2409
15.4175 66.4546
15.4625 66.3341
15.5076 66.661
15.5526 66.6782
15.5976 65.973
15.6426 66.4811
15.6877 71.5266
15.7327 78.8042
15.7778 93.1659
15.8228 122.495
15.8679 165.223
15.9129 193.381
15.958 159.824
16.003 101.172
16.0481 69.7597
16.0931 65.4708
16.1382 63.7243
16.1833 61.1261
16.2283 59.0874
16.2734 58.7189
16.3185 59.1082
16.3636 60.2004
16.4086 58.4173
16.4537 56.6011
16.4988 55.7208
16.5439 55.5096
16.589 55.3372
16.6341 55.2096
16.6792 54.6503
16.7243 54.9875
16.7694 55.3112
16.8145 55.0849
16.8596 55.6632
16.9047 57.6341
16.9498 57.65
16.9949 55.8595
17.04 55.8399
17.0851 57.0237
17.1302 58.8432
17.1754 61.5234
17.2205 66.4537
17.2656 73.8719
17.3108 82.6038
17.3559 83.0413
17.401 72.2783
17.4462 62.9242
17.4913 59.5461
17.5365 59.4003
17.5815 59.2164
17.6268 59.8669
17.6718 60.683
17.7171 61.0717
17.7622 61.3039
17.8074 61.9264
17.8525 63.83
17.8977 67.8316
17.9428 72.9888
17.9881 81.3638
18.0331 97.8001
18.0784 118.967
18.1237 138.252
18.1688 132.289
18.214 105.792
18.2591 86.9745
18.3044 89.8494
18.3495 99.0498
18.3948 105.922
18.4399 98.4534
18.4852 79.3466
18.5303 66.7396
18.5756 62.4325
18.6207 61.5812
18.666 60.6895
18.7112 60.021
18.7565 59.2473
18.8016 58.9002
18.8469 58.2475
18.892 57.9235
18.9374 57.5453
18.9825 57.2673
19.0278 57.1048
19.073 57.2627
19.1183 57.6346
19.1635 58.395
19.2088 59.5657
19.254 61.96
19.2993 66.2787
19.3447 72.4589
19.3898 76.7465
19.4352 73.2056
19.4804 64.1563
19.5257 57.5102
19.5709 54.4379
19.6163 54.1699
19.6615 53.8654
19.7068 53.5272
19.752 53.5011
19.7974 53.581
19.8426 54.5284
19.888 55.138
19.9332 56.1997
19.9786 58.6146
20.0238 62.0389
20.0692 67.1828
20.1144 69.9496
20.1598 68.6115
20.205 63.8209
20.2504 62.2731
20.2957 63.6693
20.3411 65.8097
20.3863 64.6234
20.4318 59.1481
20.477 54.0497
20.5224 52.0945
20.5677 51.4059
20.6131 50.4183
20.6586 49.8224
20.7038 49.8099
20.7493 49.2583
20.7945 49.1433
20.84 49.1941
20.8853 48.9545
20.9307 48.7136
20.976 48.8575
21.0215 48.7496
21.0668 49.2366
21.1122 49.5956
21.1575 50.2071
21.203 50.836
21.2483 51.3162
21.2938 51.2714
21.3391 50.3379
21.3846 49.1881
21.4299 48.7779
21.4754 48.5959
21.5207 48.7046
21.5662 48.8896
21.6116 49.2987
21.6571 49.7945
21.7024 50.6858
21.7479 52.3672
21.7933 55.1677
21.8388 58.5319
21.8843 62.3296
21.9297 64.7834
21.9752 63.5735
22.0206 60.0086
22.0661 56.8958
22.1115 56.123
22.157 56.2838
22.2024 54.6045
22.248 51.7313
22.2933 50.0903
22.3389 49.3364
22.3843 49.2935
22.4299 49.1608
22.4753 49.2034
22.5208 48.8014
22.5662 48.6881
22.6118 48.729
22.6572 48.9002
22.7028 49.2327
22.7483 49.6933
22.7939 50.4741
22.8393 51.655
22.8849 53.7969
22.9303 56.0449
22.9759 57.7611
23.0214 57.8753
23.067 55.0107
23.1126 51.6314
23.1581 49.3855
23.2037 48.9624
23.2492 49.0723
23.2948 48.7925
23.3403 49.2417
23.3859 49.6343
23.4314 50.7532
23.477 52.473
23.5225 54.5664
23.5682 56.8647
23.6137 58.1324
23.6593 56.0784
23.7048 52.3038
23.7505 48.556
23.796 46.8011
23.8417 46.1518
23.8872 45.6415
23.9329 45.4889
23.9784 45.0255
24.0241 44.8977
24.0697 44.6112
24.1154 44.2053
24.1609 44.2145
24.2066 44.1532
24.2522 43.9366
24.2979 43.68
24.3434 43.4358
24.3892 43.2638
24.4349 43.2162
24.4805 43.082
24.5262 43.1497
24.5718 43.0184
24.6175 42.9785
24.6631 42.8872
24.7089 42.5962
24.7545 42.6289
24.8002 42.4409
24.8458 42.1559
24.8916 42.1427
24.9372 42.3115
24.983 42.5647
25.0286 42.768
25.0744 43.35
25.12 43.6786
25.1658 44.4506
25.2114 44.841
25.2572 44.9455
25.3029 44.9607
25.3487 45.0755
25.3943 44.8047
25.4402 43.615
25.4858 42.7098
25.5316 41.6287
25.5773 41.2206
25.6231 41.0263
25.669 40.6712
25.7147 40.6719
25.7605 40.6478
25.8062 40.5691
25.8521 40.9428
25.8977 40.7381
25.9436 41.0045
25.9893 41.0922
26.0352 41.6172
26.0809 41.6143
26.1268 41.7499
26.1725 41.5554
26.2184 41.0276
26.2641 40.5064
26.31 40.3268
26.3557 40.321
26.4017 40.065
26.4474 40.4969
26.4933 40.8031
26.5391 41.1963
26.585 41.6936
26.6308 42.1386
26.6767 42.3251
26.7225 42.0677
26.7684 41.6473
26.8142 40.9253
26.8601 40.6966
26.9059 40.2418
26.9519 39.5927
26.9979 39.3391
27.0437 39.0547
27.0896 38.926
27.1354 38.8411
27.1814 38.7603
27.2272 38.6575
27.2732 38.7405
27.3191 38.4091
27.3651 38.6382
27.4109 38.3804
27.4569 38.6974
27.5027 38.598
27.5488 38.6191
27.5946 38.4971
27.6407 38.3227
27.6865 38.1402
27.7326 38.0362
27.7784 37.9225
27.8245 37.8673
27.8703 37.9399
27.9164 38.4259
27.9623 38.4996
28.0084 38.7536
28.0543 39.1644
28.1003 39.0516
28.1462 38.9468
28.1923 38.6262
28.2384 38.0299
28.2843 37.6926
28.3304 37.345
28.3764 36.8082
28.4225 36.6303
28.4684 36.385
28.5145 36.1213
28.5605 36.0285
28.6066 35.8117
28.6526 35.7919
28.6987 35.6916
28.7447 35.6277
28.7908 35.5072
28.8368 35.551
28.8829 35.5686
28.9289 35.4764
28.9751 35.2681
29.0211 35.0288
29.0673 34.784
29.1133 34.7435
29.1595 34.6434
29.2055 34.4758
29.2517 34.3574
29.2977 34.3686
29.3439 34.398
29.3899 34.4375
29.4361 34.3183
29.4824 34.142
29.5284 33.9463
29.5746 33.6486
29.6207 33.2946
29.6669 33.2961
29.713 33.0902
29.7593 32.9748
29.8053 32.8902
29.8516 33.0023
29.8977 32.9056
29.9439 32.7731
29.99 32.6527
30.0363 32.5925
30.0824 32.6566
30.1287 32.5741
30.1748 32.5348
30.2211 32.5517
30.2673 32.3804
30.3136 32.5002
30.3597 32.3993
30.406 32.2864
30.4522 32.2362
30.4985 32.0862
30.5447 32.2513
30.591 32.264
30.6372 32.23
30.6835 32.293
30.7297 32.3558
30.7761 32.4029
30.8224 32.2319
30.8686 31.9737
30.915 31.7991
30.9612 31.571
31.0076 31.4162
31.0538 31.3316
31.1002 31.2592
31.1464 30.9813
31.1928 31.1277
31.2391 31.0389
31.2855 30.9857
31.3317 30.9833
31.3781 31.0374
31.4244 30.9817
31.4708 30.8595
31.5171 30.8581
31.5636 30.8304
31.6098 30.6654
31.6563 30.5356
31.7026 30.3782
31.7491 30.1824
31.7953 30.277
31.8418 30.2339
31.8881 30.2836
31.9346 30.163
31.9809 30.136
32.0275 30.0756
32.074 29.9875
32.1203 29.728
32.1668 29.6546
32.2132 29.5739
32.2597 29.4145
32.306 29.2985
32.3526 29.0585
32.399 29.1035
32.4455 28.9303
32.4919 28.8308
32.5385 28.719
32.5848 28.6127
32.6314 28.6291
32.6778 28.5576
32.7244 28.3317
32.7708 28.265
32.8174 28.3517
32.8638 28.1384
32.9104 28.1345
32.9569 28.1754
33.0035 28.0838
33.0499 27.9326
33.0966 27.9684
33.143 27.8968
33.1897 27.7516
33.2361 27.7973
33.2828 27.6727
33.3293 27.5371
33.3759 27.4878
33.4226 27.3213
33.4691 27.1717
33.5158 27.1577
33.5623 26.9921
33.609 26.8622
33.6555 26.7377
33.7022 26.6433
33.7487 26.6201
33.7954 26.6239
33.842 26.4419
33.8887 26.3986
33.9353 26.4084
33.982 26.2388
34.0286 26.132
34.0753 26.0408
34.1219 26.0623
34.1687 25.9722
34.2152 25.9152
34.262 25.7847
34.3086 25.6047
34.3554 25.6204
34.402 25.4498
34.4488 25.4836
34.4954 25.3233
34.5422 25.2515
34.5889 25.1589
34.6357 25.0523
34.6825 25.0364
34.7292 24.9325
34.776 24.8566
34.8227 24.8142
34.8695 24.7456
34.9162 24.7434
34.9631 24.5988
35.0098 24.603
35.0566 24.4672
35.1033 24.3304
35.1502 24.3352
35.1969 24.2679
35.2438 24.2699
35.2906 24.1301
35.3375 24.0905
35.3842 24.1564
35.4311 23.9964
35.4779 23.9874
35.5248 24.0235
35.5716 23.8463
35.6185 23.7781
35.6653 23.7415
35.7123 23.611
35.759 23.5425
35.806 23.4667
35.8528 23.3082
35.8998 23.2556
35.9468 23.184
35.9936 23.2135
36.0406 23.1436
36.0874 23.0705
36.1345 23.0153
36.1813 22.9194
36.2283 22.7863
36.2752 22.7506
36.3222 22.7966
36.3691 22.6319
36.4161 22.5106
36.463 22.5285
36.5101 22.568
36.557 22.5082
36.6041 22.3114
36.651 22.2418
36.6981 22.2487
36.745 22.2139
36.7921 22.0841
36.839 21.962
36.8861 21.9141
36.9331 21.8425
36.9802 21.7708
37.0272 21.6877
37.0743 21.5872
37.1213 21.5391
37.1684 21.5343
37.2154 21.4167
37.2626 21.3595
37.3098 21.3447
37.3568 21.2576
37.404 21.1547
37.451 21.1001
37.4982 21.0426
37.5452 20.9523
37.5924 20.8914
37.6395 20.8842
37.6867 20.8304
37.7337 20.6948
37.781 20.6016
37.8281 20.6376
37.8753 20.4898
37.9224 20.4052
37.9697 20.315
38.0168 20.3105
38.064 20.1184
38.1111 20.1841
38.1584 20.1177
38.2056 20.0773
38.2529 20.0299
38.3 19.8992
38.3473 19.9555
38.3945 19.6895
38.4418 19.7423
38.489 19.6999
38.5363 19.6178
38.5837 19.5824
38.6309 19.4844
38.6782 19.4138
38.7254 19.3709
38.7728 19.2668
38.82 19.2577
38.8674 19.2376
38.9146 19.1218
38.9621 19.0541
39.0093 19.0058
39.0567 18.9587
39.104 18.9285
39.1514 18.7463
39.1987 18.7712
39.2461 18.7244
39.2934 18.7331
39.3409 18.5406
39.3882 18.4811
39.4356 18.4796
39.483 18.4536
39.5304 18.4199
39.5778 18.2845
39.6253 18.1967
39.6726 18.1878
39.7201 18.0877
39.7675 18.059
39.815 17.9845
39.8624 17.9165
39.9099 17.9265
39.9575 17.7728
40.0049 17.7998
40.0525 17.7444
40.0999 17.6963
40.1474 17.6532
40.1949 17.5651
40.2425 17.4636
40.2899 17.4106
40.3375 17.3817
40.385 17.2515
40.4326 17.2667
40.48 17.2328
40.5277 17.1841
40.5752 17.0706
40.6228 17.0027
40.6703 17.0227
40.718 16.91
40.7655 16.9215
40.8132 16.8476
40.8607 16.8356
40.9084 16.7273
40.9559 16.6504
41.0036 16.6338
41.0512 16.5656
41.0989 16.5475
41.1465 16.449
41.1942 16.44
41.242 16.363
41.2896 16.2848
41.3373 16.2324
41.3849 16.2693
41.4327 16.1579
41.4803 16.0608
41.5281 16.0698
41.5758 15.9466
41.6236 15.8854
41.6712 15.8203
41.7191 15.8039
41.7667 15.7186
41.8146 15.7135
41.8622 15.7077
41.9101 15.6344
41.9578 15.514
42.0057 15.4921
42.0534 15.4841
42.1013 15.3996
42.149 15.3288
42.1969 15.3002
42.2446 15.2502
42.2925 15.2092
42.3403 15.1659
42.3882 15.0945
42.436 15.1057
42.4839 14.9751
42.5319 14.9755
42.5797 14.8613
42.6277 14.8721
42.6755 14.8079
42.7235 14.7706
42.7713 14.7433
42.8193 14.647
42.8671 14.6024
42.9152 14.5411
42.963 14.441
43.0111 14.4285
43.0589 14.4519
43.107 14.3665
43.1549 14.3215
43.2029 14.222
43.2508 14.2214
43.2989 14.1387
43.3468 14.0904
43.3949 14.06
43.4429 14.0311
43.491 13.9934
43.5389 13.9042
43.5871 13.879
43.635 13.805
43.6832 13.7436
43.7312 13.7084
43.7793 13.6684
43.8273 13.6423
43.8755 13.5869
43.9237 13.5207
43.9717 13.4806
44.0199 13.4445
44.068 13.3442
44.1162 13.3621
44.1642 13.3501
44.2125 13.249
44.2606 13.1958
44.3088 13.1731
44.3569 13.1179
44.4052 13.0269
44.4533 13.0273
44.5016 12.9911
44.5497 12.9269
44.598 12.8767
44.6461 12.8709
44.6945 12.7474
44.7426 12.7156
44.791 12.6755
44.8391 12.6615
44.8875 12.6321
44.9357 12.5661
44.984 12.5266
45.0322 12.4938
45.0806 12.4211
45.1288 12.3754
45.1773 12.3336
45.2257 12.3019
45.2739 12.2384
45.3224 12.2024
45.3706 12.1789
45.4191 12.1433
45.4673 12.0976
45.5158 12.0418
45.5641 11.9762
45.6126 11.9663
45.6609 11.8875
45.7094 11.8489
45.7577 11.8464
45.8063 11.7571
45.8546 11.7966
45.9031 11.7452
45.9515 11.6503
46.0001 11.6484
46.0484 11.5884
46.097 11.5551
46.1454 11.5166
46.194 11.4955
46.2424 11.4381
46.291 11.4177
46.3395 11.3486
46.3881 11.2671
46.4365 11.268
46.4852 11.2007
46.5337 11.1817
46.5823 11.1987
46.631 11.0614
46.6795 11.072
46.7282 11.0228
46.7767 10.9537
46.8254 10.9125
46.8739 10.9452
46.9226 10.865
46.9712 10.8267
47.0199 10.7506
47.0685 10.7373
47.1173 10.6755
47.1658 10.5913
47.2146 10.6441
47.2632 10.5655
47.312 10.5477
47.3606 10.4836
47.4095 10.4338
47.4581 10.4482
47.5069 10.4081
47.5556 10.3351
47.6044 10.2777
47.6531 10.243
47.702 10.2018
47.7507 10.1716
47.7996 10.1527
47.8483 10.1153
47.8972 10.0945
47.9461 10.0234
47.9948 9.97559
48.0438 9.95987
48.0925 9.93712
48.1415 9.92054
48.1902 9.83281
48.2392 9.851
48.288 9.83739
48.337 9.74981
48.3858 9.72424
48.4348 9.7222
48.4837 9.66554
48.5327 9.62504
48.5815 9.60423
48.6306 9.52802
48.6795 9.50206
48.7285 9.45997
48.7774 9.43082
48.8265 9.40112
48.8754 9.34464
48.9245 9.30781
48.9734 9.30775
49.0226 9.27777
49.0715 9.22781
49.1206 9.20959
49.1696 9.13742
49.2188 9.13196
49.2679 9.08262
49.3169 9.05402
49.3661 9.00809
49.4151 8.98704
49.4643 8.94428
49.5134 8.8927
49.5626 8.86918
49.6117 8.80605
49.6609 8.82589
49.71 8.7529
49.7592 8.74838
49.8083 8.70608
49.8576 8.66915
49.9067 8.6198
49.956 8.6523
50.0052 8.6009
50.0545 8.51628
50.1036 8.51424
50.153 8.49893
50.2022 8.4537
50.2515 8.42583
50.3007 8.37817
50.3501 8.31074
50.3993 8.32621
50.4487 8.27864
50.498 8.258
50.5474 8.21514
50.5966 8.18532
50.6461 8.16844
50.6955 8.12147
50.7448 8.08981
50.7943 8.08614
50.8436 8.02974
50.8931 7.97331
50.9424 7.98475
50.9919 7.9182
51.0413 7.89734
51.0908 7.88758
51.1402 7.84015
51.1897 7.81338
51.2391 7.78754
51.2887 7.73494
51.3381 7.72004
51.3877 7.69344
51.4371 7.59547
51.4867 7.60676
51.5362 7.59408
51.5858 7.55822
51.6353 7.53521
51.6849 7.50021
51.7344 7.46698
51.7841 7.46259
51.8336 7.41843
51.8833 7.36863
51.9328 7.34503
51.9826 7.31718
52.0323 7.27762
52.0818 7.22649
52.1316 7.20082
52.1812 7.20645
52.231 7.13613
52.2806 7.10887
52.3304 7.06217
52.38 7.10864
52.4298 7.07459
52.4794 7.02942
52.5293 6.96842
52.5789 6.97443
52.6288 6.93585
52.6785 6.86939
52.7284 6.9005
52.7781 6.849
52.828 6.82997
52.8777 6.76202
52.9276 6.763
52.9774 6.72526
53.0273 6.70878
53.0771 6.6747
53.1271 6.62757
53.1769 6.62022
53.2269 6.55063
53.2767 6.58372
53.3267 6.52638
53.3765 6.47926
53.4266 6.48627
53.4766 6.48146
53.5265 6.42375
53.5765 6.38326
53.6264 6.40788
53.6765 6.34448
53.7264 6.30934
53.7765 6.32014
53.8265 6.24148
53.8766 6.22467
53.9266 6.20951
53.9767 6.15114
54.0267 6.15557
54.0769 6.10084
54.1269 6.11606
54.1771 6.04783
54.2271 5.99615
54.2773 5.97083
54.3274 5.98972
54.3776 5.94581
54.4277 5.87924
54.478 5.91958
54.528 5.82982
54.5783 5.77065
54.6285 5.74189
54.6788 5.73019
54.7289 5.67991
54.7792 5.67352
54.8296 5.51694
54.8798 5.53174
54.9301 5.4536
54.9803 5.45135
55.0307 5.45695
55.0809 5.40759
55.1314 5.38173
55.1816 5.32236
55.232 5.26122
55.2823 5.28358
55.3328 5.15994
55.383 5.11793
55.4335 5.10972
55.4838 5.04027
55.5344 4.9772
55.5847 4.99177
55.6352 4.932
55.6856 4.90491
55.7361 4.85161