File: XRD/Ni3Fe_FD0147.xy
TT I
1.27165 8.5321
1.31627 7.18746
1.36089 7.30655
1.40551 6.63774
1.45013 6.67447
1.49476 7.29619
1.53938 6.5881
1.584 5.86957
1.62863 5.91852
1.67325 5.55217
1.71787 6.09765
1.7625 5.41611
1.80712 5.76487
1.85174 5.12159
1.89636 5.21657
1.94099 5.67876
1.98562 4.868
2.03025 4.87554
2.07487 4.76435
2.11949 4.79542
2.16411 4.66009
2.20874 4.5694
2.25338 4.47103
2.298 4.75388
2.34263 4.15974
2.38725 4.81691
2.43188 4.18138
2.4765 4.54105
2.52115 4.45855
2.56577 4.99656
2.6104 5.69015
2.65503 4.50181
2.69965 5.37482
2.7443 5.9023
2.78893 6.65284
2.83356 7.30231
2.87818 8.03939
2.92281 8.66224
2.96744 9.61812
3.01209 10.7589
3.05672 11.2835
3.10135 12.1433
3.14599 13.0261
3.19062 13.7503
3.23527 15.0908
3.2799 15.3405
3.32454 16.6266
3.36917 17.811
3.4138 18.7174
3.45844 19.3934
3.50309 20.2024
3.54773 20.8898
3.59237 21.7035
3.637 22.5307
3.68164 23.755
3.7263 23.985
3.77094 24.6522
3.81558 25.4881
3.86022 26.3206
3.90486 27.6918
3.9495 28.438
3.99416 29.5888
4.0388 30.4757
4.08344 32.41
4.12809 32.2293
4.17273 33.869
4.21738 35.5266
4.26204 35.9494
4.30669 37.5404
4.35133 39.6775
4.39598 40.8988
4.44063 42.8274
4.4853 44.8971
4.52995 46.9328
4.5746 48.6665
4.61925 51.2693
4.6639 53.4923
4.70855 56.354
4.75322 59.525
4.79788 62.2976
4.84253 65.9428
4.88719 69.9915
4.93184 75.0349
4.97652 82.5321
5.02118 90.2953
5.06583 100.772
5.11049 117.601
5.15515 154.391
5.19981 549.968
5.24449 3771.73
5.28916 8127.04
5.33382 6432.23
5.37848 457.188
5.42315 163.181
5.46783 127.407
5.5125 113.88
5.55716 107.355
5.60183 101.425
5.6465 98.862
5.69117 97.0823
5.73586 95.0038
5.78053 94.889
5.8252 95.6928
5.86988 98.7166
5.91455 104.636
5.95924 124.409
6.00392 287.267
6.0486 1379.49
6.09328 2684.14
6.13795 4025.61
6.18263 744.594
6.22733 123.57
6.27201 89.2506
6.3167 78.1183
6.36138 72.3952
6.40606 67.998
6.45075 66.4358
6.49545 64.0555
6.54014 62.2484
6.58483 60.5876
6.62952 59.32
6.67421 58.2963
6.71892 56.9781
6.76361 56.1349
6.8083 55.7388
6.853 54.6342
6.89769 54.4307
6.94239 54.2565
6.98711 53.1515
7.03181 52.7459
7.07651 52.5796
7.12121 52.4521
7.16591 52.1901
7.21063 51.8386
7.25533 51.6479
7.30004 51.6225
7.34475 51.7724
7.38945 52.6162
7.43416 51.2416
7.47889 51.653
7.5236 55.8694
7.56831 63.5606
7.61303 55.0756
7.65774 53.4928
7.70247 53.7323
7.74719 54.1737
7.79191 54.7606
7.83663 54.7665
7.88135 55.9543
7.92607 56.7114
7.97081 58.0664
8.01553 58.858
8.06026 60.1601
8.10498 61.5369
8.14971 63.2487
8.19446 65.131
8.23919 67.81
8.28392 70.2586
8.32865 73.3693
8.37339 77.8055
8.41812 83.5501
8.46288 95.2131
8.50761 171.79
8.55235 602.125
8.59709 881.042
8.64183 1467.59
8.68658 1644.72
8.73134 424.597
8.77609 116.077
8.82083 97.3608
8.86558 90.882
8.91033 87.0892
8.9551 85.1249
8.99985 83.685
9.04461 82.9261
9.08936 81.6724
9.13412 81.1902
9.17888 81.053
9.22365 86.6334
9.26841 97.9382
9.31318 86.6789
9.35794 81.9741
9.4027 81.7649
9.44749 82.4464
9.49226 83.1751
9.53703 84.3342
9.5818 85.8277
9.62657 86.8187
9.67134 88.0625
9.71614 90.096
9.76091 92.4652
9.80569 94.998
9.85047 98.2007
9.89525 103.632
9.94005 113.911
9.98484 184.326
10.0296 545.08
10.0744 731.979
10.1192 1018.6
10.164 1656.19
10.2088 1002.63
10.2536 219.216
10.2984 116.279
10.3432 107.735
10.388 104.041
10.4328 120.63
10.4776 214.75
10.5224 260.983
10.5672 326.626
10.612 490.49
10.6568 379.543
10.7017 136.461
10.7465 90.5292
10.7913 83.5697
10.8361 80.2137
10.8809 77.9094
10.9257 75.5204
10.9706 73.9772
11.0154 72.4248
11.0602 71.0687
11.105 70.1365
11.1499 68.1975
11.1947 67.4796
11.2395 66.1847
11.2844 65.792
11.3292 65.1228
11.374 64.4941
11.4189 63.8694
11.4637 63.128
11.5086 62.5811
11.5534 61.9408
11.5983 61.6966
11.6431 61.753
11.688 61.4094
11.7328 61.0743
11.7777 60.8574
11.8225 61.011
11.8674 61.197
11.9122 62.225
11.9571 65.7364
12.002 65.3226
12.0468 67.6351
12.0917 90.422
12.1366 107.66
12.1814 116.802
12.2263 148.607
12.2712 192.393
12.3161 139.821
12.3609 75.0876
12.4058 63.6308
12.4507 63.1748
12.4956 62.7641
12.5405 63.0404
12.5853 63.2773
12.6302 63.3168
12.6751 64.1652
12.72 64.8665
12.7649 65.9909
12.8098 66.6975
12.8547 67.9279
12.8996 69.229
12.9445 71.0825
12.9894 72.6986
13.0343 74.7866
13.0792 78.772
13.1242 85.9805
13.1691 132.45
13.214 186.922
13.2589 203.057
13.3038 241.925
13.3487 346.01
13.3937 384.857
13.4386 213.387
13.4835 119.261
13.5285 154.453
13.5734 182.617
13.6183 190.816
13.6633 234.903
13.7082 328.556
13.7531 307.389
13.7981 155.057
13.843 88.3295
13.888 80.3822
13.9329 77.2035
13.9779 75.5173
14.0228 74.1304
14.0678 72.7534
14.1127 72.231
14.1577 73.8696
14.2027 72.2607
14.2476 70.4713
14.2926 69.1358
14.3376 68.791
14.3825 68.2605
14.4275 67.701
14.4725 67.7551
14.5175 68.1243
14.5624 67.9873
14.6074 68.2086
14.6524 68.8013
14.6974 69.5829
14.7424 70.9215
14.7874 80.2888
14.8324 106.645
14.8774 120.736
14.9224 126.14
14.9674 146.756
15.0124 189.302
15.0574 204.949
15.1024 140.524
15.1474 82.7651
15.1924 70.9001
15.2374 68.8603
15.2824 67.4956
15.3274 66.6769
15.3725 66.1845
15.4175 65.8489
15.4625 65.15
15.5076 65.196
15.5526 65.3095
15.5976 65.09
15.6426 66.1568
15.6877 73.3135
15.7327 94.6522
15.7778 107.202
15.8228 110.437
15.8679 123.1
15.9129 152.449
15.958 184.072
16.003 151.973
16.0481 89.8313
16.0931 66.3487
16.1382 61.6222
16.1833 60.1187
16.2283 58.3777
16.2734 57.8343
16.3185 57.0784
16.3636 56.3927
16.4086 55.6929
16.4537 55.3322
16.4988 54.7806
16.5439 54.9009
16.589 54.391
16.6341 54.1175
16.6792 53.7652
16.7243 54.092
16.7694 53.7001
16.8145 53.9291
16.8596 54.0231
16.9047 54.5449
16.9498 54.6567
16.9949 54.6182
17.04 55.138
17.0851 56.4652
17.1302 60.7555
17.1754 64.0948
17.2205 64.8313
17.2656 66.7368
17.3108 71.884
17.3559 78.9303
17.401 80.8222
17.4462 71.1774
17.4913 61.5692
17.5365 58.8773
17.5815 58.8016
17.6268 58.9007
17.6718 59.5985
17.7171 60.0147
17.7622 61.1306
17.8074 62.1105
17.8525 63.5319
17.8977 71.5935
17.9428 83.3731
17.9881 88.3847
18.0331 90.6934
18.0784 97.3949
18.1237 113.825
18.1688 140.021
18.214 142.456
18.2591 111.213
18.3044 88.0503
18.3495 86.1121
18.3948 94.3335
18.4399 102.989
18.4852 95.7718
18.5303 76.6143
18.5756 64.8774
18.6207 61.6958
18.666 60.7937
18.7112 59.6334
18.7565 59.0706
18.8016 58.6757
18.8469 58.1899
18.892 57.5999
18.9374 57.1214
18.9825 56.7206
19.0278 56.5316
19.073 56.6299
19.1183 56.969
19.1635 59.3516
19.2088 61.5425
19.254 62.0914
19.2993 62.8045
19.3447 65.0425
19.3898 68.6202
19.4352 73.445
19.4804 72.5682
19.5257 63.781
19.5709 56.3727
19.6163 54.1018
19.6615 53.4885
19.7068 53.1283
19.752 53.1466
19.7974 53.2288
19.8426 54.4951
19.888 56.6899
19.9332 58.0594
19.9786 58.3898
20.0238 58.7058
20.0692 61.7102
20.1144 66.6277
20.1598 72.0961
20.205 71.0128
20.2504 65.1473
20.2957 60.7507
20.3411 61.2508
20.3863 64.2721
20.4318 64.1382
20.477 59.1303
20.5224 53.1524
20.5677 50.857
20.6131 50.2571
20.6586 49.738
20.7038 49.4845
20.7493 49.159
20.7945 49.0473
20.84 49.0567
20.8853 48.6791
20.9307 48.3012
20.976 48.7071
21.0215 48.8352
21.0668 49.3328
21.1122 49.3097
21.1575 49.4867
21.203 49.5316
21.2483 49.9348
21.2938 50.9838
21.3391 51.4559
21.3846 50.371
21.4299 49.1864
21.4754 48.4675
21.5207 48.7719
21.5662 48.7769
21.6116 49.1723
21.6571 51.2223
21.7024 53.0255
21.7479 54.0288
21.7933 54.3727
21.8388 55.5689
21.8843 58.1123
21.9297 61.7603
21.9752 65.5077
22.0206 65.5595
22.0661 60.6447
22.1115 56.2903
22.157 55.3768
22.2024 56.2867
22.248 55.0016
22.2933 52.5213
22.3389 49.8957
22.3843 49.1726
22.4299 48.7044
22.4753 48.6143
22.5208 48.7204
22.5662 48.5861
22.6118 48.7777
22.6572 48.7716
22.7028 50.151
22.7483 51.2762
22.7939 51.7046
22.8393 51.8167
22.8849 52.5074
22.9303 53.0105
22.9759 54.7686
23.0214 56.8485
23.067 58.2779
23.1126 56.0126
23.1581 52.319
23.2037 49.6988
23.2492 49.1049
23.2948 49.4379
23.3403 50.7559
23.3859 51.5636
23.4314 51.6345
23.477 51.6808
23.5225 52.1843
23.5682 53.4746
23.6137 55.6823
23.6593 57.6832
23.7048 57.2128
23.7505 53.3497
23.796 49.1446
23.8417 46.9186
23.8872 45.9015
23.9329 45.486
23.9784 45.1506
24.0241 44.8887
24.0697 44.5202
24.1154 44.2537
24.1609 44.1049
24.2066 43.7886
24.2522 43.7646
24.2979 43.4475
24.3434 43.3381
24.3892 43.1288
24.4349 43.1048
24.4805 42.9035
24.5262 42.865
24.5718 42.7413
24.6175 42.9622
24.6631 43.0386
24.7089 42.6784
24.7545 42.5894
24.8002 42.34
24.8458 42.4947
24.8916 42.2942
24.9372 42.6008
24.983 42.7243
25.0286 42.8416
25.0744 43.4141
25.12 43.775
25.1658 44.155
25.2114 44.4318
25.2572 44.8096
25.3029 44.9127
25.3487 44.6165
25.3943 44.664
25.4402 44.9019
25.4858 44.4249
25.5316 42.9663
25.5773 41.7549
25.6231 41.1613
25.669 40.7925
25.7147 40.8495
25.7605 40.5128
25.8062 40.8945
25.8521 41.1165
25.8977 40.9065
25.9436 41.0306
25.9893 40.8283
26.0352 40.9635
26.0809 41.225
26.1268 41.4961
26.1725 41.8852
26.2184 41.8726
26.2641 41.4215
26.31 40.849
26.3557 40.8969
26.4017 40.73
26.4474 40.7635
26.4933 40.9214
26.5391 41.0898
26.585 41.4144
26.6308 41.5304
26.6767 41.9796
26.7225 42.426
26.7684 42.6653
26.8142 41.9141
26.8601 41.1925
26.9059 40.7292
26.9519 40.2166
26.9979 39.9648
27.0437 39.4079
27.0896 39.1216
27.1354 39.0166
27.1814 38.977
27.2272 38.7951
27.2732 38.8747
27.3191 38.6963
27.3651 38.7243
27.4109 38.6141
27.4569 38.6023
27.5027 38.652
27.5488 38.5665
27.5946 38.6888
27.6407 38.5745
27.6865 38.7323
27.7326 38.4218
27.7784 38.4475
27.8245 38.2257
27.8703 38.2576
27.9164 38.4357
27.9623 38.4288
28.0084 38.6521
28.0543 38.9973
28.1003 39.1524
28.1462 39.2825
28.1923 39.1582
28.2384 38.7109
28.2843 38.4649
28.3304 37.9285
28.3764 37.5477
28.4225 37.0871
28.4684 36.6183
28.5145 36.2468
28.5605 36.0971
28.6066 35.9144
28.6526 35.7753
28.6987 35.9103
28.7447 35.639
28.7908 35.5159
28.8368 35.5408
28.8829 35.3547
28.9289 35.4154
28.9751 35.4404
29.0211 35.2662
29.0673 35.1325
29.1133 35.0122
29.1595 34.7222
29.2055 34.5738
29.2517 34.4355
29.2977 34.2962
29.3439 34.2907
29.3899 34.2047
29.4361 34.1787
29.4824 34.1078
29.5284 34.1774
29.5746 33.9148
29.6207 33.4606
29.6669 33.2533
29.713 33.0678
29.7593 33.0364
29.8053 32.9936
29.8516 33.0411
29.8977 32.8489
29.9439 32.818
29.99 32.6825
30.0363 32.5609
30.0824 32.5994
30.1287 32.5069
30.1748 32.4392
30.2211 32.5188
30.2673 32.2999
30.3136 32.5776
30.3597 32.505
30.406 32.5145
30.4522 32.3493
30.4985 32.2374
30.5447 32.3182
30.591 32.2323
30.6372 32.2584
30.6835 32.2015
30.7297 32.1904
30.7761 32.3195
30.8224 32.3373
30.8686 32.2995
30.915 32.0733
30.9612 31.9466
31.0076 31.5837
31.0538 31.4945
31.1002 31.3985
31.1464 31.1621
31.1928 31.1682
31.2391 31.1445
31.2855 31.1004
31.3317 31.0014
31.3781 31.044
31.4244 30.9026
31.4708 30.8729
31.5171 30.8883
31.5636 30.9834
31.6098 30.9896
31.6563 30.775
31.7026 30.633
31.7491 30.4413
31.7953 30.349
31.8418 30.2661
31.8881 30.2604
31.9346 30.2564
31.9809 30.1395
32.0275 30.0651
32.074 30.1292
32.1203 30.0276
32.1668 29.8485
32.2132 29.6058
32.2597 29.5554
32.306 29.4223
32.3526 29.2121
32.399 29.0977
32.4455 28.8812
32.4919 28.8504
32.5385 28.8274
32.5848 28.6297
32.6314 28.7905
32.6778 28.6355
32.7244 28.4241
32.7708 28.2601
32.8174 28.264
32.8638 28.1638
32.9104 28.1648
32.9569 28.1639
33.0035 28.049
33.0499 28.0892
33.0966 27.8616
33.143 27.9953
33.1897 27.822
33.2361 27.8352
33.2828 27.7501
33.3293 27.5456
33.3759 27.6114
33.4226 27.4799
33.4691 27.3468
33.5158 27.3695
33.5623 27.1542
33.609 26.8696
33.6555 26.8625
33.7022 26.7803
33.7487 26.6732
33.7954 26.5571
33.842 26.5089
33.8887 26.4513
33.9353 26.3934
33.982 26.3163
34.0286 26.2447
34.0753 26.1979
34.1219 26.0561
34.1687 25.993
34.2152 25.9284
34.262 25.7487
34.3086 25.6687
34.3554 25.6285
34.402 25.4921
34.4488 25.4799
34.4954 25.4085
34.5422 25.3734
34.5889 25.217
34.6357 25.0996
34.6825 25.0442
34.7292 24.9153
34.776 24.8882
34.8227 24.7829
34.8695 24.7474
34.9162 24.7159
34.9631 24.6137
35.0098 24.5755
35.0566 24.4914
35.1033 24.4319
35.1502 24.3599
35.1969 24.3382
35.2438 24.2745
35.2906 24.2367
35.3375 24.1004
35.3842 24.0727
35.4311 24.0632
35.4779 24.0309
35.5248 23.9431
35.5716 23.9935
35.6185 23.8967
35.6653 23.7408
35.7123 23.6484
35.759 23.6432
35.806 23.5279
35.8528 23.3943
35.8998 23.3126
35.9468 23.229
35.9936 23.1643
36.0406 23.153
36.0874 23.1332
36.1345 23.0366
36.1813 22.944
36.2283 22.8656
36.2752 22.7559
36.3222 22.7607
36.3691 22.741
36.4161 22.6137
36.463 22.5527
36.5101 22.5561
36.557 22.4905
36.6041 22.2871
36.651 22.2996
36.6981 22.255
36.745 22.1059
36.7921 22.1566
36.839 22.0566
36.8861 21.9539
36.9331 21.9091
36.9802 21.7865
37.0272 21.7729
37.0743 21.6347
37.1213 21.5882
37.1684 21.5242
37.2154 21.4421
37.2626 21.3855
37.3098 21.267
37.3568 21.1875
37.404 21.2169
37.451 21.1805
37.4982 21.129
37.5452 21.0004
37.5924 20.9239
37.6395 20.9342
37.6867 20.888
37.7337 20.7196
37.781 20.7057
37.8281 20.6128
37.8753 20.5173
37.9224 20.4606
37.9697 20.4043
38.0168 20.309
38.064 20.2761
38.1111 20.178
38.1584 20.0508
38.2056 20.073
38.2529 19.9964
38.3 19.9068
38.3473 19.8771
38.3945 19.7871
38.4418 19.8111
38.489 19.7291
38.5363 19.6185
38.5837 19.5398
38.6309 19.4947
38.6782 19.3729
38.7254 19.3247
38.7728 19.2866
38.82 19.2311
38.8674 19.1863
38.9146 19.0988
38.9621 19.0217
39.0093 19.095
39.0567 18.9599
39.104 18.896
39.1514 18.8246
39.1987 18.8236
39.2461 18.789
39.2934 18.5979
39.3409 18.5317
39.3882 18.5126
39.4356 18.4927
39.483 18.4375
39.5304 18.3726
39.5778 18.3257
39.6253 18.2299
39.6726 18.1956
39.7201 18.1269
39.7675 18.0814
39.815 18.0515
39.8624 17.963
39.9099 17.9607
39.9575 17.8242
40.0049 17.8201
40.0525 17.7425
40.0999 17.6692
40.1474 17.5899
40.1949 17.5541
40.2425 17.4993
40.2899 17.4154
40.3375 17.3737
40.385 17.3126
40.4326 17.3046
40.48 17.2365
40.5277 17.1998
40.5752 17.0872
40.6228 17.0293
40.6703 17.0263
40.718 16.9847
40.7655 16.9208
40.8132 16.8747
40.8607 16.8376
40.9084 16.8173
40.9559 16.6916
41.0036 16.6374
41.0512 16.5771
41.0989 16.5367
41.1465 16.5095
41.1942 16.4311
41.242 16.3272
41.2896 16.2979
41.3373 16.2391
41.3849 16.2145
41.4327 16.1381
41.4803 16.03
41.5281 16.0317
41.5758 15.9916
41.6236 15.8578
41.6712 15.8818
41.7191 15.7991
41.7667 15.8435
41.8146 15.6995
41.8622 15.6671
41.9101 15.5785
41.9578 15.5311
42.0057 15.4829
42.0534 15.422
42.1013 15.4484
42.149 15.3505
42.1969 15.2856
42.2446 15.2472
42.2925 15.2113
42.3403 15.1453
42.3882 15.0986
42.436 15.0537
42.4839 14.9303
42.5319 14.9452
42.5797 14.9054
42.6277 14.8754
42.6755 14.7929
42.7235 14.7736
42.7713 14.7039
42.8193 14.6467
42.8671 14.5831
42.9152 14.5159
42.963 14.4765
43.0111 14.4153
43.0589 14.4161
43.107 14.3664
43.1549 14.3022
43.2029 14.2279
43.2508 14.1787
43.2989 14.1244
43.3468 14.1144
43.3949 14.0747
43.4429 14.0053
43.491 13.9251
43.5389 13.8969
43.5871 13.828
43.635 13.8027
43.6832 13.7334
43.7312 13.6991
43.7793 13.6096
43.8273 13.5593
43.8755 13.5719
43.9237 13.5266
43.9717 13.5246
44.0199 13.4598
44.068 13.3732
44.1162 13.3048
44.1642 13.322
44.2125 13.2091
44.2606 13.2454
44.3088 13.1772
44.3569 13.0868
44.4052 13.1176
44.4533 12.9999
44.5016 12.9496
44.5497 12.913
44.598 12.891
44.6461 12.8332
44.6945 12.7706
44.7426 12.7647
44.791 12.6705
44.8391 12.6375
44.8875 12.5932
44.9357 12.5859
44.984 12.516
45.0322 12.4831
45.0806 12.3706
45.1288 12.4142
45.1773 12.3247
45.2257 12.3303
45.2739 12.246
45.3224 12.1967
45.3706 12.1498
45.4191 12.1509
45.4673 12.0565
45.5158 12.0764
45.5641 11.9951
45.6126 11.9081
45.6609 11.919
45.7094 11.8467
45.7577 11.8063
45.8063 11.7624
45.8546 11.7418
45.9031 11.7284
45.9515 11.6628
46.0001 11.6291
46.0484 11.5809
46.097 11.5486
46.1454 11.4992
46.194 11.4708
46.2424 11.417
46.291 11.3742
46.3395 11.3537
46.3881 11.2629
46.4365 11.2749
46.4852 11.1917
46.5337 11.174
46.5823 11.145
46.631 11.0475
46.6795 11.0522
46.7282 11.0203
46.7767 10.9897
46.8254 10.9003
46.8739 10.8664
46.9226 10.8434
46.9712 10.8102
47.0199 10.7292
47.0685 10.6934
47.1173 10.6552
47.1658 10.6535
47.2146 10.6092
47.2632 10.5424
47.312 10.5008
47.3606 10.4538
47.4095 10.4356
47.4581 10.4072
47.5069 10.3591
47.5556 10.2897
47.6044 10.298
47.6531 10.2239
47.702 10.21
47.7507 10.1693
47.7996 10.1137
47.8483 10.0323
47.8972 10.1026
47.9461 10.0472
47.9948 9.97218
48.0438 9.91657
48.0925 9.92959
48.1415 9.92443
48.1902 9.87199
48.2392 9.84524
48.288 9.78506
48.337 9.73403
48.3858 9.68113
48.4348 9.68883
48.4837 9.62601
48.5327 9.60098
48.5815 9.56874
48.6306 9.57448
48.6795 9.48528
48.7285 9.45257
48.7774 9.44483
48.8265 9.42816
48.8754 9.36995
48.9245 9.35566
48.9734 9.27906
49.0226 9.27203
49.0715 9.23246
49.1206 9.19211
49.1696 9.12314
49.2188 9.16042
49.2679 9.08158
49.3169 9.03748
49.3661 9.02006
49.4151 8.97014
49.4643 8.97565
49.5134 8.90337
49.5626 8.86376
49.6117 8.83569
49.6609 8.80229
49.71 8.7431
49.7592 8.7331
49.8083 8.69722
49.8576 8.68216
49.9067 8.62209
49.956 8.60803
50.0052 8.5804
50.0545 8.56273
50.1036 8.53657
50.153 8.47369
50.2022 8.47619
50.2515 8.4272
50.3007 8.39067
50.3501 8.36641
50.3993 8.29297
50.4487 8.28334
50.498 8.29699
50.5474 8.24026
50.5966 8.19859
50.6461 8.12849
50.6955 8.12802
50.7448 8.11976
50.7943 8.09702
50.8436 8.04643
50.8931 7.97304
50.9424 7.92901
50.9919 7.96978
51.0413 7.91454
51.0908 7.87028
51.1402 7.86368
51.1897 7.83452
51.2391 7.76304
51.2887 7.71392
51.3381 7.73084
51.3877 7.68267
51.4371 7.64371
51.4867 7.61513
51.5362 7.55118
51.5858 7.60214
51.6353 7.51572
51.6849 7.51041
51.7344 7.45792
51.7841 7.45005
51.8336 7.4278
51.8833 7.41576
51.9328 7.38993
51.9826 7.29709
52.0323 7.28456
52.0818 7.23396
52.1316 7.20474
52.1812 7.21867
52.231 7.14373
52.2806 7.14939
52.3304 7.09983
52.38 7.04933
52.4298 7.03008
52.4794 6.99937
52.5293 6.96955
52.5789 6.99447
52.6288 6.95211
52.6785 6.91399
52.7284 6.90553
52.7781 6.83083
52.828 6.80318
52.8777 6.76528
52.9276 6.74518
52.9774 6.77216
53.0273 6.72637
53.0771 6.65165
53.1271 6.65084
53.1769 6.61635
53.2269 6.5959
53.2767 6.54034
53.3267 6.54506
53.3765 6.54399
53.4266 6.50817
53.4766 6.45213
53.5265 6.39868
53.5765 6.4336
53.6264 6.37453
53.6765 6.30976
53.7264 6.31659
53.7765 6.32665
53.8265 6.22995
53.8766 6.23323
53.9266 6.20366
53.9767 6.1758
54.0267 6.18792
54.0769 6.10239
54.1269 6.10587
54.1771 6.02572
54.2271 6.0065
54.2773 5.95995
54.3274 5.93082
54.3776 5.93805
54.4277 5.86314
54.478 5.83154
54.528 5.7904
54.5783 5.73262
54.6285 5.7154
54.6788 5.63518
54.7289 5.56837
54.7792 5.53708
54.8296 5.51787
54.8798 5.48723
54.9301 5.42378
54.9803 5.46515
55.0307 5.39482
55.0809 5.30835
55.1314 5.3448
55.1816 5.24291
55.232 5.19259
55.2823 5.19059
55.3328 5.0716
55.383 5.00124
55.4335 5.00342
55.4838 4.91928
55.5344 4.89092
55.5847 4.86398
55.6352 4.82531
55.6856 4.81838
55.7361 4.77981