File: XRD/Ni3Fe_FD0031.xy
TT I
1.27165 33.1965
1.31627 32.2231
1.36089 31.3353
1.40551 29.0967
1.45013 28.4414
1.49476 27.562
1.53938 27.1804
1.584 25.2335
1.62863 25.3039
1.67325 23.372
1.71787 24.5037
1.7625 22.865
1.80712 22.8481
1.85174 22.6246
1.89636 22.2563
1.94099 22.9826
1.98562 22.0853
2.03025 21.7363
2.07487 23.0783
2.11949 23.9002
2.16411 24.2121
2.20874 25.589
2.25338 25.3086
2.298 25.1781
2.34263 24.9262
2.38725 23.9215
2.43188 23.8682
2.4765 24.3335
2.52115 24.11
2.56577 24.8617
2.6104 24.4865
2.65503 26.3534
2.69965 27.4031
2.7443 28.5183
2.78893 31.4676
2.83356 33.4139
2.87818 37.677
2.92281 42.0207
2.96744 47.6991
3.01209 56.1458
3.05672 64.6656
3.10135 74.517
3.14599 81.2
3.19062 79.6926
3.23527 73.2735
3.2799 62.5865
3.32454 52.0035
3.36917 44.3144
3.4138 39.4017
3.45844 36.639
3.50309 35.6212
3.54773 35.7444
3.59237 37.5236
3.637 40.744
3.68164 41.5048
3.7263 40.16
3.77094 37.0387
3.81558 34.6321
3.86022 33.7177
3.90486 33.7955
3.9495 34.2547
3.99416 35.2987
4.0388 37.7041
4.08344 41.4141
4.12809 46.3482
4.17273 55.0639
4.21738 67.6051
4.26204 82.3341
4.30669 89.7258
4.35133 82.8849
4.39598 70.1194
4.44063 62.4437
4.4853 58.0833
4.52995 53.5478
4.5746 48.4334
4.61925 47.0104
4.6639 45.3274
4.70855 45.9365
4.75322 47.3344
4.79788 49.6696
4.84253 52.684
4.88719 56.9156
4.93184 62.8586
4.97652 72.6094
5.02118 89.0874
5.06583 113.844
5.11049 141.015
5.15515 190.187
5.19981 294.248
5.24449 608.17
5.28916 1275.98
5.33382 3397.91
5.37848 3548.27
5.42315 1040.7
5.46783 347.589
5.5125 207.684
5.55716 154.626
5.60183 125.559
5.6465 113.052
5.69117 107.38
5.73586 100.662
5.78053 97.5425
5.8252 97.3567
5.86988 102.695
5.91455 113.528
5.95924 133.525
6.00392 178.742
6.0486 287.897
6.09328 490.797
6.13795 879.08
6.18263 1289.33
6.22733 695.934
6.27201 286.513
6.3167 157.082
6.36138 106.083
6.40606 82.9111
6.45075 70.8192
6.49545 62.4016
6.54014 57.6262
6.58483 55.6068
6.62952 55.7241
6.67421 56.6559
6.71892 58.1875
6.76361 58.1879
6.8083 54.7129
6.853 50.7952
6.89769 47.7224
6.94239 45.1742
6.98711 43.5826
7.03181 42.7664
7.07651 43.2548
7.12121 44.3855
7.16591 46.9678
7.21063 51.1616
7.25533 58.7317
7.30004 71.0354
7.34475 75.8815
7.38945 67.8938
7.43416 56.7137
7.47889 50.5919
7.5236 54.2047
7.56831 100.713
7.61303 147.56
7.65774 69.5965
7.70247 44.2069
7.74719 39.9055
7.79191 38.2883
7.83663 37.6301
7.88135 37.5149
7.92607 38.0765
7.97081 38.2436
8.01553 39.0088
8.06026 39.7233
8.10498 40.6683
8.14971 42.1903
8.19446 43.6674
8.23919 45.5058
8.28392 47.0733
8.32865 49.1576
8.37339 53.0059
8.41812 58.2809
8.46288 67.4138
8.50761 81.5901
8.55235 111.734
8.59709 171.501
8.64183 231.927
8.68658 428.915
8.73134 780.843
8.77609 581.673
8.82083 244.042
8.86558 126.632
8.91033 92.0828
8.9551 77.3187
8.99985 70.541
9.04461 64.7823
9.08936 61.7896
9.13412 60.0647
9.17888 61.0205
9.22365 69.7512
9.26841 136.352
9.31318 252.791
9.35794 137.163
9.4027 68.2307
9.44749 57.5568
9.49226 54.3187
9.53703 52.8782
9.5818 53.2104
9.62657 53.4525
9.67134 54.7184
9.71614 56.0803
9.76091 57.4074
9.80569 59.5051
9.85047 62.3528
9.89525 66.9755
9.94005 73.6314
9.98484 84.0464
10.0296 106.515
10.0744 149.8
10.1192 192.419
10.164 268.946
10.2088 552.097
10.2536 810.271
10.2984 482.899
10.3432 215.311
10.388 122.721
10.4328 93.0751
10.4776 84.3725
10.5224 88.1468
10.5672 93.7184
10.612 106.768
10.6568 171.235
10.7017 279.617
10.7465 243.63
10.7913 128.221
10.8361 70.2744
10.8809 55.2602
10.9257 49.5807
10.9706 47.2539
11.0154 45.653
11.0602 44.401
11.105 43.9936
11.1499 43.3004
11.1947 43.3748
11.2395 43.4029
11.2844 43.1371
11.3292 41.6943
11.374 40.5998
11.4189 39.7151
11.4637 38.8489
11.5086 38.4119
11.5534 38.4263
11.5983 38.4435
11.6431 38.4087
11.688 38.0083
11.7328 37.5625
11.7777 37.3233
11.8225 37.6668
11.8674 38.1338
11.9122 40.1124
11.9571 47.9547
12.002 77.267
12.0468 88.3696
12.0917 57.8902
12.1366 46.8998
12.1814 47.9987
12.2263 50.6579
12.2712 58.1539
12.3161 75.6263
12.3609 95.8051
12.4058 85.3079
12.4507 61.3166
12.4956 49.871
12.5405 44.5178
12.5853 42.4295
12.6302 41.6501
12.6751 41.9892
12.72 42.4947
12.7649 42.1244
12.8098 40.9922
12.8547 40.2732
12.8996 40.2197
12.9445 40.3556
12.9894 40.8874
13.0343 41.6199
13.0792 43.6367
13.1242 48.5935
13.1691 59.0232
13.214 62.9891
13.2589 65.8029
13.3038 70.9523
13.3487 78.1176
13.3937 103.655
13.4386 164.12
13.4835 221.212
13.5285 175.311
13.5734 112.825
13.6183 88.778
13.6633 80.8457
13.7082 83.8727
13.7531 108.599
13.7981 172.829
13.843 203.626
13.888 136.946
13.9329 79.5408
13.9779 58.9311
14.0228 50.7484
14.0678 47.0952
14.1127 46.2939
14.1577 49.8882
14.2027 69.9599
14.2476 86.2095
14.2926 64.2515
14.3376 46.5435
14.3825 41.6148
14.4275 40.5421
14.4725 39.6862
14.5175 39.2372
14.5624 39.0563
14.6074 38.9307
14.6524 39.2543
14.6974 39.2445
14.7424 39.7197
14.7874 40.419
14.8324 41.9496
14.8774 44.7696
14.9224 48.8684
14.9674 50.6515
15.0124 53.7104
15.0574 64.0776
15.1024 88.9088
15.1474 121.699
15.1924 116.01
15.2374 80.3801
15.2824 57.8551
15.3274 47.8346
15.3725 43.6641
15.4175 41.6291
15.4625 40.3976
15.5076 39.6421
15.5526 39.4713
15.5976 39.1939
15.6426 39.0383
15.6877 39.352
15.7327 40.3761
15.7778 42.5033
15.8228 45.9083
15.8679 48.3686
15.9129 49.8894
15.958 56.4297
16.003 72.0357
16.0481 103.73
16.0931 122.415
16.1382 103.531
16.1833 75.3594
16.2283 53.1699
16.2734 43.483
16.3185 39.5199
16.3636 37.2638
16.4086 36.0888
16.4537 35.1636
16.4988 34.3705
16.5439 33.9894
16.589 33.4566
16.6341 32.8872
16.6792 32.3933
16.7243 32.4656
16.7694 32.4263
16.8145 32.4013
16.8596 32.5619
16.9047 32.972
16.9498 34.1015
16.9949 37.4667
17.04 40.2341
17.0851 37.9141
17.1302 34.5556
17.1754 33.88
17.2205 34.274
17.2656 34.7422
17.3108 35.1615
17.3559 35.7269
17.401 37.593
17.4462 41.8617
17.4913 48.7243
17.5365 50.9151
17.5815 44.9466
17.6268 39.2667
17.6718 36.5964
17.7171 35.5201
17.7622 35.9343
17.8074 37.7248
17.8525 41.1253
17.8977 42.2541
17.9428 40.161
17.9881 39.9638
18.0331 42.0766
18.0784 42.9127
18.1237 44.0299
18.1688 46.6185
18.214 54.0939
18.2591 69.7278
18.3044 93.0219
18.3495 95.7623
18.3948 75.1166
18.4399 59.066
18.4852 55.3377
18.5303 61.6792
18.5756 70.9642
18.6207 70.1027
18.666 58.348
18.7112 47.8784
18.7565 41.0388
18.8016 38.0055
18.8469 36.3654
18.892 35.6128
18.9374 34.8589
18.9825 34.5934
19.0278 34.1409
19.073 33.9918
19.1183 33.9138
19.1635 33.8548
19.2088 34.5139
19.254 35.0627
19.2993 35.7373
19.3447 36.9818
19.3898 41.0105
19.4352 46.0388
19.4804 46.8084
19.5257 45.2342
19.5709 47.1466
19.6163 48.0443
19.6615 43.5556
19.7068 38.0352
19.752 34.994
19.7974 33.604
19.8426 32.8475
19.888 32.3473
19.9332 32.3639
19.9786 32.9191
20.0238 32.7355
20.0692 33.0422
20.1144 33.0087
20.1598 33.9948
20.205 35.6426
20.2504 38.9561
20.2957 43.7631
20.3411 46.124
20.3863 43.3769
20.4318 39.5593
20.477 38.9643
20.5224 41.533
20.5677 43.9156
20.6131 41.4128
20.6586 36.55
20.7038 33.5487
20.7493 31.8428
20.7945 31.5855
20.84 32.3646
20.8853 33.5726
20.9307 33.4248
20.976 31.5949
21.0215 29.7489
21.0668 29.4283
21.1122 29.4041
21.1575 29.2207
21.203 29.209
21.2483 29.0789
21.2938 29.2854
21.3391 29.3537
21.3846 29.6922
21.4299 30.7248
21.4754 32.1166
21.5207 32.6287
21.5662 32.0238
21.6116 30.9452
21.6571 30.0719
21.7024 29.8507
21.7479 30.0437
21.7933 30.5488
21.8388 31.0081
21.8843 31.3774
21.9297 31.6491
21.9752 32.6679
22.0206 34.5439
22.0661 37.3834
22.1115 41.9121
22.157 45.9352
22.2024 46.2039
22.248 42.7317
22.2933 40.3641
22.3389 39.1596
22.3843 38.5951
22.4299 36.6461
22.4753 34.1153
22.5208 32.221
22.5662 31.2101
22.6118 30.781
22.6572 30.411
22.7028 30.1678
22.7483 30.1185
22.7939 30.3702
22.8393 31.0211
22.8849 31.9677
22.9303 32.0623
22.9759 31.7938
23.0214 31.3892
23.067 31.9993
23.1126 33.2225
23.1581 35.6914
23.2037 39.6716
23.2492 41.363
23.2948 38.7494
23.3403 34.9697
23.3859 32.7969
23.4314 32.2387
23.477 32.5087
23.5225 33.5875
23.5682 34.0369
23.6137 33.3402
23.6593 32.5699
23.7048 33.0901
23.7505 34.8303
23.796 38.0376
23.8417 41.8474
23.8872 41.6121
23.9329 37.8215
23.9784 33.4644
24.0241 31.0158
24.0697 29.9431
24.1154 29.3106
24.1609 29.0812
24.2066 28.7252
24.2522 28.2372
24.2979 27.682
24.3434 27.3983
24.3892 27.2574
24.4349 26.9803
24.4805 26.8341
24.5262 26.8501
24.5718 26.6978
24.6175 26.7387
24.6631 26.8302
24.7089 27.249
24.7545 27.771
24.8002 28.072
24.8458 27.7465
24.8916 27.1237
24.9372 26.6871
24.983 26.5726
25.0286 26.5312
25.0744 26.4488
25.12 26.3576
25.1658 26.6053
25.2114 26.5674
25.2572 26.8975
25.3029 27.3914
25.3487 28.1194
25.3943 28.9935
25.4402 29.5037
25.4858 29.9144
25.5316 29.7056
25.5773 30.1666
25.6231 31.2742
25.669 30.9691
25.7147 29.5131
25.7605 27.8416
25.8062 26.8215
25.8521 26.6113
25.8977 26.5405
25.9436 26.82
25.9893 26.6023
26.0352 26.3129
26.0809 25.7938
26.1268 25.7101
26.1725 25.9221
26.2184 25.9801
26.2641 26.4102
26.31 26.8768
26.3557 27.7553
26.4017 28.1667
26.4474 27.9764
26.4933 27.1584
26.5391 26.6083
26.585 26.3046
26.6308 26.081
26.6767 26.0505
26.7225 26.097
26.7684 26.3902
26.8142 26.8378
26.8601 27.6055
26.9059 28.8777
26.9519 29.7316
26.9979 29.807
27.0437 29.1528
27.0896 28.8941
27.1354 28.2917
27.1814 27.2366
27.2272 26.3618
27.2732 25.6672
27.3191 25.181
27.3651 25.103
27.4109 24.9047
27.4569 24.7826
27.5027 24.7883
27.5488 24.7432
27.5946 24.7294
27.6407 24.8635
27.6865 24.8404
27.7326 24.8397
27.7784 25.1435
27.8245 25.4544
27.8703 25.5251
27.9164 25.4205
27.9623 25.0
28.0084 24.8129
28.0543 25.0656
28.1003 25.2376
28.1462 25.4729
28.1923 25.8223
28.2384 25.702
28.2843 26.1662
28.3304 26.9481
28.3764 27.5759
28.4225 27.406
28.4684 26.893
28.5145 26.4053
28.5605 26.1025
28.6066 25.6047
28.6526 25.0243
28.6987 24.4851
28.7447 23.9582
28.7908 23.5471
28.8368 23.267
28.8829 23.0974
28.9289 23.0479
28.9751 22.889
29.0211 22.8675
29.0673 22.8149
29.1133 22.8302
29.1595 23.0496
29.2055 23.2418
29.2517 23.2698
29.2977 23.0459
29.3439 22.6529
29.3899 22.3347
29.4361 22.1202
29.4824 22.0478
29.5284 22.1117
29.5746 22.0397
29.6207 22.1476
29.6669 22.4001
29.713 22.5711
29.7593 22.5319
29.8053 22.3297
29.8516 21.9521
29.8977 21.7248
29.9439 21.4827
29.99 21.4254
30.0363 21.2075
30.0824 21.3964
30.1287 21.3762
30.1748 21.4597
30.2211 21.4618
30.2673 21.3069
30.3136 21.1659
30.3597 21.1799
30.406 21.1333
30.4522 21.1252
30.4985 21.201
30.5447 21.3983
30.591 21.4131
30.6372 21.3474
30.6835 21.176
30.7297 21.056
30.7761 21.0788
30.8224 21.0822
30.8686 21.1645
30.915 21.2446
30.9612 21.6501
31.0076 22.012
31.0538 22.2499
31.1002 22.2406
31.1464 22.0291
31.1928 21.7888
31.2391 21.6789
31.2855 21.2291
31.3317 21.0407
31.3781 20.7813
31.4244 20.6053
31.4708 20.4865
31.5171 20.6043
31.5636 20.5254
31.6098 20.514
31.6563 20.623
31.7026 20.6523
31.7491 20.7177
31.7953 21.022
31.8418 21.1353
31.8881 21.0942
31.9346 20.7881
31.9809 20.3894
32.0275 20.2334
32.074 20.2425
32.1203 20.2312
32.1668 20.3061
32.2132 20.4644
32.2597 20.5462
32.306 20.7128
32.3526 20.5293
32.399 20.4258
32.4455 20.1469
32.4919 19.985
32.5385 19.72
32.5848 19.5048
32.6314 19.4996
32.6778 19.2748
32.7244 19.1137
32.7708 19.0044
32.8174 18.9819
32.8638 18.7972
32.9104 18.8369
32.9569 18.8933
33.0035 18.8136
33.0499 18.7946
33.0966 18.8282
33.143 18.739
33.1897 18.5806
33.2361 18.512
33.2828 18.4873
33.3293 18.471
33.3759 18.4969
33.4226 18.524
33.4691 18.6744
33.5158 18.7853
33.5623 18.7321
33.609 18.7306
33.6555 18.7137
33.7022 18.6846
33.7487 18.4511
33.7954 18.2721
33.842 18.0166
33.8887 17.9365
33.9353 17.8919
33.982 17.7688
34.0286 17.7599
34.0753 17.7071
34.1219 17.6513
34.1687 17.6018
34.2152 17.6684
34.262 17.6121
34.3086 17.4567
34.3554 17.4435
34.402 17.2493
34.4488 17.1807
34.4954 17.0595
34.5422 17.0577
34.5889 17.0438
34.6357 17.0899
34.6825 17.0389
34.7292 16.989
34.776 16.9521
34.8227 16.8308
34.8695 16.758
34.9162 16.7452
34.9631 16.5281
35.0098 16.5576
35.0566 16.4956
35.1033 16.3538
35.1502 16.4508
35.1969 16.3932
35.2438 16.3473
35.2906 16.3775
35.3375 16.2996
35.3842 16.4118
35.4311 16.274
35.4779 16.2281
35.5248 16.3153
35.5716 16.253
35.6185 16.2956
35.6653 16.2219
35.7123 16.3288
35.759 16.3607
35.806 16.443
35.8528 16.4095
35.8998 16.4698
35.9468 16.3722
35.9936 16.2077
36.0406 16.0637
36.0874 15.9066
36.1345 15.9451
36.1813 15.6816
36.2283 15.6187
36.2752 15.5482
36.3222 15.6034
36.3691 15.5367
36.4161 15.509
36.463 15.598
36.5101 15.5072
36.557 15.5493
36.6041 15.472
36.651 15.422
36.6981 15.3862
36.745 15.2348
36.7921 15.2069
36.839 15.1827
36.8861 15.2015
36.9331 15.1619
36.9802 15.1544
37.0272 15.0543
37.0743 15.0043
37.1213 14.9944
37.1684 14.8603
37.2154 14.8219
37.2626 14.694
37.3098 14.6829
37.3568 14.6508
37.404 14.5574
37.451 14.5109
37.4982 14.4998
37.5452 14.4246
37.5924 14.3779
37.6395 14.4038
37.6867 14.3715
37.7337 14.1757
37.781 14.1588
37.8281 14.0763
37.8753 14.0956
37.9224 14.0773
37.9697 14.0421
38.0168 14.0388
38.064 13.951
38.1111 13.9734
38.1584 13.8708
38.2056 13.8855
38.2529 13.8124
38.3 13.7579
38.3473 13.709
38.3945 13.5488
38.4418 13.5502
38.489 13.5361
38.5363 13.4631
38.5837 13.4853
38.6309 13.447
38.6782 13.457
38.7254 13.4189
38.7728 13.3179
38.82 13.325
38.8674 13.2562
38.9146 13.2032
38.9621 13.1742
39.0093 13.1801
39.0567 13.1922
39.104 13.128
39.1514 13.064
39.1987 13.0391
39.2461 12.9582
39.2934 12.8849
39.3409 12.8298
39.3882 12.8054
39.4356 12.7728
39.483 12.7251
39.5304 12.6545
39.5778 12.6483
39.6253 12.6064
39.6726 12.5966
39.7201 12.529
39.7675 12.5146
39.815 12.4798
39.8624 12.3325
39.9099 12.4069
39.9575 12.339
40.0049 12.3251
40.0525 12.2235
40.0999 12.2966
40.1474 12.2306
40.1949 12.2616
40.2425 12.22
40.2899 12.2025
40.3375 12.1051
40.385 12.0253
40.4326 12.005
40.48 11.9421
40.5277 11.9421
40.5752 11.9611
40.6228 11.8815
40.6703 11.8328
40.718 11.8302
40.7655 11.839
40.8132 11.7228
40.8607 11.7588
40.9084 11.7019
40.9559 11.647
41.0036 11.618
41.0512 11.6355
41.0989 11.6363
41.1465 11.5832
41.1942 11.5401
41.242 11.4767
41.2896 11.4607
41.3373 11.3733
41.3849 11.37
41.4327 11.315
41.4803 11.2091
41.5281 11.212
41.5758 11.2026
41.6236 11.1392
41.6712 11.1013
41.7191 11.0624
41.7667 11.0404
41.8146 11.0003
41.8622 10.9762
41.9101 10.9962
41.9578 10.8802
42.0057 10.9284
42.0534 10.8337
42.1013 10.7998
42.149 10.821
42.1969 10.7344
42.2446 10.7421
42.2925 10.7124
42.3403 10.6761
42.3882 10.5733
42.436 10.5643
42.4839 10.5027
42.5319 10.5279
42.5797 10.484
42.6277 10.4213
42.6755 10.3682
42.7235 10.3468
42.7713 10.3545
42.8193 10.2663
42.8671 10.2534
42.9152 10.2285
42.963 10.1726
43.0111 10.1282
43.0589 10.085
43.107 10.0352
43.1549 10.0039
43.2029 10.0014
43.2508 9.9938
43.2989 9.93442
43.3468 9.90567
43.3949 9.85219
43.4429 9.75486
43.491 9.76311
43.5389 9.7446
43.5871 9.74805
43.635 9.66147
43.6832 9.64473
43.7312 9.61314
43.7793 9.58468
43.8273 9.56415
43.8755 9.56554
43.9237 9.50089
43.9717 9.4765
44.0199 9.46841
44.068 9.47388
44.1162 9.39557
44.1642 9.39252
44.2125 9.34788
44.2606 9.3773
44.3088 9.25333
44.3569 9.26681
44.4052 9.21807
44.4533 9.16888
44.5016 9.08694
44.5497 9.11064
44.598 9.11882
44.6461 9.08871
44.6945 9.04258
44.7426 9.01956
44.791 8.9584
44.8391 8.9724
44.8875 8.89094
44.9357 8.92562
44.984 8.8592
45.0322 8.81424
45.0806 8.82682
45.1288 8.79011
45.1773 8.72962
45.2257 8.68533
45.2739 8.66731
45.3224 8.62736
45.3706 8.59352
45.4191 8.56027
45.4673 8.53354
45.5158 8.55881
45.5641 8.51781
45.6126 8.52294
45.6609 8.45164
45.7094 8.40902
45.7577 8.35046
45.8063 8.33272
45.8546 8.40636
45.9031 8.30342
45.9515 8.27587
46.0001 8.23729
46.0484 8.22481
46.097 8.20542
46.1454 8.16921
46.194 8.15577
46.2424 8.11999
46.291 8.08237
46.3395 8.05922
46.3881 8.00366
46.4365 7.99129
46.4852 7.97226
46.5337 7.98009
46.5823 7.90313
46.631 7.89437
46.6795 7.82373
46.7282 7.85513
46.7767 7.83081
46.8254 7.74736
46.8739 7.76784
46.9226 7.68833
46.9712 7.72421
47.0199 7.66756
47.0685 7.62508
47.1173 7.65795
47.1658 7.58978
47.2146 7.57286
47.2632 7.52824
47.312 7.48973
47.3606 7.45541
47.4095 7.45343
47.4581 7.41264
47.5069 7.37116
47.5556 7.36756
47.6044 7.35859
47.6531 7.32003
47.702 7.26254
47.7507 7.24869
47.7996 7.22269
47.8483 7.22326
47.8972 7.18948
47.9461 7.15649
47.9948 7.11978
48.0438 7.08048
48.0925 7.0986
48.1415 7.08776
48.1902 7.02691
48.2392 7.03756
48.288 6.97241
48.337 6.95155
48.3858 6.93562
48.4348 6.93037
48.4837 6.90841
48.5327 6.87928
48.5815 6.81284
48.6306 6.8194
48.6795 6.79088
48.7285 6.74124
48.7774 6.73852
48.8265 6.69619
48.8754 6.67023
48.9245 6.68761
48.9734 6.62917
49.0226 6.62427
49.0715 6.59306
49.1206 6.55792
49.1696 6.54594
49.2188 6.53812
49.2679 6.49248
49.3169 6.44104
49.3661 6.46963
49.4151 6.42076
49.4643 6.41209
49.5134 6.39727
49.5626 6.35252
49.6117 6.31225
49.6609 6.34812
49.71 6.31064
49.7592 6.30188
49.8083 6.23023
49.8576 6.26549
49.9067 6.21311
49.956 6.20911
50.0052 6.17485
50.0545 6.15476
50.1036 6.10778
50.153 6.09024
50.2022 6.0863
50.2515 6.05954
50.3007 6.04629
50.3501 6.01054
50.3993 5.982
50.4487 5.97807
50.498 5.95716
50.5474 5.94144
50.5966 5.89529
50.6461 5.91071
50.6955 5.88488
50.7448 5.83794
50.7943 5.81299
50.8436 5.79267
50.8931 5.79831
50.9424 5.77815
50.9919 5.74541
51.0413 5.71316
51.0908 5.70021
51.1402 5.66599
51.1897 5.63287
51.2391 5.64803
51.2887 5.61189
51.3381 5.61936
51.3877 5.53828
51.4371 5.50651
51.4867 5.51232
51.5362 5.49619
51.5858 5.47061
51.6353 5.44999
51.6849 5.42218
51.7344 5.41823
51.7841 5.42467
51.8336 5.36271
51.8833 5.35799
51.9328 5.32787
51.9826 5.27167
52.0323 5.28361
52.0818 5.28017
52.1316 5.25396
52.1812 5.22758
52.231 5.18657
52.2806 5.18365
52.3304 5.19551
52.38 5.12871
52.4298 5.12905
52.4794 5.09574
52.5293 5.07031
52.5789 5.04917
52.6288 5.04942
52.6785 4.97825
52.7284 5.00014
52.7781 4.99297
52.828 4.93567
52.8777 4.96848
52.9276 4.89186
52.9774 4.92819
53.0273 4.89334
53.0771 4.87191
53.1271 4.86432
53.1769 4.83677
53.2269 4.79246
53.2767 4.76127
53.3267 4.77148
53.3765 4.74292
53.4266 4.71989
53.4766 4.71342
53.5265 4.67476
53.5765 4.6503
53.6264 4.61458
53.6765 4.61086
53.7264 4.58916
53.7765 4.58782
53.8265 4.58284
53.8766 4.5386
53.9266 4.55282
53.9767 4.48529
54.0267 4.50446
54.0769 4.4643
54.1269 4.43094
54.1771 4.40444
54.2271 4.37596
54.2773 4.35248
54.3274 4.33529
54.3776 4.30676
54.4277 4.26233
54.478 4.25635
54.528 4.16842
54.5783 4.16282
54.6285 4.13436
54.6788 4.12169
54.7289 4.09557
54.7792 4.03868
54.8296 3.98811
54.8798 3.98435
54.9301 3.93913
54.9803 3.92901
55.0307 3.92895
55.0809 3.85766
55.1314 3.86159
55.1816 3.8162
55.232 3.78476
55.2823 3.76527
55.3328 3.70916
55.383 3.64433
55.4335 3.59556
55.4838 3.61101
55.5344 3.55274
55.5847 3.5032
55.6352 3.50137
55.6856 3.45525
55.7361 3.45559