File: XRD/Ni3Fe_FD0184.xy
TT I
1.27165 8.11029
1.31627 7.1855
1.36089 6.98993
1.40551 6.92272
1.45013 6.76461
1.49476 6.18613
1.53938 5.97118
1.584 5.78889
1.62863 5.69153
1.67325 5.51214
1.71787 5.45327
1.7625 5.4155
1.80712 4.96074
1.85174 5.2017
1.89636 4.86039
1.94099 4.30096
1.98562 5.33297
2.03025 4.82805
2.07487 4.68423
2.11949 4.43223
2.16411 4.21192
2.20874 4.73056
2.25338 3.87142
2.298 4.66034
2.34263 4.94233
2.38725 5.09165
2.43188 4.78857
2.4765 4.65278
2.52115 4.33997
2.56577 4.76283
2.6104 5.10568
2.65503 5.36046
2.69965 6.51718
2.7443 7.08881
2.78893 7.41741
2.83356 7.56411
2.87818 7.92878
2.92281 8.16004
2.96744 9.43802
3.01209 10.5769
3.05672 11.5454
3.10135 12.6556
3.14599 13.5266
3.19062 14.4354
3.23527 15.2528
3.2799 16.0042
3.32454 16.793
3.36917 17.8548
3.4138 18.7375
3.45844 19.6132
3.50309 20.6964
3.54773 20.9774
3.59237 21.917
3.637 23.01
3.68164 23.8885
3.7263 24.4186
3.77094 25.0073
3.81558 25.9382
3.86022 26.614
3.90486 28.2495
3.9495 28.7662
3.99416 29.5179
4.0388 31.0627
4.08344 32.122
4.12809 32.602
4.17273 34.1113
4.21738 35.4758
4.26204 36.3061
4.30669 38.2326
4.35133 40.1256
4.39598 41.3598
4.44063 43.2563
4.4853 45.3605
4.52995 47.5318
4.5746 49.507
4.61925 51.8401
4.6639 54.1955
4.70855 56.9498
4.75322 60.463
4.79788 62.8572
4.84253 66.6929
4.88719 70.597
4.93184 76.0872
4.97652 83.0882
5.02118 90.5191
5.06583 100.885
5.11049 116.134
5.15515 151.675
5.19981 513.704
5.24449 3758.5
5.28916 8625.17
5.33382 6171.89
5.37848 415.078
5.42315 159.436
5.46783 126.465
5.5125 113.973
5.55716 107.562
5.60183 101.646
5.6465 99.1331
5.69117 97.4417
5.73586 95.5476
5.78053 95.2674
5.8252 95.6716
5.86988 98.0997
5.91455 104.612
5.95924 122.887
6.00392 276.323
6.0486 1366.67
6.09328 2901.0
6.13795 4064.97
6.18263 664.666
6.22733 119.102
6.27201 88.5802
6.3167 77.9726
6.36138 73.0213
6.40606 69.2026
6.45075 66.8478
6.49545 64.6149
6.54014 62.7024
6.58483 61.2139
6.62952 60.5894
6.67421 58.8649
6.71892 57.7633
6.76361 57.4815
6.8083 56.2263
6.853 55.3149
6.89769 54.999
6.94239 54.5952
6.98711 53.7762
7.03181 53.8028
7.07651 53.5039
7.12121 52.7782
7.16591 52.8183
7.21063 52.455
7.25533 52.5125
7.30004 52.3397
7.34475 52.5749
7.38945 52.853
7.43416 52.4037
7.47889 52.453
7.5236 55.9729
7.56831 61.7197
7.61303 55.1751
7.65774 53.6792
7.70247 54.4551
7.74719 55.0997
7.79191 55.3185
7.83663 55.7531
7.88135 56.5442
7.92607 57.4826
7.97081 58.6392
8.01553 59.6441
8.06026 61.1387
8.10498 62.3126
8.14971 64.2182
8.19446 65.8817
8.23919 68.3064
8.28392 71.0671
8.32865 73.833
8.37339 79.1337
8.41812 83.8141
8.46288 95.3627
8.50761 170.296
8.55235 588.773
8.59709 926.411
8.64183 1591.67
8.68658 1627.44
8.73134 387.457
8.77609 114.5
8.82083 96.9286
8.86558 91.2602
8.91033 88.2767
8.9551 85.7096
8.99985 84.7333
9.04461 83.5487
9.08936 82.5534
9.13412 81.9897
9.17888 82.2906
9.22365 86.4522
9.26841 94.5104
9.31318 85.9963
9.35794 83.2232
9.4027 82.4841
9.44749 83.1273
9.49226 84.1708
9.53703 85.0445
9.5818 86.4083
9.62657 87.7277
9.67134 89.4567
9.71614 91.3659
9.76091 93.6633
9.80569 95.9826
9.85047 99.4461
9.89525 104.668
9.94005 114.182
9.98484 182.257
10.0296 532.387
10.0744 759.068
10.1192 1107.38
10.164 1711.68
10.2088 938.791
10.2536 204.241
10.2984 115.978
10.3432 108.316
10.388 104.966
10.4328 121.325
10.4776 212.254
10.5224 266.699
10.5672 347.087
10.612 512.633
10.6568 361.122
10.7017 129.85
10.7465 90.4651
10.7913 83.7854
10.8361 81.2517
10.8809 78.7737
10.9257 76.2163
10.9706 75.0887
11.0154 73.3713
11.0602 71.7915
11.105 70.6527
11.1499 69.1804
11.1947 68.4332
11.2395 67.2346
11.2844 66.5063
11.3292 65.9337
11.374 65.0951
11.4189 64.6732
11.4637 63.8933
11.5086 63.5336
11.5534 62.9456
11.5983 62.8377
11.6431 62.5839
11.688 62.1474
11.7328 62.0015
11.7777 61.6531
11.8225 61.7749
11.8674 61.5907
11.9122 62.8943
11.9571 65.4709
12.002 65.2153
12.0468 67.8852
12.0917 90.3602
12.1366 108.301
12.1814 121.917
12.2263 157.599
12.2712 194.604
12.3161 135.885
12.3609 74.4068
12.4058 64.3409
12.4507 63.8474
12.4956 63.727
12.5405 63.8602
12.5853 64.3593
12.6302 64.4512
12.6751 65.1931
12.72 65.9202
12.7649 66.6753
12.8098 67.5808
12.8547 69.0324
12.8996 70.4071
12.9445 71.6718
12.9894 73.8856
13.0343 75.7221
13.0792 79.6492
13.1242 86.6712
13.1691 131.734
13.214 185.854
13.2589 210.968
13.3038 259.56
13.3487 367.909
13.3937 378.207
13.4386 202.362
13.4835 117.863
13.5285 152.717
13.5734 182.579
13.6183 200.669
13.6633 251.165
13.7082 340.231
13.7531 300.968
13.7981 149.335
13.843 88.0791
13.888 81.116
13.9329 78.4891
13.9779 76.6747
14.0228 75.1469
14.0678 73.2582
14.1127 73.2286
14.1577 74.1092
14.2027 72.8454
14.2476 70.713
14.2926 70.1119
14.3376 69.3709
14.3825 69.2122
14.4275 68.7111
14.4725 68.5425
14.5175 68.7573
14.5624 68.9845
14.6074 69.1206
14.6524 69.8122
14.6974 70.2731
14.7424 71.9492
14.7874 80.8465
14.8324 106.53
14.8774 121.91
14.9224 131.414
14.9674 156.308
15.0124 200.505
15.0574 205.595
15.1024 134.173
15.1474 81.2366
15.1924 71.6219
15.2374 69.566
15.2824 68.536
15.3274 67.5361
15.3725 66.7722
15.4175 66.543
15.4625 66.405
15.5076 66.0449
15.5526 66.0527
15.5976 66.1575
15.6426 66.9406
15.6877 73.936
15.7327 94.6405
15.7778 107.597
15.8228 114.171
15.8679 130.505
15.9129 162.068
15.958 188.101
16.003 149.339
16.0481 86.914
16.0931 66.1597
16.1382 62.1529
16.1833 61.0464
16.2283 59.3771
16.2734 58.4305
16.3185 57.8501
16.3636 56.9025
16.4086 56.2708
16.4537 56.0484
16.4988 55.6916
16.5439 55.3192
16.589 55.1914
16.6341 54.6847
16.6792 54.5395
16.7243 54.7397
16.7694 54.5134
16.8145 54.4803
16.8596 54.7537
16.9047 54.8109
16.9498 55.4356
16.9949 55.3136
17.04 55.8455
17.0851 57.3359
17.1302 61.4355
17.1754 64.8422
17.2205 66.1547
17.2656 68.5446
17.3108 74.3537
17.3559 81.3345
17.401 82.0491
17.4462 71.0637
17.4913 61.8161
17.5365 59.6379
17.5815 59.5111
17.6268 59.9817
17.6718 60.3679
17.7171 60.8467
17.7622 61.9141
17.8074 62.6707
17.8525 64.4325
17.8977 72.4259
17.9428 83.7383
17.9881 89.303
18.0331 93.2599
18.0784 101.646
18.1237 119.337
18.1688 143.854
18.214 141.486
18.2591 110.248
18.3044 89.4574
18.3495 88.9782
18.3948 97.6188
18.4399 105.011
18.4852 94.9394
18.5303 75.4502
18.5756 65.33
18.6207 62.8751
18.666 61.5147
18.7112 60.5667
18.7565 59.7358
18.8016 59.3391
18.8469 58.7327
18.892 58.2574
18.9374 57.8029
18.9825 57.4647
19.0278 57.328
19.073 57.2327
19.1183 57.8557
19.1635 59.9501
19.2088 62.1094
19.254 63.1709
19.2993 64.2369
19.3447 66.5914
19.3898 70.5278
19.4352 74.9669
19.4804 72.6346
19.5257 63.6749
19.5709 56.5228
19.6163 54.6459
19.6615 54.2521
19.7068 53.7096
19.752 53.9592
19.7974 54.0779
19.8426 55.1679
19.888 57.0756
19.9332 58.6813
19.9786 59.3695
20.0238 60.2127
20.0692 63.2312
20.1144 68.2722
20.1598 73.4871
20.205 71.559
20.2504 66.0018
20.2957 61.9987
20.3411 63.0807
20.3863 65.7433
20.4318 64.4777
20.477 59.0352
20.5224 53.6432
20.5677 51.5549
20.6131 50.8592
20.6586 50.2936
20.7038 50.1119
20.7493 49.6445
20.7945 49.532
20.84 49.6015
20.8853 49.2405
20.9307 49.1289
20.976 49.3279
21.0215 49.5555
21.0668 50.1082
21.1122 50.1911
21.1575 50.1948
21.203 50.317
21.2483 51.0233
21.2938 52.0059
21.3391 51.8555
21.3846 50.9065
21.4299 49.6982
21.4754 49.1744
21.5207 49.229
21.5662 49.6353
21.6116 49.7792
21.6571 51.6766
21.7024 53.5171
21.7479 54.6883
21.7933 55.2055
21.8388 56.7289
21.8843 59.7272
21.9297 63.43
21.9752 66.9033
22.0206 66.2369
22.0661 61.0398
22.1115 56.8184
22.157 56.2669
22.2024 57.1218
22.248 55.272
22.2933 52.784
22.3389 50.4189
22.3843 49.6441
22.4299 49.4561
22.4753 49.3199
22.5208 49.3757
22.5662 49.203
22.6118 49.4414
22.6572 49.7699
22.7028 50.8198
22.7483 51.7945
22.7939 52.4018
22.8393 52.7351
22.8849 53.3145
22.9303 54.319
22.9759 56.1891
23.0214 58.3206
23.067 59.0648
23.1126 56.3103
23.1581 52.5653
23.2037 50.286
23.2492 49.7767
23.2948 50.1029
23.3403 51.4873
23.3859 52.2773
23.4314 52.3831
23.477 52.7407
23.5225 53.2759
23.5682 54.7978
23.6137 57.1142
23.6593 58.6593
23.7048 57.4476
23.7505 53.5491
23.796 49.3475
23.8417 47.3086
23.8872 46.4702
23.9329 46.0901
23.9784 45.7728
24.0241 45.4903
24.0697 45.191
24.1154 44.8177
24.1609 44.6261
24.2066 44.3949
24.2522 44.351
24.2979 44.078
24.3434 43.9162
24.3892 43.6829
24.4349 43.6948
24.4805 43.3926
24.5262 43.4286
24.5718 43.42
24.6175 43.4964
24.6631 43.6629
24.7089 43.3689
24.7545 43.1118
24.8002 43.0022
24.8458 42.8995
24.8916 42.9389
24.9372 43.1563
24.983 43.2755
25.0286 43.4492
25.0744 43.8476
25.12 44.5569
25.1658 44.8797
25.2114 45.316
25.2572 45.5795
25.3029 45.5306
25.3487 45.3239
25.3943 45.4924
25.4402 45.493
25.4858 44.9303
25.5316 43.4138
25.5773 42.2086
25.6231 41.8201
25.669 41.3673
25.7147 41.1286
25.7605 41.2496
25.8062 41.4617
25.8521 41.539
25.8977 41.5086
25.9436 41.384
25.9893 41.3456
26.0352 41.6934
26.0809 41.7505
26.1268 42.1693
26.1725 42.4583
26.2184 42.4236
26.2641 41.9099
26.31 41.3022
26.3557 41.2281
26.4017 41.2365
26.4474 41.3566
26.4933 41.5633
26.5391 41.6335
26.585 42.0914
26.6308 42.2956
26.6767 42.6975
26.7225 43.2925
26.7684 43.1766
26.8142 42.4188
26.8601 41.7827
26.9059 41.2667
26.9519 40.8039
26.9979 40.412
27.0437 39.8576
27.0896 39.6682
27.1354 39.5624
27.1814 39.4966
27.2272 39.3396
27.2732 39.3767
27.3191 39.0993
27.3651 39.2193
27.4109 39.1597
27.4569 39.1132
27.5027 39.1478
27.5488 39.0749
27.5946 39.243
27.6407 39.2419
27.6865 39.1854
27.7326 38.8842
27.7784 38.9484
27.8245 38.5856
27.8703 38.8433
27.9164 38.9451
27.9623 39.0261
28.0084 39.137
28.0543 39.5816
28.1003 39.6491
28.1462 40.0291
28.1923 39.7904
28.2384 39.3508
28.2843 38.9275
28.3304 38.4894
28.3764 38.0105
28.4225 37.4971
28.4684 37.2241
28.5145 36.6151
28.5605 36.7174
28.6066 36.3575
28.6526 36.2465
28.6987 36.3721
28.7447 36.164
28.7908 36.0293
28.8368 35.8812
28.8829 35.9199
28.9289 35.9114
28.9751 35.8492
29.0211 35.8106
29.0673 35.4901
29.1133 35.3721
29.1595 35.1998
29.2055 35.0342
29.2517 34.9143
29.2977 34.8296
29.3439 34.768
29.3899 34.7655
29.4361 34.8029
29.4824 34.7343
29.5284 34.6394
29.5746 34.2942
29.6207 33.8014
29.6669 33.7121
29.713 33.6206
29.7593 33.4858
29.8053 33.4288
29.8516 33.4195
29.8977 33.4256
29.9439 33.1327
29.99 33.2306
30.0363 33.0539
30.0824 33.0287
30.1287 32.8517
30.1748 32.9351
30.2211 32.8373
30.2673 32.8286
30.3136 33.0036
30.3597 33.0691
30.406 32.9549
30.4522 32.8464
30.4985 32.7922
30.5447 32.7658
30.591 32.6812
30.6372 32.667
30.6835 32.6934
30.7297 32.7226
30.7761 32.9793
30.8224 32.9068
30.8686 32.7067
30.915 32.4863
30.9612 32.3775
31.0076 32.0775
31.0538 31.8402
31.1002 31.8871
31.1464 31.6359
31.1928 31.6053
31.2391 31.5953
31.2855 31.467
31.3317 31.3711
31.3781 31.4765
31.4244 31.3834
31.4708 31.3762
31.5171 31.3243
31.5636 31.5107
31.6098 31.3945
31.6563 31.2416
31.7026 31.1713
31.7491 30.7415
31.7953 30.9358
31.8418 30.7725
31.8881 30.7735
31.9346 30.7943
31.9809 30.7495
32.0275 30.5907
32.074 30.515
32.1203 30.4288
32.1668 30.264
32.2132 30.1086
32.2597 29.8428
32.306 29.8138
32.3526 29.6431
32.399 29.5241
32.4455 29.3886
32.4919 29.277
32.5385 29.2122
32.5848 29.0668
32.6314 29.0821
32.6778 28.9887
32.7244 28.8609
32.7708 28.6727
32.8174 28.7459
32.8638 28.5881
32.9104 28.7377
32.9569 28.6484
33.0035 28.4275
33.0499 28.422
33.0966 28.3363
33.143 28.2189
33.1897 28.2331
33.2361 28.2217
33.2828 28.1985
33.3293 28.0111
33.3759 28.0164
33.4226 27.8514
33.4691 27.7489
33.5158 27.6377
33.5623 27.509
33.609 27.3426
33.6555 27.1822
33.7022 27.1904
33.7487 26.9812
33.7954 27.0439
33.842 26.9207
33.8887 26.783
33.9353 26.8917
33.982 26.6551
34.0286 26.5809
34.0753 26.5664
34.1219 26.4689
34.1687 26.3144
34.2152 26.3482
34.262 26.1188
34.3086 26.1043
34.3554 26.0679
34.402 25.8476
34.4488 25.7782
34.4954 25.7255
34.5422 25.7197
34.5889 25.5531
34.6357 25.5059
34.6825 25.4308
34.7292 25.268
34.776 25.2196
34.8227 25.1924
34.8695 25.0283
34.9162 25.0558
34.9631 24.9958
35.0098 24.9943
35.0566 24.814
35.1033 24.7938
35.1502 24.7466
35.1969 24.6695
35.2438 24.6891
35.2906 24.4969
35.3375 24.475
35.3842 24.458
35.4311 24.4192
35.4779 24.4519
35.5248 24.3858
35.5716 24.2858
35.6185 24.2744
35.6653 24.1333
35.7123 24.0178
35.759 23.9755
35.806 23.7944
35.8528 23.7689
35.8998 23.5612
35.9468 23.5589
35.9936 23.5026
36.0406 23.541
36.0874 23.416
36.1345 23.3421
36.1813 23.2876
36.2283 23.1387
36.2752 23.0896
36.3222 23.0885
36.3691 23.0666
36.4161 22.8407
36.463 22.9323
36.5101 22.8795
36.557 22.7136
36.6041 22.6824
36.651 22.7013
36.6981 22.5039
36.745 22.5198
36.7921 22.4841
36.839 22.326
36.8861 22.2959
36.9331 22.1893
36.9802 22.0572
37.0272 21.9851
37.0743 21.8896
37.1213 21.8821
37.1684 21.8102
37.2154 21.767
37.2626 21.6136
37.3098 21.6232
37.3568 21.5616
37.404 21.5451
37.451 21.3612
37.4982 21.3646
37.5452 21.2792
37.5924 21.1777
37.6395 21.1916
37.6867 21.1714
37.7337 20.9906
37.781 20.8955
37.8281 20.9192
37.8753 20.7806
37.9224 20.7456
37.9697 20.6477
38.0168 20.6135
38.064 20.5165
38.1111 20.4989
38.1584 20.3373
38.2056 20.3178
38.2529 20.3516
38.3 20.2364
38.3473 20.1078
38.3945 20.037
38.4418 20.0445
38.489 19.958
38.5363 19.9619
38.5837 19.8295
38.6309 19.7353
38.6782 19.7107
38.7254 19.6931
38.7728 19.5945
38.82 19.4913
38.8674 19.4553
38.9146 19.3547
38.9621 19.3584
39.0093 19.3225
39.0567 19.1464
39.104 19.1718
39.1514 18.9858
39.1987 19.0379
39.2461 18.9649
39.2934 18.888
39.3409 18.8285
39.3882 18.7273
39.4356 18.7065
39.483 18.6685
39.5304 18.5807
39.5778 18.518
39.6253 18.5239
39.6726 18.4785
39.7201 18.4028
39.7675 18.3401
39.815 18.2908
39.8624 18.2027
39.9099 18.1727
39.9575 18.1051
40.0049 17.9973
40.0525 17.9863
40.0999 17.9494
40.1474 17.8416
40.1949 17.784
40.2425 17.7214
40.2899 17.681
40.3375 17.5856
40.385 17.5813
40.4326 17.5121
40.48 17.4814
40.5277 17.4156
40.5752 17.3388
40.6228 17.2964
40.6703 17.2182
40.718 17.2173
40.7655 17.209
40.8132 17.0363
40.8607 17.0805
40.9084 16.9819
40.9559 16.9308
41.0036 16.9323
41.0512 16.8236
41.0989 16.7652
41.1465 16.6789
41.1942 16.6511
41.242 16.5831
41.2896 16.5087
41.3373 16.5046
41.3849 16.4545
41.4327 16.4449
41.4803 16.2841
41.5281 16.2204
41.5758 16.1423
41.6236 16.1179
41.6712 16.0485
41.7191 16.0239
41.7667 15.9319
41.8146 15.9439
41.8622 15.8502
41.9101 15.8068
41.9578 15.7344
42.0057 15.7642
42.0534 15.6584
42.1013 15.6675
42.149 15.5544
42.1969 15.4905
42.2446 15.4879
42.2925 15.4194
42.3403 15.3789
42.3882 15.2954
42.436 15.2512
42.4839 15.1728
42.5319 15.1306
42.5797 15.1088
42.6277 15.0005
42.6755 15.019
42.7235 14.9526
42.7713 14.8891
42.8193 14.8409
42.8671 14.796
42.9152 14.7627
42.963 14.6844
43.0111 14.7042
43.0589 14.5673
43.107 14.546
43.1549 14.5301
43.2029 14.4869
43.2508 14.4221
43.2989 14.3608
43.3468 14.2728
43.3949 14.1966
43.4429 14.2188
43.491 14.1124
43.5389 14.0766
43.5871 14.0843
43.635 13.9925
43.6832 13.9529
43.7312 13.9003
43.7793 13.8178
43.8273 13.8097
43.8755 13.7576
43.9237 13.7553
43.9717 13.7246
44.0199 13.6549
44.068 13.5235
44.1162 13.5295
44.1642 13.4855
44.2125 13.458
44.2606 13.3792
44.3088 13.3141
44.3569 13.2419
44.4052 13.2395
44.4533 13.2079
44.5016 13.1295
44.5497 13.1068
44.598 13.0984
44.6461 13.0234
44.6945 12.9619
44.7426 12.939
44.791 12.8591
44.8391 12.8293
44.8875 12.7787
44.9357 12.7404
44.984 12.7457
45.0322 12.6153
45.0806 12.6016
45.1288 12.5664
45.1773 12.4738
45.2257 12.4124
45.2739 12.4775
45.3224 12.4345
45.3706 12.4016
45.4191 12.272
45.4673 12.2683
45.5158 12.2031
45.5641 12.2144
45.6126 12.1443
45.6609 12.0816
45.7094 12.0545
45.7577 11.9879
45.8063 11.9223
45.8546 11.9146
45.9031 11.8593
45.9515 11.7935
46.0001 11.8111
46.0484 11.7023
46.097 11.701
46.1454 11.6774
46.194 11.6333
46.2424 11.5661
46.291 11.5103
46.3395 11.4938
46.3881 11.4567
46.4365 11.419
46.4852 11.3441
46.5337 11.3233
46.5823 11.3
46.631 11.228
46.6795 11.1658
46.7282 11.1551
46.7767 11.1321
46.8254 11.091
46.8739 11.0271
46.9226 11.015
46.9712 10.9484
47.0199 10.9409
47.0685 10.8676
47.1173 10.8195
47.1658 10.8006
47.2146 10.7581
47.2632 10.682
47.312 10.652
47.3606 10.6251
47.4095 10.5885
47.4581 10.5482
47.5069 10.5008
47.5556 10.4675
47.6044 10.397
47.6531 10.3753
47.702 10.3308
47.7507 10.2875
47.7996 10.3138
47.8483 10.2469
47.8972 10.2289
47.9461 10.1845
47.9948 10.1424
48.0438 10.078
48.0925 10.0588
48.1415 10.015
48.1902 9.98476
48.2392 9.95933
48.288 9.94332
48.337 9.88206
48.3858 9.82265
48.4348 9.80647
48.4837 9.80563
48.5327 9.73973
48.5815 9.69891
48.6306 9.66778
48.6795 9.61064
48.7285 9.54929
48.7774 9.57114
48.8265 9.52634
48.8754 9.47343
48.9245 9.50764
48.9734 9.45172
49.0226 9.36199
49.0715 9.35029
49.1206 9.34159
49.1696 9.26024
49.2188 9.26605
49.2679 9.17841
49.3169 9.16342
49.3661 9.14061
49.4151 9.11717
49.4643 9.06617
49.5134 9.02616
49.5626 8.96102
49.6117 8.98034
49.6609 8.93804
49.71 8.88478
49.7592 8.8622
49.8083 8.8306
49.8576 8.79271
49.9067 8.72206
49.956 8.74664
50.0052 8.7094
50.0545 8.65018
50.1036 8.61809
50.153 8.61377
50.2022 8.56636
50.2515 8.53914
50.3007 8.46591
50.3501 8.4618
50.3993 8.41971
50.4487 8.38728
50.498 8.38596
50.5474 8.30703
50.5966 8.30007
50.6461 8.24865
50.6955 8.23452
50.7448 8.24097
50.7943 8.18251
50.8436 8.15351
50.8931 8.10947
50.9424 8.09275
50.9919 8.02386
51.0413 8.04841
51.0908 8.00871
51.1402 7.96966
51.1897 7.88782
51.2391 7.90166
51.2887 7.838
51.3381 7.80904
51.3877 7.77518
51.4371 7.76174
51.4867 7.66911
51.5362 7.7095
51.5858 7.67075
51.6353 7.62219
51.6849 7.59622
51.7344 7.5796
51.7841 7.53841
51.8336 7.50956
51.8833 7.48241
51.9328 7.42211
51.9826 7.39391
52.0323 7.39368
52.0818 7.30282
52.1316 7.29222
52.1812 7.31171
52.231 7.23334
52.2806 7.19167
52.3304 7.21338
52.38 7.16773
52.4298 7.12815
52.4794 7.10817
52.5293 7.06919
52.5789 7.03979
52.6288 7.0184
52.6785 6.97467
52.7284 6.99562
52.7781 6.96594
52.828 6.89138
52.8777 6.83123
52.9276 6.83137
52.9774 6.84665
53.0273 6.80548
53.0771 6.74275
53.1271 6.78775
53.1769 6.74334
53.2269 6.72121
53.2767 6.6503
53.3267 6.6254
53.3765 6.56973
53.4266 6.53755
53.4766 6.54781
53.5265 6.47623
53.5765 6.47675
53.6264 6.43844
53.6765 6.44611
53.7264 6.39024
53.7765 6.34831
53.8265 6.31679
53.8766 6.27641
53.9266 6.29962
53.9767 6.21727
54.0267 6.17362
54.0769 6.17642
54.1269 6.14509
54.1771 6.10119
54.2271 6.09822
54.2773 6.03725
54.3274 6.00376
54.3776 5.9637
54.4277 5.92265
54.478 5.92613
54.528 5.83362
54.5783 5.84778
54.6285 5.8086
54.6788 5.71046
54.7289 5.68077
54.7792 5.65803
54.8296 5.58858
54.8798 5.54548
54.9301 5.52363
54.9803 5.4822
55.0307 5.43842
55.0809 5.40238
55.1314 5.36758
55.1816 5.29916
55.232 5.25125
55.2823 5.1676
55.3328 5.1438
55.383 5.10371
55.4335 5.08012
55.4838 5.0453
55.5344 4.94108
55.5847 4.90096
55.6352 4.91252
55.6856 4.86676
55.7361 4.80766