File: XRD/Ni3Fe_FD0808.xy
TT I
1.27165 7.2057
1.31627 6.73765
1.36089 6.63407
1.40551 5.43166
1.45013 6.26121
1.49476 5.88224
1.53938 5.41299
1.584 5.32219
1.62863 5.33079
1.67325 5.08021
1.71787 4.86818
1.7625 4.74196
1.80712 4.70209
1.85174 4.21809
1.89636 4.55709
1.94099 4.83533
1.98562 5.12177
2.03025 4.39859
2.07487 4.53248
2.11949 4.49064
2.16411 4.79679
2.20874 9.10155
2.25338 11.8038
2.298 5.48461
2.34263 5.77534
2.38725 5.8455
2.43188 6.43381
2.4765 6.71966
2.52115 6.62966
2.56577 7.67109
2.6104 8.56313
2.65503 8.13245
2.69965 7.76453
2.7443 8.1972
2.78893 8.07073
2.83356 8.11622
2.87818 9.13677
2.92281 9.04386
2.96744 9.49876
3.01209 10.626
3.05672 11.1059
3.10135 12.2699
3.14599 12.769
3.19062 14.277
3.23527 14.873
3.2799 15.1788
3.32454 16.3342
3.36917 17.3866
3.4138 18.5301
3.45844 19.0815
3.50309 20.324
3.54773 21.1074
3.59237 23.2588
3.637 52.8028
3.68164 38.8287
3.7263 24.77
3.77094 25.7172
3.81558 26.299
3.86022 27.1212
3.90486 28.5016
3.9495 29.6131
3.99416 30.2999
4.0388 31.7688
4.08344 33.6277
4.12809 33.9285
4.17273 35.5431
4.21738 39.3742
4.26204 131.897
4.30669 115.238
4.35133 44.4834
4.39598 43.0672
4.44063 48.172
4.4853 54.7635
4.52995 55.3976
4.5746 56.0493
4.61925 53.4744
4.6639 55.0377
4.70855 58.0325
4.75322 60.8036
4.79788 66.9877
4.84253 67.9066
4.88719 74.1597
4.93184 75.7821
4.97652 80.7908
5.02118 86.3925
5.06583 93.6765
5.11049 105.006
5.15515 155.565
5.19981 393.025
5.24449 2832.75
5.28916 12355.4
5.33382 2530.03
5.37848 188.107
5.42315 127.998
5.46783 117.078
5.5125 110.224
5.55716 101.43
5.60183 97.124
5.6465 95.2987
5.69117 93.3958
5.73586 91.7266
5.78053 96.3738
5.8252 95.8171
5.86988 98.8878
5.91455 94.2933
5.95924 103.484
6.00392 237.227
6.0486 962.296
6.09328 4529.65
6.13795 3015.58
6.18263 204.993
6.22733 89.3377
6.27201 79.5226
6.3167 85.1361
6.36138 74.5252
6.40606 69.2607
6.45075 68.7845
6.49545 64.7195
6.54014 62.795
6.58483 62.1324
6.62952 62.3532
6.67421 74.6024
6.71892 94.3523
6.76361 62.5563
6.8083 58.5032
6.853 58.8379
6.89769 55.9924
6.94239 55.7903
6.98711 54.9584
7.03181 55.4625
7.07651 54.4262
7.12121 54.1881
7.16591 55.4843
7.21063 54.9386
7.25533 61.3106
7.30004 107.206
7.34475 70.1073
7.38945 54.3497
7.43416 53.5713
7.47889 53.7869
7.5236 53.9106
7.56831 54.2166
7.61303 54.7743
7.65774 55.7095
7.70247 56.1758
7.74719 55.6415
7.79191 56.0338
7.83663 56.2497
7.88135 56.8876
7.92607 57.8852
7.97081 58.6352
8.01553 60.0706
8.06026 62.0038
8.10498 63.6047
8.14971 70.0782
8.19446 70.4314
8.23919 68.5542
8.28392 71.1581
8.32865 73.7877
8.37339 77.8655
8.41812 82.9044
8.46288 103.005
8.50761 176.392
8.55235 383.758
8.59709 1212.06
8.64183 2169.57
8.68658 861.336
8.73134 147.26
8.77609 97.2179
8.82083 91.3624
8.86558 91.0843
8.91033 90.7998
8.9551 88.7119
8.99985 84.409
9.04461 83.2118
9.08936 82.7877
9.13412 82.2346
9.17888 81.5907
9.22365 81.8221
9.26841 81.4658
9.31318 84.0107
9.35794 85.1161
9.4027 84.9943
9.44749 84.3667
9.49226 84.0788
9.53703 84.8503
9.5818 88.6983
9.62657 93.2685
9.67134 94.8295
9.71614 91.6969
9.76091 93.7591
9.80569 98.1546
9.85047 100.189
9.89525 112.139
9.94005 127.017
9.98484 188.925
10.0296 343.514
10.0744 828.472
10.1192 1801.47
10.164 1514.13
10.2088 350.688
10.2536 120.182
10.2984 108.693
10.3432 107.795
10.388 103.977
10.4328 121.63
10.4776 161.343
10.5224 292.34
10.5672 532.769
10.612 482.568
10.6568 184.209
10.7017 93.5464
10.7465 85.3928
10.7913 82.1989
10.8361 80.1836
10.8809 77.8293
10.9257 77.1122
10.9706 77.2029
11.0154 74.2822
11.0602 72.2094
11.105 70.7483
11.1499 71.9757
11.1947 74.6907
11.2395 70.02
11.2844 68.1296
11.3292 66.4001
11.374 65.3947
11.4189 64.7293
11.4637 63.8093
11.5086 64.0752
11.5534 65.4043
11.5983 63.7164
11.6431 62.7284
11.688 62.3374
11.7328 62.0711
11.7777 62.0135
11.8225 62.1477
11.8674 62.0859
11.9122 61.904
11.9571 62.523
12.002 63.5041
12.0468 68.1255
12.0917 77.7581
12.1366 102.804
12.1814 158.071
12.2263 215.201
12.2712 166.149
12.3161 88.0891
12.3609 66.4093
12.4058 63.4393
12.4507 63.4811
12.4956 64.1173
12.5405 64.2313
12.5853 64.763
12.6302 67.8936
12.6751 70.8849
12.72 67.5569
12.7649 67.1803
12.8098 67.7486
12.8547 68.9481
12.8996 70.7254
12.9445 72.2488
12.9894 74.0118
13.0343 75.3439
13.0792 79.4966
13.1242 91.5107
13.1691 111.221
13.214 148.43
13.2589 248.089
13.3038 390.098
13.3487 415.627
13.3937 238.284
13.4386 118.43
13.4835 105.682
13.5285 119.631
13.5734 159.807
13.6183 257.227
13.6633 365.551
13.7082 329.274
13.7531 169.741
13.7981 92.6336
13.843 80.4222
13.888 78.6739
13.9329 76.3622
13.9779 74.7223
14.0228 73.4091
14.0678 72.1348
14.1127 71.9259
14.1577 71.2565
14.2027 70.6441
14.2476 69.5569
14.2926 69.441
14.3376 69.5242
14.3825 69.1787
14.4275 68.4439
14.4725 68.081
14.5175 68.2381
14.5624 67.9944
14.6074 69.3245
14.6524 69.9971
14.6974 70.0365
14.7424 73.0937
14.7874 79.1409
14.8324 88.2275
14.8774 111.818
14.9224 158.986
14.9674 217.85
15.0124 219.224
15.0574 140.264
15.1024 85.8142
15.1474 71.2458
15.1924 69.2633
15.2374 69.0216
15.2824 67.8042
15.3274 66.8575
15.3725 66.0154
15.4175 65.6924
15.4625 65.2321
15.5076 64.997
15.5526 65.2671
15.5976 65.0312
15.6426 67.3859
15.6877 72.4422
15.7327 79.404
15.7778 95.2403
15.8228 129.726
15.8679 179.376
15.9129 196.908
15.958 146.758
16.003 89.3958
16.0481 65.46
16.0931 62.3757
16.1382 60.7796
16.1833 59.6583
16.2283 58.3452
16.2734 57.4243
16.3185 57.2448
16.3636 57.1699
16.4086 56.0966
16.4537 55.2591
16.4988 54.8989
16.5439 54.7524
16.589 54.355
16.6341 54.1138
16.6792 53.7225
16.7243 54.0731
16.7694 54.0582
16.8145 54.0735
16.8596 54.4211
16.9047 55.1385
16.9498 55.2997
16.9949 54.7046
17.04 55.5056
17.0851 56.5294
17.1302 57.9993
17.1754 61.1668
17.2205 66.7339
17.2656 75.1207
17.3108 83.5325
17.3559 80.6609
17.401 68.4851
17.4462 60.6992
17.4913 58.5249
17.5365 58.2721
17.5815 58.5955
17.6268 58.8865
17.6718 59.6898
17.7171 59.9892
17.7622 60.8315
17.8074 61.7173
17.8525 64.5311
17.8977 68.0524
17.9428 73.0187
17.9881 82.5852
18.0331 101.411
18.0784 125.408
18.1237 141.835
18.1688 127.801
18.214 99.1216
18.2591 84.8544
18.3044 90.9247
18.3495 102.076
18.3948 105.374
18.4399 92.4472
18.4852 74.3909
18.5303 64.341
18.5756 61.3796
18.6207 60.4682
18.666 59.7559
18.7112 58.9162
18.7565 58.4599
18.8016 58.1557
18.8469 57.4209
18.892 57.0256
18.9374 56.5455
18.9825 56.3754
19.0278 56.1946
19.073 56.2789
19.1183 56.8739
19.1635 57.1592
19.2088 58.6619
19.254 61.8066
19.2993 66.4767
19.3447 72.4734
19.3898 75.4696
19.4352 69.953
19.4804 60.8421
19.5257 55.2792
19.5709 53.5682
19.6163 53.3101
19.6615 53.1923
19.7068 52.8259
19.752 52.8056
19.7974 53.2528
19.8426 53.7886
19.888 54.36
19.9332 55.7478
19.9786 58.4067
20.0238 62.8199
20.0692 67.8056
20.1144 69.9452
20.1598 67.06
20.205 62.4362
20.2504 61.6112
20.2957 64.0432
20.3411 65.3221
20.3863 62.7309
20.4318 56.7001
20.477 52.3316
20.5224 50.6224
20.5677 50.0922
20.6131 49.6781
20.6586 49.0175
20.7038 48.956
20.7493 48.4132
20.7945 48.4461
20.84 48.189
20.8853 48.3517
20.9307 48.1341
20.976 48.3552
21.0215 48.169
21.0668 48.4738
21.1122 48.8087
21.1575 49.7258
21.203 50.4454
21.2483 51.0917
21.2938 50.7922
21.3391 49.37
21.3846 48.1425
21.4299 47.8382
21.4754 47.9833
21.5207 48.2409
21.5662 48.5003
21.6116 48.9111
21.6571 49.5047
21.7024 50.4543
21.7479 52.3759
21.7933 55.2614
21.8388 59.2074
21.8843 62.985
21.9297 64.346
21.9752 61.7632
22.0206 58.1022
22.0661 55.7859
22.1115 55.8416
22.157 55.4434
22.2024 53.2673
22.248 50.5716
22.2933 49.0344
22.3389 48.5823
22.3843 48.2764
22.4299 48.0876
22.4753 48.2467
22.5208 47.8599
22.5662 47.991
22.6118 48.3556
22.6572 48.4937
22.7028 48.7649
22.7483 49.2312
22.7939 49.9775
22.8393 51.5916
22.8849 53.9798
22.9303 56.1619
22.9759 57.5305
23.0214 56.374
23.067 53.4185
23.1126 50.0161
23.1581 48.4971
23.2037 48.3803
23.2492 48.4267
23.2948 48.3572
23.3403 48.5578
23.3859 49.2374
23.4314 50.3934
23.477 52.5464
23.5225 54.8661
23.5682 57.2179
23.6137 57.5439
23.6593 54.6365
23.7048 50.3241
23.7505 47.4152
23.796 46.0063
23.8417 45.5975
23.8872 45.1385
23.9329 44.6587
23.9784 44.4988
24.0241 44.1189
24.0697 43.9668
24.1154 43.5965
24.1609 43.4831
24.2066 43.3127
24.2522 43.2505
24.2979 42.8139
24.3434 42.7157
24.3892 42.6485
24.4349 42.6729
24.4805 42.5868
24.5262 42.6169
24.5718 42.5167
24.6175 42.4721
24.6631 42.4313
24.7089 41.9799
24.7545 41.9261
24.8002 41.726
24.8458 41.8028
24.8916 41.6042
24.9372 41.7994
24.983 42.1302
25.0286 42.4873
25.0744 42.9102
25.12 43.5344
25.1658 43.9803
25.2114 44.2298
25.2572 44.4517
25.3029 44.5282
25.3487 44.5029
25.3943 44.081
25.4402 42.8999
25.4858 41.7189
25.5316 40.9843
25.5773 40.4872
25.6231 40.4275
25.669 40.1172
25.7147 40.0875
25.7605 39.9247
25.8062 39.9754
25.8521 40.1961
25.8977 40.1456
25.9436 40.3903
25.9893 40.7093
26.0352 41.1092
26.0809 41.1043
26.1268 41.3042
26.1725 40.8731
26.2184 40.3065
26.2641 39.9288
26.31 39.6791
26.3557 39.7661
26.4017 39.6549
26.4474 40.1864
26.4933 40.2089
26.5391 40.7721
26.585 41.3916
26.6308 41.7557
26.6767 41.7816
26.7225 41.4242
26.7684 40.8675
26.8142 40.3772
26.8601 40.025
26.9059 39.6588
26.9519 38.969
26.9979 38.7842
27.0437 38.4964
27.0896 38.302
27.1354 38.3211
27.1814 38.2978
27.2272 38.1215
27.2732 38.1179
27.3191 37.9396
27.3651 38.1885
27.4109 38.0295
27.4569 38.1434
27.5027 38.2077
27.5488 38.143
27.5946 38.1278
27.6407 37.777
27.6865 37.8293
27.7326 37.5765
27.7784 37.4398
27.8245 37.4973
27.8703 37.5701
27.9164 37.9968
27.9623 38.1962
28.0084 38.5076
28.0543 38.7745
28.1003 38.7132
28.1462 38.427
28.1923 38.0228
28.2384 37.5078
28.2843 37.159
28.3304 36.7909
28.3764 36.1918
28.4225 36.1545
28.4684 35.8286
28.5145 35.5803
28.5605 35.5259
28.6066 35.354
28.6526 35.1808
28.6987 35.1853
28.7447 35.238
28.7908 35.1559
28.8368 35.1088
28.8829 35.0568
28.9289 34.9292
28.9751 34.6255
29.0211 34.68
29.0673 34.1556
29.1133 34.0804
29.1595 34.0127
29.2055 33.9352
29.2517 33.9693
29.2977 33.8465
29.3439 33.7386
29.3899 33.9732
29.4361 33.8304
29.4824 33.6561
29.5284 33.2752
29.5746 32.9288
29.6207 32.8271
29.6669 32.7215
29.713 32.5916
29.7593 32.5596
29.8053 32.4725
29.8516 32.4725
29.8977 32.4194
29.9439 32.2041
29.99 32.2594
30.0363 32.1885
30.0824 32.1417
30.1287 32.1984
30.1748 32.1802
30.2211 32.1204
30.2673 31.9584
30.3136 32.0361
30.3597 31.9995
30.406 31.8618
30.4522 31.6758
30.4985 31.7018
30.5447 31.8606
30.591 31.7993
30.6372 31.9356
30.6835 31.7564
30.7297 31.9246
30.7761 31.6726
30.8224 31.6376
30.8686 31.4764
30.915 31.3111
30.9612 31.1887
31.0076 31.0034
31.0538 30.858
31.1002 30.7538
31.1464 30.6894
31.1928 30.5389
31.2391 30.6388
31.2855 30.5759
31.3317 30.5634
31.3781 30.6102
31.4244 30.5656
31.4708 30.5083
31.5171 30.5208
31.5636 30.3736
31.6098 30.1593
31.6563 30.0905
31.7026 29.9288
31.7491 29.8002
31.7953 29.8914
31.8418 29.7858
31.8881 29.8015
31.9346 29.8186
31.9809 29.8235
32.0275 29.6392
32.074 29.4791
32.1203 29.3485
32.1668 29.1555
32.2132 29.0405
32.2597 28.9559
32.306 28.8894
32.3526 28.6857
32.399 28.7146
32.4455 28.5618
32.4919 28.506
32.5385 28.3804
32.5848 28.232
32.6314 28.2774
32.6778 28.1373
32.7244 27.968
32.7708 27.8695
32.8174 27.8638
32.8638 27.7606
32.9104 27.7782
32.9569 27.7089
33.0035 27.5626
33.0499 27.5345
33.0966 27.5818
33.143 27.5141
33.1897 27.3864
33.2361 27.3841
33.2828 27.3234
33.3293 27.17
33.3759 27.0754
33.4226 26.9636
33.4691 26.7705
33.5158 26.7237
33.5623 26.645
33.609 26.4776
33.6555 26.3514
33.7022 26.3435
33.7487 26.2198
33.7954 26.2157
33.842 26.1262
33.8887 26.0251
33.9353 25.9458
33.982 25.858
34.0286 25.7765
34.0753 25.676
34.1219 25.6372
34.1687 25.5245
34.2152 25.5108
34.262 25.3917
34.3086 25.2321
34.3554 25.2449
34.402 25.1527
34.4488 25.0241
34.4954 24.9921
34.5422 24.9292
34.5889 24.8024
34.6357 24.7122
34.6825 24.5969
34.7292 24.5406
34.776 24.4697
34.8227 24.4661
34.8695 24.3562
34.9162 24.3178
34.9631 24.2474
35.0098 24.25
35.0566 24.1433
35.1033 24.0469
35.1502 23.9822
35.1969 23.8679
35.2438 23.9387
35.2906 23.8506
35.3375 23.9124
35.3842 23.7678
35.4311 23.7455
35.4779 23.7583
35.5248 23.7069
35.5716 23.5932
35.6185 23.5343
35.6653 23.3201
35.7123 23.3208
35.759 23.1841
35.806 23.1542
35.8528 23.0412
35.8998 22.9274
35.9468 22.848
35.9936 22.8025
36.0406 22.7627
36.0874 22.7372
36.1345 22.6827
36.1813 22.542
36.2283 22.4331
36.2752 22.3928
36.3222 22.472
36.3691 22.3549
36.4161 22.1517
36.463 22.2503
36.5101 22.1609
36.557 22.0929
36.6041 21.9113
36.651 21.9301
36.6981 21.9145
36.745 21.7696
36.7921 21.7874
36.839 21.6273
36.8861 21.601
36.9331 21.4783
36.9802 21.4523
37.0272 21.377
37.0743 21.337
37.1213 21.27
37.1684 21.1745
37.2154 21.0874
37.2626 21.0717
37.3098 20.9868
37.3568 20.9514
37.404 20.8034
37.451 20.7386
37.4982 20.7436
37.5452 20.6415
37.5924 20.5284
37.6395 20.6699
37.6867 20.5362
37.7337 20.3329
37.781 20.2781
37.8281 20.2103
37.8753 20.1285
37.9224 20.1274
37.9697 20.0976
38.0168 19.9564
38.064 19.9102
38.1111 19.8594
38.1584 19.8346
38.2056 19.7339
38.2529 19.6783
38.3 19.5692
38.3473 19.5819
38.3945 19.5415
38.4418 19.4848
38.489 19.3902
38.5363 19.3608
38.5837 19.2792
38.6309 19.1473
38.6782 19.1752
38.7254 19.0707
38.7728 19.0241
38.82 18.9671
38.8674 18.8662
38.9146 18.8609
38.9621 18.7222
39.0093 18.6781
39.0567 18.6933
39.104 18.587
39.1514 18.5798
39.1987 18.4629
39.2461 18.4454
39.2934 18.3498
39.3409 18.2683
39.3882 18.1985
39.4356 18.1352
39.483 18.1035
39.5304 18.0985
39.5778 18.0547
39.6253 17.943
39.6726 17.9132
39.7201 17.8807
39.7675 17.8249
39.815 17.7949
39.8624 17.6508
39.9099 17.7082
39.9575 17.5734
40.0049 17.562
40.0525 17.4612
40.0999 17.3874
40.1474 17.3598
40.1949 17.2418
40.2425 17.2577
40.2899 17.1355
40.3375 17.1197
40.385 17.1103
40.4326 17.0597
40.48 16.9186
40.5277 16.8782
40.5752 16.8431
40.6228 16.8223
40.6703 16.7363
40.718 16.7012
40.7655 16.6776
40.8132 16.6007
40.8607 16.5553
40.9084 16.51
40.9559 16.4821
41.0036 16.4176
41.0512 16.3158
41.0989 16.2796
41.1465 16.2382
41.1942 16.2011
41.242 16.0807
41.2896 16.0502
41.3373 16.0
41.3849 15.9257
41.4327 15.903
41.4803 15.8164
41.5281 15.8049
41.5758 15.7114
41.6236 15.6545
41.6712 15.6252
41.7191 15.5734
41.7667 15.5855
41.8146 15.5406
41.8622 15.4013
41.9101 15.361
41.9578 15.3153
42.0057 15.2643
42.0534 15.1834
42.1013 15.1663
42.149 15.107
42.1969 15.0439
42.2446 15.0651
42.2925 15.0334
42.3403 14.87
42.3882 14.9084
42.436 14.8889
42.4839 14.7549
42.5319 14.6927
42.5797 14.6667
42.6277 14.635
42.6755 14.5881
42.7235 14.4924
42.7713 14.4795
42.8193 14.4172
42.8671 14.4046
42.9152 14.3524
42.963 14.2697
43.0111 14.1595
43.0589 14.1803
43.107 14.0821
43.1549 14.0565
43.2029 14.0467
43.2508 14.0054
43.2989 13.897
43.3468 13.8508
43.3949 13.8363
43.4429 13.7891
43.491 13.7337
43.5389 13.6736
43.5871 13.6372
43.635 13.5972
43.6832 13.5466
43.7312 13.4713
43.7793 13.4537
43.8273 13.4542
43.8755 13.3278
43.9237 13.3142
43.9717 13.2713
44.0199 13.2442
44.068 13.1895
44.1162 13.0773
44.1642 13.1004
44.2125 13.0592
44.2606 12.9481
44.3088 12.9456
44.3569 12.8699
44.4052 12.9353
44.4533 12.8339
44.5016 12.7712
44.5497 12.7461
44.598 12.7229
44.6461 12.6672
44.6945 12.5782
44.7426 12.5648
44.791 12.4952
44.8391 12.5119
44.8875 12.4301
44.9357 12.3634
44.984 12.3091
45.0322 12.3105
45.0806 12.2593
45.1288 12.2135
45.1773 12.1954
45.2257 12.0744
45.2739 12.1062
45.3224 12.0532
45.3706 11.9691
45.4191 11.921
45.4673 11.9039
45.5158 11.8772
45.5641 11.7963
45.6126 11.7954
45.6609 11.707
45.7094 11.6708
45.7577 11.6586
45.8063 11.6103
45.8546 11.5591
45.9031 11.5193
45.9515 11.4896
46.0001 11.4146
46.0484 11.4383
46.097 11.3732
46.1454 11.35
46.194 11.2971
46.2424 11.2505
46.291 11.1816
46.3395 11.1462
46.3881 11.12
46.4365 11.096
46.4852 11.0505
46.5337 10.9993
46.5823 10.9525
46.631 10.89
46.6795 10.8739
46.7282 10.8374
46.7767 10.8034
46.8254 10.7518
46.8739 10.7351
46.9226 10.6835
46.9712 10.6264
47.0199 10.616
47.0685 10.5581
47.1173 10.5442
47.1658 10.4924
47.2146 10.3971
47.2632 10.384
47.312 10.4006
47.3606 10.3292
47.4095 10.291
47.4581 10.2627
47.5069 10.1864
47.5556 10.18
47.6044 10.1513
47.6531 10.114
47.702 10.0841
47.7507 10.0392
47.7996 9.95516
47.8483 9.98228
47.8972 9.90802
47.9461 9.91021
47.9948 9.80595
48.0438 9.80731
48.0925 9.78086
48.1415 9.70189
48.1902 9.71249
48.2392 9.67252
48.288 9.65015
48.337 9.6341
48.3858 9.59128
48.4348 9.53146
48.4837 9.49366
48.5327 9.47732
48.5815 9.39795
48.6306 9.38224
48.6795 9.36068
48.7285 9.35379
48.7774 9.2774
48.8265 9.24798
48.8754 9.21626
48.9245 9.17794
48.9734 9.14349
49.0226 9.14572
49.0715 9.07444
49.1206 9.07724
49.1696 8.98861
49.2188 8.95982
49.2679 8.92302
49.3169 8.90243
49.3661 8.83216
49.4151 8.83565
49.4643 8.79984
49.5134 8.77849
49.5626 8.73534
49.6117 8.72851
49.6609 8.66339
49.71 8.60644
49.7592 8.61222
49.8083 8.56827
49.8576 8.51769
49.9067 8.48911
49.956 8.48635
50.0052 8.46296
50.0545 8.43705
50.1036 8.38736
50.153 8.33843
50.2022 8.32537
50.2515 8.27929
50.3007 8.24541
50.3501 8.20764
50.3993 8.16729
50.4487 8.15693
50.498 8.1379
50.5474 8.11223
50.5966 8.04831
50.6461 8.02026
50.6955 8.00767
50.7448 7.96723
50.7943 7.92424
50.8436 7.91951
50.8931 7.86962
50.9424 7.80312
50.9919 7.82259
51.0413 7.80392
51.0908 7.77345
51.1402 7.70082
51.1897 7.68174
51.2391 7.64459
51.2887 7.60233
51.3381 7.58524
51.3877 7.58009
51.4371 7.54248
51.4867 7.49667
51.5362 7.43832
51.5858 7.4235
51.6353 7.37637
51.6849 7.34753
51.7344 7.33551
51.7841 7.34886
51.8336 7.26033
51.8833 7.26315
51.9328 7.21343
51.9826 7.16158
52.0323 7.14562
52.0818 7.11986
52.1316 7.10805
52.1812 7.11293
52.231 7.05634
52.2806 7.03843
52.3304 7.00736
52.38 6.961
52.4298 6.91006
52.4794 6.90455
52.5293 6.84092
52.5789 6.82816
52.6288 6.86506
52.6785 6.78148
52.7284 6.76154
52.7781 6.72025
52.828 6.72851
52.8777 6.67529
52.9276 6.68002
52.9774 6.62742
53.0273 6.62943
53.0771 6.59628
53.1271 6.56348
53.1769 6.52562
53.2269 6.47076
53.2767 6.45922
53.3267 6.42127
53.3765 6.38467
53.4266 6.37822
53.4766 6.3238
53.5265 6.31868
53.5765 6.2742
53.6264 6.25877
53.6765 6.19277
53.7264 6.18582
53.7765 6.21695
53.8265 6.1848
53.8766 6.12346
53.9266 6.12525
53.9767 6.06811
54.0267 6.08624
54.0769 6.03626
54.1269 5.97294
54.1771 5.96619
54.2271 5.94923
54.2773 5.8893
54.3274 5.89996
54.3776 5.79085
54.4277 5.78463
54.478 5.79433
54.528 5.73136
54.5783 5.68452
54.6285 5.65525
54.6788 5.59437
54.7289 5.5722
54.7792 5.5292
54.8296 5.47872
54.8798 5.47183
54.9301 5.39115
54.9803 5.34274
55.0307 5.39484
55.0809 5.27425
55.1314 5.30837
55.1816 5.2065
55.232 5.1793
55.2823 5.1611
55.3328 5.06543
55.383 5.06616
55.4335 4.99831
55.4838 4.95468
55.5344 4.88852
55.5847 4.85475
55.6352 4.84584
55.6856 4.76249
55.7361 4.80338