File: XRD/Ni3Fe_FD0171.xy
TT I
1.27165 7.99953
1.31627 7.45756
1.36089 6.95325
1.40551 5.67451
1.45013 6.90263
1.49476 7.5266
1.53938 6.50984
1.584 5.65538
1.62863 5.74422
1.67325 5.4916
1.71787 5.36309
1.7625 4.89155
1.80712 5.5433
1.85174 4.67315
1.89636 5.53518
1.94099 5.79081
1.98562 4.92017
2.03025 5.15812
2.07487 4.71156
2.11949 5.06583
2.16411 4.59866
2.20874 5.08571
2.25338 4.33375
2.298 4.73261
2.34263 4.27496
2.38725 4.83421
2.43188 4.17088
2.4765 5.11425
2.52115 4.406
2.56577 5.20064
2.6104 5.76571
2.65503 5.07424
2.69965 5.66266
2.7443 6.39605
2.78893 7.13411
2.83356 7.40142
2.87818 8.62757
2.92281 8.94178
2.96744 9.49448
3.01209 10.4107
3.05672 11.3561
3.10135 12.4535
3.14599 13.4659
3.19062 13.896
3.23527 15.1481
3.2799 16.3192
3.32454 17.1571
3.36917 17.83
3.4138 18.9176
3.45844 19.2917
3.50309 20.2673
3.54773 21.4715
3.59237 22.0585
3.637 22.3598
3.68164 23.3025
3.7263 24.5552
3.77094 25.3292
3.81558 25.9374
3.86022 26.7215
3.90486 28.133
3.9495 28.7351
3.99416 29.6399
4.0388 30.7005
4.08344 32.1986
4.12809 32.8803
4.17273 34.0509
4.21738 35.9032
4.26204 37.1235
4.30669 38.2573
4.35133 40.2098
4.39598 41.5521
4.44063 43.5347
4.4853 45.2158
4.52995 47.3058
4.5746 49.7067
4.61925 52.4449
4.6639 54.5418
4.70855 57.5086
4.75322 60.2056
4.79788 62.8271
4.84253 67.3212
4.88719 71.1551
4.93184 75.9869
4.97652 83.2117
5.02118 91.5099
5.06583 101.754
5.11049 117.082
5.15515 153.772
5.19981 539.792
5.24449 3775.84
5.28916 8563.82
5.33382 6054.43
5.37848 409.048
5.42315 160.053
5.46783 127.117
5.5125 114.308
5.55716 108.046
5.60183 101.884
5.6465 99.1252
5.69117 98.3388
5.73586 96.5672
5.78053 95.49
5.8252 96.1552
5.86988 98.6437
5.91455 105.536
5.95924 123.994
6.00392 286.589
6.0486 1384.52
6.09328 2872.68
6.13795 3972.8
6.18263 633.885
6.22733 119.056
6.27201 88.9621
6.3167 78.5595
6.36138 72.9675
6.40606 69.0327
6.45075 66.6808
6.49545 65.2642
6.54014 62.5515
6.58483 61.4287
6.62952 60.0785
6.67421 59.0455
6.71892 58.1361
6.76361 56.6958
6.8083 56.1864
6.853 55.4405
6.89769 55.1917
6.94239 54.7593
6.98711 53.7003
7.03181 53.8442
7.07651 53.3785
7.12121 53.3834
7.16591 52.9077
7.21063 52.2426
7.25533 52.3873
7.30004 52.1744
7.34475 52.6776
7.38945 52.9855
7.43416 52.3697
7.47889 52.1844
7.5236 56.1988
7.56831 62.0423
7.61303 55.3589
7.65774 53.8907
7.70247 54.5443
7.74719 54.6161
7.79191 55.2416
7.83663 55.6823
7.88135 56.7989
7.92607 57.7368
7.97081 58.7172
8.01553 59.6231
8.06026 61.1916
8.10498 62.6679
8.14971 64.5134
8.19446 65.9014
8.23919 68.7857
8.28392 71.422
8.32865 74.1641
8.37339 78.5882
8.41812 84.491
8.46288 96.0319
8.50761 174.731
8.55235 597.626
8.59709 911.364
8.64183 1566.33
8.68658 1611.13
8.73134 382.384
8.77609 115.38
8.82083 97.6746
8.86558 91.5074
8.91033 88.5557
8.9551 86.0577
8.99985 84.8089
9.04461 83.8564
9.08936 82.7258
9.13412 81.8123
9.17888 81.9522
9.22365 87.3383
9.26841 95.6845
9.31318 86.4478
9.35794 83.1283
9.4027 82.736
9.44749 83.686
9.49226 84.2477
9.53703 85.4998
9.5818 86.9517
9.62657 87.8085
9.67134 89.1303
9.71614 91.6859
9.76091 93.7633
9.80569 96.2888
9.85047 99.7907
9.89525 104.807
9.94005 114.852
9.98484 187.181
10.0296 542.3
10.0744 750.324
10.1192 1083.16
10.164 1691.72
10.2088 934.445
10.2536 205.543
10.2984 116.236
10.3432 108.443
10.388 104.915
10.4328 122.517
10.4776 214.53
10.5224 265.405
10.5672 346.298
10.612 502.965
10.6568 360.962
10.7017 132.404
10.7465 90.739
10.7913 84.339
10.8361 81.0535
10.8809 78.7453
10.9257 76.177
10.9706 75.0507
11.0154 73.2685
11.0602 71.9204
11.105 70.9508
11.1499 69.1746
11.1947 68.4312
11.2395 67.2575
11.2844 66.9537
11.3292 66.0767
11.374 65.3151
11.4189 64.6451
11.4637 63.9849
11.5086 63.4736
11.5534 62.7885
11.5983 62.6894
11.6431 62.7528
11.688 62.0618
11.7328 62.2866
11.7777 61.6623
11.8225 61.4536
11.8674 61.7253
11.9122 63.0238
11.9571 65.9028
12.002 65.5624
12.0468 68.1166
12.0917 90.7584
12.1366 108.357
12.1814 120.994
12.2263 156.724
12.2712 194.79
12.3161 134.923
12.3609 74.5095
12.4058 64.7083
12.4507 63.8857
12.4956 63.5851
12.5405 63.4809
12.5853 64.1667
12.6302 64.3146
12.6751 65.1635
12.72 65.8516
12.7649 66.7955
12.8098 67.6662
12.8547 69.0871
12.8996 70.3911
12.9445 71.7932
12.9894 73.9472
13.0343 75.9496
13.0792 79.4807
13.1242 87.2207
13.1691 133.867
13.214 186.802
13.2589 209.424
13.3038 256.678
13.3487 362.038
13.3937 377.498
13.4386 201.505
13.4835 118.711
13.5285 154.357
13.5734 182.409
13.6183 198.277
13.6633 247.935
13.7082 338.609
13.7531 299.724
13.7981 147.134
13.843 87.8382
13.888 80.9672
13.9329 78.2747
13.9779 76.3224
14.0228 75.0503
14.0678 73.3352
14.1127 73.2253
14.1577 74.5336
14.2027 73.0059
14.2476 71.1685
14.2926 69.6723
14.3376 69.378
14.3825 69.0087
14.4275 68.6241
14.4725 68.7352
14.5175 68.905
14.5624 68.7443
14.6074 69.2169
14.6524 69.6898
14.6974 70.3953
14.7424 71.9132
14.7874 81.4219
14.8324 106.864
14.8774 121.695
14.9224 129.86
14.9674 153.49
15.0124 197.638
15.0574 203.807
15.1024 133.283
15.1474 81.1751
15.1924 71.5763
15.2374 69.7079
15.2824 68.3957
15.3274 67.4923
15.3725 66.8662
15.4175 66.6302
15.4625 66.3049
15.5076 65.9044
15.5526 65.961
15.5976 65.9589
15.6426 66.9954
15.6877 74.2553
15.7327 95.0272
15.7778 107.444
15.8228 112.966
15.8679 128.46
15.9129 159.749
15.958 186.129
16.003 147.59
16.0481 86.6958
16.0931 66.3029
16.1382 62.0499
16.1833 60.6299
16.2283 59.3548
16.2734 58.5215
16.3185 57.6747
16.3636 57.0932
16.4086 56.3261
16.4537 56.1124
16.4988 55.4798
16.5439 55.3998
16.589 55.1154
16.6341 54.8055
16.6792 54.4292
16.7243 54.7402
16.7694 54.4493
16.8145 54.3752
16.8596 54.7902
16.9047 55.0999
16.9498 55.3962
16.9949 55.3616
17.04 55.7314
17.0851 57.2183
17.1302 61.2814
17.1754 64.5996
17.2205 65.941
17.2656 68.3351
17.3108 73.8159
17.3559 80.8538
17.401 81.001
17.4462 70.9559
17.4913 61.7412
17.5365 59.6545
17.5815 59.6358
17.6268 59.8432
17.6718 60.2306
17.7171 60.7593
17.7622 61.757
17.8074 62.5004
17.8525 64.5358
17.8977 72.82
17.9428 84.0487
17.9881 88.8566
18.0331 92.2886
18.0784 100.454
18.1237 117.81
18.1688 142.813
18.214 140.48
18.2591 108.982
18.3044 88.5047
18.3495 88.0734
18.3948 96.8598
18.4399 103.871
18.4852 94.4674
18.5303 75.4199
18.5756 65.1395
18.6207 62.5107
18.666 61.2277
18.7112 60.3691
18.7565 59.7715
18.8016 59.2456
18.8469 58.646
18.892 58.264
18.9374 57.7076
18.9825 57.3111
19.0278 57.1668
19.073 57.1754
19.1183 57.5478
19.1635 59.9248
19.2088 62.0953
19.254 62.9483
19.2993 63.9859
19.3447 66.2625
19.3898 70.0614
19.4352 74.5139
19.4804 72.0043
19.5257 63.2533
19.5709 56.4129
19.6163 54.6856
19.6615 54.04
19.7068 53.9632
19.752 53.6117
19.7974 53.8923
19.8426 54.9507
19.888 57.081
19.9332 58.5694
19.9786 59.1608
20.0238 59.8863
20.0692 62.8606
20.1144 67.9307
20.1598 73.0697
20.205 71.0479
20.2504 65.4652
20.2957 61.839
20.3411 62.5995
20.3863 65.2958
20.4318 64.3655
20.477 58.8675
20.5224 53.1833
20.5677 51.2343
20.6131 50.6093
20.6586 50.2452
20.7038 50.1109
20.7493 49.7207
20.7945 49.6326
20.84 49.1895
20.8853 49.1293
20.9307 49.0712
20.976 49.3191
21.0215 49.3616
21.0668 49.7634
21.1122 49.8627
21.1575 49.9864
21.203 50.2384
21.2483 50.7459
21.2938 51.7769
21.3391 51.8377
21.3846 50.7859
21.4299 49.4816
21.4754 49.0179
21.5207 49.1995
21.5662 49.3912
21.6116 49.9076
21.6571 51.7186
21.7024 53.2928
21.7479 54.4389
21.7933 54.8493
21.8388 56.5095
21.8843 59.5221
21.9297 62.8565
21.9752 66.5758
22.0206 65.6791
22.0661 60.61
22.1115 56.6682
22.157 56.1704
22.2024 56.8621
22.248 55.4133
22.2933 52.6048
22.3389 50.3523
22.3843 49.4428
22.4299 49.2512
22.4753 49.1932
22.5208 49.1598
22.5662 49.3098
22.6118 49.2404
22.6572 49.5537
22.7028 50.8061
22.7483 51.6194
22.7939 52.183
22.8393 52.3727
22.8849 53.1238
22.9303 53.9475
22.9759 55.6912
23.0214 57.6379
23.067 58.4202
23.1126 55.994
23.1581 52.4805
23.2037 50.2268
23.2492 49.6965
23.2948 50.1631
23.3403 51.3336
23.3859 52.051
23.4314 52.1053
23.477 52.4126
23.5225 52.9801
23.5682 54.3226
23.6137 56.536
23.6593 58.2993
23.7048 57.1756
23.7505 53.0344
23.796 49.2975
23.8417 47.3047
23.8872 46.4404
23.9329 45.9539
23.9784 45.5244
24.0241 45.3435
24.0697 45.0137
24.1154 44.8168
24.1609 44.5552
24.2066 44.3453
24.2522 44.2244
24.2979 43.9818
24.3434 43.8413
24.3892 43.6259
24.4349 43.6864
24.4805 43.5221
24.5262 43.3993
24.5718 43.2746
24.6175 43.3913
24.6631 43.4374
24.7089 43.1662
24.7545 42.9797
24.8002 42.8052
24.8458 42.7808
24.8916 42.7499
24.9372 42.995
24.983 43.1886
25.0286 43.4772
25.0744 43.7373
25.12 44.3123
25.1658 44.6385
25.2114 45.1512
25.2572 45.4123
25.3029 45.2224
25.3487 45.2365
25.3943 45.1871
25.4402 45.4342
25.4858 44.7252
25.5316 43.1471
25.5773 42.0135
25.6231 41.5918
25.669 41.1627
25.7147 40.9355
25.7605 41.1178
25.8062 41.1639
25.8521 41.3193
25.8977 41.2794
25.9436 41.4535
25.9893 41.2507
26.0352 41.5433
26.0809 41.515
26.1268 41.9247
26.1725 42.4046
26.2184 42.1259
26.2641 41.6004
26.31 41.1865
26.3557 41.1787
26.4017 41.0317
26.4474 41.1566
26.4933 41.1794
26.5391 41.5462
26.585 41.8541
26.6308 42.0816
26.6767 42.4039
26.7225 43.0301
26.7684 42.9235
26.8142 42.178
26.8601 41.4741
26.9059 41.0599
26.9519 40.7325
26.9979 40.227
27.0437 39.7716
27.0896 39.5758
27.1354 39.3904
27.1814 39.1974
27.2272 39.2592
27.2732 39.2568
27.3191 39.0413
27.3651 38.99
27.4109 38.9159
27.4569 38.9488
27.5027 39.0624
27.5488 39.0837
27.5946 39.0889
27.6407 38.9884
27.6865 38.9868
27.7326 38.8971
27.7784 38.7974
27.8245 38.6471
27.8703 38.5172
27.9164 38.822
27.9623 38.7362
28.0084 39.0038
28.0543 39.2616
28.1003 39.4713
28.1462 39.7717
28.1923 39.5518
28.2384 39.0495
28.2843 38.6943
28.3304 38.409
28.3764 37.767
28.4225 37.3907
28.4684 37.0231
28.5145 36.5554
28.5605 36.5786
28.6066 36.2772
28.6526 36.3369
28.6987 36.2355
28.7447 36.0212
28.7908 35.9395
28.8368 35.8745
28.8829 35.8043
28.9289 35.7776
28.9751 35.7067
29.0211 35.6332
29.0673 35.4589
29.1133 35.3074
29.1595 35.0447
29.2055 34.9408
29.2517 34.7683
29.2977 34.6075
29.3439 34.5925
29.3899 34.6311
29.4361 34.4896
29.4824 34.5523
29.5284 34.3805
29.5746 34.1205
29.6207 33.8664
29.6669 33.5165
29.713 33.5108
29.7593 33.2984
29.8053 33.3456
29.8516 33.2661
29.8977 33.2621
29.9439 33.0611
29.99 33.0072
30.0363 32.8815
30.0824 33.0414
30.1287 32.8369
30.1748 32.9054
30.2211 32.8135
30.2673 32.7193
30.3136 32.806
30.3597 32.8932
30.406 32.8651
30.4522 32.7127
30.4985 32.6256
30.5447 32.6529
30.591 32.5371
30.6372 32.5288
30.6835 32.4743
30.7297 32.7043
30.7761 32.6048
30.8224 32.671
30.8686 32.5536
30.915 32.2329
30.9612 32.2042
31.0076 31.9538
31.0538 31.8516
31.1002 31.7525
31.1464 31.4973
31.1928 31.4927
31.2391 31.5519
31.2855 31.4517
31.3317 31.2949
31.3781 31.28
31.4244 31.2759
31.4708 31.1697
31.5171 31.2525
31.5636 31.3183
31.6098 31.1957
31.6563 31.2101
31.7026 30.9385
31.7491 30.7049
31.7953 30.6733
31.8418 30.5951
31.8881 30.5738
31.9346 30.5355
31.9809 30.473
32.0275 30.4553
32.074 30.4553
32.1203 30.191
32.1668 30.2103
32.2132 29.9137
32.2597 29.8099
32.306 29.6758
32.3526 29.4874
32.399 29.4602
32.4455 29.2283
32.4919 29.1972
32.5385 29.0106
32.5848 28.8357
32.6314 28.9104
32.6778 28.8066
32.7244 28.7334
32.7708 28.661
32.8174 28.5782
32.8638 28.4024
32.9104 28.5816
32.9569 28.4998
33.0035 28.316
33.0499 28.276
33.0966 28.1975
33.143 28.2263
33.1897 27.9976
33.2361 28.0257
33.2828 28.009
33.3293 27.8055
33.3759 27.8718
33.4226 27.8333
33.4691 27.6265
33.5158 27.5873
33.5623 27.3467
33.609 27.1643
33.6555 27.1248
33.7022 27.0617
33.7487 26.9515
33.7954 26.8707
33.842 26.726
33.8887 26.65
33.9353 26.6304
33.982 26.5959
34.0286 26.5078
34.0753 26.3635
34.1219 26.222
34.1687 26.2468
34.2152 26.1535
34.262 25.9967
34.3086 25.9076
34.3554 25.9027
34.402 25.7621
34.4488 25.7188
34.4954 25.6586
34.5422 25.6057
34.5889 25.4178
34.6357 25.2905
34.6825 25.3536
34.7292 25.1772
34.776 25.1679
34.8227 25.0498
34.8695 24.9518
34.9162 24.8786
34.9631 24.7477
35.0098 24.905
35.0566 24.7464
35.1033 24.6331
35.1502 24.6898
35.1969 24.5195
35.2438 24.5292
35.2906 24.5247
35.3375 24.3978
35.3842 24.3374
35.4311 24.3253
35.4779 24.2596
35.5248 24.2707
35.5716 24.1318
35.6185 24.171
35.6653 24.0018
35.7123 23.9825
35.759 23.835
35.806 23.7442
35.8528 23.6274
35.8998 23.584
35.9468 23.4638
35.9936 23.4415
36.0406 23.3562
36.0874 23.3474
36.1345 23.1642
36.1813 23.1991
36.2283 23.1093
36.2752 23.1038
36.3222 23.0042
36.3691 22.8874
36.4161 22.8219
36.463 22.7868
36.5101 22.7683
36.557 22.7015
36.6041 22.5555
36.651 22.5322
36.6981 22.4768
36.745 22.4129
36.7921 22.3676
36.839 22.2031
36.8861 22.1409
36.9331 22.0584
36.9802 22.062
37.0272 21.9226
37.0743 21.7936
37.1213 21.8367
37.1684 21.7563
37.2154 21.7068
37.2626 21.5632
37.3098 21.5507
37.3568 21.5026
37.404 21.4973
37.451 21.2653
37.4982 21.3016
37.5452 21.2194
37.5924 21.1198
37.6395 21.1845
37.6867 21.0331
37.7337 20.991
37.781 20.8763
37.8281 20.7681
37.8753 20.7059
37.9224 20.6507
37.9697 20.6027
38.0168 20.5334
38.064 20.4331
38.1111 20.393
38.1584 20.3172
38.2056 20.2512
38.2529 20.1925
38.3 20.156
38.3473 20.1184
38.3945 19.9488
38.4418 19.9727
38.489 19.939
38.5363 19.8172
38.5837 19.7434
38.6309 19.7515
38.6782 19.6272
38.7254 19.5288
38.7728 19.4963
38.82 19.3931
38.8674 19.3512
38.9146 19.3643
38.9621 19.3276
39.0093 19.2067
39.0567 19.1186
39.104 19.0789
39.1514 18.9541
39.1987 19.034
39.2461 18.9065
39.2934 18.8219
39.3409 18.7422
39.3882 18.6721
39.4356 18.6951
39.483 18.6305
39.5304 18.5582
39.5778 18.5237
39.6253 18.4199
39.6726 18.3577
39.7201 18.2767
39.7675 18.2982
39.815 18.1658
39.8624 18.1271
39.9099 18.1505
39.9575 18.0335
40.0049 17.9361
40.0525 17.9104
40.0999 17.8977
40.1474 17.7915
40.1949 17.7269
40.2425 17.649
40.2899 17.6194
40.3375 17.6538
40.385 17.494
40.4326 17.4605
40.48 17.3515
40.5277 17.3506
40.5752 17.2105
40.6228 17.2185
40.6703 17.1843
40.718 17.1608
40.7655 17.1413
40.8132 17.0227
40.8607 16.9894
40.9084 16.9082
40.9559 16.9227
41.0036 16.8247
41.0512 16.7358
41.0989 16.7172
41.1465 16.6702
41.1942 16.6347
41.242 16.5065
41.2896 16.4793
41.3373 16.4133
41.3849 16.3877
41.4327 16.3393
41.4803 16.2031
41.5281 16.2084
41.5758 16.1529
41.6236 16.0754
41.6712 15.9975
41.7191 15.9348
41.7667 15.9338
41.8146 15.8925
41.8622 15.8788
41.9101 15.757
41.9578 15.6371
42.0057 15.6692
42.0534 15.5374
42.1013 15.5571
42.149 15.5184
42.1969 15.4214
42.2446 15.4058
42.2925 15.3585
42.3403 15.2995
42.3882 15.2429
42.436 15.2768
42.4839 15.1192
42.5319 15.101
42.5797 15.0767
42.6277 14.9889
42.6755 14.9655
42.7235 14.8641
42.7713 14.8414
42.8193 14.8354
42.8671 14.7496
42.9152 14.7076
42.963 14.6729
43.0111 14.5851
43.0589 14.4993
43.107 14.458
43.1549 14.4095
43.2029 14.4047
43.2508 14.3423
43.2989 14.2846
43.3468 14.263
43.3949 14.1992
43.4429 14.1452
43.491 14.0874
43.5389 14.0858
43.5871 14.0082
43.635 13.9351
43.6832 13.8898
43.7312 13.8624
43.7793 13.797
43.8273 13.7697
43.8755 13.673
43.9237 13.6679
43.9717 13.6356
44.0199 13.5622
44.068 13.5569
44.1162 13.489
44.1642 13.4548
44.2125 13.3693
44.2606 13.3223
44.3088 13.2743
44.3569 13.2041
44.4052 13.2566
44.4533 13.115
44.5016 13.0691
44.5497 13.0547
44.598 13.0388
44.6461 12.9479
44.6945 12.9165
44.7426 12.8273
44.791 12.814
44.8391 12.8021
44.8875 12.718
44.9357 12.702
44.984 12.6315
45.0322 12.615
45.0806 12.5402
45.1288 12.5201
45.1773 12.4563
45.2257 12.4296
45.2739 12.3955
45.3224 12.3264
45.3706 12.2981
45.4191 12.2305
45.4673 12.2242
45.5158 12.1124
45.5641 12.1482
45.6126 12.0885
45.6609 12.0396
45.7094 11.9811
45.7577 11.902
45.8063 11.8748
45.8546 11.8857
45.9031 11.7904
45.9515 11.7477
46.0001 11.7227
46.0484 11.7155
46.097 11.6688
46.1454 11.6279
46.194 11.6188
46.2424 11.5434
46.291 11.4983
46.3395 11.4331
46.3881 11.358
46.4365 11.3631
46.4852 11.2713
46.5337 11.2652
46.5823 11.2863
46.631 11.1494
46.6795 11.1331
46.7282 11.1558
46.7767 11.0551
46.8254 11.0012
46.8739 10.9705
46.9226 10.9144
46.9712 10.9148
47.0199 10.8829
47.0685 10.8419
47.1173 10.7786
47.1658 10.7431
47.2146 10.6915
47.2632 10.6221
47.312 10.6667
47.3606 10.5853
47.4095 10.5077
47.4581 10.4905
47.5069 10.4694
47.5556 10.4119
47.6044 10.3806
47.6531 10.3472
47.702 10.3032
47.7507 10.2804
47.7996 10.2527
47.8483 10.2112
47.8972 10.1935
47.9461 10.1088
47.9948 10.0759
48.0438 10.0344
48.0925 10.0335
48.1415 10.0014
48.1902 9.939
48.2392 9.92532
48.288 9.9147
48.337 9.86776
48.3858 9.80823
48.4348 9.78539
48.4837 9.76133
48.5327 9.72088
48.5815 9.66839
48.6306 9.64375
48.6795 9.57051
48.7285 9.55851
48.7774 9.55527
48.8265 9.48631
48.8754 9.45307
48.9245 9.41812
48.9734 9.37572
49.0226 9.35075
49.0715 9.2916
49.1206 9.30782
49.1696 9.26307
49.2188 9.21475
49.2679 9.176
49.3169 9.14739
49.3661 9.0823
49.4151 9.03906
49.4643 9.02082
49.5134 8.98316
49.5626 8.95765
49.6117 8.9686
49.6609 8.92776
49.71 8.81206
49.7592 8.83332
49.8083 8.81177
49.8576 8.78101
49.9067 8.72047
49.956 8.73663
50.0052 8.64082
50.0545 8.62466
50.1036 8.60659
50.153 8.55954
50.2022 8.49697
50.2515 8.51157
50.3007 8.46285
50.3501 8.38132
50.3993 8.42848
50.4487 8.33542
50.498 8.34621
50.5474 8.29062
50.5966 8.26456
50.6461 8.26937
50.6955 8.22874
50.7448 8.16945
50.7943 8.17184
50.8436 8.11087
50.8931 8.08482
50.9424 8.04074
50.9919 8.01203
51.0413 7.99269
51.0908 7.97269
51.1402 7.90899
51.1897 7.86148
51.2391 7.87707
51.2887 7.79672
51.3381 7.77048
51.3877 7.79924
51.4371 7.73908
51.4867 7.69285
51.5362 7.6668
51.5858 7.66119
51.6353 7.58346
51.6849 7.57305
51.7344 7.54325
51.7841 7.49679
51.8336 7.46711
51.8833 7.43785
51.9328 7.40732
51.9826 7.39019
52.0323 7.33787
52.0818 7.32026
52.1316 7.25344
52.1812 7.23719
52.231 7.22121
52.2806 7.19391
52.3304 7.19775
52.38 7.16532
52.4298 7.09413
52.4794 7.08638
52.5293 7.06067
52.5789 7.04782
52.6288 6.96563
52.6785 6.94198
52.7284 6.94717
52.7781 6.90827
52.828 6.91888
52.8777 6.86334
52.9276 6.80736
52.9774 6.79998
53.0273 6.72556
53.0771 6.72353
53.1271 6.74176
53.1769 6.66492
53.2269 6.69085
53.2767 6.6548
53.3267 6.60725
53.3765 6.62649
53.4266 6.55333
53.4766 6.54894
53.5265 6.46734
53.5765 6.47307
53.6264 6.41421
53.6765 6.41144
53.7264 6.42141
53.7765 6.33994
53.8265 6.32011
53.8766 6.22314
53.9266 6.26011
53.9767 6.22461
54.0267 6.19939
54.0769 6.17343
54.1269 6.09149
54.1771 6.06456
54.2271 6.08074
54.2773 6.01399
54.3274 6.03649
54.3776 5.91787
54.4277 5.93739
54.478 5.87942
54.528 5.84295
54.5783 5.78555
54.6285 5.68829
54.6788 5.69562
54.7289 5.70555
54.7792 5.60671
54.8296 5.58978
54.8798 5.48302
54.9301 5.52619
54.9803 5.5546
55.0307 5.50469
55.0809 5.39632
55.1314 5.37435
55.1816 5.27236
55.232 5.21314
55.2823 5.2149
55.3328 5.13654
55.383 5.09737
55.4335 5.04273
55.4838 4.99326
55.5344 4.95185
55.5847 4.88249
55.6352 4.80777
55.6856 4.88718
55.7361 4.74713