File: XRD/Ni3Fe_FD0314.xy
TT I
1.27165 7.47754
1.31627 7.17834
1.36089 6.83226
1.40551 6.49067
1.45013 6.70942
1.49476 6.73645
1.53938 6.30788
1.584 5.47028
1.62863 5.86853
1.67325 5.34776
1.71787 4.72471
1.7625 4.83674
1.80712 4.8449
1.85174 5.11498
1.89636 5.55486
1.94099 5.28328
1.98562 4.7397
2.03025 4.9095
2.07487 4.10294
2.11949 5.1833
2.16411 4.70344
2.20874 15.6609
2.25338 26.785
2.298 5.86635
2.34263 5.26133
2.38725 5.42683
2.43188 4.88117
2.4765 6.36612
2.52115 5.54684
2.56577 7.03392
2.6104 6.39841
2.65503 7.00378
2.69965 6.93248
2.7443 7.45977
2.78893 7.31479
2.83356 8.16127
2.87818 8.43746
2.92281 8.59688
2.96744 9.12516
3.01209 10.3922
3.05672 11.0468
3.10135 12.4333
3.14599 13.08
3.19062 14.0473
3.23527 14.6933
3.2799 16.0418
3.32454 17.2663
3.36917 18.1771
3.4138 19.1422
3.45844 19.8928
3.50309 21.0209
3.54773 22.6406
3.59237 24.6375
3.637 109.231
3.68164 68.3479
3.7263 27.2275
3.77094 26.9296
3.81558 27.0667
3.86022 27.6623
3.90486 29.6239
3.9495 30.4753
3.99416 31.5426
4.0388 32.6474
4.08344 34.7228
4.12809 35.3814
4.17273 37.7938
4.21738 44.6535
4.26204 296.12
4.30669 264.074
4.35133 51.1794
4.39598 46.3396
4.44063 56.904
4.4853 71.2043
4.52995 52.8988
4.5746 52.9728
4.61925 54.9403
4.6639 56.6166
4.70855 59.0313
4.75322 62.564
4.79788 65.857
4.84253 69.0214
4.88719 73.1412
4.93184 77.4069
4.97652 83.8849
5.02118 90.8666
5.06583 99.1915
5.11049 114.198
5.15515 205.178
5.19981 491.243
5.24449 3117.46
5.28916 11367.4
5.33382 3868.86
5.37848 236.436
5.42315 141.419
5.46783 121.267
5.5125 111.216
5.55716 106.45
5.60183 102.43
5.6465 100.044
5.69117 98.0412
5.73586 95.75
5.78053 96.0135
5.8252 95.9325
5.86988 97.1242
5.91455 99.9824
5.95924 111.452
6.00392 256.174
6.0486 1073.07
6.09328 3868.03
6.13795 3608.95
6.18263 313.236
6.22733 103.117
6.27201 87.5894
6.3167 111.748
6.36138 85.5985
6.40606 71.7732
6.45075 69.6136
6.49545 67.5833
6.54014 65.6703
6.58483 65.1936
6.62952 65.0162
6.67421 101.929
6.71892 167.053
6.76361 72.719
6.8083 60.6691
6.853 59.3067
6.89769 58.5498
6.94239 58.3233
6.98711 57.7553
7.03181 57.128
7.07651 57.2956
7.12121 56.8077
7.16591 57.4773
7.21063 57.5293
7.25533 74.6161
7.30004 212.509
7.34475 103.992
7.38945 58.6159
7.43416 56.4517
7.47889 55.7607
7.5236 56.0565
7.56831 56.7415
7.61303 59.4717
7.65774 59.7326
7.70247 58.2063
7.74719 57.5782
7.79191 58.196
7.83663 58.521
7.88135 59.4131
7.92607 60.311
7.97081 61.5724
8.01553 62.2217
8.06026 63.9873
8.10498 65.7264
8.14971 77.0641
8.19446 75.8794
8.23919 71.6394
8.28392 73.9341
8.32865 76.3756
8.37339 81.0485
8.41812 89.2656
8.46288 125.426
8.50761 188.696
8.55235 429.023
8.59709 1065.06
8.64183 2108.15
8.68658 1162.7
8.73134 197.895
8.77609 105.571
8.82083 96.4312
8.86558 92.9441
8.91033 93.2704
8.9551 95.6518
8.99985 88.1426
9.04461 85.6897
9.08936 84.7735
9.13412 84.4216
9.17888 83.9744
9.22365 85.4938
9.26841 84.2966
9.31318 85.2701
9.35794 85.0779
9.4027 85.5132
9.44749 86.1905
9.49226 86.7675
9.53703 87.8568
9.5818 90.0102
9.62657 95.2191
9.67134 102.987
9.71614 96.8434
9.76091 96.8505
9.80569 99.8395
9.85047 103.255
9.89525 131.802
9.94005 149.408
9.98484 196.937
10.0296 378.101
10.0744 755.494
10.1192 1583.21
10.164 1791.05
10.2088 519.12
10.2536 142.105
10.2984 119.334
10.3432 121.294
10.388 109.409
10.4328 126.216
10.4776 170.49
10.5224 267.607
10.5672 478.577
10.612 540.216
10.6568 234.824
10.7017 102.412
10.7465 89.7829
10.7913 86.0561
10.8361 83.2517
10.8809 81.4314
10.9257 81.1151
10.9706 82.3482
11.0154 77.3162
11.0602 75.0461
11.105 74.2891
11.1499 79.324
11.1947 89.1721
11.2395 78.1742
11.2844 73.2739
11.3292 69.3091
11.374 68.3484
11.4189 67.3725
11.4637 66.8084
11.5086 67.8773
11.5534 71.4801
11.5983 68.0711
11.6431 65.7221
11.688 64.9653
11.7328 64.9987
11.7777 64.9145
11.8225 64.393
11.8674 64.1698
11.9122 64.6778
11.9571 65.0471
12.002 65.703
12.0468 71.0118
12.0917 83.5705
12.1366 103.518
12.1814 143.258
12.2263 203.811
12.2712 185.249
12.3161 107.403
12.3609 74.913
12.4058 66.9592
12.4507 66.594
12.4956 66.4799
12.5405 66.55
12.5853 67.5416
12.6302 76.9377
12.6751 84.1313
12.72 72.8239
12.7649 69.8993
12.8098 70.5593
12.8547 71.7444
12.8996 73.0973
12.9445 74.5202
12.9894 75.9089
13.0343 78.1195
13.0792 81.6301
13.1242 92.5083
13.1691 120.25
13.214 154.286
13.2589 223.891
13.3038 342.871
13.3487 441.863
13.3937 301.593
13.4386 138.056
13.4835 112.57
13.5285 128.477
13.5734 158.653
13.6183 225.402
13.6633 328.654
13.7082 361.444
13.7531 215.487
13.7981 105.898
13.843 85.1073
13.888 82.15
13.9329 79.4248
13.9779 78.0119
14.0228 76.496
14.0678 75.1934
14.1127 75.0039
14.1577 74.7275
14.2027 73.8393
14.2476 72.4944
14.2926 72.7492
14.3376 74.2841
14.3825 72.5193
14.4275 71.0148
14.4725 70.6632
14.5175 70.7218
14.5624 71.1252
14.6074 73.9578
14.6524 74.5664
14.6974 72.6343
14.7424 74.6388
14.7874 82.6264
14.8324 93.5263
14.8774 111.042
14.9224 144.254
14.9674 195.497
15.0124 226.731
15.0574 164.156
15.1024 98.1736
15.1474 75.2364
15.1924 72.6337
15.2374 74.0008
15.2824 73.1713
15.3274 70.7278
15.3725 68.8608
15.4175 68.3436
15.4625 68.1366
15.5076 68.3661
15.5526 68.2939
15.5976 67.702
15.6426 69.0261
15.6877 75.6164
15.7327 84.0284
15.7778 96.4227
15.8228 120.491
15.8679 160.089
15.9129 197.897
15.958 174.545
16.003 108.184
16.0481 71.8382
16.0931 67.4574
16.1382 65.1949
16.1833 62.9308
16.2283 60.9805
16.2734 60.3222
16.3185 60.8951
16.3636 62.0666
16.4086 60.2516
16.4537 58.1831
16.4988 57.3492
16.5439 57.4481
16.589 56.8335
16.6341 56.7182
16.6792 56.1808
16.7243 56.6548
16.7694 56.6673
16.8145 56.4183
16.8596 57.1236
16.9047 59.0383
16.9498 59.2094
16.9949 57.5669
17.04 57.5146
17.0851 58.8786
17.1302 61.0161
17.1754 63.6355
17.2205 67.5914
17.2656 73.8551
17.3108 82.5475
17.3559 85.0699
17.401 75.3351
17.4462 65.0182
17.4913 61.0675
17.5365 60.9722
17.5815 61.0649
17.6268 61.2202
17.6718 62.4351
17.7171 63.0276
17.7622 62.9846
17.8074 63.6057
17.8525 66.4537
17.8977 71.326
17.9428 77.2263
17.9881 83.8269
18.0331 97.2593
18.0784 116.866
18.1237 140.794
18.1688 140.597
18.214 113.633
18.2591 90.1456
18.3044 89.9465
18.3495 99.2022
18.3948 108.956
18.4399 102.858
18.4852 82.8511
18.5303 68.8942
18.5756 64.3611
18.6207 63.292
18.666 62.2661
18.7112 61.6435
18.7565 60.9315
18.8016 60.3987
18.8469 59.9008
18.892 59.6376
18.9374 58.9934
18.9825 58.7897
19.0278 58.7665
19.073 58.7135
19.1183 59.6077
19.1635 60.4426
19.2088 61.4996
19.254 63.3808
19.2993 66.802
19.3447 72.8637
19.3898 78.502
19.4352 76.3569
19.4804 67.2967
19.5257 59.1582
19.5709 56.066
19.6163 55.6663
19.6615 55.3825
19.7068 54.9937
19.752 54.9895
19.7974 55.4116
19.8426 56.1443
19.888 57.088
19.9332 58.0432
19.9786 59.8877
20.0238 63.0276
20.0692 67.8176
20.1144 71.9023
20.1598 71.5858
20.205 66.1816
20.2504 63.1635
20.2957 64.3907
20.3411 67.0264
20.3863 67.0182
20.4318 61.6122
20.477 55.8731
20.5224 53.5485
20.5677 52.7315
20.6131 51.9142
20.6586 51.0867
20.7038 51.166
20.7493 50.7654
20.7945 50.5797
20.84 50.3508
20.8853 50.2595
20.9307 50.1261
20.976 50.279
21.0215 50.3318
21.0668 50.5654
21.1122 50.8423
21.1575 51.3679
21.203 52.0985
21.2483 52.9812
21.2938 53.3124
21.3391 51.8524
21.3846 50.7196
21.4299 50.075
21.4754 49.9087
21.5207 50.1551
21.5662 50.2014
21.6116 50.8302
21.6571 51.7308
21.7024 52.6497
21.7479 53.985
21.7933 56.111
21.8388 59.3755
21.8843 63.188
21.9297 66.6534
21.9752 66.4634
22.0206 62.3715
22.0661 58.1804
22.1115 57.3271
22.157 57.8701
22.2024 56.6345
22.248 53.5682
22.2933 51.7825
22.3389 50.8032
22.3843 50.7409
22.4299 50.6945
22.4753 50.5714
22.5208 50.2878
22.5662 49.9678
22.6118 50.1768
22.6572 50.4694
22.7028 50.9958
22.7483 51.574
22.7939 51.9069
22.8393 53.0897
22.8849 54.8528
22.9303 56.9979
22.9759 59.1234
23.0214 59.9847
23.067 57.1995
23.1126 53.3082
23.1581 51.1164
23.2037 50.4156
23.2492 50.5327
23.2948 50.4429
23.3403 50.8207
23.3859 51.2698
23.4314 52.1376
23.477 53.6453
23.5225 55.4866
23.5682 57.8385
23.6137 59.8499
23.6593 58.397
23.7048 54.1771
23.7505 50.3749
23.796 48.2245
23.8417 47.5362
23.8872 46.8929
23.9329 46.7451
23.9784 46.2576
24.0241 46.1239
24.0697 45.9448
24.1154 45.5439
24.1609 45.5869
24.2066 45.2279
24.2522 45.1178
24.2979 44.8513
24.3434 44.8316
24.3892 44.6364
24.4349 44.3949
24.4805 44.4135
24.5262 44.4378
24.5718 44.1388
24.6175 44.3341
24.6631 44.2879
24.7089 43.9116
24.7545 43.8715
24.8002 43.6142
24.8458 43.723
24.8916 43.3911
24.9372 43.5821
24.983 43.7829
25.0286 44.1492
25.0744 44.5214
25.12 44.8501
25.1658 45.5807
25.2114 45.9546
25.2572 45.9403
25.3029 46.0764
25.3487 46.1258
25.3943 46.3162
25.4402 45.2939
25.4858 44.2032
25.5316 42.9269
25.5773 42.2932
25.6231 42.2415
25.669 41.8149
25.7147 41.8785
25.7605 41.793
25.8062 41.8887
25.8521 42.0885
25.8977 41.9653
25.9436 42.1376
25.9893 42.0287
26.0352 42.6643
26.0809 42.8035
26.1268 43.0577
26.1725 42.8537
26.2184 42.2229
26.2641 41.6599
26.31 41.5585
26.3557 41.4456
26.4017 41.4683
26.4474 41.8002
26.4933 42.0764
26.5391 42.3013
26.585 42.8327
26.6308 43.3169
26.6767 43.5478
26.7225 43.4379
26.7684 42.8531
26.8142 42.166
26.8601 41.8748
26.9059 41.3572
26.9519 40.7734
26.9979 40.5879
27.0437 40.1136
27.0896 39.8489
27.1354 39.9737
27.1814 39.7853
27.2272 39.7615
27.2732 39.8052
27.3191 39.604
27.3651 39.6863
27.4109 39.5914
27.4569 39.6493
27.5027 39.656
27.5488 39.8188
27.5946 39.6043
27.6407 39.4227
27.6865 39.4172
27.7326 39.0911
27.7784 39.0898
27.8245 39.056
27.8703 39.1117
27.9164 39.3787
27.9623 39.4467
28.0084 39.6586
28.0543 40.1834
28.1003 40.2304
28.1462 40.0742
28.1923 39.8001
28.2384 39.1401
28.2843 38.9668
28.3304 38.537
28.3764 37.8895
28.4225 37.6041
28.4684 37.445
28.5145 37.1034
28.5605 36.9745
28.6066 36.7392
28.6526 36.8425
28.6987 36.552
28.7447 36.5974
28.7908 36.5577
28.8368 36.5673
28.8829 36.5594
28.9289 36.49
28.9751 36.2945
29.0211 36.0681
29.0673 35.7387
29.1133 35.7318
29.1595 35.5289
29.2055 35.3931
29.2517 35.4212
29.2977 35.3951
29.3439 35.2518
29.3899 35.3335
29.4361 35.2783
29.4824 35.1292
29.5284 34.7927
29.5746 34.3612
29.6207 34.2372
29.6669 34.1175
29.713 34.1409
29.7593 33.909
29.8053 33.9339
29.8516 33.8955
29.8977 33.7389
29.9439 33.6741
29.99 33.6881
30.0363 33.4571
30.0824 33.5049
30.1287 33.376
30.1748 33.4353
30.2211 33.4301
30.2673 33.3978
30.3136 33.4873
30.3597 33.3443
30.406 33.2573
30.4522 33.1786
30.4985 33.0694
30.5447 33.097
30.591 33.0849
30.6372 33.1478
30.6835 33.2012
30.7297 33.1889
30.7761 33.296
30.8224 33.1057
30.8686 32.9873
30.915 32.673
30.9612 32.5667
31.0076 32.2963
31.0538 32.2653
31.1002 32.2321
31.1464 31.9982
31.1928 31.8608
31.2391 31.9172
31.2855 31.97
31.3317 31.8156
31.3781 31.9144
31.4244 31.8301
31.4708 31.7935
31.5171 31.736
31.5636 31.7924
31.6098 31.5208
31.6563 31.2344
31.7026 31.2516
31.7491 31.0188
31.7953 31.0808
31.8418 31.0694
31.8881 31.0011
31.9346 31.0027
31.9809 30.9542
32.0275 30.8982
32.074 30.7595
32.1203 30.5967
32.1668 30.6064
32.2132 30.34
32.2597 30.1701
32.306 30.1328
32.3526 29.9605
32.399 29.8906
32.4455 29.7262
32.4919 29.7074
32.5385 29.5705
32.5848 29.4679
32.6314 29.5074
32.6778 29.3687
32.7244 29.1241
32.7708 29.0398
32.8174 29.0986
32.8638 28.8917
32.9104 28.9454
32.9569 28.8557
33.0035 28.84
33.0499 28.8133
33.0966 28.6461
33.143 28.6431
33.1897 28.4692
33.2361 28.3956
33.2828 28.4474
33.3293 28.1557
33.3759 28.3109
33.4226 28.0872
33.4691 27.9333
33.5158 27.9279
33.5623 27.8739
33.609 27.6838
33.6555 27.4847
33.7022 27.5111
33.7487 27.3504
33.7954 27.2993
33.842 27.2345
33.8887 27.1497
33.9353 27.0932
33.982 27.0511
34.0286 26.9847
34.0753 26.8641
34.1219 26.6982
34.1687 26.5877
34.2152 26.593
34.262 26.4667
34.3086 26.3741
34.3554 26.459
34.402 26.2124
34.4488 26.1053
34.4954 26.0553
34.5422 25.9471
34.5889 25.8469
34.6357 25.7387
34.6825 25.6606
34.7292 25.611
34.776 25.5173
34.8227 25.4056
34.8695 25.4982
34.9162 25.3996
34.9631 25.2805
35.0098 25.2765
35.0566 25.1619
35.1033 25.0561
35.1502 24.9666
35.1969 24.9453
35.2438 24.9569
35.2906 24.874
35.3375 24.7679
35.3842 24.7267
35.4311 24.7571
35.4779 24.6841
35.5248 24.6249
35.5716 24.5125
35.6185 24.4075
35.6653 24.3442
35.7123 24.3798
35.759 24.2336
35.806 24.1719
35.8528 23.9561
35.8998 23.9924
35.9468 23.8681
35.9936 23.8242
36.0406 23.7436
36.0874 23.7104
36.1345 23.6798
36.1813 23.5314
36.2283 23.4154
36.2752 23.362
36.3222 23.3952
36.3691 23.2599
36.4161 23.1284
36.463 23.1464
36.5101 23.0319
36.557 23.0809
36.6041 22.9156
36.651 22.8019
36.6981 22.8008
36.745 22.8194
36.7921 22.7302
36.839 22.5918
36.8861 22.5308
36.9331 22.4555
36.9802 22.3524
37.0272 22.2435
37.0743 22.1784
37.1213 22.1128
37.1684 22.1229
37.2154 22.0337
37.2626 21.9868
37.3098 21.9483
37.3568 21.8006
37.404 21.7126
37.451 21.6293
37.4982 21.5957
37.5452 21.5223
37.5924 21.4618
37.6395 21.5079
37.6867 21.3844
37.7337 21.2937
37.781 21.1736
37.8281 21.2553
37.8753 21.0664
37.9224 20.9805
37.9697 20.9549
38.0168 20.8834
38.064 20.7949
38.1111 20.7731
38.1584 20.5585
38.2056 20.6087
38.2529 20.5367
38.3 20.4781
38.3473 20.4471
38.3945 20.3938
38.4418 20.3235
38.489 20.2504
38.5363 20.1215
38.5837 20.1097
38.6309 20.03
38.6782 19.8751
38.7254 19.8682
38.7728 19.8197
38.82 19.733
38.8674 19.7483
38.9146 19.6173
38.9621 19.5262
39.0093 19.5693
39.0567 19.5043
39.104 19.3912
39.1514 19.3257
39.1987 19.2583
39.2461 19.2481
39.2934 19.1724
39.3409 19.0719
39.3882 18.9682
39.4356 18.9982
39.483 18.8817
39.5304 18.8438
39.5778 18.7957
39.6253 18.715
39.6726 18.6707
39.7201 18.6887
39.7675 18.528
39.815 18.4812
39.8624 18.4674
39.9099 18.3849
39.9575 18.3112
40.0049 18.2568
40.0525 18.2201
40.0999 18.2192
40.1474 18.1373
40.1949 18.0163
40.2425 17.9892
40.2899 17.9333
40.3375 17.8306
40.385 17.7667
40.4326 17.7503
40.48 17.7201
40.5277 17.6511
40.5752 17.5594
40.6228 17.4894
40.6703 17.4243
40.718 17.3995
40.7655 17.4023
40.8132 17.3211
40.8607 17.2747
40.9084 17.1905
40.9559 17.1785
41.0036 17.1678
41.0512 17.0625
41.0989 16.9847
41.1465 16.8934
41.1942 16.8978
41.242 16.8007
41.2896 16.7575
41.3373 16.6851
41.3849 16.6633
41.4327 16.6241
41.4803 16.4977
41.5281 16.452
41.5758 16.3803
41.6236 16.3906
41.6712 16.3013
41.7191 16.2697
41.7667 16.1294
41.8146 16.1349
41.8622 16.0362
41.9101 16.0266
41.9578 15.9797
42.0057 15.9046
42.0534 15.8555
42.1013 15.8325
42.149 15.771
42.1969 15.7363
42.2446 15.6778
42.2925 15.5936
42.3403 15.5675
42.3882 15.5807
42.436 15.4742
42.4839 15.3227
42.5319 15.3185
42.5797 15.2773
42.6277 15.2595
42.6755 15.1632
42.7235 15.1283
42.7713 15.0912
42.8193 15.0383
42.8671 14.968
42.9152 14.9248
42.963 14.9172
43.0111 14.8435
43.0589 14.7216
43.107 14.7003
43.1549 14.6658
43.2029 14.6083
43.2508 14.5866
43.2989 14.5365
43.3468 14.4722
43.3949 14.3809
43.4429 14.3637
43.491 14.3503
43.5389 14.2915
43.5871 14.2638
43.635 14.1458
43.6832 14.1457
43.7312 14.0543
43.7793 14.0185
43.8273 14.0485
43.8755 13.9387
43.9237 13.8671
43.9717 13.7966
44.0199 13.8084
44.068 13.78
44.1162 13.7237
44.1642 13.6881
44.2125 13.5912
44.2606 13.5555
44.3088 13.5362
44.3569 13.4665
44.4052 13.4056
44.4533 13.3954
44.5016 13.3136
44.5497 13.2931
44.598 13.2598
44.6461 13.1718
44.6945 13.1397
44.7426 13.1102
44.791 13.0513
44.8391 13.046
44.8875 12.984
44.9357 12.9191
44.984 12.827
45.0322 12.8106
45.0806 12.7669
45.1288 12.7363
45.1773 12.6807
45.2257 12.6392
45.2739 12.5977
45.3224 12.5365
45.3706 12.5137
45.4191 12.4525
45.4673 12.4158
45.5158 12.3565
45.5641 12.3328
45.6126 12.2716
45.6609 12.2403
45.7094 12.2
45.7577 12.1387
45.8063 12.0694
45.8546 12.0939
45.9031 12.0266
45.9515 11.9794
46.0001 11.9382
46.0484 11.8603
46.097 11.9102
46.1454 11.8081
46.194 11.743
46.2424 11.7181
46.291 11.6632
46.3395 11.6471
46.3881 11.5904
46.4365 11.6001
46.4852 11.5211
46.5337 11.5011
46.5823 11.4767
46.631 11.3554
46.6795 11.3409
46.7282 11.2726
46.7767 11.2974
46.8254 11.2221
46.8739 11.1618
46.9226 11.1398
46.9712 11.0963
47.0199 11.0282
47.0685 10.9813
47.1173 10.9728
47.1658 10.9525
47.2146 10.8951
47.2632 10.8511
47.312 10.8138
47.3606 10.7641
47.4095 10.7239
47.4581 10.6878
47.5069 10.64
47.5556 10.6273
47.6044 10.5758
47.6531 10.5379
47.702 10.4522
47.7507 10.4481
47.7996 10.4158
47.8483 10.3891
47.8972 10.3515
47.9461 10.2935
47.9948 10.2367
48.0438 10.2372
48.0925 10.2136
48.1415 10.1678
48.1902 10.1096
48.2392 10.0887
48.288 10.0544
48.337 10.001
48.3858 9.98185
48.4348 9.95688
48.4837 9.91624
48.5327 9.88406
48.5815 9.87931
48.6306 9.79607
48.6795 9.77405
48.7285 9.73351
48.7774 9.67806
48.8265 9.67227
48.8754 9.63024
48.9245 9.58815
48.9734 9.57025
49.0226 9.54282
49.0715 9.49005
49.1206 9.43228
49.1696 9.39219
49.2188 9.36401
49.2679 9.32473
49.3169 9.30243
49.3661 9.22971
49.4151 9.22016
49.4643 9.20608
49.5134 9.1435
49.5626 9.09672
49.6117 9.07762
49.6609 9.05896
49.71 9.01965
49.7592 8.99091
49.8083 8.9796
49.8576 8.93892
49.9067 8.86404
49.956 8.83819
50.0052 8.82532
50.0545 8.79567
50.1036 8.72605
50.153 8.71341
50.2022 8.67395
50.2515 8.59793
50.3007 8.55786
50.3501 8.55335
50.3993 8.51277
50.4487 8.45148
50.498 8.50064
50.5474 8.45112
50.5966 8.38774
50.6461 8.36961
50.6955 8.3355
50.7448 8.32815
50.7943 8.26921
50.8436 8.24965
50.8931 8.20652
50.9424 8.19793
50.9919 8.13524
51.0413 8.12561
51.0908 8.0898
51.1402 8.07025
51.1897 7.98522
51.2391 7.99385
51.2887 7.97233
51.3381 7.91992
51.3877 7.92782
51.4371 7.84264
51.4867 7.7828
51.5362 7.82528
51.5858 7.74947
51.6353 7.6786
51.6849 7.6884
51.7344 7.64698
51.7841 7.63563
51.8336 7.5713
51.8833 7.57717
51.9328 7.54727
51.9826 7.497
52.0323 7.47424
52.0818 7.43092
52.1316 7.40453
52.1812 7.38041
52.231 7.35074
52.2806 7.3169
52.3304 7.28933
52.38 7.26518
52.4298 7.21559
52.4794 7.18662
52.5293 7.16336
52.5789 7.153
52.6288 7.09818
52.6785 7.08534
52.7284 7.08071
52.7781 7.07094
52.828 6.98418
52.8777 6.94556
52.9276 6.94234
52.9774 6.88212
53.0273 6.87721
53.0771 6.8609
53.1271 6.84162
53.1769 6.83859
53.2269 6.74552
53.2767 6.74698
53.3267 6.69915
53.3765 6.72153
53.4266 6.67858
53.4766 6.63509
53.5265 6.58955
53.5765 6.555
53.6264 6.48508
53.6765 6.469
53.7264 6.48541
53.7765 6.4367
53.8265 6.42742
53.8766 6.32893
53.9266 6.34894
53.9767 6.35139
54.0267 6.28656
54.0769 6.2621
54.1269 6.22849
54.1771 6.1999
54.2271 6.17227
54.2773 6.11915
54.3274 6.09719
54.3776 6.08586
54.4277 6.03391
54.478 6.02566
54.528 6.01699
54.5783 5.90624
54.6285 5.88627
54.6788 5.92325
54.7289 5.80199
54.7792 5.80735
54.8296 5.73193
54.8798 5.67021
54.9301 5.58885
54.9803 5.59521
55.0307 5.63061
55.0809 5.53328
55.1314 5.54527
55.1816 5.43805
55.232 5.40996
55.2823 5.33359
55.3328 5.28443
55.383 5.21395
55.4335 5.18665
55.4838 5.11775
55.5344 5.08679
55.5847 5.0509
55.6352 5.07402
55.6856 5.04043
55.7361 4.99282