File: XRD/Ni3Fe_FD0391.xy
TT I
1.27165 7.44551
1.31627 6.40259
1.36089 6.67733
1.40551 6.67305
1.45013 6.52723
1.49476 6.30716
1.53938 6.14383
1.584 5.70123
1.62863 4.97122
1.67325 5.65023
1.71787 5.61376
1.7625 4.60217
1.80712 4.95822
1.85174 4.64608
1.89636 5.21351
1.94099 5.47768
1.98562 4.58231
2.03025 4.70797
2.07487 4.73182
2.11949 5.02317
2.16411 4.70445
2.20874 14.5788
2.25338 23.9227
2.298 5.95268
2.34263 5.29791
2.38725 5.04822
2.43188 5.67349
2.4765 6.46977
2.52115 6.7717
2.56577 6.75089
2.6104 7.54166
2.65503 6.85279
2.69965 7.5535
2.7443 7.59092
2.78893 7.98556
2.83356 8.47922
2.87818 8.79537
2.92281 8.54666
2.96744 10.107
3.01209 10.3542
3.05672 11.2665
3.10135 12.1724
3.14599 12.6598
3.19062 14.3106
3.23527 14.8088
3.2799 16.2325
3.32454 17.0273
3.36917 17.8199
3.4138 19.5845
3.45844 19.8162
3.50309 21.0459
3.54773 21.9416
3.59237 24.132
3.637 96.6127
3.68164 60.9152
3.7263 26.783
3.77094 26.7157
3.81558 26.975
3.86022 28.1853
3.90486 29.4896
3.9495 30.5565
3.99416 31.6963
4.0388 33.4635
4.08344 34.4234
4.12809 35.5941
4.17273 38.126
4.21738 44.1729
4.26204 258.949
4.30669 224.891
4.35133 49.7183
4.39598 45.5675
4.44063 55.1882
4.4853 67.0381
4.52995 52.8332
4.5746 52.6844
4.61925 54.2117
4.6639 56.4975
4.70855 59.2512
4.75322 62.3938
4.79788 65.2055
4.84253 68.318
4.88719 73.5097
4.93184 76.7135
4.97652 82.4891
5.02118 89.5465
5.06583 98.0959
5.11049 111.525
5.15515 190.177
5.19981 451.815
5.24449 3129.03
5.28916 11565.0
5.33382 3549.83
5.37848 224.391
5.42315 138.909
5.46783 119.982
5.5125 110.505
5.55716 105.546
5.60183 101.963
5.6465 100.364
5.69117 97.6277
5.73586 95.1881
5.78053 95.6007
5.8252 94.6038
5.86988 96.0478
5.91455 98.8973
5.95924 108.909
6.00392 244.96
6.0486 1090.89
6.09328 3997.23
6.13795 3489.09
6.18263 301.057
6.22733 100.975
6.27201 86.7017
6.3167 106.846
6.36138 82.7691
6.40606 71.2882
6.45075 69.4119
6.49545 67.2738
6.54014 65.4572
6.58483 64.7577
6.62952 64.4199
6.67421 96.833
6.71892 149.362
6.76361 70.4191
6.8083 60.1104
6.853 59.0338
6.89769 58.2441
6.94239 57.8746
6.98711 57.2811
7.03181 57.1975
7.07651 57.1718
7.12121 56.5292
7.16591 56.5714
7.21063 57.0798
7.25533 72.4135
7.30004 187.552
7.34475 94.4923
7.38945 57.9803
7.43416 56.2501
7.47889 55.6938
7.5236 55.9749
7.56831 56.7503
7.61303 58.8245
7.65774 59.097
7.70247 57.4943
7.74719 57.4482
7.79191 57.9228
7.83663 57.7143
7.88135 59.0849
7.92607 60.487
7.97081 61.1728
8.01553 62.2418
8.06026 64.2189
8.10498 65.5478
8.14971 75.6002
8.19446 73.9431
8.23919 71.0885
8.28392 73.5814
8.32865 75.5764
8.37339 80.2948
8.41812 87.9514
8.46288 119.209
8.50761 181.992
8.55235 433.277
8.59709 1132.34
8.64183 2155.2
8.68658 1162.3
8.73134 199.553
8.77609 104.79
8.82083 96.048
8.86558 92.5109
8.91033 92.5451
8.9551 94.2256
8.99985 87.382
9.04461 85.6377
9.08936 84.747
9.13412 84.0035
9.17888 83.773
9.22365 84.569
9.26841 83.7937
9.31318 84.9976
9.35794 84.9258
9.4027 85.2747
9.44749 86.1783
9.49226 86.813
9.53703 87.601
9.5818 89.5836
9.62657 94.1541
9.67134 101.395
9.71614 96.2907
9.76091 96.2996
9.80569 98.8418
9.85047 102.56
9.89525 128.143
9.94005 142.278
9.98484 192.169
10.0296 380.447
10.0744 800.555
10.1192 1595.79
10.164 1720.9
10.2088 502.106
10.2536 141.564
10.2984 118.424
10.3432 118.742
10.388 108.023
10.4328 124.869
10.4776 170.964
10.5224 278.303
10.5672 475.594
10.612 525.117
10.6568 228.096
10.7017 102.332
10.7465 89.2808
10.7913 85.5914
10.8361 83.529
10.8809 80.9622
10.9257 80.6301
10.9706 81.228
11.0154 77.0076
11.0602 74.6767
11.105 73.8587
11.1499 78.2734
11.1947 85.9668
11.2395 76.4011
11.2844 72.2242
11.3292 68.9369
11.374 67.6179
11.4189 67.3455
11.4637 66.6035
11.5086 66.9745
11.5534 70.1372
11.5983 67.2016
11.6431 65.1052
11.688 64.4861
11.7328 64.5173
11.7777 64.4022
11.8225 64.158
11.8674 64.1224
11.9122 64.7649
11.9571 64.0376
12.002 65.2674
12.0468 70.2443
12.0917 83.1387
12.1366 105.583
12.1814 148.806
12.2263 198.5
12.2712 179.142
12.3161 107.43
12.3609 73.4938
12.4058 66.3833
12.4507 66.2373
12.4956 66.0382
12.5405 66.184
12.5853 67.2434
12.6302 75.6368
12.6751 81.2335
12.72 71.9424
12.7649 69.5521
12.8098 70.0534
12.8547 71.7137
12.8996 72.6923
12.9445 73.9669
12.9894 75.7143
13.0343 77.5348
13.0792 81.0458
13.1242 91.384
13.1691 118.372
13.214 155.757
13.2589 234.203
13.3038 347.58
13.3487 427.087
13.3937 296.813
13.4386 138.762
13.4835 111.138
13.5285 127.8
13.5734 162.876
13.6183 237.434
13.6633 328.929
13.7082 348.936
13.7531 211.187
13.7981 106.323
13.843 84.6134
13.888 81.9839
13.9329 79.1333
13.9779 77.7181
14.0228 76.0125
14.0678 75.0508
14.1127 74.5743
14.1577 74.5523
14.2027 73.4477
14.2476 72.2548
14.2926 72.2271
14.3376 73.512
14.3825 72.3201
14.4275 70.6102
14.4725 70.5332
14.5175 70.3539
14.5624 70.7463
14.6074 72.9128
14.6524 73.6914
14.6974 72.2962
14.7424 74.1259
14.7874 82.2424
14.8324 92.9772
14.8774 113.48
14.9224 149.969
14.9674 197.206
15.0124 219.28
15.0574 163.516
15.1024 99.8123
15.1474 75.1617
15.1924 72.4634
15.2374 73.226
15.2824 72.4679
15.3274 70.0362
15.3725 68.6253
15.4175 67.9033
15.4625 67.8812
15.5076 68.1484
15.5526 67.9854
15.5976 67.5955
15.6426 68.5571
15.6877 74.8536
15.7327 83.4827
15.7778 97.4877
15.8228 124.402
15.8679 163.135
15.9129 192.495
15.958 169.32
16.003 106.69
16.0481 71.8418
16.0931 66.5859
16.1382 64.7888
16.1833 62.238
16.2283 60.6064
16.2734 60.0127
16.3185 60.3271
16.3636 61.0744
16.4086 59.2517
16.4537 57.7625
16.4988 57.0627
16.5439 56.8683
16.589 56.5195
16.6341 56.4285
16.6792 55.898
16.7243 56.4105
16.7694 56.5798
16.8145 56.1263
16.8596 56.7824
16.9047 58.5156
16.9498 58.5707
16.9949 57.067
17.04 57.4553
17.0851 58.6996
17.1302 60.5224
17.1754 63.421
17.2205 67.8311
17.2656 74.244
17.3108 82.3056
17.3559 84.0943
17.401 74.8086
17.4462 64.589
17.4913 60.8282
17.5365 60.6884
17.5815 60.7817
17.6268 61.1809
17.6718 62.045
17.7171 62.4863
17.7622 62.8382
17.8074 63.4247
17.8525 66.1594
17.8977 70.651
17.9428 76.5596
17.9881 84.4707
18.0331 99.3145
18.0784 117.946
18.1237 137.302
18.1688 137.194
18.214 112.238
18.2591 90.7507
18.3044 90.7282
18.3495 98.9025
18.3948 106.157
18.4399 100.472
18.4852 81.9822
18.5303 68.652
18.5756 63.9944
18.6207 63.0292
18.666 62.0475
18.7112 61.2779
18.7565 60.4874
18.8016 60.2065
18.8469 59.3667
18.892 59.3509
18.9374 58.7761
18.9825 58.4749
19.0278 58.5249
19.073 58.5317
19.1183 59.1511
19.1635 59.9133
19.2088 61.2273
19.254 63.3992
19.2993 67.2941
19.3447 72.257
19.3898 77.0172
19.4352 74.6227
19.4804 66.166
19.5257 59.1487
19.5709 55.7287
19.6163 55.2988
19.6615 55.2151
19.7068 54.7366
19.752 54.7045
19.7974 55.1125
19.8426 55.9574
19.888 56.8167
19.9332 57.9864
19.9786 59.8402
20.0238 63.0454
20.0692 67.3414
20.1144 70.5253
20.1598 70.4974
20.205 66.2742
20.2504 63.5621
20.2957 64.4249
20.3411 66.0513
20.3863 65.8083
20.4318 60.8425
20.477 55.7892
20.5224 53.1843
20.5677 52.2485
20.6131 51.7414
20.6586 50.8023
20.7038 50.8685
20.7493 50.5041
20.7945 50.2261
20.84 50.2399
20.8853 49.9284
20.9307 49.7439
20.976 50.061
21.0215 49.9038
21.0668 50.2531
21.1122 50.6082
21.1575 51.2904
21.203 51.7505
21.2483 52.3673
21.2938 52.847
21.3391 51.6502
21.3846 50.3899
21.4299 49.8141
21.4754 49.7697
21.5207 49.6915
21.5662 49.9852
21.6116 50.6219
21.6571 51.3787
21.7024 52.4299
21.7479 53.9854
21.7933 56.4659
21.8388 59.5511
21.8843 63.0431
21.9297 65.5488
21.9752 65.513
22.0206 62.0383
22.0661 58.238
22.1115 57.139
22.157 56.9592
22.2024 56.0656
22.248 53.3136
22.2933 51.4803
22.3389 50.5235
22.3843 50.3065
22.4299 50.1363
22.4753 50.1669
22.5208 49.9522
22.5662 49.7483
22.6118 49.9229
22.6572 50.166
22.7028 50.4949
22.7483 51.0445
22.7939 51.6104
22.8393 53.0654
22.8849 54.959
22.9303 56.7385
22.9759 58.4589
23.0214 58.8361
23.067 56.6976
23.1126 52.8511
23.1581 50.7663
23.2037 50.1194
23.2492 50.066
23.2948 50.193
23.3403 50.4214
23.3859 51.1181
23.4314 52.1849
23.477 53.5317
23.5225 55.3129
23.5682 57.3643
23.6137 58.7552
23.6593 57.5547
23.7048 53.7528
23.7505 50.1227
23.796 48.1143
23.8417 47.3443
23.8872 46.7415
23.9329 46.4116
23.9784 46.0496
24.0241 45.7972
24.0697 45.6112
24.1154 45.2046
24.1609 45.0833
24.2066 45.0428
24.2522 44.9397
24.2979 44.5778
24.3434 44.5495
24.3892 44.1838
24.4349 44.2479
24.4805 44.1207
24.5262 44.0458
24.5718 44.0477
24.6175 43.9161
24.6631 43.966
24.7089 43.6421
24.7545 43.6668
24.8002 43.4418
24.8458 43.3306
24.8916 43.0422
24.9372 43.1836
24.983 43.6402
25.0286 43.8932
25.0744 44.2648
25.12 44.8543
25.1658 45.201
25.2114 45.7932
25.2572 45.8329
25.3029 45.7684
25.3487 45.9827
25.3943 45.6668
25.4402 44.8636
25.4858 43.8896
25.5316 42.84
25.5773 41.9934
25.6231 41.9654
25.669 41.5351
25.7147 41.6633
25.7605 41.5416
25.8062 41.6305
25.8521 41.8112
25.8977 41.6559
25.9436 41.8047
25.9893 41.945
26.0352 42.3767
26.0809 42.529
26.1268 42.7086
26.1725 42.4657
26.2184 42.0666
26.2641 41.4843
26.31 41.1505
26.3557 41.2341
26.4017 41.1168
26.4474 41.4138
26.4933 41.7471
26.5391 42.0492
26.585 42.6464
26.6308 42.868
26.6767 43.0393
26.7225 43.2663
26.7684 42.7098
26.8142 41.945
26.8601 41.5516
26.9059 41.1094
26.9519 40.6262
26.9979 40.2689
27.0437 40.0874
27.0896 39.7718
27.1354 39.6999
27.1814 39.623
27.2272 39.4867
27.2732 39.5414
27.3191 39.4357
27.3651 39.4978
27.4109 39.3656
27.4569 39.4021
27.5027 39.3484
27.5488 39.5518
27.5946 39.3696
27.6407 39.2097
27.6865 39.0571
27.7326 38.8803
27.7784 38.8748
27.8245 38.7788
27.8703 38.914
27.9164 39.2782
27.9623 39.2798
28.0084 39.5342
28.0543 39.8904
28.1003 39.8863
28.1462 39.7121
28.1923 39.4348
28.2384 39.053
28.2843 38.5505
28.3304 38.2521
28.3764 37.7843
28.4225 37.4395
28.4684 37.1909
28.5145 36.9335
28.5605 36.8274
28.6066 36.6695
28.6526 36.489
28.6987 36.4985
28.7447 36.4847
28.7908 36.3928
28.8368 36.2696
28.8829 36.3689
28.9289 36.1359
28.9751 36.1204
29.0211 35.8579
29.0673 35.4765
29.1133 35.4946
29.1595 35.3366
29.2055 35.1866
29.2517 35.1954
29.2977 35.0742
29.3439 35.0552
29.3899 35.0792
29.4361 34.9157
29.4824 34.9117
29.5284 34.697
29.5746 34.3282
29.6207 34.0351
29.6669 33.9553
29.713 33.8886
29.7593 33.7818
29.8053 33.762
29.8516 33.7504
29.8977 33.6869
29.9439 33.5123
29.99 33.3591
30.0363 33.3422
30.0824 33.4081
30.1287 33.2515
30.1748 33.2403
30.2211 33.2324
30.2673 33.0553
30.3136 33.2047
30.3597 33.1431
30.406 33.0499
30.4522 32.9196
30.4985 32.8833
30.5447 33.0313
30.591 32.8611
30.6372 32.9341
30.6835 32.9732
30.7297 33.0512
30.7761 33.0305
30.8224 32.7684
30.8686 32.7757
30.915 32.4204
30.9612 32.3699
31.0076 32.1132
31.0538 31.9165
31.1002 31.9436
31.1464 31.7107
31.1928 31.7094
31.2391 31.7624
31.2855 31.7132
31.3317 31.6431
31.3781 31.6956
31.4244 31.6775
31.4708 31.5496
31.5171 31.578
31.5636 31.4877
31.6098 31.3329
31.6563 31.1712
31.7026 31.0416
31.7491 30.9157
31.7953 30.8815
31.8418 30.8405
31.8881 30.9368
31.9346 30.7901
31.9809 30.8557
32.0275 30.6035
32.074 30.6609
32.1203 30.3418
32.1668 30.3252
32.2132 30.227
32.2597 29.9717
32.306 29.8982
32.3526 29.7074
32.399 29.6391
32.4455 29.5336
32.4919 29.4213
32.5385 29.4661
32.5848 29.1649
32.6314 29.2708
32.6778 29.0368
32.7244 28.9777
32.7708 28.8488
32.8174 28.877
32.8638 28.7851
32.9104 28.7896
32.9569 28.6538
33.0035 28.5999
33.0499 28.6098
33.0966 28.5642
33.143 28.4394
33.1897 28.4161
33.2361 28.359
33.2828 28.2312
33.3293 28.0935
33.3759 28.0642
33.4226 27.87
33.4691 27.8097
33.5158 27.8449
33.5623 27.6283
33.609 27.4205
33.6555 27.2968
33.7022 27.2412
33.7487 27.0914
33.7954 27.0617
33.842 27.0596
33.8887 26.9511
33.9353 26.953
33.982 26.8373
34.0286 26.6929
34.0753 26.6813
34.1219 26.5146
34.1687 26.5089
34.2152 26.4808
34.262 26.2809
34.3086 26.2066
34.3554 26.2
34.402 26.0135
34.4488 25.9495
34.4954 25.8745
34.5422 25.8125
34.5889 25.6984
34.6357 25.6354
34.6825 25.5813
34.7292 25.5352
34.776 25.3741
34.8227 25.292
34.8695 25.2226
34.9162 25.2375
34.9631 25.117
35.0098 25.1555
35.0566 24.8839
35.1033 24.928
35.1502 24.8507
35.1969 24.8394
35.2438 24.8125
35.2906 24.6724
35.3375 24.6263
35.3842 24.5701
35.4311 24.5693
35.4779 24.5398
35.5248 24.4834
35.5716 24.3299
35.6185 24.282
35.6653 24.1438
35.7123 24.0867
35.759 24.083
35.806 23.8954
35.8528 23.8452
35.8998 23.773
35.9468 23.6952
35.9936 23.7119
36.0406 23.5628
36.0874 23.5444
36.1345 23.5178
36.1813 23.3773
36.2283 23.2651
36.2752 23.1809
36.3222 23.2159
36.3691 23.0469
36.4161 23.0051
36.463 22.9598
36.5101 23.0031
36.557 22.9218
36.6041 22.7668
36.651 22.7526
36.6981 22.6845
36.745 22.546
36.7921 22.4566
36.839 22.3739
36.8861 22.3168
36.9331 22.3149
36.9802 22.2194
37.0272 22.1294
37.0743 22.0496
37.1213 21.9862
37.1684 21.9059
37.2154 21.909
37.2626 21.818
37.3098 21.7262
37.3568 21.6467
37.404 21.5722
37.451 21.4914
37.4982 21.4439
37.5452 21.4212
37.5924 21.3323
37.6395 21.3516
37.6867 21.2696
37.7337 21.1547
37.781 21.017
37.8281 20.9806
37.8753 20.908
37.9224 20.7931
37.9697 20.8092
38.0168 20.7057
38.064 20.6463
38.1111 20.6185
38.1584 20.5066
38.2056 20.4903
38.2529 20.3808
38.3 20.4038
38.3473 20.2762
38.3945 20.1928
38.4418 20.197
38.489 20.1046
38.5363 19.9562
38.5837 19.8326
38.6309 19.9953
38.6782 19.8077
38.7254 19.7747
38.7728 19.6827
38.82 19.5964
38.8674 19.5792
38.9146 19.5019
38.9621 19.4369
39.0093 19.3641
39.0567 19.3351
39.104 19.2591
39.1514 19.112
39.1987 19.1021
39.2461 19.0669
39.2934 18.9952
39.3409 18.9547
39.3882 18.8523
39.4356 18.867
39.483 18.7981
39.5304 18.6676
39.5778 18.697
39.6253 18.6218
39.6726 18.509
39.7201 18.4428
39.7675 18.4337
39.815 18.3918
39.8624 18.2626
39.9099 18.1955
39.9575 18.1862
40.0049 18.1097
40.0525 18.097
40.0999 18.0587
40.1474 17.9626
40.1949 17.8618
40.2425 17.8103
40.2899 17.7825
40.3375 17.7633
40.385 17.6864
40.4326 17.5879
40.48 17.5308
40.5277 17.6174
40.5752 17.4423
40.6228 17.3378
40.6703 17.3973
40.718 17.2971
40.7655 17.258
40.8132 17.1987
40.8607 17.1434
40.9084 17.127
40.9559 16.9925
41.0036 17.0124
41.0512 16.9547
41.0989 16.9095
41.1465 16.8126
41.1942 16.7811
41.242 16.6614
41.2896 16.6204
41.3373 16.5692
41.3849 16.5523
41.4327 16.4046
41.4803 16.4033
41.5281 16.3536
41.5758 16.2486
41.6236 16.2232
41.6712 16.1463
41.7191 16.1674
41.7667 16.0378
41.8146 16.0361
41.8622 16.0046
41.9101 15.8729
41.9578 15.7891
42.0057 15.8517
42.0534 15.7551
42.1013 15.7517
42.149 15.6315
42.1969 15.6503
42.2446 15.5456
42.2925 15.4704
42.3403 15.4325
42.3882 15.3822
42.436 15.3544
42.4839 15.2507
42.5319 15.2379
42.5797 15.192
42.6277 15.0962
42.6755 15.0577
42.7235 14.9638
42.7713 14.9944
42.8193 14.9276
42.8671 14.8609
42.9152 14.8799
42.963 14.7483
43.0111 14.7088
43.0589 14.6629
43.107 14.6232
43.1549 14.5697
43.2029 14.4959
43.2508 14.49
43.2989 14.4491
43.3468 14.3963
43.3949 14.3281
43.4429 14.2812
43.491 14.1968
43.5389 14.2032
43.5871 14.1335
43.635 14.0877
43.6832 14.0062
43.7312 13.9268
43.7793 13.9295
43.8273 13.8743
43.8755 13.8291
43.9237 13.7847
43.9717 13.7766
44.0199 13.658
44.068 13.6506
44.1162 13.5856
44.1642 13.5783
44.2125 13.5322
44.2606 13.5025
44.3088 13.4103
44.3569 13.4187
44.4052 13.349
44.4533 13.2574
44.5016 13.2224
44.5497 13.2
44.598 13.1391
44.6461 13.0936
44.6945 13.0258
44.7426 13.0153
44.791 12.9502
44.8391 12.8944
44.8875 12.8457
44.9357 12.7851
44.984 12.7621
45.0322 12.7147
45.0806 12.6312
45.1288 12.6173
45.1773 12.5916
45.2257 12.5711
45.2739 12.5331
45.3224 12.5214
45.3706 12.4031
45.4191 12.3642
45.4673 12.3313
45.5158 12.2988
45.5641 12.2827
45.6126 12.2043
45.6609 12.1275
45.7094 12.0996
45.7577 12.0413
45.8063 11.9671
45.8546 11.9857
45.9031 11.9338
45.9515 11.9046
46.0001 11.8425
46.0484 11.8108
46.097 11.7688
46.1454 11.7007
46.194 11.6871
46.2424 11.6567
46.291 11.6469
46.3395 11.5667
46.3881 11.5019
46.4365 11.4581
46.4852 11.4331
46.5337 11.4009
46.5823 11.3554
46.631 11.3249
46.6795 11.2814
46.7282 11.1919
46.7767 11.1712
46.8254 11.1282
46.8739 11.1044
46.9226 11.0473
46.9712 11.0422
47.0199 10.9881
47.0685 10.9346
47.1173 10.9057
47.1658 10.8344
47.2146 10.7802
47.2632 10.7616
47.312 10.7357
47.3606 10.6981
47.4095 10.6492
47.4581 10.616
47.5069 10.5722
47.5556 10.5315
47.6044 10.4606
47.6531 10.4618
47.702 10.3918
47.7507 10.3696
47.7996 10.3568
47.8483 10.2837
47.8972 10.2555
47.9461 10.2122
47.9948 10.1926
48.0438 10.1624
48.0925 10.1084
48.1415 10.1372
48.1902 10.0457
48.2392 9.98537
48.288 9.99635
48.337 9.97224
48.3858 9.93882
48.4348 9.84765
48.4837 9.8624
48.5327 9.81457
48.5815 9.76637
48.6306 9.78628
48.6795 9.65733
48.7285 9.63483
48.7774 9.60364
48.8265 9.60621
48.8754 9.53684
48.9245 9.48828
48.9734 9.50615
49.0226 9.43608
49.0715 9.38289
49.1206 9.37811
49.1696 9.32546
49.2188 9.31593
49.2679 9.25317
49.3169 9.25077
49.3661 9.16161
49.4151 9.17948
49.4643 9.16981
49.5134 9.07885
49.5626 9.01974
49.6117 9.02122
49.6609 8.96516
49.71 8.94425
49.7592 8.9141
49.8083 8.8523
49.8576 8.85995
49.9067 8.81769
49.956 8.79004
50.0052 8.7293
50.0545 8.71444
50.1036 8.61746
50.153 8.64755
50.2022 8.63296
50.2515 8.55641
50.3007 8.54462
50.3501 8.52016
50.3993 8.46884
50.4487 8.45033
50.498 8.4022
50.5474 8.36798
50.5966 8.36068
50.6461 8.30444
50.6955 8.30848
50.7448 8.26354
50.7943 8.21702
50.8436 8.20274
50.8931 8.13892
50.9424 8.13536
50.9919 8.1115
51.0413 8.07338
51.0908 8.01806
51.1402 8.00585
51.1897 7.9959
51.2391 7.94268
51.2887 7.86676
51.3381 7.87463
51.3877 7.87812
51.4371 7.80362
51.4867 7.74893
51.5362 7.75705
51.5858 7.68292
51.6353 7.66571
51.6849 7.60763
51.7344 7.6178
51.7841 7.56066
51.8336 7.53814
51.8833 7.5178
51.9328 7.46914
51.9826 7.46076
52.0323 7.45963
52.0818 7.40055
52.1316 7.32668
52.1812 7.34614
52.231 7.30219
52.2806 7.22668
52.3304 7.23458
52.38 7.21626
52.4298 7.15513
52.4794 7.17611
52.5293 7.12021
52.5789 7.07595
52.6288 7.05799
52.6785 6.99463
52.7284 6.98926
52.7781 7.00707
52.828 6.94029
52.8777 6.92977
52.9276 6.86804
52.9774 6.8634
53.0273 6.83021
53.0771 6.82311
53.1271 6.76849
53.1769 6.73545
53.2269 6.73444
53.2767 6.69307
53.3267 6.70205
53.3765 6.61745
53.4266 6.64335
53.4766 6.54993
53.5265 6.53597
53.5765 6.53598
53.6264 6.49952
53.6765 6.49191
53.7264 6.4547
53.7765 6.41351
53.8265 6.39957
53.8766 6.37404
53.9266 6.3392
53.9767 6.3057
54.0267 6.2445
54.0769 6.24982
54.1269 6.2296
54.1771 6.19248
54.2271 6.20899
54.2773 6.10752
54.3274 6.0885
54.3776 6.06167
54.4277 5.99196
54.478 5.98126
54.528 5.95219
54.5783 5.90803
54.6285 5.85141
54.6788 5.80439
54.7289 5.78225
54.7792 5.74193
54.8296 5.70053
54.8798 5.63503
54.9301 5.58655
54.9803 5.59525
55.0307 5.6265
55.0809 5.55118
55.1314 5.52336
55.1816 5.43325
55.232 5.41225
55.2823 5.3203
55.3328 5.27442
55.383 5.21421
55.4335 5.13684
55.4838 5.10034
55.5344 5.07692
55.5847 5.0416
55.6352 5.00539
55.6856 5.00719
55.7361 4.93541