File: XRD/Ni3Fe_FD0037.xy
TT I
1.27165 32.2431
1.31627 31.7397
1.36089 30.4097
1.40551 29.3389
1.45013 27.7692
1.49476 27.3763
1.53938 25.2461
1.584 24.223
1.62863 23.9374
1.67325 22.9397
1.71787 22.9873
1.7625 22.1974
1.80712 21.9836
1.85174 21.6887
1.89636 21.861
1.94099 22.0036
1.98562 21.553
2.03025 21.3931
2.07487 21.8074
2.11949 22.1852
2.16411 22.4199
2.20874 23.0818
2.25338 22.6301
2.298 24.1151
2.34263 23.1177
2.38725 22.3358
2.43188 22.5007
2.4765 23.1928
2.52115 22.7699
2.56577 24.2201
2.6104 24.873
2.65503 25.2856
2.69965 27.3319
2.7443 28.4483
2.78893 30.6966
2.83356 32.4833
2.87818 36.7528
2.92281 41.452
2.96744 47.0527
3.01209 55.6403
3.05672 64.0295
3.10135 73.7954
3.14599 79.2864
3.19062 78.0284
3.23527 70.8414
3.2799 60.0589
3.32454 49.9907
3.36917 42.4707
3.4138 37.7324
3.45844 34.167
3.50309 32.4238
3.54773 31.4605
3.59237 32.1326
3.637 33.9124
3.68164 34.3232
3.7263 32.4486
3.77094 30.7292
3.81558 29.5352
3.86022 28.7374
3.90486 29.2279
3.9495 29.5947
3.99416 30.0459
4.0388 31.4555
4.08344 33.4049
4.12809 35.6319
4.17273 39.9814
4.21738 47.5628
4.26204 57.12
4.30669 61.8022
4.35133 56.6756
4.39598 49.1673
4.44063 45.7439
4.4853 44.878
4.52995 43.3794
4.5746 42.3265
4.61925 41.9698
4.6639 41.7375
4.70855 43.5892
4.75322 45.7569
4.79788 48.5446
4.84253 51.5247
4.88719 56.104
4.93184 62.7792
4.97652 72.2491
5.02118 88.2592
5.06583 111.073
5.11049 136.37
5.15515 185.972
5.19981 296.67
5.24449 651.052
5.28916 1386.62
5.33382 3654.03
5.37848 3532.38
5.42315 984.331
5.46783 336.202
5.5125 205.367
5.55716 154.329
5.60183 125.927
5.6465 113.331
5.69117 107.407
5.73586 101.381
5.78053 97.6398
5.8252 98.3473
5.86988 103.743
5.91455 114.981
5.95924 135.835
6.00392 185.837
6.0486 304.453
6.09328 517.572
6.13795 930.757
6.18263 1252.86
6.22733 628.719
6.27201 263.853
6.3167 147.619
6.36138 100.42
6.40606 78.0819
6.45075 67.1808
6.49545 59.558
6.54014 54.0532
6.58483 51.5451
6.62952 50.6616
6.67421 50.2256
6.71892 50.7117
6.76361 50.0752
6.8083 46.9375
6.853 43.9418
6.89769 42.3859
6.94239 40.8826
6.98711 40.1401
7.03181 39.6577
7.07651 39.8751
7.12121 40.2704
7.16591 40.784
7.21063 42.9394
7.25533 47.4291
7.30004 55.0079
7.34475 57.4397
7.38945 50.4074
7.43416 44.4873
7.47889 43.6732
7.5236 52.1189
7.56831 122.988
7.61303 170.323
7.65774 68.8063
7.70247 43.1525
7.74719 39.3388
7.79191 37.665
7.83663 37.0512
7.88135 37.1321
7.92607 37.4059
7.97081 37.8302
8.01553 38.4128
8.06026 39.0821
8.10498 39.7467
8.14971 41.3825
8.19446 42.9191
8.23919 44.1692
8.28392 46.1386
8.32865 47.9733
8.37339 51.9976
8.41812 56.6041
8.46288 65.4809
8.50761 80.6007
8.55235 114.551
8.59709 177.831
8.64183 242.49
8.68658 470.532
8.73134 790.004
8.77609 511.639
8.82083 215.309
8.86558 118.061
8.91033 89.1878
8.9551 75.961
8.99985 69.5212
9.04461 64.9238
9.08936 62.3353
9.13412 61.2338
9.17888 63.3609
9.22365 74.895
9.26841 173.587
9.31318 307.824
9.35794 141.322
9.4027 69.6299
9.44749 58.796
9.49226 55.5433
9.53703 54.0853
9.5818 53.6327
9.62657 53.9993
9.67134 54.8004
9.71614 56.298
9.76091 56.9102
9.80569 58.8169
9.85047 61.5019
9.89525 65.5914
9.94005 72.3739
9.98484 83.6713
10.0296 109.736
10.0744 157.322
10.1192 198.28
10.164 289.413
10.2088 601.28
10.2536 774.726
10.2984 410.023
10.3432 188.844
10.388 113.471
10.4328 89.0901
10.4776 83.3089
10.5224 89.8878
10.5672 95.4635
10.612 111.933
10.6568 187.678
10.7017 284.075
10.7465 235.105
10.7913 121.215
10.8361 67.7296
10.8809 54.3278
10.9257 49.0942
10.9706 47.2675
11.0154 45.2978
11.0602 44.1039
11.105 43.2159
11.1499 42.3024
11.1947 42.0879
11.2395 41.7382
11.2844 41.4887
11.3292 40.376
11.374 39.2569
11.4189 38.7739
11.4637 38.1121
11.5086 37.9398
11.5534 37.9949
11.5983 37.9699
11.6431 37.8691
11.688 37.2998
11.7328 37.4094
11.7777 37.3299
11.8225 37.801
11.8674 38.5779
11.9122 40.8231
11.9571 51.7634
12.002 94.2537
12.0468 98.6818
12.0917 57.2706
12.1366 47.2103
12.1814 48.6247
12.2263 51.3511
12.2712 59.4061
12.3161 78.1261
12.3609 93.9099
12.4058 77.8162
12.4507 56.2985
12.4956 47.2064
12.5405 42.8784
12.5853 41.2054
12.6302 40.2657
12.6751 40.4613
12.72 40.605
12.7649 40.2273
12.8098 39.3988
12.8547 39.38
12.8996 39.7643
12.9445 40.1975
12.9894 41.1581
13.0343 42.0328
13.0792 44.4221
13.1242 50.6695
13.1691 63.2985
13.214 65.5839
13.2589 67.7588
13.3038 71.7453
13.3487 80.4907
13.3937 110.07
13.4386 174.771
13.4835 211.892
13.5285 153.498
13.5734 103.328
13.6183 86.3405
13.6633 80.3867
13.7082 86.3154
13.7531 116.358
13.7981 180.913
13.843 189.042
13.888 117.956
13.9329 72.6603
13.9779 57.1243
14.0228 50.4762
14.0678 47.5263
14.1127 47.0719
14.1577 52.7827
14.2027 82.4763
14.2476 97.7487
14.2926 64.3255
14.3376 46.285
14.3825 42.42
14.4275 40.8853
14.4725 39.9431
14.5175 39.5243
14.5624 39.5012
14.6074 39.4149
14.6524 39.5555
14.6974 39.8118
14.7424 40.0797
14.7874 40.6004
14.8324 42.6063
14.8774 45.939
14.9224 49.8107
14.9674 51.6009
15.0124 55.2913
15.0574 67.3913
15.1024 94.3647
15.1474 120.589
15.1924 105.455
15.2374 72.9554
15.2824 54.3853
15.3274 46.3618
15.3725 43.1343
15.4175 41.4236
15.4625 40.0969
15.5076 39.6415
15.5526 39.6133
15.5976 39.3048
15.6426 39.3763
15.6877 39.561
15.7327 40.9695
15.7778 43.6929
15.8228 46.8509
15.8679 48.7928
15.9129 50.5494
15.958 58.2459
16.003 76.0962
16.0481 106.644
16.0931 116.343
16.1382 96.6576
16.1833 71.3178
16.2283 50.2424
16.2734 42.137
16.3185 38.6717
16.3636 36.8597
16.4086 35.7233
16.4537 35.0513
16.4988 34.332
16.5439 33.6248
16.589 33.2386
16.6341 32.9545
16.6792 32.5621
16.7243 32.6957
16.7694 32.4368
16.8145 32.4851
16.8596 32.6415
16.9047 33.2007
16.9498 34.6174
16.9949 39.3649
17.04 42.2829
17.0851 37.8465
17.1302 34.5451
17.1754 34.0229
17.2205 34.6199
17.2656 35.0446
17.3108 35.3188
17.3559 36.0208
17.401 38.4029
17.4462 43.1986
17.4913 49.1869
17.5365 48.9345
17.5815 42.5674
17.6268 38.19
17.6718 36.3544
17.7171 35.7313
17.7622 36.2676
17.8074 38.9396
17.8525 43.1246
17.8977 43.3158
17.9428 40.4669
17.9881 40.7567
18.0331 42.7412
18.0784 43.1722
18.1237 44.1427
18.1688 47.6796
18.214 56.2576
18.2591 73.5203
18.3044 92.3151
18.3495 87.5854
18.3948 66.9325
18.4399 55.651
18.4852 54.8497
18.5303 62.5615
18.5756 69.5167
18.6207 65.6316
18.666 55.0728
18.7112 46.4094
18.7565 40.0718
18.8016 37.7656
18.8469 36.5015
18.892 35.7877
18.9374 35.0812
18.9825 34.8854
19.0278 34.5793
19.073 34.3668
19.1183 34.1704
19.1635 34.1617
19.2088 34.5419
19.254 35.3083
19.2993 36.1932
19.3447 37.6906
19.3898 43.5126
19.4352 49.2832
19.4804 47.8149
19.5257 45.0977
19.5709 46.701
19.6163 45.753
19.6615 40.9382
19.7068 36.6655
19.752 34.6276
19.7974 33.3684
19.8426 32.976
19.888 32.5113
19.9332 32.5959
19.9786 33.1276
20.0238 33.0132
20.0692 33.0845
20.1144 33.3111
20.1598 34.3241
20.205 36.0762
20.2504 39.7633
20.2957 43.9677
20.3411 44.4456
20.3863 41.2331
20.4318 38.4464
20.477 38.8142
20.5224 41.6419
20.5677 42.5449
20.6131 39.263
20.6586 34.9475
20.7038 32.8871
20.7493 31.579
20.7945 31.6788
20.84 33.4011
20.8853 34.852
20.9307 33.9899
20.976 31.297
21.0215 29.9942
21.0668 29.6447
21.1122 29.6261
21.1575 29.5213
21.203 29.4714
21.2483 29.3219
21.2938 29.458
21.3391 29.6044
21.3846 30.0783
21.4299 31.2561
21.4754 32.3424
21.5207 32.3255
21.5662 31.57
21.6116 30.9226
21.6571 29.9902
21.7024 30.0359
21.7479 30.4705
21.7933 30.8109
21.8388 31.2743
21.8843 31.4473
21.9297 31.7242
21.9752 32.8886
22.0206 34.8658
22.0661 37.8196
22.1115 42.1604
22.157 44.5249
22.2024 43.7299
22.248 41.2805
22.2933 39.6405
22.3389 38.3869
22.3843 37.3635
22.4299 35.1182
22.4753 33.0913
22.5208 31.5621
22.5662 30.9822
22.6118 30.5962
22.6572 30.2379
22.7028 30.2228
22.7483 30.2172
22.7939 30.4784
22.8393 31.31
22.8849 32.3637
22.9303 32.6742
22.9759 31.938
23.0214 31.5046
23.067 32.1636
23.1126 33.4743
23.1581 36.1831
23.2037 39.3323
23.2492 39.4623
23.2948 36.4192
23.3403 33.5447
23.3859 32.3167
23.4314 32.0171
23.477 32.9585
23.5225 34.2019
23.5682 34.4865
23.6137 33.1276
23.6593 32.3991
23.7048 33.0934
23.7505 35.1938
23.796 38.268
23.8417 40.8169
23.8872 39.2525
23.9329 35.1586
23.9784 32.0531
24.0241 30.3988
24.0697 29.6147
24.1154 29.3119
24.1609 29.0538
24.2066 28.6889
24.2522 28.2967
24.2979 27.8189
24.3434 27.4027
24.3892 27.2744
24.4349 27.2871
24.4805 26.8303
24.5262 26.9511
24.5718 26.8359
24.6175 26.7564
24.6631 27.0203
24.7089 27.4973
24.7545 28.2618
24.8002 28.2752
24.8458 27.7134
24.8916 26.9262
24.9372 26.7803
24.983 26.5431
25.0286 26.5863
25.0744 26.4909
25.12 26.526
25.1658 26.6261
25.2114 26.8071
25.2572 26.9917
25.3029 27.6736
25.3487 28.3043
25.3943 28.982
25.4402 29.2113
25.4858 29.349
25.5316 29.2844
25.5773 29.9187
25.6231 30.5686
25.669 29.7269
25.7147 28.3257
25.7605 27.1084
25.8062 26.4154
25.8521 26.5429
25.8977 26.7783
25.9436 26.9607
25.9893 26.4836
26.0352 26.1636
26.0809 25.7262
26.1268 25.8221
26.1725 25.7948
26.2184 25.9963
26.2641 26.2248
26.31 26.8935
26.3557 27.6839
26.4017 27.6684
26.4474 27.3632
26.4933 26.6881
26.5391 26.2708
26.585 26.0283
26.6308 25.87
26.6767 25.9597
26.7225 26.026
26.7684 26.3249
26.8142 26.7957
26.8601 27.6543
26.9059 28.6005
26.9519 29.0245
26.9979 29.0089
27.0437 28.5846
27.0896 28.3789
27.1354 27.6057
27.1814 26.6529
27.2272 25.9408
27.2732 25.3783
27.3191 25.1404
27.3651 24.9171
27.4109 24.8028
27.4569 24.6444
27.5027 24.7243
27.5488 24.7941
27.5946 24.8657
27.6407 24.8865
27.6865 24.8146
27.7326 24.886
27.7784 25.271
27.8245 25.375
27.8703 25.289
27.9164 25.1452
27.9623 24.8294
28.0084 24.6982
28.0543 25.0382
28.1003 25.4083
28.1462 25.7571
28.1923 25.8008
28.2384 25.5399
28.2843 26.0865
28.3304 26.6809
28.3764 26.9031
28.4225 26.6073
28.4684 26.019
28.5145 25.6926
28.5605 25.4517
28.6066 25.0876
28.6526 24.656
28.6987 24.239
28.7447 23.7113
28.7908 23.3513
28.8368 23.1927
28.8829 22.9974
28.9289 22.8743
28.9751 22.8138
29.0211 22.651
29.0673 22.7085
29.1133 22.8752
29.1595 23.0355
29.2055 23.1265
29.2517 23.0117
29.2977 22.6877
29.3439 22.4034
29.3899 22.1933
29.4361 22.0786
29.4824 22.0219
29.5284 22.1312
29.5746 21.986
29.6207 22.1185
29.6669 22.252
29.713 22.3698
29.7593 22.2839
29.8053 22.0389
29.8516 21.701
29.8977 21.5442
29.9439 21.3404
29.99 21.3101
30.0363 21.2493
30.0824 21.2548
30.1287 21.2583
30.1748 21.5095
30.2211 21.47
30.2673 21.1891
30.3136 21.2332
30.3597 21.0866
30.406 21.0958
30.4522 21.0974
30.4985 21.1804
30.5447 21.379
30.591 21.2386
30.6372 21.1289
30.6835 20.9779
30.7297 20.9563
30.7761 20.925
30.8224 21.0298
30.8686 21.0309
30.915 21.2575
30.9612 21.4927
31.0076 21.7628
31.0538 21.9201
31.1002 21.8187
31.1464 21.7081
31.1928 21.5328
31.2391 21.3448
31.2855 20.9483
31.3317 20.6686
31.3781 20.7077
31.4244 20.4838
31.4708 20.4807
31.5171 20.363
31.5636 20.4577
31.6098 20.4438
31.6563 20.5238
31.7026 20.5856
31.7491 20.6557
31.7953 20.7816
31.8418 20.7758
31.8881 20.6754
31.9346 20.4544
31.9809 20.138
32.0275 20.0556
32.074 20.051
32.1203 20.149
32.1668 20.1886
32.2132 20.2605
32.2597 20.3858
32.306 20.3472
32.3526 20.2914
32.399 20.0775
32.4455 19.7792
32.4919 19.7018
32.5385 19.5232
32.5848 19.3286
32.6314 19.2423
32.6778 19.0891
32.7244 19.0559
32.7708 18.8811
32.8174 18.829
32.8638 18.8045
32.9104 18.7143
32.9569 18.7651
33.0035 18.7093
33.0499 18.8663
33.0966 18.7497
33.143 18.6983
33.1897 18.5517
33.2361 18.4241
33.2828 18.4695
33.3293 18.3623
33.3759 18.4046
33.4226 18.4268
33.4691 18.5171
33.5158 18.5834
33.5623 18.582
33.609 18.5476
33.6555 18.5084
33.7022 18.3369
33.7487 18.0883
33.7954 17.9859
33.842 17.8611
33.8887 17.787
33.9353 17.676
33.982 17.6387
34.0286 17.6091
34.0753 17.5646
34.1219 17.5764
34.1687 17.5191
34.2152 17.5963
34.262 17.3632
34.3086 17.3384
34.3554 17.2649
34.402 17.1326
34.4488 17.0985
34.4954 17.0666
34.5422 17.0164
34.5889 16.9688
34.6357 16.9558
34.6825 16.9711
34.7292 16.94
34.776 16.7533
34.8227 16.7329
34.8695 16.6823
34.9162 16.5825
34.9631 16.4699
35.0098 16.4657
35.0566 16.3609
35.1033 16.3775
35.1502 16.3585
35.1969 16.2991
35.2438 16.2813
35.2906 16.2645
35.3375 16.2209
35.3842 16.2476
35.4311 16.1755
35.4779 16.1845
35.5248 16.0953
35.5716 16.1201
35.6185 16.0911
35.6653 16.0831
35.7123 16.1877
35.759 16.2631
35.806 16.2025
35.8528 16.1852
35.8998 16.1717
35.9468 16.032
35.9936 15.9769
36.0406 15.7711
36.0874 15.8483
36.1345 15.6789
36.1813 15.671
36.2283 15.5458
36.2752 15.5038
36.3222 15.4697
36.3691 15.4167
36.4161 15.3565
36.463 15.3814
36.5101 15.4256
36.557 15.3665
36.6041 15.2831
36.651 15.2831
36.6981 15.2041
36.745 15.088
36.7921 15.0703
36.839 15.024
36.8861 15.0046
36.9331 15.0115
36.9802 14.9683
37.0272 14.8866
37.0743 14.8704
37.1213 14.7736
37.1684 14.7473
37.2154 14.6756
37.2626 14.5764
37.3098 14.503
37.3568 14.4827
37.404 14.5022
37.451 14.3311
37.4982 14.3801
37.5452 14.3015
37.5924 14.2427
37.6395 14.345
37.6867 14.2244
37.7337 14.0917
37.781 14.0595
37.8281 14.0686
37.8753 13.9701
37.9224 13.9273
37.9697 13.926
38.0168 13.8617
38.064 13.8572
38.1111 13.866
38.1584 13.7696
38.2056 13.7613
38.2529 13.6611
38.3 13.6533
38.3473 13.5618
38.3945 13.4905
38.4418 13.4848
38.489 13.4679
38.5363 13.3649
38.5837 13.4153
38.6309 13.3233
38.6782 13.2847
38.7254 13.2708
38.7728 13.2274
38.82 13.1614
38.8674 13.1371
38.9146 13.0667
38.9621 13.0608
39.0093 13.111
39.0567 13.0803
39.104 13.037
39.1514 12.9192
39.1987 12.8458
39.2461 12.828
39.2934 12.7627
39.3409 12.6836
39.3882 12.7241
39.4356 12.6638
39.483 12.5404
39.5304 12.5978
39.5778 12.5706
39.6253 12.4787
39.6726 12.4542
39.7201 12.4346
39.7675 12.4203
39.815 12.3811
39.8624 12.303
39.9099 12.292
39.9575 12.2314
40.0049 12.2086
40.0525 12.2072
40.0999 12.146
40.1474 12.1877
40.1949 12.1438
40.2425 12.0653
40.2899 12.0726
40.3375 12.0162
40.385 11.9337
40.4326 11.9688
40.48 11.9113
40.5277 11.8772
40.5752 11.8499
40.6228 11.7567
40.6703 11.7469
40.718 11.7282
40.7655 11.6663
40.8132 11.648
40.8607 11.6134
40.9084 11.5673
40.9559 11.5571
41.0036 11.5301
41.0512 11.487
41.0989 11.4853
41.1465 11.4475
41.1942 11.4554
41.242 11.3514
41.2896 11.347
41.3373 11.2948
41.3849 11.2494
41.4327 11.2064
41.4803 11.138
41.5281 11.0937
41.5758 11.0563
41.6236 11.0134
41.6712 10.9952
41.7191 10.9563
41.7667 10.933
41.8146 10.9543
41.8622 10.8728
41.9101 10.8704
41.9578 10.7739
42.0057 10.8173
42.0534 10.7483
42.1013 10.7277
42.149 10.6941
42.1969 10.6424
42.2446 10.6068
42.2925 10.5787
42.3403 10.5103
42.3882 10.515
42.436 10.4419
42.4839 10.3899
42.5319 10.371
42.5797 10.366
42.6277 10.3286
42.6755 10.3187
42.7235 10.1953
42.7713 10.2546
42.8193 10.1784
42.8671 10.1406
42.9152 10.1836
42.963 10.0794
43.0111 10.0173
43.0589 10.0471
43.107 9.99806
43.1549 9.928
43.2029 9.90879
43.2508 9.90271
43.2989 9.84719
43.3468 9.76089
43.3949 9.78894
43.4429 9.72238
43.491 9.70833
43.5389 9.65927
43.5871 9.66298
43.635 9.62372
43.6832 9.60062
43.7312 9.55952
43.7793 9.51922
43.8273 9.47163
43.8755 9.45679
43.9237 9.42471
43.9717 9.42868
44.0199 9.38859
44.068 9.39611
44.1162 9.30415
44.1642 9.32686
44.2125 9.26654
44.2606 9.28056
44.3088 9.20452
44.3569 9.1489
44.4052 9.11201
44.4533 9.11181
44.5016 9.0569
44.5497 9.04764
44.598 8.99823
44.6461 8.98029
44.6945 8.91497
44.7426 8.92061
44.791 8.9079
44.8391 8.87808
44.8875 8.85792
44.9357 8.81237
44.984 8.7606
45.0322 8.75756
45.0806 8.71973
45.1288 8.67144
45.1773 8.67106
45.2257 8.62346
45.2739 8.59593
45.3224 8.54818
45.3706 8.56043
45.4191 8.51336
45.4673 8.50421
45.5158 8.46136
45.5641 8.40415
45.6126 8.38531
45.6609 8.37654
45.7094 8.34457
45.7577 8.30663
45.8063 8.27462
45.8546 8.24694
45.9031 8.23576
45.9515 8.1656
46.0001 8.14183
46.0484 8.14739
46.097 8.1244
46.1454 8.12671
46.194 8.06157
46.2424 8.01163
46.291 7.99965
46.3395 7.9787
46.3881 7.93185
46.4365 7.91657
46.4852 7.88698
46.5337 7.83853
46.5823 7.8342
46.631 7.81128
46.6795 7.79121
46.7282 7.74451
46.7767 7.74233
46.8254 7.71377
46.8739 7.66259
46.9226 7.6531
46.9712 7.61999
47.0199 7.60582
47.0685 7.56364
47.1173 7.5494
47.1658 7.50609
47.2146 7.49351
47.2632 7.45925
47.312 7.46169
47.3606 7.41821
47.4095 7.3488
47.4581 7.34665
47.5069 7.30415
47.5556 7.28265
47.6044 7.25638
47.6531 7.21346
47.702 7.21428
47.7507 7.18924
47.7996 7.18984
47.8483 7.14877
47.8972 7.12449
47.9461 7.09492
47.9948 7.0861
48.0438 7.02368
48.0925 7.03622
48.1415 6.99632
48.1902 6.98535
48.2392 6.97966
48.288 6.93866
48.337 6.92638
48.3858 6.87709
48.4348 6.84053
48.4837 6.84809
48.5327 6.82486
48.5815 6.76042
48.6306 6.76592
48.6795 6.75914
48.7285 6.69375
48.7774 6.67638
48.8265 6.66033
48.8754 6.65421
48.9245 6.59452
48.9734 6.56914
49.0226 6.57631
49.0715 6.53037
49.1206 6.50666
49.1696 6.48126
49.2188 6.47168
49.2679 6.45554
49.3169 6.38581
49.3661 6.42137
49.4151 6.39488
49.4643 6.33593
49.5134 6.3491
49.5626 6.29164
49.6117 6.29483
49.6609 6.2761
49.71 6.23612
49.7592 6.23092
49.8083 6.18573
49.8576 6.15778
49.9067 6.14935
49.956 6.12811
50.0052 6.11313
50.0545 6.08506
50.1036 6.06544
50.153 6.02934
50.2022 6.0396
50.2515 5.97395
50.3007 5.974
50.3501 5.95367
50.3993 5.93593
50.4487 5.92284
50.498 5.90397
50.5474 5.8759
50.5966 5.87332
50.6461 5.81602
50.6955 5.81445
50.7448 5.79625
50.7943 5.76721
50.8436 5.75003
50.8931 5.75008
50.9424 5.72387
50.9919 5.67371
51.0413 5.68342
51.0908 5.63842
51.1402 5.6427
51.1897 5.59709
51.2391 5.58719
51.2887 5.55334
51.3381 5.53995
51.3877 5.51494
51.4371 5.46728
51.4867 5.47424
51.5362 5.44291
51.5858 5.43594
51.6353 5.39149
51.6849 5.38584
51.7344 5.38749
51.7841 5.33154
51.8336 5.33513
51.8833 5.34548
51.9328 5.29118
51.9826 5.23416
52.0323 5.28159
52.0818 5.24053
52.1316 5.18836
52.1812 5.1821
52.231 5.15882
52.2806 5.16184
52.3304 5.09702
52.38 5.086
52.4298 5.04442
52.4794 5.05729
52.5293 5.0582
52.5789 4.98605
52.6288 4.9977
52.6785 4.9866
52.7284 4.91968
52.7781 4.9732
52.828 4.94142
52.8777 4.90658
52.9276 4.85832
52.9774 4.85046
53.0273 4.8435
53.0771 4.8239
53.1271 4.81805
53.1769 4.77247
53.2269 4.73604
53.2767 4.7503
53.3267 4.74133
53.3765 4.66785
53.4266 4.70312
53.4766 4.67334
53.5265 4.62621
53.5765 4.6274
53.6264 4.63479
53.6765 4.57442
53.7264 4.53636
53.7765 4.53906
53.8265 4.51339
53.8766 4.47312
53.9266 4.53125
53.9767 4.43925
54.0267 4.47353
54.0769 4.42601
54.1269 4.38924
54.1771 4.36215
54.2271 4.33247
54.2773 4.30343
54.3274 4.27812
54.3776 4.22497
54.4277 4.21364
54.478 4.20392
54.528 4.12566
54.5783 4.10567
54.6285 4.05984
54.6788 4.04858
54.7289 4.0191
54.7792 3.96346
54.8296 3.91008
54.8798 3.93388
54.9301 3.93901
54.9803 3.85574
55.0307 3.87742
55.0809 3.80501
55.1314 3.82219
55.1816 3.77456
55.232 3.73561
55.2823 3.68222
55.3328 3.60941
55.383 3.58181
55.4335 3.63364
55.4838 3.53109
55.5344 3.52591
55.5847 3.46287
55.6352 3.49025
55.6856 3.43613
55.7361 3.41626