File: XRD/Ni3Fe_FD0964.xy
TT I
1.27165 7.15326
1.31627 6.50611
1.36089 6.65926
1.40551 5.8769
1.45013 5.9423
1.49476 5.91216
1.53938 5.54761
1.584 5.24979
1.62863 4.86902
1.67325 5.1386
1.71787 5.0479
1.7625 5.04346
1.80712 4.57986
1.85174 5.10386
1.89636 4.51543
1.94099 4.91111
1.98562 4.51513
2.03025 4.83341
2.07487 4.84863
2.11949 4.77184
2.16411 5.15925
2.20874 12.7297
2.25338 20.327
2.298 6.3345
2.34263 5.78156
2.38725 6.60788
2.43188 6.29499
2.4765 7.01647
2.52115 7.71262
2.56577 7.75847
2.6104 7.53589
2.65503 8.97436
2.69965 8.49746
2.7443 8.60881
2.78893 8.18197
2.83356 8.89597
2.87818 9.02799
2.92281 9.43241
2.96744 9.55897
3.01209 10.5591
3.05672 11.2053
3.10135 12.5559
3.14599 13.4716
3.19062 14.7029
3.23527 15.4377
3.2799 16.28
3.32454 16.8787
3.36917 17.7861
3.4138 19.1625
3.45844 19.403
3.50309 20.7083
3.54773 21.7635
3.59237 24.3155
3.637 81.9947
3.68164 53.3606
3.7263 26.3329
3.77094 25.8013
3.81558 26.4619
3.86022 27.1461
3.90486 28.7934
3.9495 29.4387
3.99416 30.6174
4.0388 31.7966
4.08344 33.3054
4.12809 34.3069
4.17273 36.1847
4.21738 41.4809
4.26204 219.213
4.30669 190.368
4.35133 47.3543
4.39598 43.9006
4.44063 52.5695
4.4853 62.3155
4.52995 49.6902
4.5746 50.4753
4.61925 52.2658
4.6639 54.763
4.70855 57.2275
4.75322 60.1972
4.79788 63.2469
4.84253 66.7706
4.88719 70.6835
4.93184 73.8353
4.97652 79.0863
5.02118 85.4263
5.06583 91.7532
5.11049 101.697
5.15515 160.282
5.19981 284.354
5.24449 2490.44
5.28916 13471.9
5.33382 2788.26
5.37848 172.649
5.42315 124.264
5.46783 110.596
5.5125 104.167
5.55716 99.9814
5.60183 96.6339
5.6465 94.3539
5.69117 92.2796
5.73586 90.0355
5.78053 90.0457
5.8252 89.6069
5.86988 90.3973
5.91455 90.9641
5.95924 96.694
6.00392 177.23
6.0486 829.638
6.09328 4639.64
6.13795 3138.2
6.18263 209.165
6.22733 88.5083
6.27201 80.3526
6.3167 96.4528
6.36138 77.519
6.40606 67.4714
6.45075 66.3262
6.49545 64.3544
6.54014 62.8894
6.58483 61.7642
6.62952 62.0797
6.67421 88.8768
6.71892 129.713
6.76361 66.2812
6.8083 57.7179
6.853 56.6219
6.89769 56.132
6.94239 55.7169
6.98711 54.8842
7.03181 54.9216
7.07651 54.4798
7.12121 54.1963
7.16591 54.4699
7.21063 54.6902
7.25533 68.4078
7.30004 159.405
7.34475 85.0872
7.38945 55.3736
7.43416 53.9185
7.47889 53.2905
7.5236 53.8454
7.56831 54.3633
7.61303 55.9201
7.65774 56.2133
7.70247 55.0659
7.74719 55.2612
7.79191 55.8894
7.83663 56.1408
7.88135 56.9769
7.92607 58.0261
7.97081 58.8371
8.01553 59.9803
8.06026 61.1246
8.10498 62.9106
8.14971 71.3631
8.19446 70.5875
8.23919 68.0948
8.28392 70.7111
8.32865 72.7154
8.37339 76.8715
8.41812 82.8796
8.46288 107.416
8.50761 145.126
8.55235 342.31
8.59709 1160.55
8.64183 2270.86
8.68658 906.033
8.73134 157.219
8.77609 96.2911
8.82083 91.0371
8.86558 87.7916
8.91033 88.3151
8.9551 89.54
8.99985 83.8708
9.04461 82.3705
9.08936 81.5731
9.13412 80.8426
9.17888 80.7701
9.22365 81.3036
9.26841 80.6701
9.31318 81.3527
9.35794 81.3432
9.4027 82.4913
9.44749 82.7333
9.49226 82.9906
9.53703 84.115
9.5818 85.9175
9.62657 90.1271
9.67134 96.1219
9.71614 91.6536
9.76091 92.3185
9.80569 94.8616
9.85047 97.5728
9.89525 119.196
9.94005 128.873
9.98484 157.776
10.0296 304.916
10.0744 786.689
10.1192 1812.05
10.164 1524.52
10.2088 355.55
10.2536 121.998
10.2984 110.14
10.3432 110.332
10.388 101.821
10.4328 111.598
10.4776 150.857
10.5224 275.715
10.5672 526.339
10.612 493.886
10.6568 192.881
10.7017 94.3709
10.7465 84.4692
10.7913 81.8746
10.8361 79.3685
10.8809 77.4806
10.9257 76.5348
10.9706 77.2372
11.0154 73.4117
11.0602 71.886
11.105 70.7618
11.1499 74.5022
11.1947 80.0713
11.2395 72.3331
11.2844 68.9456
11.3292 66.0282
11.374 64.7798
11.4189 64.2863
11.4637 63.8692
11.5086 64.1003
11.5534 66.4723
11.5983 64.2391
11.6431 62.7558
11.688 61.5178
11.7328 61.5629
11.7777 61.5004
11.8225 61.5035
11.8674 61.091
11.9122 61.4659
11.9571 61.8226
12.002 62.3297
12.0468 65.3323
12.0917 75.4277
12.1366 99.513
12.1814 156.023
12.2263 207.024
12.2712 161.336
12.3161 94.3307
12.3609 68.4475
12.4058 63.3384
12.4507 63.2347
12.4956 63.1828
12.5405 63.3691
12.5853 64.3174
12.6302 70.7958
12.6751 75.4604
12.72 68.3048
12.7649 66.7043
12.8098 67.1165
12.8547 68.0767
12.8996 69.6066
12.9445 70.6913
12.9894 72.5373
13.0343 74.0447
13.0792 77.1199
13.1242 84.3605
13.1691 104.951
13.214 140.304
13.2589 237.038
13.3038 383.295
13.3487 421.395
13.3937 246.671
13.4386 118.567
13.4835 100.212
13.5285 113.423
13.5734 151.334
13.6183 249.123
13.6633 357.496
13.7082 323.568
13.7531 176.59
13.7981 94.2085
13.843 79.9324
13.888 78.0743
13.9329 75.5896
13.9779 74.3807
14.0228 72.9642
14.0678 71.6242
14.1127 71.2541
14.1577 70.7991
14.2027 69.8424
14.2476 69.1191
14.2926 69.2639
14.3376 69.934
14.3825 68.8092
14.4275 67.4103
14.4725 67.2426
14.5175 67.3977
14.5624 67.6367
14.6074 69.7361
14.6524 70.088
14.6974 68.9881
14.7424 70.0929
14.7874 75.484
14.8324 84.7805
14.8774 106.674
14.9224 153.859
14.9674 213.938
15.0124 217.63
15.0574 144.463
15.1024 86.8007
15.1474 70.7004
15.1924 68.9301
15.2374 69.4369
15.2824 68.4264
15.3274 66.5962
15.3725 65.457
15.4175 65.343
15.4625 64.8118
15.5076 64.8579
15.5526 64.8418
15.5976 64.2647
15.6426 65.4108
15.6877 69.4967
15.7327 76.4488
15.7778 91.5584
15.8228 125.255
15.8679 174.703
15.9129 194.505
15.958 148.348
16.003 92.4921
16.0481 66.5012
16.0931 63.1904
16.1382 61.2411
16.1833 59.3865
16.2283 57.9423
16.2734 57.0035
16.3185 57.6547
16.3636 57.9774
16.4086 56.6549
16.4537 55.1206
16.4988 54.2701
16.5439 54.2815
16.589 54.1464
16.6341 53.7801
16.6792 53.5089
16.7243 53.8332
16.7694 53.9545
16.8145 53.7182
16.8596 54.3073
16.9047 55.6156
16.9498 55.7267
16.9949 54.6159
17.04 54.8012
17.0851 55.6431
17.1302 57.3558
17.1754 60.1793
17.2205 65.5753
17.2656 74.3386
17.3108 82.4866
17.3559 79.8188
17.401 69.232
17.4462 60.4682
17.4913 57.917
17.5365 57.8964
17.5815 57.9948
17.6268 58.3336
17.6718 59.1421
17.7171 59.5811
17.7622 60.056
17.8074 60.7322
17.8525 62.4738
17.8977 66.2437
17.9428 71.1428
17.9881 80.3873
18.0331 98.9168
18.0784 122.695
18.1237 137.199
18.1688 125.095
18.214 99.0079
18.2591 84.2585
18.3044 90.0439
18.3495 100.976
18.3948 104.962
18.4399 93.0068
18.4852 74.8388
18.5303 64.3683
18.5756 60.9533
18.6207 59.9328
18.666 59.2679
18.7112 58.466
18.7565 57.9537
18.8016 57.5982
18.8469 56.9779
18.892 56.5398
18.9374 56.1118
18.9825 55.8006
19.0278 55.6525
19.073 55.72
19.1183 56.2393
19.1635 56.8392
19.2088 58.1007
19.254 60.8134
19.2993 65.9495
19.3447 71.7488
19.3898 74.7364
19.4352 70.1029
19.4804 61.3435
19.5257 55.2383
19.5709 53.1294
19.6163 52.8276
19.6615 52.6616
19.7068 52.4635
19.752 52.2549
19.7974 52.6265
19.8426 53.0916
19.888 53.8668
19.9332 55.0528
19.9786 57.6805
20.0238 61.735
20.0692 66.8177
20.1144 68.7373
20.1598 65.8529
20.205 61.7666
20.2504 61.3102
20.2957 63.7739
20.3411 64.9389
20.3863 62.4981
20.4318 56.7921
20.477 52.3655
20.5224 50.732
20.5677 50.0177
20.6131 49.0718
20.6586 48.7636
20.7038 48.7008
20.7493 48.3617
20.7945 47.956
20.84 47.8126
20.8853 47.8154
20.9307 47.5493
20.976 47.8137
21.0215 47.5441
21.0668 48.0281
21.1122 48.6092
21.1575 49.0958
21.203 50.2123
21.2483 50.4155
21.2938 50.2947
21.3391 49.006
21.3846 48.0759
21.4299 47.5936
21.4754 47.5304
21.5207 47.6347
21.5662 47.969
21.6116 48.0344
21.6571 48.7143
21.7024 49.5962
21.7479 51.437
21.7933 54.5154
21.8388 58.5538
21.8843 62.539
21.9297 63.3746
21.9752 61.223
22.0206 58.0495
22.0661 55.6659
22.1115 55.2593
22.157 54.8661
22.2024 53.0259
22.248 50.2923
22.2933 48.9649
22.3389 48.1258
22.3843 47.9586
22.4299 48.0077
22.4753 47.84
22.5208 47.8034
22.5662 47.5667
22.6118 47.7812
22.6572 47.884
22.7028 48.2203
22.7483 48.628
22.7939 49.4221
22.8393 50.9596
22.8849 53.2975
22.9303 55.544
22.9759 56.9818
23.0214 56.1158
23.067 53.2571
23.1126 49.8811
23.1581 48.0701
23.2037 47.8683
23.2492 47.9286
23.2948 47.792
23.3403 48.1129
23.3859 48.6569
23.4314 49.7139
23.477 51.749
23.5225 54.2964
23.5682 56.5618
23.6137 56.9355
23.6593 54.3031
23.7048 50.5067
23.7505 47.3075
23.796 45.8573
23.8417 45.1274
23.8872 44.6237
23.9329 44.3665
23.9784 44.0614
24.0241 43.9085
24.0697 43.7298
24.1154 43.317
24.1609 43.2372
24.2066 42.9771
24.2522 42.9499
24.2979 42.6458
24.3434 42.5405
24.3892 42.2631
24.4349 42.3196
24.4805 42.1863
24.5262 42.3103
24.5718 42.2294
24.6175 42.1035
24.6631 41.8711
24.7089 41.7958
24.7545 41.6096
24.8002 41.3799
24.8458 41.4638
24.8916 41.2473
24.9372 41.4208
24.983 41.6676
25.0286 42.0378
25.0744 42.5414
25.12 43.0984
25.1658 43.6866
25.2114 43.884
25.2572 44.062
25.3029 44.228
25.3487 44.2429
25.3943 43.7523
25.4402 42.6324
25.4858 41.5718
25.5316 40.5944
25.5773 40.125
25.6231 40.1952
25.669 39.7333
25.7147 39.7326
25.7605 39.6516
25.8062 39.6822
25.8521 39.8509
25.8977 39.6936
25.9436 39.9944
25.9893 40.1969
26.0352 40.71
26.0809 40.8409
26.1268 41.0104
26.1725 40.4051
26.2184 40.075
26.2641 39.4682
26.31 39.2418
26.3557 39.358
26.4017 39.3188
26.4474 39.6694
26.4933 40.0235
26.5391 40.5216
26.585 41.1169
26.6308 41.4429
26.6767 41.5041
26.7225 41.3103
26.7684 40.7623
26.8142 40.0332
26.8601 39.6714
26.9059 39.1135
26.9519 38.7295
26.9979 38.3904
27.0437 38.195
27.0896 37.9903
27.1354 38.0873
27.1814 37.8604
27.2272 37.7863
27.2732 37.8137
27.3191 37.6096
27.3651 37.7128
27.4109 37.7263
27.4569 37.9189
27.5027 37.9089
27.5488 37.9145
27.5946 37.6503
27.6407 37.4067
27.6865 37.4498
27.7326 37.1226
27.7784 37.0886
27.8245 37.1623
27.8703 37.295
27.9164 37.5918
27.9623 37.7718
28.0084 38.1298
28.0543 38.523
28.1003 38.2592
28.1462 38.088
28.1923 37.7678
28.2384 37.329
28.2843 36.9658
28.3304 36.4541
28.3764 35.9602
28.4225 35.8245
28.4684 35.5336
28.5145 35.2878
28.5605 35.2903
28.6066 35.0811
28.6526 35.0827
28.6987 35.0674
28.7447 34.8235
28.7908 34.9333
28.8368 34.773
28.8829 34.8006
28.9289 34.6813
28.9751 34.5161
29.0211 34.3502
29.0673 34.0461
29.1133 33.911
29.1595 33.7121
29.2055 33.7119
29.2517 33.7167
29.2977 33.8737
29.3439 33.6528
29.3899 33.6765
29.4361 33.5835
29.4824 33.3895
29.5284 33.1118
29.5746 32.8267
29.6207 32.443
29.6669 32.4448
29.713 32.3746
29.7593 32.2976
29.8053 32.2946
29.8516 32.2235
29.8977 32.1492
29.9439 32.0184
29.99 31.9727
30.0363 31.8409
30.0824 31.8685
30.1287 31.8871
30.1748 31.8482
30.2211 31.9348
30.2673 31.6964
30.3136 31.8007
30.3597 31.6573
30.406 31.6206
30.4522 31.4144
30.4985 31.4294
30.5447 31.5838
30.591 31.5859
30.6372 31.639
30.6835 31.6503
30.7297 31.6097
30.7761 31.5786
30.8224 31.4039
30.8686 31.2007
30.915 31.0312
30.9612 30.9457
31.0076 30.6977
31.0538 30.5475
31.1002 30.5575
31.1464 30.4002
31.1928 30.3614
31.2391 30.3521
31.2855 30.2581
31.3317 30.3197
31.3781 30.4164
31.4244 30.3502
31.4708 30.2882
31.5171 30.273
31.5636 30.2333
31.6098 29.9717
31.6563 29.8666
31.7026 29.7719
31.7491 29.589
31.7953 29.6091
31.8418 29.6969
31.8881 29.6866
31.9346 29.5673
31.9809 29.6265
32.0275 29.4207
32.074 29.2575
32.1203 29.0926
32.1668 29.0973
32.2132 28.8304
32.2597 28.7248
32.306 28.6121
32.3526 28.4484
32.399 28.4926
32.4455 28.3098
32.4919 28.1255
32.5385 28.0984
32.5848 28.0339
32.6314 28.0407
32.6778 27.9069
32.7244 27.8004
32.7708 27.5997
32.8174 27.6314
32.8638 27.5435
32.9104 27.557
32.9569 27.549
33.0035 27.4166
33.0499 27.384
33.0966 27.2856
33.143 27.3118
33.1897 27.1848
33.2361 27.1594
33.2828 27.139
33.3293 26.9033
33.3759 26.8164
33.4226 26.7622
33.4691 26.7015
33.5158 26.6082
33.5623 26.3892
33.609 26.3124
33.6555 26.1837
33.7022 26.1169
33.7487 26.0395
33.7954 26.0224
33.842 25.9236
33.8887 25.8215
33.9353 25.7503
33.982 25.6273
34.0286 25.5706
34.0753 25.5417
34.1219 25.4704
34.1687 25.4898
34.2152 25.3115
34.262 25.1642
34.3086 25.1222
34.3554 25.0615
34.402 24.9238
34.4488 24.8328
34.4954 24.8471
34.5422 24.7518
34.5889 24.6294
34.6357 24.567
34.6825 24.4617
34.7292 24.3841
34.776 24.3638
34.8227 24.1821
34.8695 24.2711
34.9162 24.1918
34.9631 23.9744
35.0098 24.1662
35.0566 23.9385
35.1033 23.8195
35.1502 23.8944
35.1969 23.7848
35.2438 23.7464
35.2906 23.7022
35.3375 23.6659
35.3842 23.5868
35.4311 23.5897
35.4779 23.5631
35.5248 23.4106
35.5716 23.3357
35.6185 23.2962
35.6653 23.2549
35.7123 23.0733
35.759 23.1189
35.806 22.8639
35.8528 22.8676
35.8998 22.7274
35.9468 22.715
35.9936 22.7684
36.0406 22.6306
36.0874 22.6078
36.1345 22.5311
36.1813 22.4507
36.2283 22.2545
36.2752 22.2522
36.3222 22.2577
36.3691 22.1692
36.4161 22.0003
36.463 22.1629
36.5101 22.0261
36.557 21.997
36.6041 21.8399
36.651 21.8892
36.6981 21.7735
36.745 21.7092
36.7921 21.5805
36.839 21.5243
36.8861 21.4878
36.9331 21.4165
36.9802 21.2526
37.0272 21.1431
37.0743 21.1106
37.1213 21.0284
37.1684 21.0124
37.2154 20.9208
37.2626 20.8561
37.3098 20.8348
37.3568 20.7365
37.404 20.698
37.451 20.5969
37.4982 20.6231
37.5452 20.5308
37.5924 20.4432
37.6395 20.5053
37.6867 20.3458
37.7337 20.2691
37.781 20.1693
37.8281 20.1174
37.8753 20.0467
37.9224 19.9407
37.9697 19.9169
38.0168 19.8199
38.064 19.7412
38.1111 19.7183
38.1584 19.6673
38.2056 19.5978
38.2529 19.5726
38.3 19.4746
38.3473 19.4515
38.3945 19.312
38.4418 19.2942
38.489 19.2956
38.5363 19.1186
38.5837 19.1498
38.6309 19.1154
38.6782 18.9381
38.7254 18.9106
38.7728 18.8871
38.82 18.8223
38.8674 18.8221
38.9146 18.748
38.9621 18.64
39.0093 18.554
39.0567 18.615
39.104 18.5314
39.1514 18.4065
39.1987 18.3184
39.2461 18.356
39.2934 18.2948
39.3409 18.1485
39.3882 18.0742
39.4356 18.0605
39.483 18.0139
39.5304 17.9832
39.5778 17.9396
39.6253 17.794
39.6726 17.7416
39.7201 17.6885
39.7675 17.7182
39.815 17.6062
39.8624 17.5252
39.9099 17.4753
39.9575 17.4575
40.0049 17.4378
40.0525 17.3015
40.0999 17.2896
40.1474 17.2387
40.1949 17.1586
40.2425 17.1062
40.2899 17.0652
40.3375 17.0068
40.385 16.9688
40.4326 16.8635
40.48 16.8165
40.5277 16.7623
40.5752 16.7423
40.6228 16.7028
40.6703 16.6265
40.718 16.5903
40.7655 16.5273
40.8132 16.4344
40.8607 16.4191
40.9084 16.3824
40.9559 16.306
41.0036 16.2911
41.0512 16.1636
41.0989 16.1779
41.1465 16.0547
41.1942 16.0832
41.242 15.9833
41.2896 15.9807
41.3373 15.911
41.3849 15.8072
41.4327 15.807
41.4803 15.6575
41.5281 15.6491
41.5758 15.6206
41.6236 15.5726
41.6712 15.5167
41.7191 15.4147
41.7667 15.4326
41.8146 15.3908
41.8622 15.2616
41.9101 15.2896
41.9578 15.1718
42.0057 15.1894
42.0534 15.1211
42.1013 15.022
42.149 15.0292
42.1969 14.8965
42.2446 14.9163
42.2925 14.8517
42.3403 14.7887
42.3882 14.7684
42.436 14.7009
42.4839 14.6684
42.5319 14.6206
42.5797 14.5871
42.6277 14.5145
42.6755 14.4731
42.7235 14.3815
42.7713 14.3835
42.8193 14.3182
42.8671 14.2884
42.9152 14.2486
42.963 14.1605
43.0111 14.1295
43.0589 14.0712
43.107 14.001
43.1549 13.9871
43.2029 13.8967
43.2508 13.8946
43.2989 13.8041
43.3468 13.7553
43.3949 13.6665
43.4429 13.7079
43.491 13.686
43.5389 13.5728
43.5871 13.536
43.635 13.5132
43.6832 13.467
43.7312 13.3653
43.7793 13.3634
43.8273 13.3419
43.8755 13.2718
43.9237 13.2431
43.9717 13.1833
44.0199 13.0856
44.068 13.1313
44.1162 13.0791
44.1642 13.0285
44.2125 12.9399
44.2606 12.9293
44.3088 12.8716
44.3569 12.826
44.4052 12.8015
44.4533 12.7485
44.5016 12.6784
44.5497 12.6639
44.598 12.6066
44.6461 12.5564
44.6945 12.5025
44.7426 12.4303
44.791 12.3821
44.8391 12.3756
44.8875 12.3206
44.9357 12.298
44.984 12.2335
45.0322 12.2141
45.0806 12.1728
45.1288 12.102
45.1773 12.1165
45.2257 12.0245
45.2739 12.016
45.3224 11.9376
45.3706 11.9313
45.4191 11.8818
45.4673 11.8407
45.5158 11.7968
45.5641 11.7613
45.6126 11.6933
45.6609 11.6292
45.7094 11.6209
45.7577 11.5727
45.8063 11.4781
45.8546 11.5492
45.9031 11.4563
45.9515 11.4299
46.0001 11.3761
46.0484 11.3368
46.097 11.3069
46.1454 11.2346
46.194 11.2069
46.2424 11.1156
46.291 11.1078
46.3395 11.0311
46.3881 11.0907
46.4365 11.0218
46.4852 10.9606
46.5337 10.9511
46.5823 10.8915
46.631 10.8047
46.6795 10.7966
46.7282 10.753
46.7767 10.7142
46.8254 10.6573
46.8739 10.6107
46.9226 10.5923
46.9712 10.5483
47.0199 10.5535
47.0685 10.4757
47.1173 10.4416
47.1658 10.4145
47.2146 10.3949
47.2632 10.34
47.312 10.3226
47.3606 10.2354
47.4095 10.2528
47.4581 10.2136
47.5069 10.127
47.5556 10.1248
47.6044 10.0631
47.6531 10.0279
47.702 9.97956
47.7507 9.95726
47.7996 9.96535
47.8483 9.90368
47.8972 9.86549
47.9461 9.84651
47.9948 9.74479
48.0438 9.73407
48.0925 9.74195
48.1415 9.66904
48.1902 9.66592
48.2392 9.6515
48.288 9.55783
48.337 9.5619
48.3858 9.486
48.4348 9.46696
48.4837 9.44828
48.5327 9.39039
48.5815 9.35628
48.6306 9.34244
48.6795 9.27316
48.7285 9.26679
48.7774 9.24483
48.8265 9.22511
48.8754 9.15922
48.9245 9.14626
48.9734 9.1126
49.0226 9.06093
49.0715 9.04388
49.1206 8.99166
49.1696 8.96347
49.2188 8.92813
49.2679 8.89346
49.3169 8.83461
49.3661 8.83708
49.4151 8.78537
49.4643 8.75926
49.5134 8.7369
49.5626 8.66922
49.6117 8.63509
49.6609 8.62079
49.71 8.5832
49.7592 8.54743
49.8083 8.50769
49.8576 8.46797
49.9067 8.47362
49.956 8.43217
50.0052 8.37936
50.0545 8.34562
50.1036 8.32217
50.153 8.30293
50.2022 8.25977
50.2515 8.21108
50.3007 8.1342
50.3501 8.16645
50.3993 8.1292
50.4487 8.09743
50.498 8.08511
50.5474 8.03778
50.5966 7.99116
50.6461 7.94602
50.6955 7.94372
50.7448 7.94598
50.7943 7.89775
50.8436 7.89302
50.8931 7.82999
50.9424 7.85625
50.9919 7.74268
51.0413 7.75681
51.0908 7.74574
51.1402 7.69303
51.1897 7.64682
51.2391 7.62924
51.2887 7.61184
51.3381 7.52974
51.3877 7.49631
51.4371 7.4613
51.4867 7.46727
51.5362 7.43133
51.5858 7.41793
51.6353 7.38912
51.6849 7.3136
51.7344 7.30212
51.7841 7.31767
51.8336 7.24845
51.8833 7.25194
51.9328 7.17147
51.9826 7.14607
52.0323 7.10779
52.0818 7.07773
52.1316 7.08542
52.1812 7.04611
52.231 7.01071
52.2806 6.94375
52.3304 6.92422
52.38 6.95719
52.4298 6.92849
52.4794 6.85815
52.5293 6.80842
52.5789 6.798
52.6288 6.80973
52.6785 6.74717
52.7284 6.70496
52.7781 6.71931
52.828 6.65153
52.8777 6.61085
52.9276 6.59155
52.9774 6.59373
53.0273 6.58267
53.0771 6.56585
53.1271 6.51143
53.1769 6.44629
53.2269 6.45846
53.2767 6.42231
53.3267 6.40601
53.3765 6.40019
53.4266 6.3586
53.4766 6.34972
53.5265 6.27638
53.5765 6.24702
53.6264 6.27224
53.6765 6.25524
53.7264 6.17703
53.7765 6.16429
53.8265 6.16067
53.8766 6.08478
53.9266 6.0911
53.9767 6.08768
54.0267 6.03933
54.0769 6.02265
54.1269 5.97557
54.1771 5.9327
54.2271 5.92822
54.2773 5.86918
54.3274 5.80858
54.3776 5.82209
54.4277 5.77063
54.478 5.75872
54.528 5.69566
54.5783 5.67697
54.6285 5.64482
54.6788 5.62134
54.7289 5.55491
54.7792 5.54776
54.8296 5.4526
54.8798 5.39955
54.9301 5.41532
54.9803 5.31959
55.0307 5.39326
55.0809 5.26095
55.1314 5.26937
55.1816 5.22672
55.232 5.1786
55.2823 5.14916
55.3328 5.10247
55.383 5.02068
55.4335 4.90919
55.4838 4.89905
55.5344 4.91134
55.5847 4.84116
55.6352 4.8388
55.6856 4.76708
55.7361 4.73767