File: XRD/Ni3Fe_FD1083.xy
TT I
1.27165 7.16347
1.31627 6.16919
1.36089 6.95164
1.40551 5.55673
1.45013 6.33514
1.49476 5.60102
1.53938 5.3256
1.584 5.10698
1.62863 5.2065
1.67325 4.80877
1.71787 4.30525
1.7625 4.20948
1.80712 4.69623
1.85174 4.09341
1.89636 4.64806
1.94099 4.65185
1.98562 4.56247
2.03025 4.41406
2.07487 3.79832
2.11949 4.73179
2.16411 4.04526
2.20874 5.5543
2.25338 6.44306
2.298 5.23236
2.34263 5.26808
2.38725 5.51832
2.43188 6.46961
2.4765 7.23721
2.52115 7.7864
2.56577 7.74239
2.6104 8.806
2.65503 8.50541
2.69965 8.27944
2.7443 8.6543
2.78893 8.37166
2.83356 8.76908
2.87818 8.30623
2.92281 8.47408
2.96744 9.38175
3.01209 10.644
3.05672 11.0908
3.10135 11.7607
3.14599 12.7219
3.19062 14.0161
3.23527 14.7212
3.2799 15.1901
3.32454 15.9339
3.36917 16.8216
3.4138 18.0456
3.45844 18.601
3.50309 19.5718
3.54773 20.5614
3.59237 21.4248
3.637 27.2687
3.68164 26.3725
3.7263 23.8493
3.77094 24.6667
3.81558 25.4482
3.86022 25.877
3.90486 27.6158
3.9495 28.136
3.99416 29.1683
4.0388 30.2282
4.08344 31.1936
4.12809 32.6788
4.17273 33.5877
4.21738 35.4188
4.26204 52.0418
4.30669 56.255
4.35133 40.6089
4.39598 41.0228
4.44063 43.0389
4.4853 46.0356
4.52995 46.3525
4.5746 48.3868
4.61925 50.935
4.6639 52.7741
4.70855 55.0912
4.75322 58.1439
4.79788 60.5538
4.84253 63.8458
4.88719 67.9461
4.93184 71.5951
4.97652 76.7497
5.02118 83.1396
5.06583 89.3669
5.11049 97.8317
5.15515 118.847
5.19981 231.132
5.24449 2536.96
5.28916 13757.9
5.33382 3342.84
5.37848 203.11
5.42315 122.96
5.46783 107.773
5.5125 101.306
5.55716 97.5588
5.60183 92.7121
5.6465 90.8637
5.69117 89.9768
5.73586 87.7417
5.78053 87.3674
5.8252 86.6405
5.86988 87.4552
5.91455 88.7139
5.95924 95.0544
6.00392 164.259
6.0486 893.753
6.09328 4440.22
6.13795 3711.72
6.18263 240.356
6.22733 86.9229
6.27201 75.7233
6.3167 73.5744
6.36138 68.6694
6.40606 64.4853
6.45075 63.9442
6.49545 61.8299
6.54014 59.9372
6.58483 58.9774
6.62952 57.68
6.67421 58.6923
6.71892 63.9524
6.76361 56.4906
6.8083 54.3755
6.853 53.3582
6.89769 53.6335
6.94239 53.8305
6.98711 52.6516
7.03181 52.3942
7.07651 52.1956
7.12121 51.5156
7.16591 52.0098
7.21063 50.7984
7.25533 51.9997
7.30004 61.9211
7.34475 55.8296
7.38945 51.3968
7.43416 51.1051
7.47889 51.6619
7.5236 58.0607
7.56831 70.4589
7.61303 55.917
7.65774 52.8835
7.70247 53.1937
7.74719 53.3757
7.79191 53.6467
7.83663 54.0873
7.88135 55.0939
7.92607 55.7344
7.97081 56.743
8.01553 57.7114
8.06026 59.3235
8.10498 60.0837
8.14971 62.107
8.19446 64.0115
8.23919 65.8538
8.28392 68.0455
8.32865 70.4239
8.37339 73.9941
8.41812 77.8428
8.46288 86.3287
8.50761 128.953
8.55235 381.965
8.59709 1116.88
8.64183 2295.04
8.68658 1100.36
8.73134 174.633
8.77609 94.9974
8.82083 88.3222
8.86558 85.9148
8.91033 83.7589
8.9551 82.1626
8.99985 81.2284
9.04461 80.1949
9.08936 79.8004
9.13412 79.0996
9.17888 79.5
9.22365 90.2214
9.26841 109.525
9.31318 87.8195
9.35794 79.9199
9.4027 80.289
9.44749 80.4027
9.49226 80.9158
9.53703 81.992
9.5818 83.3133
9.62657 84.4137
9.67134 86.7102
9.71614 88.0264
9.76091 89.498
9.80569 91.2631
9.85047 93.7963
9.89525 99.4573
9.94005 106.439
9.98484 147.718
10.0296 353.118
10.0744 782.602
10.1192 1756.7
10.164 1708.9
10.2088 445.444
10.2536 125.251
10.2984 103.068
10.3432 101.011
10.388 98.0475
10.4328 108.175
10.4776 163.598
10.5224 274.616
10.5672 516.19
10.612 576.423
10.6568 231.551
10.7017 103.105
10.7465 85.9407
10.7913 79.9912
10.8361 77.8694
10.8809 75.6193
10.9257 73.3873
10.9706 72.7678
11.0154 70.7075
11.0602 69.3477
11.105 68.2918
11.1499 67.1366
11.1947 67.5522
11.2395 65.595
11.2844 64.795
11.3292 63.8766
11.374 62.962
11.4189 62.5214
11.4637 61.9649
11.5086 61.2339
11.5534 61.1704
11.5983 60.8587
11.6431 60.8482
11.688 60.2336
11.7328 60.0914
11.7777 59.8065
11.8225 59.6024
11.8674 59.9718
11.9122 61.7832
11.9571 67.0828
12.002 66.014
12.0468 64.3599
12.0917 77.2062
12.1366 99.6377
12.1814 147.08
12.2263 202.926
12.2712 174.701
12.3161 97.2446
12.3609 64.6479
12.4058 61.3818
12.4507 61.3418
12.4956 61.3218
12.5405 61.704
12.5853 61.9893
12.6302 62.5534
12.6751 64.2926
12.72 64.0694
12.7649 64.3793
12.8098 65.4686
12.8547 66.5659
12.8996 67.7888
12.9445 69.5046
12.9894 71.0198
13.0343 72.8696
13.0792 76.5833
13.1242 82.2083
13.1691 108.41
13.214 149.561
13.2589 232.378
13.3038 370.591
13.3487 452.082
13.3937 279.136
13.4386 125.715
13.4835 99.0901
13.5285 120.806
13.5734 157.943
13.6183 237.441
13.6633 356.468
13.7082 360.572
13.7531 205.36
13.7981 100.209
13.843 79.6316
13.888 76.9464
13.9329 74.6505
13.9779 73.3835
14.0228 72.0385
14.0678 70.5739
14.1127 71.4659
14.1577 74.662
14.2027 73.205
14.2476 68.7876
14.2926 67.3734
14.3376 67.4692
14.3825 66.9137
14.4275 66.3934
14.4725 66.3754
14.5175 66.4403
14.5624 66.5153
14.6074 66.7786
14.6524 67.2347
14.6974 67.6072
14.7424 68.8487
14.7874 74.5719
14.8324 89.1165
14.8774 110.956
14.9224 149.177
14.9674 209.354
15.0124 227.27
15.0574 158.429
15.1024 93.7405
15.1474 71.1609
15.1924 67.8791
15.2374 66.642
15.2824 65.9416
15.3274 65.0095
15.3725 64.6706
15.4175 64.228
15.4625 63.6253
15.5076 63.5448
15.5526 63.399
15.5976 63.601
15.6426 63.7522
15.6877 68.7312
15.7327 80.1017
15.7778 95.7311
15.8228 123.881
15.8679 169.413
15.9129 203.053
15.958 169.156
16.003 104.565
16.0481 69.4577
16.0931 62.5161
16.1382 59.9352
16.1833 58.2098
16.2283 57.108
16.2734 56.223
16.3185 55.6224
16.3636 55.453
16.4086 54.6546
16.4537 54.0793
16.4988 53.4725
16.5439 53.5243
16.589 53.1038
16.6341 52.8815
16.6792 52.6111
16.7243 52.7402
16.7694 52.5544
16.8145 52.6165
16.8596 53.0326
16.9047 53.4705
16.9498 54.0729
16.9949 53.9518
17.04 53.8646
17.0851 54.6997
17.1302 57.0656
17.1754 60.4374
17.2205 65.0341
17.2656 72.5911
17.3108 82.0723
17.3559 82.6993
17.401 72.1049
17.4462 61.6106
17.4913 57.7083
17.5365 57.2838
17.5815 57.5545
17.6268 57.8082
17.6718 58.2803
17.7171 58.9383
17.7622 60.1466
17.8074 60.5745
17.8525 61.9356
17.8977 66.8335
17.9428 73.6782
17.9881 82.5802
18.0331 97.9673
18.0784 121.353
18.1237 142.439
18.1688 137.848
18.214 109.171
18.2591 88.3374
18.3044 89.215
18.3495 99.5625
18.3948 107.366
18.4399 98.5938
18.4852 78.853
18.5303 65.6239
18.5756 61.3063
18.6207 60.1767
18.666 58.8437
18.7112 58.0538
18.7565 57.3429
18.8016 57.0367
18.8469 56.6422
18.892 56.1595
18.9374 55.7201
18.9825 55.4782
19.0278 55.0174
19.073 55.1573
19.1183 55.2569
19.1635 56.37
19.2088 58.0461
19.254 60.7466
19.2993 65.5935
19.3447 71.9283
19.3898 75.8857
19.4352 72.1501
19.4804 63.3957
19.5257 56.0388
19.5709 53.0122
19.6163 52.623
19.6615 52.2979
19.7068 52.0956
19.752 51.884
19.7974 51.8509
19.8426 52.9616
19.888 53.8513
19.9332 55.3481
19.9786 57.7534
20.0238 60.9265
20.0692 66.6552
20.1144 70.4441
20.1598 69.163
20.205 64.3416
20.2504 61.9907
20.2957 63.6253
20.3411 65.4735
20.3863 63.9774
20.4318 58.2778
20.477 52.9277
20.5224 50.1045
20.5677 49.3297
20.6131 48.8139
20.6586 48.4373
20.7038 48.1674
20.7493 48.061
20.7945 48.0305
20.84 47.8297
20.8853 47.6219
20.9307 47.2842
20.976 47.5944
21.0215 47.5178
21.0668 47.8115
21.1122 48.2321
21.1575 48.9653
21.203 49.7045
21.2483 50.5515
21.2938 50.5744
21.3391 49.157
21.3846 47.981
21.4299 47.421
21.4754 47.3214
21.5207 47.4023
21.5662 47.7226
21.6116 47.929
21.6571 48.9155
21.7024 50.3008
21.7479 51.8837
21.7933 54.4876
21.8388 58.0089
21.8843 62.9045
21.9297 65.3812
21.9752 64.0981
22.0206 60.0495
22.0661 56.3656
22.1115 56.048
22.157 56.0078
22.2024 54.4242
22.248 51.3882
22.2933 49.2447
22.3389 48.1566
22.3843 47.7501
22.4299 47.5458
22.4753 47.4483
22.5208 47.6802
22.5662 47.4471
22.6118 47.6721
22.6572 47.8402
22.7028 48.4116
22.7483 49.1914
22.7939 50.0063
22.8393 51.2629
22.8849 53.4536
22.9303 55.8271
22.9759 57.661
23.0214 57.3
23.067 54.8701
23.1126 51.0392
23.1581 48.7193
23.2037 47.8655
23.2492 47.8519
23.2948 48.2049
23.3403 48.4346
23.3859 49.5792
23.4314 50.6309
23.477 52.1589
23.5225 54.7861
23.5682 57.3397
23.6137 58.5211
23.6593 56.4985
23.7048 52.212
23.7505 48.4734
23.796 46.0909
23.8417 45.1071
23.8872 44.7039
23.9329 44.3518
23.9784 43.9104
24.0241 43.836
24.0697 43.7807
24.1154 43.273
24.1609 42.9974
24.2066 42.818
24.2522 42.7995
24.2979 42.591
24.3434 42.3491
24.3892 42.0986
24.4349 42.203
24.4805 41.955
24.5262 42.2853
24.5718 42.1599
24.6175 42.1362
24.6631 42.038
24.7089 41.6143
24.7545 41.5255
24.8002 41.2411
24.8458 41.4161
24.8916 41.2777
24.9372 41.4497
24.983 41.6903
25.0286 42.1101
25.0744 42.7218
25.12 43.3441
25.1658 44.1479
25.2114 44.3452
25.2572 44.382
25.3029 44.5989
25.3487 44.7177
25.3943 44.5289
25.4402 43.292
25.4858 42.1492
25.5316 40.9437
25.5773 40.277
25.6231 40.1601
25.669 39.7218
25.7147 39.8241
25.7605 39.5972
25.8062 39.942
25.8521 39.9559
25.8977 39.7781
25.9436 40.1662
25.9893 40.2933
26.0352 40.8985
26.0809 41.0121
26.1268 41.4195
26.1725 41.0262
26.2184 40.3809
26.2641 39.7644
26.31 39.4334
26.3557 39.4883
26.4017 39.4677
26.4474 39.8779
26.4933 40.2324
26.5391 40.5168
26.585 41.3298
26.6308 41.7935
26.6767 42.0795
26.7225 41.9709
26.7684 41.2323
26.8142 40.4979
26.8601 40.1172
26.9059 39.7439
26.9519 39.2074
26.9979 38.8407
27.0437 38.2997
27.0896 38.1173
27.1354 38.2204
27.1814 38.0447
27.2272 37.97
27.2732 38.0199
27.3191 37.716
27.3651 37.8761
27.4109 37.7934
27.4569 38.0084
27.5027 38.0647
27.5488 38.0561
27.5946 38.0341
27.6407 37.6774
27.6865 37.6144
27.7326 37.248
27.7784 37.2992
27.8245 37.2699
27.8703 37.5486
27.9164 37.8931
27.9623 38.1273
28.0084 38.3374
28.0543 38.8975
28.1003 39.0326
28.1462 38.7164
28.1923 38.4227
28.2384 37.6547
28.2843 37.3739
28.3304 36.9192
28.3764 36.3527
28.4225 35.8862
28.4684 35.7653
28.5145 35.4367
28.5605 35.1923
28.6066 35.0863
28.6526 35.1361
28.6987 35.1099
28.7447 34.9654
28.7908 35.0385
28.8368 34.9101
28.8829 34.8103
28.9289 34.8348
28.9751 34.6492
29.0211 34.4948
29.0673 34.1567
29.1133 34.1186
29.1595 33.8817
29.2055 33.7849
29.2517 33.7965
29.2977 33.7422
29.3439 33.8066
29.3899 33.8949
29.4361 33.7157
29.4824 33.6678
29.5284 33.3036
29.5746 32.9069
29.6207 32.6111
29.6669 32.5665
29.713 32.5458
29.7593 32.3558
29.8053 32.3168
29.8516 32.2434
29.8977 32.2726
29.9439 32.0739
29.99 31.9646
30.0363 31.8453
30.0824 31.9818
30.1287 31.9497
30.1748 31.9708
30.2211 31.8813
30.2673 31.8861
30.3136 31.9332
30.3597 31.72
30.406 31.7468
30.4522 31.6546
30.4985 31.6486
30.5447 31.7193
30.591 31.6998
30.6372 31.8178
30.6835 31.8269
30.7297 31.9429
30.7761 31.7769
30.8224 31.8197
30.8686 31.5104
30.915 31.3257
30.9612 31.1891
31.0076 30.9371
31.0538 30.7286
31.1002 30.7274
31.1464 30.4901
31.1928 30.567
31.2391 30.6379
31.2855 30.4389
31.3317 30.4554
31.3781 30.527
31.4244 30.5574
31.4708 30.4816
31.5171 30.4959
31.5636 30.5135
31.6098 30.2037
31.6563 29.9766
31.7026 29.9182
31.7491 29.8099
31.7953 29.8627
31.8418 29.848
31.8881 29.7975
31.9346 29.857
31.9809 29.7567
32.0275 29.6461
32.074 29.487
32.1203 29.329
32.1668 29.1958
32.2132 29.0757
32.2597 28.8995
32.306 28.7584
32.3526 28.5698
32.399 28.6026
32.4455 28.3298
32.4919 28.3949
32.5385 28.2381
32.5848 28.1032
32.6314 28.143
32.6778 28.0354
32.7244 27.8359
32.7708 27.7316
32.8174 27.8009
32.8638 27.6613
32.9104 27.6572
32.9569 27.6353
33.0035 27.5714
33.0499 27.5059
33.0966 27.4151
33.143 27.4115
33.1897 27.4664
33.2361 27.2955
33.2828 27.2867
33.3293 27.1035
33.3759 27.0808
33.4226 26.9161
33.4691 26.7258
33.5158 26.7233
33.5623 26.5932
33.609 26.4196
33.6555 26.3093
33.7022 26.1661
33.7487 26.1918
33.7954 26.164
33.842 25.9697
33.8887 26.0372
33.9353 25.9152
33.982 25.7671
34.0286 25.697
34.0753 25.5981
34.1219 25.5249
34.1687 25.4338
34.2152 25.4681
34.262 25.3674
34.3086 25.2186
34.3554 25.2416
34.402 25.0668
34.4488 24.9488
34.4954 24.9813
34.5422 24.8072
34.5889 24.6606
34.6357 24.6723
34.6825 24.6024
34.7292 24.5479
34.776 24.2643
34.8227 24.3328
34.8695 24.2794
34.9162 24.2823
34.9631 24.1464
35.0098 24.1888
35.0566 24.0791
35.1033 23.9448
35.1502 23.9915
35.1969 23.9573
35.2438 23.8685
35.2906 23.8084
35.3375 23.7688
35.3842 23.7574
35.4311 23.71
35.4779 23.6291
35.5248 23.6813
35.5716 23.5002
35.6185 23.409
35.6653 23.3683
35.7123 23.3345
35.759 23.2172
35.806 23.067
35.8528 22.951
35.8998 22.9248
35.9468 22.8588
35.9936 22.8821
36.0406 22.7311
36.0874 22.6994
36.1345 22.6397
36.1813 22.5873
36.2283 22.4629
36.2752 22.4042
36.3222 22.4208
36.3691 22.2771
36.4161 22.15
36.463 22.1885
36.5101 22.1139
36.557 22.0978
36.6041 21.9177
36.651 21.91
36.6981 21.8778
36.745 21.7576
36.7921 21.621
36.839 21.5516
36.8861 21.5541
36.9331 21.4727
36.9802 21.3653
37.0272 21.3633
37.0743 21.1884
37.1213 21.2305
37.1684 21.1235
37.2154 21.1567
37.2626 20.9551
37.3098 20.9178
37.3568 20.8185
37.404 20.8108
37.451 20.6974
37.4982 20.6748
37.5452 20.5852
37.5924 20.5168
37.6395 20.556
37.6867 20.4669
37.7337 20.2791
37.781 20.2419
37.8281 20.1719
37.8753 20.1322
37.9224 20.0461
37.9697 20.0233
38.0168 19.9408
38.064 19.8251
38.1111 19.7664
38.1584 19.7612
38.2056 19.7082
38.2529 19.658
38.3 19.6086
38.3473 19.5646
38.3945 19.3931
38.4418 19.3939
38.489 19.3877
38.5363 19.2482
38.5837 19.2498
38.6309 19.1998
38.6782 19.0636
38.7254 18.9729
38.7728 18.9829
38.82 18.9214
38.8674 18.8868
38.9146 18.7368
38.9621 18.6863
39.0093 18.6947
39.0567 18.5482
39.104 18.5076
39.1514 18.4258
39.1987 18.4161
39.2461 18.3872
39.2934 18.2281
39.3409 18.2498
39.3882 18.118
39.4356 18.1044
39.483 18.0541
39.5304 18.0538
39.5778 17.9775
39.6253 17.887
39.6726 17.8121
39.7201 17.7411
39.7675 17.7658
39.815 17.7159
39.8624 17.616
39.9099 17.5805
39.9575 17.4729
40.0049 17.4619
40.0525 17.3671
40.0999 17.3365
40.1474 17.2911
40.1949 17.1596
40.2425 17.1666
40.2899 17.086
40.3375 17.052
40.385 17.0241
40.4326 16.9725
40.48 16.9135
40.5277 16.8806
40.5752 16.8311
40.6228 16.7086
40.6703 16.7154
40.718 16.6633
40.7655 16.5658
40.8132 16.5137
40.8607 16.5284
40.9084 16.4719
40.9559 16.393
41.0036 16.3097
41.0512 16.3147
41.0989 16.2441
41.1465 16.1288
41.1942 16.1351
41.242 16.0659
41.2896 15.9936
41.3373 15.9705
41.3849 15.8653
41.4327 15.9006
41.4803 15.7658
41.5281 15.7633
41.5758 15.614
41.6236 15.6076
41.6712 15.5849
41.7191 15.5257
41.7667 15.474
41.8146 15.4372
41.8622 15.3935
41.9101 15.3278
41.9578 15.2516
42.0057 15.2185
42.0534 15.1792
42.1013 15.1217
42.149 15.0318
42.1969 15.0149
42.2446 14.9183
42.2925 14.9543
42.3403 14.852
42.3882 14.8143
42.436 14.7599
42.4839 14.7513
42.5319 14.6403
42.5797 14.624
42.6277 14.5309
42.6755 14.5498
42.7235 14.4486
42.7713 14.4299
42.8193 14.3534
42.8671 14.3179
42.9152 14.3031
42.963 14.2615
43.0111 14.1434
43.0589 14.1447
43.107 14.0827
43.1549 14.042
43.2029 13.9983
43.2508 13.9594
43.2989 13.9052
43.3468 13.843
43.3949 13.8214
43.4429 13.7541
43.491 13.7005
43.5389 13.6368
43.5871 13.6434
43.635 13.5431
43.6832 13.4781
43.7312 13.4395
43.7793 13.3463
43.8273 13.4117
43.8755 13.3253
43.9237 13.2336
43.9717 13.2662
44.0199 13.2289
44.068 13.1631
44.1162 13.0945
44.1642 13.1117
44.2125 13.0013
44.2606 12.9593
44.3088 12.9299
44.3569 12.8657
44.4052 12.8193
44.4533 12.7511
44.5016 12.714
44.5497 12.6657
44.598 12.6914
44.6461 12.5735
44.6945 12.5707
44.7426 12.4756
44.791 12.4293
44.8391 12.4359
44.8875 12.3764
44.9357 12.3483
44.984 12.2783
45.0322 12.2372
45.0806 12.1909
45.1288 12.1379
45.1773 12.1425
45.2257 12.0661
45.2739 12.0479
45.3224 11.9898
45.3706 11.976
45.4191 11.9187
45.4673 11.8584
45.5158 11.8704
45.5641 11.7715
45.6126 11.7773
45.6609 11.6703
45.7094 11.5952
45.7577 11.6014
45.8063 11.5408
45.8546 11.5164
45.9031 11.4703
45.9515 11.4658
46.0001 11.4119
46.0484 11.3688
46.097 11.3408
46.1454 11.2706
46.194 11.2572
46.2424 11.1715
46.291 11.1851
46.3395 11.1455
46.3881 11.07
46.4365 11.0911
46.4852 11.0179
46.5337 10.9281
46.5823 10.921
46.631 10.8566
46.6795 10.8653
46.7282 10.8005
46.7767 10.7478
46.8254 10.7434
46.8739 10.6879
46.9226 10.6029
46.9712 10.5761
47.0199 10.5603
47.0685 10.5549
47.1173 10.4755
47.1658 10.4304
47.2146 10.4073
47.2632 10.3814
47.312 10.3313
47.3606 10.3088
47.4095 10.2333
47.4581 10.2683
47.5069 10.1855
47.5556 10.1111
47.6044 10.0953
47.6531 10.0501
47.702 9.98615
47.7507 9.98782
47.7996 9.93815
47.8483 9.91171
47.8972 9.88884
47.9461 9.84888
47.9948 9.81268
48.0438 9.75953
48.0925 9.73086
48.1415 9.69973
48.1902 9.65563
48.2392 9.66296
48.288 9.59327
48.337 9.5846
48.3858 9.54988
48.4348 9.49606
48.4837 9.48111
48.5327 9.42516
48.5815 9.36422
48.6306 9.3617
48.6795 9.34342
48.7285 9.28159
48.7774 9.26705
48.8265 9.21995
48.8754 9.16369
48.9245 9.16638
48.9734 9.11223
49.0226 9.11564
49.0715 9.05422
49.1206 9.02748
49.1696 8.97155
49.2188 8.94974
49.2679 8.88236
49.3169 8.87856
49.3661 8.85533
49.4151 8.80828
49.4643 8.77393
49.5134 8.73036
49.5626 8.67567
49.6117 8.68747
49.6609 8.66416
49.71 8.61072
49.7592 8.56955
49.8083 8.50261
49.8576 8.53597
49.9067 8.44641
49.956 8.42071
50.0052 8.42235
50.0545 8.36595
50.1036 8.32078
50.153 8.32235
50.2022 8.25019
50.2515 8.24742
50.3007 8.19673
50.3501 8.17265
50.3993 8.15309
50.4487 8.11735
50.498 8.0865
50.5474 8.04036
50.5966 8.01633
50.6461 8.029
50.6955 7.93145
50.7448 7.95199
50.7943 7.91283
50.8436 7.87814
50.8931 7.87561
50.9424 7.81865
50.9919 7.79239
51.0413 7.75855
51.0908 7.68347
51.1402 7.68526
51.1897 7.66174
51.2391 7.61034
51.2887 7.58275
51.3381 7.5549
51.3877 7.55106
51.4371 7.49913
51.4867 7.48769
51.5362 7.4505
51.5858 7.46165
51.6353 7.37715
51.6849 7.3692
51.7344 7.32614
51.7841 7.3252
51.8336 7.27313
51.8833 7.22212
51.9328 7.19457
51.9826 7.16999
52.0323 7.14176
52.0818 7.12137
52.1316 7.08281
52.1812 7.09154
52.231 7.0226
52.2806 7.00413
52.3304 6.97966
52.38 6.93451
52.4298 6.93199
52.4794 6.87461
52.5293 6.86079
52.5789 6.82509
52.6288 6.79379
52.6785 6.75327
52.7284 6.73702
52.7781 6.6893
52.828 6.70762
52.8777 6.65685
52.9276 6.63655
52.9774 6.63351
53.0273 6.57079
53.0771 6.53968
53.1271 6.50934
53.1769 6.51315
53.2269 6.45478
53.2767 6.44101
53.3267 6.42379
53.3765 6.3645
53.4266 6.35807
53.4766 6.33285
53.5265 6.30837
53.5765 6.3075
53.6264 6.23924
53.6765 6.23452
53.7264 6.1972
53.7765 6.17287
53.8265 6.14429
53.8766 6.10091
53.9266 6.10661
53.9767 6.0603
54.0267 6.0131
54.0769 6.01726
54.1269 5.9164
54.1771 5.91313
54.2271 5.91224
54.2773 5.89896
54.3274 5.86981
54.3776 5.83331
54.4277 5.82137
54.478 5.78748
54.528 5.723
54.5783 5.64497
54.6285 5.65944
54.6788 5.63464
54.7289 5.54069
54.7792 5.50052
54.8296 5.45111
54.8798 5.47328
54.9301 5.41712
54.9803 5.39832
55.0307 5.36196
55.0809 5.35156
55.1314 5.28057
55.1816 5.19645
55.232 5.1409
55.2823 5.09729
55.3328 5.06003
55.383 5.08949
55.4335 4.95779
55.4838 4.91744
55.5344 4.96552
55.5847 4.88381
55.6352 4.86473
55.6856 4.81373
55.7361 4.77447