File: XRD/Ni3Fe_FD0057.xy
TT I
1.27165 32.8003
1.31627 30.5069
1.36089 28.6987
1.40551 26.064
1.45013 26.3666
1.49476 25.9639
1.53938 24.8782
1.584 23.9608
1.62863 22.8372
1.67325 22.3974
1.71787 22.187
1.7625 21.5326
1.80712 20.7294
1.85174 20.6374
1.89636 20.0194
1.94099 20.7098
1.98562 21.0045
2.03025 19.9923
2.07487 20.3667
2.11949 20.2513
2.16411 20.0982
2.20874 20.5845
2.25338 20.0731
2.298 20.9014
2.34263 20.6276
2.38725 20.4985
2.43188 21.2769
2.4765 21.8962
2.52115 21.7268
2.56577 22.4358
2.6104 23.2933
2.65503 24.6723
2.69965 25.8051
2.7443 27.2575
2.78893 29.648
2.83356 32.4694
2.87818 36.1383
2.92281 41.1005
2.96744 46.8646
3.01209 55.6558
3.05672 64.0921
3.10135 73.2557
3.14599 76.3226
3.19062 73.8775
3.23527 65.8685
3.2799 55.283
3.32454 44.8874
3.36917 38.4364
3.4138 33.6966
3.45844 31.4523
3.50309 29.5792
3.54773 27.5148
3.59237 26.4301
3.637 26.1563
3.68164 25.7626
3.7263 25.8905
3.77094 25.886
3.81558 25.6665
3.86022 26.3955
3.90486 26.9198
3.9495 27.1342
3.99416 27.4688
4.0388 27.8349
4.08344 28.939
4.12809 29.4288
4.17273 30.7818
4.21738 32.2207
4.26204 34.3268
4.30669 37.3049
4.35133 41.6366
4.39598 40.1654
4.44063 38.1172
4.4853 37.657
4.52995 38.6762
4.5746 40.1054
4.61925 41.7249
4.6639 43.2284
4.70855 45.9462
4.75322 48.2784
4.79788 51.5724
4.84253 55.9975
4.88719 61.1953
4.93184 69.1416
4.97652 83.8432
5.02118 105.125
5.06583 122.945
5.11049 143.259
5.15515 191.068
5.19981 324.897
5.24449 757.383
5.28916 1728.88
5.33382 4175.13
5.37848 2964.8
5.42315 745.033
5.46783 292.815
5.5125 190.779
5.55716 149.177
5.60183 125.85
5.6465 115.69
5.69117 110.705
5.73586 104.113
5.78053 101.095
5.8252 102.496
5.86988 108.407
5.91455 120.874
5.95924 144.663
6.00392 204.074
6.0486 346.711
6.09328 592.559
6.13795 1080.65
6.18263 1066.48
6.22733 459.466
6.27201 208.564
6.3167 126.179
6.36138 90.4419
6.40606 73.1656
6.45075 64.3601
6.49545 57.5728
6.54014 53.051
6.58483 49.8315
6.62952 48.0901
6.67421 45.7822
6.71892 44.2653
6.76361 43.4053
6.8083 42.1517
6.853 41.5694
6.89769 41.6693
6.94239 41.5284
6.98711 41.6047
7.03181 42.9008
7.07651 45.4301
7.12121 46.1063
7.16591 43.273
7.21063 41.175
7.25533 40.0088
7.30004 39.6231
7.34475 39.852
7.38945 39.8507
7.43416 40.3336
7.47889 43.1796
7.5236 62.7467
7.56831 177.085
7.61303 163.54
7.65774 61.3605
7.70247 44.0995
7.74719 40.7153
7.79191 39.73
7.83663 38.9326
7.88135 39.2703
7.92607 39.5339
7.97081 40.0543
8.01553 40.5086
8.06026 41.5874
8.10498 42.2885
8.14971 43.5898
8.19446 44.8606
8.23919 47.2504
8.28392 50.0011
8.32865 53.3729
8.37339 56.5371
8.41812 60.3478
8.46288 68.5205
8.50761 86.4341
8.55235 130.228
8.59709 191.612
8.64183 288.653
8.68658 606.076
8.73134 711.105
8.77609 333.597
8.82083 156.313
8.86558 101.897
8.91033 83.5454
8.9551 74.7249
8.99985 69.8505
9.04461 67.2167
9.08936 65.8585
9.13412 65.8054
9.17888 70.422
9.22365 97.2777
9.26841 272.846
9.31318 312.826
9.35794 113.289
9.4027 70.1704
9.44749 62.4531
9.49226 59.8277
9.53703 57.9098
9.5818 58.163
9.62657 57.9214
9.67134 58.5469
9.71614 59.3971
9.76091 61.1817
9.80569 62.1673
9.85047 64.7135
9.89525 69.0784
9.94005 75.5119
9.98484 89.6625
10.0296 125.257
10.0744 170.541
10.1192 216.675
10.164 382.037
10.2088 698.84
10.2536 572.395
10.2984 248.63
10.3432 137.203
10.388 97.8981
10.4328 84.766
10.4776 86.2457
10.5224 93.5749
10.5672 100.537
10.612 137.572
10.6568 233.912
10.7017 260.954
10.7465 185.313
10.7913 94.3792
10.8361 64.0003
10.8809 55.9995
10.9257 52.1936
10.9706 50.4014
11.0154 48.3183
11.0602 46.7398
11.105 45.6151
11.1499 44.5619
11.1947 44.4352
11.2395 44.0343
11.2844 43.4042
11.3292 42.1379
11.374 41.7804
11.4189 41.3746
11.4637 40.4975
11.5086 40.2435
11.5534 40.1828
11.5983 39.7526
11.6431 39.8745
11.688 39.8114
11.7328 39.808
11.7777 40.1851
11.8225 40.525
11.8674 41.6943
11.9122 46.0767
11.9571 71.5733
12.002 116.805
12.0468 86.8775
12.0917 53.6208
12.1366 49.6276
12.1814 51.1406
12.2263 55.3955
12.2712 68.1311
12.3161 86.0563
12.3609 82.132
12.4058 61.92
12.4507 49.9735
12.4956 45.2179
12.5405 42.6276
12.5853 41.4977
12.6302 40.661
12.6751 40.6641
12.72 40.6904
12.7649 40.878
12.8098 41.0058
12.8547 41.662
12.8996 42.1802
12.9445 43.1225
12.9894 44.0496
13.0343 45.4772
13.0792 49.2306
13.1242 59.8237
13.1691 68.851
13.214 66.8488
13.2589 69.6885
13.3038 74.2007
13.3487 90.9544
13.3937 136.541
13.4386 188.922
13.4835 161.883
13.5285 106.636
13.5734 86.2622
13.6183 79.813
13.6633 79.9863
13.7082 98.0356
13.7531 144.472
13.7981 178.964
13.843 129.468
13.888 80.4842
13.9329 61.4075
13.9779 54.6552
14.0228 51.1041
14.0678 49.6804
14.1127 51.4036
14.1577 68.2622
14.2027 102.823
14.2476 89.75
14.2926 55.7893
14.3376 46.9721
14.3825 44.3917
14.4275 43.2795
14.4725 42.6363
14.5175 42.6355
14.5624 42.209
14.6074 41.9771
14.6524 42.2196
14.6974 42.2999
14.7424 42.8196
14.7874 43.6935
14.8324 46.3368
14.8774 49.7489
14.9224 51.8038
14.9674 54.1759
15.0124 61.5509
15.0574 80.6478
15.1024 105.79
15.1474 101.254
15.1924 76.1806
15.2374 57.98
15.2824 48.8719
15.3274 44.921
15.3725 43.2415
15.4175 42.6041
15.4625 41.8744
15.5076 41.6206
15.5526 41.6039
15.5976 41.3376
15.6426 41.3674
15.6877 42.0138
15.7327 43.8341
15.7778 46.426
15.8228 48.6407
15.8679 50.1297
15.9129 54.2594
15.958 66.9577
16.003 88.6456
16.0481 101.926
16.0931 91.7703
16.1382 75.3566
16.1833 55.9406
16.2283 44.4017
16.2734 40.6131
16.3185 38.4447
16.3636 37.268
16.4086 36.4721
16.4537 35.9312
16.4988 35.3345
16.5439 35.286
16.589 34.9146
16.6341 34.7312
16.6792 34.3037
16.7243 34.4703
16.7694 34.3096
16.8145 34.3622
16.8596 34.4418
16.9047 35.0191
16.9498 38.5402
16.9949 43.0674
17.04 41.4978
17.0851 36.6704
17.1302 35.6259
17.1754 35.7654
17.2205 36.2855
17.2656 36.3497
17.3108 37.1082
17.3559 38.3687
17.401 41.6706
17.4462 46.7655
17.4913 47.4794
17.5365 42.8605
17.5815 39.0545
17.6268 37.6268
17.6718 37.212
17.7171 37.2262
17.7622 38.7662
17.8074 42.9321
17.8525 44.9335
17.8977 42.3954
17.9428 41.5302
17.9881 42.3689
18.0331 43.5722
18.0784 44.0853
18.1237 46.484
18.1688 52.1418
18.214 64.3382
18.2591 79.0734
18.3044 77.4493
18.3495 62.5945
18.3948 53.0914
18.4399 51.6675
18.4852 56.8041
18.5303 62.7786
18.5756 60.1302
18.6207 53.405
18.666 47.5089
18.7112 42.1382
18.7565 39.2827
18.8016 38.251
18.8469 37.2546
18.892 37.0673
18.9374 36.6052
18.9825 36.0537
19.0278 35.9358
19.073 35.9258
19.1183 35.8523
19.1635 35.6768
19.2088 36.1261
19.254 36.8808
19.2993 37.6683
19.3447 41.5738
19.3898 47.5328
19.4352 48.2236
19.4804 44.9087
19.5257 44.5651
19.5709 43.6963
19.6163 40.2441
19.6615 37.1262
19.7068 35.2526
19.752 34.4208
19.7974 33.9331
19.8426 33.7035
19.888 33.6537
19.9332 33.7826
19.9786 33.9866
20.0238 33.7244
20.0692 34.1724
20.1144 34.5555
20.1598 36.3552
20.205 38.4552
20.2504 41.2881
20.2957 41.8533
20.3411 39.3237
20.3863 37.5393
20.4318 37.7667
20.477 39.3985
20.5224 40.0882
20.5677 37.6718
20.6131 34.7259
20.6586 33.2786
20.7038 32.5715
20.7493 32.2887
20.7945 33.4642
20.84 35.1163
20.8853 35.1482
20.9307 32.7147
20.976 31.4532
21.0215 30.6025
21.0668 30.7187
21.1122 30.7283
21.1575 30.4909
21.203 30.2903
21.2483 30.4748
21.2938 30.588
21.3391 30.9115
21.3846 31.6091
21.4299 32.2207
21.4754 32.2258
21.5207 31.8767
21.5662 31.601
21.6116 30.9527
21.6571 30.6657
21.7024 30.888
21.7479 31.1386
21.7933 31.3667
21.8388 31.737
21.8843 32.1675
21.9297 32.6483
21.9752 33.8593
22.0206 36.1212
22.0661 38.7441
22.1115 40.3684
22.157 39.4397
22.2024 38.5556
22.248 37.6718
22.2933 36.7904
22.3389 35.6775
22.3843 34.0036
22.4299 32.4348
22.4753 31.7445
22.5208 31.1749
22.5662 30.9815
22.6118 30.8991
22.6572 30.6962
22.7028 30.8595
22.7483 30.9079
22.7939 31.4012
22.8393 32.1402
22.8849 32.713
22.9303 32.2835
22.9759 31.8562
23.0214 32.0746
23.067 32.9602
23.1126 34.8242
23.1581 36.6446
23.2037 36.5012
23.2492 34.3588
23.2948 32.5872
23.3403 31.811
23.3859 31.8009
23.4314 32.4216
23.477 33.3796
23.5225 33.7755
23.5682 33.0125
23.6137 32.3393
23.6593 32.6445
23.7048 33.8549
23.7505 35.929
23.796 36.8281
23.8417 35.8411
23.8872 32.9909
23.9329 31.2095
23.9784 30.2418
24.0241 29.6933
24.0697 29.5336
24.1154 29.5102
24.1609 29.2617
24.2066 28.8608
24.2522 28.3648
24.2979 28.1466
24.3434 27.9474
24.3892 27.7333
24.4349 27.7074
24.4805 27.5549
24.5262 27.583
24.5718 27.5231
24.6175 27.5917
24.6631 27.8857
24.7089 28.3498
24.7545 28.4532
24.8002 28.049
24.8458 27.546
24.8916 27.1683
24.9372 27.0886
24.983 27.0724
25.0286 26.9879
25.0744 26.9785
25.12 26.8726
25.1658 27.0334
25.2114 27.2284
25.2572 27.4768
25.3029 28.0584
25.3487 28.6012
25.3943 28.4734
25.4402 28.2078
25.4858 28.3584
25.5316 28.8428
25.5773 28.9568
25.6231 28.4894
25.669 27.3552
25.7147 26.8977
25.7605 26.5757
25.8062 26.4837
25.8521 26.7616
25.8977 26.827
25.9436 26.7012
25.9893 26.1857
26.0352 26.1147
26.0809 25.872
26.1268 26.0387
26.1725 26.0272
26.2184 26.3054
26.2641 26.5742
26.31 26.9069
26.3557 26.8334
26.4017 26.5054
26.4474 26.2107
26.4933 26.0773
26.5391 25.9034
26.585 25.8535
26.6308 25.9471
26.6767 25.9079
26.7225 26.2358
26.7684 26.4758
26.8142 26.9306
26.8601 27.4494
26.9059 27.5101
26.9519 27.3918
26.9979 27.4759
27.0437 27.2268
27.0896 26.6678
27.1354 26.1381
27.1814 25.5755
27.2272 25.5254
27.2732 25.2858
27.3191 25.0313
27.3651 25.0629
27.4109 24.9825
27.4569 24.974
27.5027 24.962
27.5488 24.9696
27.5946 24.9718
27.6407 24.935
27.6865 24.8873
27.7326 24.9201
27.7784 24.9668
27.8245 24.8811
27.8703 24.7412
27.9164 24.7738
27.9623 24.455
28.0084 24.6339
28.0543 25.1183
28.1003 25.16
28.1462 25.2228
28.1923 25.2753
28.2384 25.2162
28.2843 25.6371
28.3304 25.3735
28.3764 25.226
28.4225 24.9922
28.4684 24.8103
28.5145 24.5605
28.5605 24.1777
28.6066 23.9887
28.6526 23.7591
28.6987 23.5669
28.7447 23.3417
28.7908 23.2167
28.8368 23.0817
28.8829 23.0829
28.9289 22.8708
28.9751 22.9194
29.0211 22.7258
29.0673 22.8627
29.1133 22.9861
29.1595 22.9849
29.2055 22.7461
29.2517 22.6417
29.2977 22.4166
29.3439 22.2368
29.3899 22.1557
29.4361 22.074
29.4824 22.1005
29.5284 22.1618
29.5746 22.0886
29.6207 22.0939
29.6669 22.0812
29.713 21.9253
29.7593 21.7291
29.8053 21.5847
29.8516 21.4978
29.8977 21.605
29.9439 21.3576
29.99 21.3424
30.0363 21.2463
30.0824 21.4948
30.1287 21.4405
30.1748 21.4723
30.2211 21.252
30.2673 21.0952
30.3136 21.0741
30.3597 20.9977
30.406 21.0892
30.4522 21.0869
30.4985 21.0373
30.5447 21.0719
30.591 20.9154
30.6372 20.8891
30.6835 20.9364
30.7297 20.8608
30.7761 20.9065
30.8224 20.9646
30.8686 20.9695
30.915 21.1111
30.9612 21.1676
31.0076 21.1902
31.0538 21.0517
31.1002 21.0402
31.1464 20.8382
31.1928 20.6978
31.2391 20.6917
31.2855 20.4241
31.3317 20.3214
31.3781 20.3956
31.4244 20.2995
31.4708 20.1785
31.5171 20.2859
31.5636 20.3068
31.6098 20.223
31.6563 20.3211
31.7026 20.3533
31.7491 20.2374
31.7953 20.1841
31.8418 20.1759
31.8881 20.039
31.9346 19.9155
31.9809 19.7994
32.0275 19.8244
32.074 19.8209
32.1203 19.7903
32.1668 19.8791
32.2132 19.8387
32.2597 19.7652
32.306 19.6513
32.3526 19.5228
32.399 19.5214
32.4455 19.2789
32.4919 19.2175
32.5385 19.2202
32.5848 19.1037
32.6314 18.9935
32.6778 18.916
32.7244 18.9011
32.7708 18.7741
32.8174 18.7375
32.8638 18.6645
32.9104 18.7267
32.9569 18.7405
33.0035 18.6533
33.0499 18.5485
33.0966 18.5345
33.143 18.4592
33.1897 18.2769
33.2361 18.211
33.2828 18.2954
33.3293 18.2001
33.3759 18.2287
33.4226 18.1862
33.4691 18.2744
33.5158 18.2496
33.5623 18.1323
33.609 18.0216
33.6555 17.9771
33.7022 17.8438
33.7487 17.7212
33.7954 17.6295
33.842 17.6214
33.8887 17.5438
33.9353 17.5345
33.982 17.4794
34.0286 17.4449
34.0753 17.3991
34.1219 17.4113
34.1687 17.3304
34.2152 17.2796
34.262 17.1282
34.3086 17.0242
34.3554 17.11
34.402 16.9671
34.4488 16.9279
34.4954 16.8873
34.5422 16.8958
34.5889 16.7843
34.6357 16.6954
34.6825 16.6877
34.7292 16.6107
34.776 16.5422
34.8227 16.5341
34.8695 16.4579
34.9162 16.4467
34.9631 16.4253
35.0098 16.3537
35.0566 16.2024
35.1033 16.2425
35.1502 16.2335
35.1969 16.179
35.2438 16.1523
35.2906 16.1568
35.3375 16.0342
35.3842 16.0288
35.4311 15.9922
35.4779 16.015
35.5248 15.9475
35.5716 15.8878
35.6185 15.9084
35.6653 15.9366
35.7123 15.924
35.759 15.925
35.806 15.7873
35.8528 15.7115
35.8998 15.6895
35.9468 15.5711
35.9936 15.6004
36.0406 15.5503
36.0874 15.4762
36.1345 15.3516
36.1813 15.3491
36.2283 15.2466
36.2752 15.2634
36.3222 15.2779
36.3691 15.2334
36.4161 15.0588
36.463 15.1326
36.5101 15.0862
36.557 15.076
36.6041 14.908
36.651 14.922
36.6981 14.9156
36.745 14.8982
36.7921 14.8588
36.839 14.7497
36.8861 14.7439
36.9331 14.7548
36.9802 14.6242
37.0272 14.6187
37.0743 14.5503
37.1213 14.4548
37.1684 14.4842
37.2154 14.3472
37.2626 14.3102
37.3098 14.345
37.3568 14.2784
37.404 14.2945
37.451 14.1475
37.4982 14.1423
37.5452 14.0572
37.5924 14.0937
37.6395 14.0913
37.6867 13.95
37.7337 13.9693
37.781 13.811
37.8281 13.8612
37.8753 13.816
37.9224 13.6886
37.9697 13.7174
38.0168 13.6938
38.064 13.6489
38.1111 13.6064
38.1584 13.5357
38.2056 13.5346
38.2529 13.5008
38.3 13.3954
38.3473 13.3895
38.3945 13.3137
38.4418 13.3028
38.489 13.2411
38.5363 13.1857
38.5837 13.1607
38.6309 13.1288
38.6782 13.0924
38.7254 13.0615
38.7728 13.0349
38.82 12.9666
38.8674 12.9086
38.9146 12.8768
38.9621 12.8333
39.0093 12.8527
39.0567 12.7995
39.104 12.7858
39.1514 12.7081
39.1987 12.6636
39.2461 12.64
39.2934 12.6179
39.3409 12.4837
39.3882 12.4809
39.4356 12.4743
39.483 12.4664
39.5304 12.3774
39.5778 12.3022
39.6253 12.2879
39.6726 12.3124
39.7201 12.3095
39.7675 12.2074
39.815 12.1824
39.8624 12.1076
39.9099 12.1551
39.9575 12.0256
40.0049 11.9929
40.0525 11.9642
40.0999 11.995
40.1474 11.9406
40.1949 11.9601
40.2425 11.8056
40.2899 11.8197
40.3375 11.7791
40.385 11.7881
40.4326 11.7181
40.48 11.6941
40.5277 11.6143
40.5752 11.6613
40.6228 11.6013
40.6703 11.5561
40.718 11.4881
40.7655 11.5021
40.8132 11.458
40.8607 11.4218
40.9084 11.4195
40.9559 11.3687
41.0036 11.3217
41.0512 11.2863
41.0989 11.2972
41.1465 11.2534
41.1942 11.2049
41.242 11.1489
41.2896 11.1387
41.3373 11.0584
41.3849 11.0068
41.4327 10.9582
41.4803 10.9128
41.5281 10.9167
41.5758 10.9018
41.6236 10.8826
41.6712 10.7649
41.7191 10.7336
41.7667 10.7281
41.8146 10.7028
41.8622 10.6795
41.9101 10.6651
41.9578 10.6205
42.0057 10.6082
42.0534 10.6257
42.1013 10.5366
42.149 10.4306
42.1969 10.4685
42.2446 10.4103
42.2925 10.3651
42.3403 10.3521
42.3882 10.3586
42.436 10.26
42.4839 10.2288
42.5319 10.2801
42.5797 10.1891
42.6277 10.1146
42.6755 10.1434
42.7235 10.0978
42.7713 10.0848
42.8193 10.055
42.8671 10.002
42.9152 9.93959
42.963 9.88386
43.0111 9.87892
43.0589 9.87154
43.107 9.8405
43.1549 9.82847
43.2029 9.78536
43.2508 9.71126
43.2989 9.68638
43.3468 9.66564
43.3949 9.65623
43.4429 9.55996
43.491 9.53618
43.5389 9.50634
43.5871 9.52746
43.635 9.46852
43.6832 9.4307
43.7312 9.36014
43.7793 9.34394
43.8273 9.36156
43.8755 9.29847
43.9237 9.29388
43.9717 9.2289
44.0199 9.24346
44.068 9.22114
44.1162 9.13716
44.1642 9.12106
44.2125 9.12347
44.2606 9.07699
44.3088 9.03482
44.3569 9.01589
44.4052 8.99955
44.4533 8.9447
44.5016 8.87286
44.5497 8.92796
44.598 8.8409
44.6461 8.83697
44.6945 8.86051
44.7426 8.75168
44.791 8.74259
44.8391 8.73446
44.8875 8.65652
44.9357 8.64548
44.984 8.62533
45.0322 8.57415
45.0806 8.57837
45.1288 8.49711
45.1773 8.48375
45.2257 8.45665
45.2739 8.44619
45.3224 8.45629
45.3706 8.39292
45.4191 8.33272
45.4673 8.34668
45.5158 8.3182
45.5641 8.26636
45.6126 8.26077
45.6609 8.22924
45.7094 8.15956
45.7577 8.19386
45.8063 8.14574
45.8546 8.12282
45.9031 8.10329
45.9515 8.05971
46.0001 8.01072
46.0484 8.00683
46.097 7.98985
46.1454 7.9662
46.194 7.93934
46.2424 7.88046
46.291 7.86429
46.3395 7.85158
46.3881 7.78933
46.4365 7.78921
46.4852 7.73745
46.5337 7.74041
46.5823 7.68838
46.631 7.64885
46.6795 7.67215
46.7282 7.64257
46.7767 7.61648
46.8254 7.56844
46.8739 7.53257
46.9226 7.48392
46.9712 7.49022
47.0199 7.45702
47.0685 7.42922
47.1173 7.3884
47.1658 7.35212
47.2146 7.36304
47.2632 7.3196
47.312 7.3222
47.3606 7.2378
47.4095 7.2492
47.4581 7.23562
47.5069 7.16699
47.5556 7.15425
47.6044 7.14371
47.6531 7.10389
47.702 7.10213
47.7507 7.06828
47.7996 7.05231
47.8483 7.0196
47.8972 7.03005
47.9461 6.95781
47.9948 6.93638
48.0438 6.93345
48.0925 6.89459
48.1415 6.85382
48.1902 6.83785
48.2392 6.80544
48.288 6.77444
48.337 6.81305
48.3858 6.76853
48.4348 6.71052
48.4837 6.71489
48.5327 6.67488
48.5815 6.65382
48.6306 6.65143
48.6795 6.62861
48.7285 6.59743
48.7774 6.59212
48.8265 6.55571
48.8754 6.50891
48.9245 6.50746
48.9734 6.50036
49.0226 6.47269
49.0715 6.4099
49.1206 6.41186
49.1696 6.37465
49.2188 6.38816
49.2679 6.35694
49.3169 6.31605
49.3661 6.2871
49.4151 6.24212
49.4643 6.28304
49.5134 6.24295
49.5626 6.18898
49.6117 6.15413
49.6609 6.17064
49.71 6.10673
49.7592 6.10611
49.8083 6.08511
49.8576 6.09371
49.9067 6.02484
49.956 6.02719
50.0052 5.99768
50.0545 5.97173
50.1036 5.94828
50.153 5.89918
50.2022 5.87597
50.2515 5.90505
50.3007 5.85887
50.3501 5.85368
50.3993 5.82741
50.4487 5.83329
50.498 5.7847
50.5474 5.78132
50.5966 5.74734
50.6461 5.72511
50.6955 5.71908
50.7448 5.70515
50.7943 5.67149
50.8436 5.63137
50.8931 5.62186
50.9424 5.578
50.9919 5.61879
51.0413 5.5563
51.0908 5.51391
51.1402 5.51401
51.1897 5.48068
51.2391 5.466
51.2887 5.434
51.3381 5.43875
51.3877 5.43375
51.4371 5.38812
51.4867 5.37894
51.5362 5.35364
51.5858 5.33071
51.6353 5.29898
51.6849 5.27432
51.7344 5.26076
51.7841 5.25465
51.8336 5.20699
51.8833 5.22898
51.9328 5.20109
51.9826 5.14963
52.0323 5.15212
52.0818 5.16599
52.1316 5.09464
52.1812 5.10356
52.231 5.06384
52.2806 5.01265
52.3304 5.03907
52.38 4.9894
52.4298 4.99538
52.4794 4.94596
52.5293 4.95465
52.5789 4.95252
52.6288 4.91015
52.6785 4.86634
52.7284 4.86096
52.7781 4.83295
52.828 4.81477
52.8777 4.82713
52.9276 4.80075
52.9774 4.7864
53.0273 4.75738
53.0771 4.73514
53.1271 4.71079
53.1769 4.70716
53.2269 4.67497
53.2767 4.66184
53.3267 4.6774
53.3765 4.5705
53.4266 4.62123
53.4766 4.55277
53.5265 4.58087
53.5765 4.54826
53.6264 4.52895
53.6765 4.48656
53.7264 4.52113
53.7765 4.48106
53.8265 4.4186
53.8766 4.40345
53.9266 4.42928
53.9767 4.37766
54.0267 4.34961
54.0769 4.33375
54.1269 4.29953
54.1771 4.3103
54.2271 4.23872
54.2773 4.24865
54.3274 4.24384
54.3776 4.19441
54.4277 4.17823
54.478 4.09281
54.528 4.07718
54.5783 4.00254
54.6285 4.00791
54.6788 3.95469
54.7289 3.98866
54.7792 3.94245
54.8296 3.88739
54.8798 3.81879
54.9301 3.81438
54.9803 3.7934
55.0307 3.78433
55.0809 3.78947
55.1314 3.74382
55.1816 3.64887
55.232 3.63293
55.2823 3.6403
55.3328 3.52321
55.383 3.52423
55.4335 3.51403
55.4838 3.49163
55.5344 3.43503
55.5847 3.4354
55.6352 3.40946
55.6856 3.36194
55.7361 3.35345