File: XRD/Ni3Fe_FD0486.xy
TT I
1.27165 7.59035
1.31627 6.38973
1.36089 6.6111
1.40551 6.32811
1.45013 6.87121
1.49476 6.6429
1.53938 5.79133
1.584 5.61368
1.62863 5.329
1.67325 5.19471
1.71787 4.82236
1.7625 4.70281
1.80712 4.87155
1.85174 4.77152
1.89636 4.61234
1.94099 4.85861
1.98562 5.55317
2.03025 4.7779
2.07487 4.74531
2.11949 5.25714
2.16411 5.3083
2.20874 9.97321
2.25338 13.2984
2.298 5.30044
2.34263 4.96371
2.38725 5.38149
2.43188 6.12377
2.4765 6.44517
2.52115 6.24716
2.56577 6.64375
2.6104 7.37999
2.65503 7.20148
2.69965 8.52642
2.7443 7.56673
2.78893 8.36324
2.83356 8.3788
2.87818 8.75413
2.92281 9.08342
2.96744 9.44428
3.01209 10.5999
3.05672 10.7327
3.10135 12.0851
3.14599 12.8472
3.19062 14.1185
3.23527 14.5319
3.2799 15.5821
3.32454 16.8913
3.36917 17.8331
3.4138 19.0268
3.45844 19.5413
3.50309 21.0808
3.54773 22.0172
3.59237 23.6294
3.637 59.0574
3.68164 41.4984
3.7263 25.9871
3.77094 25.8807
3.81558 26.7475
3.86022 27.7888
3.90486 29.1204
3.9495 29.7972
3.99416 30.9681
4.0388 32.3985
4.08344 33.9406
4.12809 34.9087
4.17273 36.3262
4.21738 41.2091
4.26204 147.992
4.30669 126.857
4.35133 46.2575
4.39598 44.6709
4.44063 50.1733
4.4853 56.6227
4.52995 53.2466
4.5746 54.457
4.61925 54.162
4.6639 56.4931
4.70855 59.2493
4.75322 62.2965
4.79788 66.1076
4.84253 68.7152
4.88719 74.4593
4.93184 77.3525
4.97652 83.0887
5.02118 89.8623
5.06583 98.6891
5.11049 110.827
5.15515 164.104
5.19981 481.464
5.24449 3417.54
5.28916 11595.2
5.33382 3111.85
5.37848 210.02
5.42315 135.847
5.46783 119.733
5.5125 110.954
5.55716 104.948
5.60183 100.794
5.6465 98.6303
5.69117 96.8386
5.73586 95.3691
5.78053 96.3359
5.8252 96.3019
5.86988 97.2138
5.91455 98.8111
5.95924 109.354
6.00392 271.08
6.0486 1167.09
6.09328 4180.89
6.13795 3391.02
6.18263 297.68
6.22733 96.9397
6.27201 83.9106
6.3167 90.3374
6.36138 77.5198
6.40606 70.4423
6.45075 68.8537
6.49545 66.4834
6.54014 64.5791
6.58483 63.5441
6.62952 63.4909
6.67421 78.9293
6.71892 101.904
6.76361 64.6123
6.8083 59.6224
6.853 58.7111
6.89769 57.5036
6.94239 56.8828
6.98711 56.1652
7.03181 56.3223
7.07651 55.6953
7.12121 55.4287
7.16591 56.5074
7.21063 55.7013
7.25533 64.2586
7.30004 115.839
7.34475 73.2097
7.38945 55.9312
7.43416 54.516
7.47889 54.6779
7.5236 55.0892
7.56831 56.0494
7.61303 56.733
7.65774 57.4617
7.70247 57.199
7.74719 57.0205
7.79191 57.6531
7.83663 57.5695
7.88135 58.5401
7.92607 59.6553
7.97081 60.4983
8.01553 61.6516
8.06026 63.5822
8.10498 64.927
8.14971 71.484
8.19446 71.0963
8.23919 70.3984
8.28392 73.3466
8.32865 75.7975
8.37339 80.4619
8.41812 86.5252
8.46288 108.253
8.50761 194.18
8.55235 455.128
8.59709 1227.23
8.64183 2098.35
8.68658 1032.94
8.73134 181.798
8.77609 102.241
8.82083 95.063
8.86558 92.3257
8.91033 91.7061
8.9551 90.9402
8.99985 86.839
9.04461 85.7695
9.08936 85.0454
9.13412 83.904
9.17888 83.8385
9.22365 83.8404
9.26841 83.416
9.31318 84.9071
9.35794 85.7194
9.4027 85.4835
9.44749 85.8738
9.49226 86.4624
9.53703 87.7761
9.5818 89.6349
9.62657 93.3869
9.67134 96.8529
9.71614 94.4815
9.76091 96.1919
9.80569 99.4062
9.85047 102.518
9.89525 116.66
9.94005 131.935
9.98484 208.076
10.0296 403.846
10.0744 885.88
10.1192 1642.7
10.164 1634.75
10.2088 451.336
10.2536 134.929
10.2984 113.882
10.3432 112.335
10.388 107.729
10.4328 128.123
10.4776 177.224
10.5224 301.525
10.5672 488.52
10.612 498.397
10.6568 218.876
10.7017 100.248
10.7465 88.5031
10.7913 84.6184
10.8361 82.7699
10.8809 80.5063
10.9257 79.0788
10.9706 79.2061
11.0154 76.1349
11.0602 73.805
11.105 72.4469
11.1499 74.6738
11.1947 77.4752
11.2395 72.4525
11.2844 69.6607
11.3292 67.9494
11.374 67.0042
11.4189 66.1953
11.4637 65.9301
11.5086 65.8654
11.5534 67.1223
11.5983 65.3985
11.6431 64.2103
11.688 63.7659
11.7328 63.7799
11.7777 63.654
11.8225 63.6032
11.8674 63.5307
11.9122 63.7296
11.9571 63.8745
12.002 65.3394
12.0468 71.076
12.0917 83.2001
12.1366 109.47
12.1814 154.075
12.2263 196.93
12.2712 171.382
12.3161 96.7843
12.3609 69.6872
12.4058 65.5295
12.4507 65.3061
12.4956 65.7577
12.5405 65.461
12.5853 66.342
12.6302 70.5776
12.6751 73.3643
12.72 69.4182
12.7649 68.7863
12.8098 69.4921
12.8547 70.8668
12.8996 72.2488
12.9445 73.9882
12.9894 75.5229
13.0343 77.3636
13.0792 81.3924
13.1242 94.5688
13.1691 119.852
13.214 162.424
13.2589 250.379
13.3038 355.569
13.3487 412.317
13.3937 277.62
13.4386 131.905
13.4835 112.657
13.5285 129.427
13.5734 172.544
13.6183 252.574
13.6633 328.188
13.7082 340.701
13.7531 202.68
13.7981 102.762
13.843 83.5888
13.888 81.1937
13.9329 78.6089
13.9779 77.3126
14.0228 75.7275
14.0678 74.1657
14.1127 73.89
14.1577 73.4382
14.2027 72.3004
14.2476 71.6164
14.2926 71.7496
14.3376 72.0454
14.3825 70.9865
14.4275 70.2185
14.4725 69.9204
14.5175 70.0367
14.5624 70.284
14.6074 71.7
14.6524 72.2464
14.6974 71.8014
14.7424 74.8668
14.7874 82.5202
14.8324 94.2487
14.8774 118.456
14.9224 156.978
14.9674 197.072
15.0124 211.793
15.0574 155.911
15.1024 95.0778
15.1474 73.9393
15.1924 71.4241
15.2374 71.2142
15.2824 70.2924
15.3274 68.6591
15.3725 67.9063
15.4175 67.7177
15.4625 67.2475
15.5076 67.2719
15.5526 67.086
15.5976 67.0116
15.6426 69.415
15.6877 75.5698
15.7327 84.2002
15.7778 101.552
15.8228 130.822
15.8679 165.164
15.9129 185.602
15.958 158.852
16.003 101.737
16.0481 69.8908
16.0931 64.714
16.1382 62.9762
16.1833 61.6331
16.2283 59.8358
16.2734 59.3669
16.3185 59.1256
16.3636 59.0543
16.4086 57.8472
16.4537 56.8328
16.4988 56.3307
16.5439 56.1607
16.589 56.202
16.6341 55.9652
16.6792 55.5328
16.7243 55.5493
16.7694 55.7163
16.8145 55.495
16.8596 55.8995
16.9047 56.8507
16.9498 56.699
16.9949 56.3023
17.04 57.145
17.0851 58.5867
17.1302 60.2697
17.1754 63.4787
17.2205 68.8351
17.2656 74.7624
17.3108 80.9703
17.3559 81.2578
17.401 72.3461
17.4462 63.7566
17.4913 60.3737
17.5365 60.0615
17.5815 60.1199
17.6268 60.5782
17.6718 61.313
17.7171 61.6363
17.7622 62.2513
17.8074 63.6178
17.8525 66.6309
17.8977 70.6901
17.9428 76.922
17.9881 86.6821
18.0331 102.592
18.0784 119.915
18.1237 136.076
18.1688 133.875
18.214 109.258
18.2591 90.9938
18.3044 91.9187
18.3495 99.0609
18.3948 105.167
18.4399 98.1105
18.4852 80.1178
18.5303 67.6169
18.5756 63.4958
18.6207 62.4023
18.666 61.4102
18.7112 60.7024
18.7565 60.0249
18.8016 59.6324
18.8469 59.1219
18.892 58.8171
18.9374 58.1901
18.9825 57.774
19.0278 57.8092
19.073 57.9901
19.1183 58.5864
19.1635 59.0496
19.2088 60.9257
19.254 63.7348
19.2993 67.5026
19.3447 72.1618
19.3898 75.5201
19.4352 73.2577
19.4804 65.1039
19.5257 57.8963
19.5709 55.1437
19.6163 54.7035
19.6615 54.6821
19.7068 53.9537
19.752 54.3045
19.7974 54.7029
19.8426 55.4855
19.888 56.1402
19.9332 57.5225
19.9786 60.3479
20.0238 63.4044
20.0692 67.0956
20.1144 69.9957
20.1598 69.5889
20.205 65.457
20.2504 63.1261
20.2957 64.0079
20.3411 65.3303
20.3863 64.784
20.4318 59.6018
20.477 54.7606
20.5224 52.1703
20.5677 51.6268
20.6131 51.0234
20.6586 50.4651
20.7038 50.4468
20.7493 49.9102
20.7945 49.8988
20.84 49.6989
20.8853 49.4872
20.9307 49.2709
20.976 49.651
21.0215 49.3781
21.0668 49.8844
21.1122 50.4904
21.1575 51.146
21.203 51.6314
21.2483 51.9722
21.2938 52.3053
21.3391 50.9933
21.3846 50.0138
21.4299 49.4091
21.4754 49.2294
21.5207 49.5399
21.5662 49.8183
21.6116 50.3156
21.6571 50.9008
21.7024 52.151
21.7479 54.0486
21.7933 56.6775
21.8388 59.6221
21.8843 62.5531
21.9297 64.5815
21.9752 64.2318
22.0206 60.7912
22.0661 57.4507
22.1115 56.4775
22.157 56.3647
22.2024 55.3971
22.248 52.451
22.2933 50.6031
22.3389 49.9501
22.3843 49.9182
22.4299 49.4382
22.4753 49.6718
22.5208 49.2548
22.5662 49.376
22.6118 49.5081
22.6572 49.8872
22.7028 50.3128
22.7483 50.8446
22.7939 51.7129
22.8393 53.295
22.8849 54.8776
22.9303 56.4891
22.9759 57.8404
23.0214 57.7754
23.067 55.4335
23.1126 52.228
23.1581 50.2451
23.2037 49.5995
23.2492 49.8553
23.2948 49.6193
23.3403 50.1748
23.3859 50.8935
23.4314 52.0578
23.477 53.7251
23.5225 55.3539
23.5682 56.9582
23.6137 57.8765
23.6593 56.4011
23.7048 52.651
23.7505 49.342
23.796 47.4827
23.8417 46.6919
23.8872 46.0091
23.9329 45.9376
23.9784 45.6005
24.0241 45.2988
24.0697 45.1957
24.1154 44.8141
24.1609 44.7778
24.2066 44.5278
24.2522 44.4169
24.2979 43.884
24.3434 44.0769
24.3892 43.817
24.4349 43.9786
24.4805 43.6178
24.5262 43.7579
24.5718 43.5553
24.6175 43.483
24.6631 43.3553
24.7089 43.215
24.7545 43.0164
24.8002 42.8455
24.8458 42.9787
24.8916 42.7775
24.9372 43.0119
24.983 43.3401
25.0286 43.5215
25.0744 43.934
25.12 44.3267
25.1658 44.9227
25.2114 45.4425
25.2572 45.4399
25.3029 45.297
25.3487 45.3966
25.3943 45.1065
25.4402 44.1012
25.4858 43.2793
25.5316 42.1644
25.5773 41.6215
25.6231 41.4196
25.669 41.123
25.7147 41.3709
25.7605 41.1755
25.8062 41.0883
25.8521 41.3371
25.8977 41.2008
25.9436 41.5873
25.9893 41.592
26.0352 41.9531
26.0809 42.1887
26.1268 42.2092
26.1725 41.9788
26.2184 41.5685
26.2641 40.9701
26.31 40.8804
26.3557 40.7829
26.4017 40.7211
26.4474 41.1709
26.4933 41.4434
26.5391 41.8944
26.585 42.3253
26.6308 42.5636
26.6767 42.6711
26.7225 42.6349
26.7684 42.2206
26.8142 41.3875
26.8601 41.0253
26.9059 40.6599
26.9519 40.1551
26.9979 39.8558
27.0437 39.4793
27.0896 39.3953
27.1354 39.2609
27.1814 39.3129
27.2272 39.2915
27.2732 39.099
27.3191 38.8821
27.3651 39.1936
27.4109 39.0061
27.4569 39.055
27.5027 39.0899
27.5488 39.1111
27.5946 39.0067
27.6407 38.8595
27.6865 38.7624
27.7326 38.4303
27.7784 38.5742
27.8245 38.3587
27.8703 38.6841
27.9164 38.94
27.9623 38.943
28.0084 39.2848
28.0543 39.572
28.1003 39.5453
28.1462 39.448
28.1923 39.1581
28.2384 38.32
28.2843 38.1742
28.3304 37.7539
28.3764 37.2871
28.4225 37.0059
28.4684 36.8916
28.5145 36.4853
28.5605 36.433
28.6066 36.2934
28.6526 36.1925
28.6987 36.1836
28.7447 36.1512
28.7908 35.9517
28.8368 36.0609
28.8829 36.0001
28.9289 35.774
28.9751 35.645
29.0211 35.5075
29.0673 35.2241
29.1133 35.209
29.1595 34.9079
29.2055 34.8622
29.2517 34.9187
29.2977 34.7152
29.3439 34.7177
29.3899 34.6939
29.4361 34.708
29.4824 34.5022
29.5284 34.2359
29.5746 33.9421
29.6207 33.6257
29.6669 33.6166
29.713 33.4933
29.7593 33.417
29.8053 33.4261
29.8516 33.2342
29.8977 33.2412
29.9439 33.0209
29.99 33.1068
30.0363 32.8893
30.0824 33.0132
30.1287 32.9641
30.1748 32.9952
30.2211 32.9613
30.2673 32.8347
30.3136 32.9013
30.3597 32.7166
30.406 32.7328
30.4522 32.6114
30.4985 32.5514
30.5447 32.5917
30.591 32.5973
30.6372 32.7552
30.6835 32.6283
30.7297 32.6212
30.7761 32.5962
30.8224 32.5373
30.8686 32.3961
30.915 32.1216
30.9612 31.9623
31.0076 31.8355
31.0538 31.7095
31.1002 31.6654
31.1464 31.2949
31.1928 31.4489
31.2391 31.3284
31.2855 31.2718
31.3317 31.245
31.3781 31.4232
31.4244 31.4161
31.4708 31.2578
31.5171 31.1764
31.5636 31.1291
31.6098 31.0265
31.6563 30.7311
31.7026 30.6895
31.7491 30.575
31.7953 30.6243
31.8418 30.6899
31.8881 30.623
31.9346 30.6315
31.9809 30.4352
32.0275 30.3586
32.074 30.2545
32.1203 30.0685
32.1668 29.9388
32.2132 29.8644
32.2597 29.6537
32.306 29.6715
32.3526 29.3938
32.399 29.3497
32.4455 29.1813
32.4919 29.1533
32.5385 29.0899
32.5848 28.8408
32.6314 28.9455
32.6778 28.8778
32.7244 28.7197
32.7708 28.561
32.8174 28.4675
32.8638 28.3955
32.9104 28.4948
32.9569 28.4742
33.0035 28.2773
33.0499 28.3484
33.0966 28.1151
33.143 28.2422
33.1897 28.0813
33.2361 27.9756
33.2828 27.9849
33.3293 27.816
33.3759 27.8301
33.4226 27.7608
33.4691 27.6165
33.5158 27.466
33.5623 27.3065
33.609 27.1839
33.6555 27.0281
33.7022 27.0859
33.7487 26.929
33.7954 26.835
33.842 26.8391
33.8887 26.7051
33.9353 26.663
33.982 26.5135
34.0286 26.4385
34.0753 26.428
34.1219 26.2895
34.1687 26.1551
34.2152 26.168
34.262 26.0621
34.3086 25.9628
34.3554 25.8905
34.402 25.7365
34.4488 25.6383
34.4954 25.6633
34.5422 25.5728
34.5889 25.4132
34.6357 25.3447
34.6825 25.2722
34.7292 25.2373
34.776 25.055
34.8227 24.9957
34.8695 25.0132
34.9162 24.8979
34.9631 24.8291
35.0098 24.8697
35.0566 24.7228
35.1033 24.6626
35.1502 24.6642
35.1969 24.5521
35.2438 24.5617
35.2906 24.4574
35.3375 24.3875
35.3842 24.2813
35.4311 24.3017
35.4779 24.3238
35.5248 24.2808
35.5716 24.102
35.6185 24.1053
35.6653 23.921
35.7123 23.8978
35.759 23.7359
35.806 23.7085
35.8528 23.5691
35.8998 23.5311
35.9468 23.4715
35.9936 23.449
36.0406 23.4182
36.0874 23.2908
36.1345 23.2485
36.1813 23.1494
36.2283 23.0226
36.2752 23.0071
36.3222 23.0506
36.3691 22.9915
36.4161 22.7951
36.463 22.7972
36.5101 22.7559
36.557 22.7624
36.6041 22.6126
36.651 22.551
36.6981 22.4084
36.745 22.4141
36.7921 22.2941
36.839 22.2327
36.8861 22.1115
36.9331 22.0867
36.9802 21.9761
37.0272 21.9223
37.0743 21.8411
37.1213 21.7696
37.1684 21.8029
37.2154 21.6482
37.2626 21.5374
37.3098 21.5845
37.3568 21.4841
37.404 21.4219
37.451 21.2791
37.4982 21.2683
37.5452 21.1382
37.5924 21.1502
37.6395 21.0595
37.6867 20.9757
37.7337 20.9006
37.781 20.7926
37.8281 20.7678
37.8753 20.6651
37.9224 20.623
37.9697 20.5294
38.0168 20.5259
38.064 20.3904
38.1111 20.4081
38.1584 20.3367
38.2056 20.3308
38.2529 20.1908
38.3 20.0383
38.3473 20.1503
38.3945 19.9336
38.4418 19.9245
38.489 19.8823
38.5363 19.795
38.5837 19.7546
38.6309 19.6647
38.6782 19.5785
38.7254 19.5527
38.7728 19.4663
38.82 19.413
38.8674 19.3246
38.9146 19.333
38.9621 19.2968
39.0093 19.204
39.0567 19.109
39.104 19.144
39.1514 18.9638
39.1987 18.9815
39.2461 18.8603
39.2934 18.8522
39.3409 18.695
39.3882 18.6521
39.4356 18.6405
39.483 18.5626
39.5304 18.5798
39.5778 18.4612
39.6253 18.4238
39.6726 18.362
39.7201 18.3096
39.7675 18.2495
39.815 18.141
39.8624 18.1155
39.9099 18.1268
39.9575 17.9175
40.0049 17.9303
40.0525 17.8927
40.0999 17.8659
40.1474 17.8036
40.1949 17.735
40.2425 17.6906
40.2899 17.6413
40.3375 17.4826
40.385 17.5206
40.4326 17.4868
40.48 17.3604
40.5277 17.3353
40.5752 17.304
40.6228 17.2574
40.6703 17.1679
40.718 17.0731
40.7655 17.061
40.8132 16.954
40.8607 16.9791
40.9084 16.872
40.9559 16.8121
41.0036 16.817
41.0512 16.7563
41.0989 16.71
41.1465 16.6398
41.1942 16.5899
41.242 16.4643
41.2896 16.473
41.3373 16.3857
41.3849 16.3726
41.4327 16.2756
41.4803 16.1907
41.5281 16.1685
41.5758 16.1049
41.6236 16.035
41.6712 15.9981
41.7191 15.9233
41.7667 15.8938
41.8146 15.8897
41.8622 15.7985
41.9101 15.7674
41.9578 15.6799
42.0057 15.6888
42.0534 15.5911
42.1013 15.6034
42.149 15.4806
42.1969 15.4068
42.2446 15.4234
42.2925 15.3686
42.3403 15.2772
42.3882 15.2278
42.436 15.2147
42.4839 15.1379
42.5319 15.1042
42.5797 15.0138
42.6277 14.9318
42.6755 14.9461
42.7235 14.8538
42.7713 14.8259
42.8193 14.7863
42.8671 14.6297
42.9152 14.6959
42.963 14.6449
43.0111 14.5228
43.0589 14.5052
43.107 14.5034
43.1549 14.4254
43.2029 14.3749
43.2508 14.3232
43.2989 14.2265
43.3468 14.1685
43.3949 14.1605
43.4429 14.1409
43.491 14.059
43.5389 14.0253
43.5871 13.9753
43.635 13.8804
43.6832 13.8831
43.7312 13.8257
43.7793 13.7833
43.8273 13.7318
43.8755 13.7368
43.9237 13.6366
43.9717 13.5773
44.0199 13.5591
44.068 13.5139
44.1162 13.4227
44.1642 13.4057
44.2125 13.3972
44.2606 13.2883
44.3088 13.2476
44.3569 13.2307
44.4052 13.1428
44.4533 13.1339
44.5016 13.0835
44.5497 13.0278
44.598 13.0115
44.6461 12.9664
44.6945 12.8791
44.7426 12.8981
44.791 12.8323
44.8391 12.7782
44.8875 12.709
44.9357 12.6807
44.984 12.6114
45.0322 12.5361
45.0806 12.5416
45.1288 12.4722
45.1773 12.4442
45.2257 12.3841
45.2739 12.339
45.3224 12.3061
45.3706 12.2891
45.4191 12.2134
45.4673 12.2173
45.5158 12.1937
45.5641 12.112
45.6126 12.0371
45.6609 11.9864
45.7094 11.9485
45.7577 11.9317
45.8063 11.884
45.8546 11.8756
45.9031 11.7631
45.9515 11.7323
46.0001 11.7263
46.0484 11.6762
46.097 11.6386
46.1454 11.6153
46.194 11.5427
46.2424 11.5533
46.291 11.423
46.3395 11.4203
46.3881 11.3811
46.4365 11.3481
46.4852 11.3069
46.5337 11.3214
46.5823 11.2168
46.631 11.1532
46.6795 11.1309
46.7282 11.1229
46.7767 11.0323
46.8254 10.9871
46.8739 10.9732
46.9226 10.9329
46.9712 10.8808
47.0199 10.8484
47.0685 10.792
47.1173 10.7434
47.1658 10.7194
47.2146 10.7234
47.2632 10.6568
47.312 10.6418
47.3606 10.5645
47.4095 10.5503
47.4581 10.4859
47.5069 10.4551
47.5556 10.4463
47.6044 10.3315
47.6531 10.358
47.702 10.2954
47.7507 10.2893
47.7996 10.2128
47.8483 10.1947
47.8972 10.1202
47.9461 10.1066
47.9948 10.1033
48.0438 10.037
48.0925 10.0036
48.1415 9.96553
48.1902 9.96375
48.2392 9.93824
48.288 9.84983
48.337 9.82271
48.3858 9.8018
48.4348 9.77848
48.4837 9.74993
48.5327 9.70339
48.5815 9.65615
48.6306 9.62084
48.6795 9.57231
48.7285 9.5482
48.7774 9.50781
48.8265 9.49898
48.8754 9.44714
48.9245 9.40169
48.9734 9.38654
49.0226 9.35187
49.0715 9.25958
49.1206 9.24741
49.1696 9.22708
49.2188 9.19675
49.2679 9.1572
49.3169 9.11411
49.3661 9.09308
49.4151 9.06126
49.4643 9.05868
49.5134 8.97765
49.5626 8.96001
49.6117 8.94212
49.6609 8.90363
49.71 8.84786
49.7592 8.80244
49.8083 8.80012
49.8576 8.76537
49.9067 8.72334
49.956 8.67151
50.0052 8.6322
50.0545 8.64515
50.1036 8.56866
50.153 8.57541
50.2022 8.51273
50.2515 8.45983
50.3007 8.43117
50.3501 8.39791
50.3993 8.38196
50.4487 8.3358
50.498 8.33832
50.5474 8.26761
50.5966 8.28351
50.6461 8.22183
50.6955 8.20342
50.7448 8.1672
50.7943 8.10152
50.8436 8.11808
50.8931 8.05826
50.9424 8.03553
50.9919 8.00271
51.0413 7.96503
51.0908 7.94347
51.1402 7.92031
51.1897 7.87806
51.2391 7.84808
51.2887 7.77459
51.3381 7.7769
51.3877 7.75193
51.4371 7.70878
51.4867 7.64498
51.5362 7.63887
51.5858 7.64009
51.6353 7.5858
51.6849 7.56756
51.7344 7.5195
51.7841 7.54454
51.8336 7.44984
51.8833 7.42433
51.9328 7.36834
51.9826 7.32698
52.0323 7.33228
52.0818 7.32948
52.1316 7.27238
52.1812 7.25589
52.231 7.21382
52.2806 7.15663
52.3304 7.20361
52.38 7.12938
52.4298 7.10397
52.4794 7.057
52.5293 7.06435
52.5789 6.99788
52.6288 7.00315
52.6785 6.96182
52.7284 6.91432
52.7781 6.89831
52.828 6.87375
52.8777 6.82711
52.9276 6.78434
52.9774 6.79
53.0273 6.7352
53.0771 6.70882
53.1271 6.70558
53.1769 6.67855
53.2269 6.62892
53.2767 6.60734
53.3267 6.55982
53.3765 6.59357
53.4266 6.50591
53.4766 6.50851
53.5265 6.46076
53.5765 6.45363
53.6264 6.37865
53.6765 6.38258
53.7264 6.36134
53.7765 6.32807
53.8265 6.32418
53.8766 6.27359
53.9266 6.26723
53.9767 6.19159
54.0267 6.20228
54.0769 6.14175
54.1269 6.12771
54.1771 6.11417
54.2271 6.09591
54.2773 6.05876
54.3274 6.04325
54.3776 5.98
54.4277 5.97034
54.478 5.90993
54.528 5.88561
54.5783 5.84784
54.6285 5.82992
54.6788 5.77709
54.7289 5.72498
54.7792 5.68702
54.8296 5.61359
54.8798 5.57289
54.9301 5.55392
54.9803 5.53015
55.0307 5.49989
55.0809 5.46358
55.1314 5.42323
55.1816 5.3286
55.232 5.33155
55.2823 5.29258
55.3328 5.228
55.383 5.2045
55.4335 5.14044
55.4838 5.02467
55.5344 5.00963
55.5847 4.99148
55.6352 4.94097
55.6856 4.94451
55.7361 4.87735