File: XRD/Ni3Fe_FD0883.xy
TT I
1.27165 7.05373
1.31627 6.84756
1.36089 7.15419
1.40551 6.03773
1.45013 5.54681
1.49476 6.29127
1.53938 5.72994
1.584 5.47814
1.62863 5.43555
1.67325 5.38296
1.71787 5.36961
1.7625 5.28441
1.80712 4.91364
1.85174 4.61075
1.89636 4.60289
1.94099 4.89867
1.98562 5.07508
2.03025 4.35154
2.07487 4.28363
2.11949 4.64784
2.16411 5.11453
2.20874 16.3844
2.25338 27.893
2.298 6.01161
2.34263 5.68035
2.38725 6.67287
2.43188 6.56301
2.4765 7.60253
2.52115 6.90341
2.56577 8.00081
2.6104 8.78551
2.65503 8.84199
2.69965 8.41135
2.7443 8.28576
2.78893 8.31498
2.83356 8.74741
2.87818 8.42304
2.92281 9.12399
2.96744 9.25549
3.01209 10.7913
3.05672 11.2535
3.10135 12.4149
3.14599 13.0733
3.19062 14.2003
3.23527 15.3423
3.2799 16.0634
3.32454 17.1726
3.36917 17.8867
3.4138 18.8386
3.45844 19.8129
3.50309 20.9415
3.54773 21.9955
3.59237 24.4813
3.637 110.022
3.68164 69.2478
3.7263 26.5394
3.77094 25.9637
3.81558 26.8375
3.86022 27.3981
3.90486 29.1918
3.9495 29.8428
3.99416 31.0681
4.0388 32.4253
4.08344 33.7265
4.12809 34.7578
4.17273 37.1584
4.21738 43.9867
4.26204 297.837
4.30669 271.221
4.35133 49.3681
4.39598 44.5148
4.44063 54.8738
4.4853 70.0426
4.52995 49.9969
4.5746 50.4611
4.61925 52.1093
4.6639 54.563
4.70855 57.2207
4.75322 59.976
4.79788 62.3672
4.84253 66.0764
4.88719 69.767
4.93184 73.3757
4.97652 78.4802
5.02118 84.2389
5.06583 90.8838
5.11049 101.164
5.15515 175.84
5.19981 285.526
5.24449 2309.98
5.28916 13075.4
5.33382 2997.8
5.37848 182.216
5.42315 125.286
5.46783 110.832
5.5125 104.036
5.55716 99.3807
5.60183 96.6987
5.6465 95.4409
5.69117 92.4958
5.73586 90.1202
5.78053 89.309
5.8252 88.7612
5.86988 89.2177
5.91455 90.7785
5.95924 96.01
6.00392 166.15
6.0486 790.73
6.09328 4286.57
6.13795 3288.35
6.18263 240.579
6.22733 91.0361
6.27201 82.1478
6.3167 107.787
6.36138 82.1409
6.40606 68.453
6.45075 66.5536
6.49545 64.474
6.54014 63.0856
6.58483 61.9838
6.62952 62.4533
6.67421 99.9502
6.71892 165.886
6.76361 71.2064
6.8083 57.8488
6.853 57.1812
6.89769 56.0974
6.94239 56.1715
6.98711 55.3331
7.03181 55.3009
7.07651 54.6814
7.12121 54.4617
7.16591 54.8909
7.21063 55.1855
7.25533 72.6733
7.30004 210.829
7.34475 102.216
7.38945 56.9766
7.43416 54.258
7.47889 54.0904
7.5236 54.3273
7.56831 55.0502
7.61303 57.0844
7.65774 57.5881
7.70247 55.5626
7.74719 55.4445
7.79191 56.3659
7.83663 56.1374
7.88135 56.9781
7.92607 57.8804
7.97081 59.0283
8.01553 60.1673
8.06026 61.4548
8.10498 62.9881
8.14971 74.1193
8.19446 73.0761
8.23919 68.5999
8.28392 70.4791
8.32865 72.2932
8.37339 76.3727
8.41812 83.5166
8.46288 115.61
8.50761 142.854
8.55235 319.991
8.59709 1072.7
8.64183 2236.05
8.68658 1033.16
8.73134 177.217
8.77609 97.509
8.82083 91.0004
8.86558 88.0056
8.91033 88.6732
8.9551 92.2731
8.99985 84.2585
9.04461 82.4761
9.08936 81.526
9.13412 80.5636
9.17888 80.9964
9.22365 81.9112
9.26841 80.9174
9.31318 80.6834
9.35794 81.2575
9.4027 81.8279
9.44749 82.1628
9.49226 83.0666
9.53703 83.9896
9.5818 85.2811
9.62657 90.6661
9.67134 99.3424
9.71614 92.56
9.76091 91.969
9.80569 94.346
9.85047 97.6722
9.89525 125.969
9.94005 139.304
9.98484 153.305
10.0296 288.629
10.0744 723.32
10.1192 1717.62
10.164 1650.42
10.2088 418.737
10.2536 125.895
10.2984 112.486
10.3432 115.684
10.388 103.362
10.4328 110.396
10.4776 145.041
10.5224 260.303
10.5672 507.069
10.612 515.636
10.6568 204.689
10.7017 95.5955
10.7465 85.1151
10.7913 82.1043
10.8361 79.9765
10.8809 77.6891
10.9257 77.969
10.9706 78.9807
11.0154 73.9556
11.0602 71.715
11.105 71.0389
11.1499 76.4291
11.1947 86.5445
11.2395 75.2472
11.2844 70.1846
11.3292 66.5952
11.374 65.127
11.4189 64.8582
11.4637 63.9546
11.5086 64.9524
11.5534 68.5297
11.5983 65.3927
11.6431 62.8336
11.688 62.1723
11.7328 62.1926
11.7777 61.9188
11.8225 61.7236
11.8674 61.3821
11.9122 61.5234
11.9571 62.0286
12.002 62.299
12.0468 65.2755
12.0917 74.8093
12.1366 96.6533
12.1814 147.967
12.2263 208.364
12.2712 171.172
12.3161 98.3206
12.3609 71.1542
12.4058 63.99
12.4507 63.2034
12.4956 63.4789
12.5405 63.7052
12.5853 64.5906
12.6302 74.2014
12.6751 81.3477
12.72 70.175
12.7649 67.0434
12.8098 67.1493
12.8547 68.2632
12.8996 69.5811
12.9445 70.7627
12.9894 72.8095
13.0343 74.3102
13.0792 77.107
13.1242 83.4842
13.1691 103.292
13.214 136.088
13.2589 219.926
13.3038 368.974
13.3487 436.203
13.3937 268.523
13.4386 124.952
13.4835 100.091
13.5285 111.578
13.5734 146.355
13.6183 238.146
13.6633 351.903
13.7082 349.113
13.7531 186.713
13.7981 96.4476
13.843 80.2044
13.888 78.2043
13.9329 75.6724
13.9779 74.6097
14.0228 73.3465
14.0678 71.7994
14.1127 71.619
14.1577 71.4439
14.2027 70.2496
14.2476 69.1884
14.2926 69.5678
14.3376 71.0274
14.3825 69.2091
14.4275 67.6602
14.4725 67.4223
14.5175 67.7894
14.5624 67.81
14.6074 70.658
14.6524 70.9319
14.6974 69.0305
14.7424 69.9513
14.7874 74.5991
14.8324 83.5164
14.8774 103.857
14.9224 146.927
14.9674 208.882
15.0124 219.859
15.0574 149.807
15.1024 90.4127
15.1474 71.6583
15.1924 69.5413
15.2374 70.6915
15.2824 69.7676
15.3274 67.3141
15.3725 65.6824
15.4175 65.4578
15.4625 64.9938
15.5076 65.4858
15.5526 65.2691
15.5976 64.7441
15.6426 64.932
15.6877 68.9194
15.7327 75.1541
15.7778 88.8092
15.8228 119.769
15.8679 166.934
15.9129 195.242
15.958 158.225
16.003 96.0432
16.0481 67.5479
16.0931 64.4253
16.1382 62.4523
16.1833 59.7597
16.2283 58.1918
16.2734 57.6439
16.3185 58.0385
16.3636 59.1603
16.4086 57.3546
16.4537 55.6107
16.4988 54.659
16.5439 54.7281
16.589 54.2122
16.6341 54.1648
16.6792 53.7016
16.7243 54.1351
16.7694 54.2196
16.8145 54.1125
16.8596 54.6414
16.9047 56.2592
16.9498 56.5859
16.9949 54.9818
17.04 54.9068
17.0851 55.7021
17.1302 57.1157
17.1754 59.9373
17.2205 64.7814
17.2656 72.5956
17.3108 83.1812
17.3559 81.7195
17.401 70.0059
17.4462 60.8117
17.4913 58.1172
17.5365 58.1311
17.5815 58.2329
17.6268 58.5258
17.6718 59.4097
17.7171 59.7771
17.7622 60.2879
17.8074 60.3063
17.8525 62.1661
17.8977 65.5705
17.9428 70.3778
17.9881 78.6436
18.0331 95.8036
18.0784 119.497
18.1237 137.795
18.1688 130.228
18.214 102.631
18.2591 84.519
18.3044 88.2098
18.3495 99.1419
18.3948 105.353
18.4399 95.7444
18.4852 76.9237
18.5303 65.2228
18.5756 61.1844
18.6207 60.1778
18.666 59.2683
18.7112 58.6888
18.7565 58.0408
18.8016 57.7213
18.8469 57.164
18.892 56.9884
18.9374 56.2061
18.9825 56.1145
19.0278 56.185
19.073 55.9592
19.1183 56.4724
19.1635 57.2423
19.2088 58.2935
19.254 60.5591
19.2993 64.9525
19.3447 71.821
19.3898 76.5202
19.4352 72.2872
19.4804 62.7287
19.5257 56.1298
19.5709 53.4175
19.6163 53.1316
19.6615 52.9691
19.7068 52.462
19.752 52.4942
19.7974 52.7073
19.8426 53.3552
19.888 53.9187
19.9332 55.0816
19.9786 57.5171
20.0238 60.8547
20.0692 66.1277
20.1144 69.3545
20.1598 67.514
20.205 62.4818
20.2504 61.2232
20.2957 63.3354
20.3411 65.2582
20.3863 63.6223
20.4318 57.8294
20.477 53.2702
20.5224 51.1975
20.5677 50.5068
20.6131 49.6089
20.6586 48.9599
20.7038 48.9202
20.7493 48.1981
20.7945 48.2794
20.84 48.0051
20.8853 47.9936
20.9307 47.7918
20.976 47.9764
21.0215 47.973
21.0668 48.2946
21.1122 48.5946
21.1575 49.2398
21.203 50.1274
21.2483 50.8034
21.2938 50.6107
21.3391 49.3354
21.3846 48.3512
21.4299 47.6687
21.4754 47.7652
21.5207 47.731
21.5662 47.81
21.6116 48.2219
21.6571 48.6895
21.7024 49.7855
21.7479 51.3613
21.7933 53.8949
21.8388 57.8202
21.8843 61.8642
21.9297 63.9856
21.9752 62.6816
22.0206 58.9833
22.0661 55.898
22.1115 55.6067
22.157 55.5841
22.2024 53.5974
22.248 50.8296
22.2933 49.2452
22.3389 48.4831
22.3843 48.3903
22.4299 48.4343
22.4753 48.1653
22.5208 47.9468
22.5662 47.6767
22.6118 47.8618
22.6572 48.0038
22.7028 48.3914
22.7483 48.7584
22.7939 49.4185
22.8393 50.765
22.8849 53.019
22.9303 55.3786
22.9759 57.2858
23.0214 56.9153
23.067 53.9302
23.1126 50.3976
23.1581 48.5713
23.2037 48.1666
23.2492 48.1238
23.2948 48.0087
23.3403 48.1694
23.3859 48.6262
23.4314 49.6555
23.477 51.5849
23.5225 53.7068
23.5682 56.374
23.6137 57.422
23.6593 55.2428
23.7048 51.1124
23.7505 47.7961
23.796 46.1026
23.8417 45.4501
23.8872 44.8985
23.9329 44.7222
23.9784 44.2404
24.0241 44.0419
24.0697 43.8751
24.1154 43.6278
24.1609 43.3856
24.2066 43.0904
24.2522 43.1793
24.2979 42.9031
24.3434 42.8276
24.3892 42.5245
24.4349 42.4899
24.4805 42.2938
24.5262 42.6364
24.5718 42.3789
24.6175 42.442
24.6631 42.2126
24.7089 41.9049
24.7545 41.9014
24.8002 41.7255
24.8458 41.6993
24.8916 41.368
24.9372 41.4608
24.983 41.9079
25.0286 42.1548
25.0744 42.5703
25.12 43.1366
25.1658 43.7635
25.2114 43.9543
25.2572 44.1754
25.3029 44.2932
25.3487 44.5032
25.3943 44.0559
25.4402 42.9949
25.4858 41.9142
25.5316 40.9713
25.5773 40.2346
25.6231 40.266
25.669 39.8211
25.7147 40.0449
25.7605 39.9313
25.8062 40.074
25.8521 40.0608
25.8977 40.1067
25.9436 40.3781
25.9893 40.3965
26.0352 40.9707
26.0809 40.9293
26.1268 41.2293
26.1725 40.8522
26.2184 40.3314
26.2641 39.7042
26.31 39.3608
26.3557 39.5381
26.4017 39.5815
26.4474 39.7953
26.4933 40.1401
26.5391 40.6484
26.585 41.106
26.6308 41.5676
26.6767 41.7384
26.7225 41.3959
26.7684 40.9625
26.8142 40.4267
26.8601 39.9433
26.9059 39.5904
26.9519 38.9243
26.9979 38.7112
27.0437 38.2544
27.0896 38.2007
27.1354 38.223
27.1814 38.0898
27.2272 37.993
27.2732 37.9875
27.3191 37.8574
27.3651 37.8037
27.4109 37.8356
27.4569 37.8269
27.5027 38.0061
27.5488 38.074
27.5946 37.8459
27.6407 37.6798
27.6865 37.4308
27.7326 37.2977
27.7784 37.3758
27.8245 37.3069
27.8703 37.5514
27.9164 37.6856
27.9623 37.881
28.0084 38.1959
28.0543 38.5869
28.1003 38.5973
28.1462 38.328
28.1923 37.9725
28.2384 37.4761
28.2843 37.2311
28.3304 36.6351
28.3764 36.1308
28.4225 35.9805
28.4684 35.6634
28.5145 35.6166
28.5605 35.4487
28.6066 35.2921
28.6526 35.1442
28.6987 35.179
28.7447 35.0473
28.7908 34.9729
28.8368 35.0641
28.8829 34.9883
28.9289 34.9551
28.9751 34.694
29.0211 34.5342
29.0673 34.2536
29.1133 34.1465
29.1595 33.8079
29.2055 33.7944
29.2517 33.8237
29.2977 33.8966
29.3439 33.7766
29.3899 33.875
29.4361 33.683
29.4824 33.6148
29.5284 33.29
29.5746 33.0118
29.6207 32.5966
29.6669 32.6372
29.713 32.6568
29.7593 32.4867
29.8053 32.4105
29.8516 32.2897
29.8977 32.3442
29.9439 32.1166
29.99 32.1319
30.0363 32.0438
30.0824 32.1148
30.1287 32.0367
30.1748 32.0526
30.2211 31.9153
30.2673 31.797
30.3136 31.9081
30.3597 31.7853
30.406 31.8377
30.4522 31.7051
30.4985 31.6205
30.5447 31.7643
30.591 31.6756
30.6372 31.8173
30.6835 31.6798
30.7297 31.8061
30.7761 31.7568
30.8224 31.5392
30.8686 31.4916
30.915 31.189
30.9612 31.1012
31.0076 30.813
31.0538 30.8032
31.1002 30.6771
31.1464 30.5148
31.1928 30.5295
31.2391 30.505
31.2855 30.4357
31.3317 30.4382
31.3781 30.4272
31.4244 30.4844
31.4708 30.4492
31.5171 30.387
31.5636 30.3752
31.6098 30.0895
31.6563 29.9779
31.7026 29.7631
31.7491 29.7424
31.7953 29.7885
31.8418 29.7528
31.8881 29.6818
31.9346 29.6955
31.9809 29.7017
32.0275 29.5262
32.074 29.4318
32.1203 29.2526
32.1668 29.2112
32.2132 28.9941
32.2597 28.8048
32.306 28.8576
32.3526 28.5895
32.399 28.5539
32.4455 28.3948
32.4919 28.3495
32.5385 28.3875
32.5848 28.1651
32.6314 28.1571
32.6778 28.0628
32.7244 27.9065
32.7708 27.7902
32.8174 27.7993
32.8638 27.7162
32.9104 27.6679
32.9569 27.6574
33.0035 27.5983
33.0499 27.4945
33.0966 27.4179
33.143 27.4391
33.1897 27.3589
33.2361 27.3009
33.2828 27.2227
33.3293 27.069
33.3759 27.0702
33.4226 26.9381
33.4691 26.7578
33.5158 26.6266
33.5623 26.5578
33.609 26.3685
33.6555 26.4614
33.7022 26.2279
33.7487 26.1148
33.7954 26.2472
33.842 26.0823
33.8887 26.0287
33.9353 25.8624
33.982 25.7981
34.0286 25.7802
34.0753 25.6911
34.1219 25.6143
34.1687 25.5354
34.2152 25.4415
34.262 25.3161
34.3086 25.2334
34.3554 25.2163
34.402 25.0737
34.4488 25.0202
34.4954 24.9549
34.5422 24.8482
34.5889 24.7722
34.6357 24.6659
34.6825 24.6118
34.7292 24.5448
34.776 24.4249
34.8227 24.3831
34.8695 24.3239
34.9162 24.3223
34.9631 24.1724
35.0098 24.2226
35.0566 24.0707
35.1033 24.0787
35.1502 23.9681
35.1969 23.8576
35.2438 23.7674
35.2906 23.7243
35.3375 23.7572
35.3842 23.6309
35.4311 23.7049
35.4779 23.7027
35.5248 23.5541
35.5716 23.4929
35.6185 23.494
35.6653 23.338
35.7123 23.3451
35.759 23.2089
35.806 23.0069
35.8528 22.9485
35.8998 22.9402
35.9468 22.7956
35.9936 22.8172
36.0406 22.7412
36.0874 22.7318
36.1345 22.7125
36.1813 22.5772
36.2283 22.4372
36.2752 22.3514
36.3222 22.4115
36.3691 22.27
36.4161 22.1099
36.463 22.1836
36.5101 22.0955
36.557 21.9904
36.6041 21.878
36.651 21.9999
36.6981 21.8747
36.745 21.8317
36.7921 21.7307
36.839 21.6276
36.8861 21.5216
36.9331 21.4742
36.9802 21.4335
37.0272 21.2655
37.0743 21.298
37.1213 21.147
37.1684 21.2434
37.2154 21.0797
37.2626 20.9979
37.3098 21.0062
37.3568 20.9287
37.404 20.8872
37.451 20.7517
37.4982 20.7202
37.5452 20.5765
37.5924 20.5634
37.6395 20.5626
37.6867 20.4865
37.7337 20.4194
37.781 20.2024
37.8281 20.2829
37.8753 20.121
37.9224 20.0571
37.9697 19.9958
38.0168 19.9608
38.064 19.8991
38.1111 19.8557
38.1584 19.8392
38.2056 19.7397
38.2529 19.6786
38.3 19.5475
38.3473 19.5225
38.3945 19.4296
38.4418 19.3908
38.489 19.4355
38.5363 19.226
38.5837 19.2175
38.6309 19.1584
38.6782 19.0594
38.7254 19.025
38.7728 19.0234
38.82 18.9514
38.8674 18.8368
38.9146 18.7848
38.9621 18.6742
39.0093 18.671
39.0567 18.6165
39.104 18.5746
39.1514 18.5015
39.1987 18.4374
39.2461 18.3975
39.2934 18.3651
39.3409 18.2435
39.3882 18.1884
39.4356 18.1379
39.483 18.0924
39.5304 18.0569
39.5778 18.0561
39.6253 17.9399
39.6726 17.803
39.7201 17.7982
39.7675 17.7277
39.815 17.7712
39.8624 17.6188
39.9099 17.6595
39.9575 17.5363
40.0049 17.4788
40.0525 17.4186
40.0999 17.3435
40.1474 17.3248
40.1949 17.2647
40.2425 17.1726
40.2899 17.1109
40.3375 17.1215
40.385 17.0148
40.4326 16.9111
40.48 16.9407
40.5277 16.8725
40.5752 16.847
40.6228 16.7809
40.6703 16.7597
40.718 16.6663
40.7655 16.634
40.8132 16.5481
40.8607 16.544
40.9084 16.4761
40.9559 16.4083
41.0036 16.3768
41.0512 16.3141
41.0989 16.2723
41.1465 16.1722
41.1942 16.1412
41.242 16.02
41.2896 16.0579
41.3373 15.9874
41.3849 15.9508
41.4327 15.8371
41.4803 15.7787
41.5281 15.7388
41.5758 15.6715
41.6236 15.6887
41.6712 15.6417
41.7191 15.5095
41.7667 15.499
41.8146 15.5046
41.8622 15.4137
41.9101 15.3626
41.9578 15.2397
42.0057 15.2451
42.0534 15.1686
42.1013 15.1706
42.149 15.0772
42.1969 15.0449
42.2446 15.0028
42.2925 14.9476
42.3403 14.906
42.3882 14.8931
42.436 14.8296
42.4839 14.7756
42.5319 14.6906
42.5797 14.6251
42.6277 14.5964
42.6755 14.5602
42.7235 14.4822
42.7713 14.4569
42.8193 14.3969
42.8671 14.3674
42.9152 14.3585
42.963 14.2382
43.0111 14.1582
43.0589 14.1918
43.107 14.0669
43.1549 14.0585
43.2029 13.9662
43.2508 13.9721
43.2989 13.9299
43.3468 13.7812
43.3949 13.795
43.4429 13.8324
43.491 13.7493
43.5389 13.7289
43.5871 13.6396
43.635 13.5723
43.6832 13.5579
43.7312 13.4952
43.7793 13.4138
43.8273 13.4142
43.8755 13.3636
43.9237 13.2514
43.9717 13.2662
44.0199 13.2131
44.068 13.1714
44.1162 13.1257
44.1642 13.1017
44.2125 13.0767
44.2606 12.9859
44.3088 12.922
44.3569 12.875
44.4052 12.8423
44.4533 12.7975
44.5016 12.7935
44.5497 12.72
44.598 12.6958
44.6461 12.6121
44.6945 12.5933
44.7426 12.5644
44.791 12.4518
44.8391 12.4628
44.8875 12.3844
44.9357 12.3764
44.984 12.3487
45.0322 12.2737
45.0806 12.2173
45.1288 12.1692
45.1773 12.162
45.2257 12.0827
45.2739 12.1004
45.3224 12.0276
45.3706 11.9987
45.4191 11.9044
45.4673 11.893
45.5158 11.8393
45.5641 11.7936
45.6126 11.7767
45.6609 11.7255
45.7094 11.7028
45.7577 11.6247
45.8063 11.5555
45.8546 11.5738
45.9031 11.5191
45.9515 11.4958
46.0001 11.4253
46.0484 11.3937
46.097 11.3276
46.1454 11.3052
46.194 11.2744
46.2424 11.2439
46.291 11.1909
46.3395 11.1017
46.3881 11.1319
46.4365 11.1045
46.4852 11.0381
46.5337 10.9885
46.5823 10.9651
46.631 10.8956
46.6795 10.8589
46.7282 10.8915
46.7767 10.846
46.8254 10.7472
46.8739 10.6876
46.9226 10.6645
46.9712 10.5847
47.0199 10.5808
47.0685 10.5343
47.1173 10.4979
47.1658 10.4595
47.2146 10.4763
47.2632 10.4179
47.312 10.368
47.3606 10.3032
47.4095 10.2809
47.4581 10.2381
47.5069 10.2256
47.5556 10.1648
47.6044 10.1457
47.6531 10.1078
47.702 10.0664
47.7507 9.99472
47.7996 9.96311
47.8483 9.97762
47.8972 9.92034
47.9461 9.87322
47.9948 9.8306
48.0438 9.78645
48.0925 9.80459
48.1415 9.73908
48.1902 9.71818
48.2392 9.69374
48.288 9.66385
48.337 9.59287
48.3858 9.57178
48.4348 9.55416
48.4837 9.52252
48.5327 9.45096
48.5815 9.44816
48.6306 9.38336
48.6795 9.36078
48.7285 9.31421
48.7774 9.28728
48.8265 9.2664
48.8754 9.22374
48.9245 9.16407
48.9734 9.15584
49.0226 9.16168
49.0715 9.09215
49.1206 9.03308
49.1696 9.01889
49.2188 8.99145
49.2679 8.94714
49.3169 8.91351
49.3661 8.87343
49.4151 8.83651
49.4643 8.80625
49.5134 8.74496
49.5626 8.74243
49.6117 8.6798
49.6609 8.68268
49.71 8.62525
49.7592 8.59645
49.8083 8.55487
49.8576 8.55589
49.9067 8.50593
49.956 8.47025
50.0052 8.45155
50.0545 8.39428
50.1036 8.36033
50.153 8.33564
50.2022 8.3026
50.2515 8.27013
50.3007 8.22115
50.3501 8.19058
50.3993 8.16353
50.4487 8.17142
50.498 8.12495
50.5474 8.10649
50.5966 8.0094
50.6461 8.01555
50.6955 8.01514
50.7448 7.96175
50.7943 7.95294
50.8436 7.90599
50.8931 7.8655
50.9424 7.84932
50.9919 7.78152
51.0413 7.77451
51.0908 7.72229
51.1402 7.7314
51.1897 7.69044
51.2391 7.64454
51.2887 7.64848
51.3381 7.58127
51.3877 7.5655
51.4371 7.5237
51.4867 7.47905
51.5362 7.47404
51.5858 7.45505
51.6353 7.38679
51.6849 7.3819
51.7344 7.36101
51.7841 7.33995
51.8336 7.27384
51.8833 7.29479
51.9328 7.20622
51.9826 7.1951
52.0323 7.16248
52.0818 7.13413
52.1316 7.11997
52.1812 7.09286
52.231 7.05267
52.2806 7.03313
52.3304 7.01966
52.38 6.95694
52.4298 6.91791
52.4794 6.9032
52.5293 6.86651
52.5789 6.83509
52.6288 6.8103
52.6785 6.74529
52.7284 6.77113
52.7781 6.72961
52.828 6.71171
52.8777 6.64561
52.9276 6.65419
52.9774 6.63403
53.0273 6.59761
53.0771 6.53314
53.1271 6.55333
53.1769 6.53384
53.2269 6.5026
53.2767 6.47012
53.3267 6.41944
53.3765 6.41846
53.4266 6.33506
53.4766 6.33058
53.5265 6.33981
53.5765 6.24742
53.6264 6.25842
53.6765 6.25478
53.7264 6.22411
53.7765 6.16338
53.8265 6.13482
53.8766 6.13801
53.9266 6.05501
53.9767 6.06182
54.0267 6.05576
54.0769 6.01636
54.1269 5.96633
54.1771 5.97207
54.2271 5.93087
54.2773 5.88199
54.3274 5.8488
54.3776 5.8496
54.4277 5.77105
54.478 5.83312
54.528 5.72737
54.5783 5.73173
54.6285 5.68681
54.6788 5.59939
54.7289 5.52767
54.7792 5.55657
54.8296 5.46121
54.8798 5.41899
54.9301 5.43485
54.9803 5.36925
55.0307 5.3629
55.0809 5.3067
55.1314 5.30198
55.1816 5.20565
55.232 5.23092
55.2823 5.15105
55.3328 5.0912
55.383 5.03194
55.4335 5.04902
55.4838 4.98028
55.5344 4.91844
55.5847 4.88875
55.6352 4.84921
55.6856 4.79993
55.7361 4.76728