File: XRD/Ni3Fe_FD0034.xy
TT I
1.27165 32.6375
1.31627 32.276
1.36089 30.8511
1.40551 27.0859
1.45013 27.673
1.49476 27.1238
1.53938 26.4689
1.584 25.1301
1.62863 24.4018
1.67325 23.5863
1.71787 23.4897
1.7625 23.0437
1.80712 21.6401
1.85174 22.323
1.89636 22.3938
1.94099 22.537
1.98562 22.1484
2.03025 22.5777
2.07487 22.4954
2.11949 23.3477
2.16411 23.7315
2.20874 24.8115
2.25338 24.4222
2.298 25.4698
2.34263 24.5587
2.38725 23.4542
2.43188 23.4612
2.4765 23.6298
2.52115 23.7779
2.56577 24.0771
2.6104 24.9769
2.65503 25.949
2.69965 27.3768
2.7443 28.6716
2.78893 30.606
2.83356 33.9699
2.87818 36.7311
2.92281 41.7107
2.96744 47.323
3.01209 55.265
3.05672 64.0869
3.10135 74.8662
3.14599 79.7029
3.19062 79.3554
3.23527 71.9489
3.2799 61.2454
3.32454 50.4819
3.36917 43.455
3.4138 38.2395
3.45844 35.3952
3.50309 34.063
3.54773 33.7767
3.59237 35.4906
3.637 38.0467
3.68164 38.509
3.7263 37.1948
3.77094 34.3843
3.81558 31.9927
3.86022 31.4726
3.90486 32.1033
3.9495 32.2124
3.99416 32.7869
4.0388 34.7833
4.08344 37.7098
4.12809 41.6114
4.17273 48.6307
4.21738 60.1354
4.26204 72.4109
4.30669 78.4704
4.35133 72.205
4.39598 61.4461
4.44063 55.5091
4.4853 53.2491
4.52995 49.1546
4.5746 46.413
4.61925 44.9945
4.6639 44.4297
4.70855 45.1535
4.75322 46.9357
4.79788 48.8496
4.84253 52.5465
4.88719 57.1253
4.93184 63.2555
4.97652 72.2634
5.02118 89.2774
5.06583 113.907
5.11049 140.917
5.15515 190.729
5.19981 299.158
5.24449 636.946
5.28916 1339.24
5.33382 3521.62
5.37848 3494.07
5.42315 999.43
5.46783 341.242
5.5125 206.349
5.55716 154.386
5.60183 126.091
5.6465 113.268
5.69117 107.179
5.73586 101.289
5.78053 97.1132
5.8252 98.0105
5.86988 103.573
5.91455 114.765
5.95924 135.102
6.00392 183.295
6.0486 297.562
6.09328 506.107
6.13795 906.993
6.18263 1273.29
6.22733 662.38
6.27201 275.567
6.3167 152.586
6.36138 103.793
6.40606 80.7521
6.45075 69.571
6.49545 61.4348
6.54014 56.7261
6.58483 54.2098
6.62952 53.6065
6.67421 54.5415
6.71892 55.7216
6.76361 54.9618
6.8083 51.5748
6.853 48.039
6.89769 45.7908
6.94239 43.5675
6.98711 41.6962
7.03181 41.494
7.07651 41.845
7.12121 42.4834
7.16591 44.8116
7.21063 48.146
7.25533 54.6068
7.30004 65.8342
7.34475 69.1008
7.38945 60.5379
7.43416 51.412
7.47889 47.6789
7.5236 53.8837
7.56831 108.241
7.61303 152.108
7.65774 68.1299
7.70247 43.6874
7.74719 39.7192
7.79191 38.527
7.83663 37.7602
7.88135 37.5005
7.92607 37.5907
7.97081 37.8407
8.01553 38.3951
8.06026 39.5025
8.10498 40.2514
8.14971 41.9036
8.19446 43.4347
8.23919 44.9896
8.28392 46.8938
8.32865 49.016
8.37339 52.9274
8.41812 57.6834
8.46288 67.0726
8.50761 82.1294
8.55235 114.503
8.59709 176.776
8.64183 238.773
8.68658 451.337
8.73134 789.308
8.77609 546.392
8.82083 228.571
8.86558 122.533
8.91033 90.7325
8.9551 77.0693
8.99985 70.216
9.04461 64.9979
9.08936 62.1404
9.13412 60.8599
9.17888 62.4163
9.22365 72.1515
9.26841 149.13
9.31318 267.947
9.35794 135.397
9.4027 69.0387
9.44749 58.462
9.49226 54.9376
9.53703 53.6642
9.5818 53.5584
9.62657 54.1216
9.67134 55.2082
9.71614 56.5449
9.76091 57.3284
9.80569 59.4585
9.85047 62.4099
9.89525 67.0806
9.94005 73.4451
9.98484 84.4811
10.0296 108.648
10.0744 155.312
10.1192 197.306
10.164 279.63
10.2088 577.889
10.2536 795.412
10.2984 444.917
10.3432 200.895
10.388 118.12
10.4328 91.5113
10.4776 84.3712
10.5224 89.5051
10.5672 95.4006
10.612 109.666
10.6568 179.704
10.7017 282.651
10.7465 236.82
10.7913 122.65
10.8361 68.4359
10.8809 54.9073
10.9257 49.8248
10.9706 47.315
11.0154 45.8674
11.0602 44.5236
11.105 43.8695
11.1499 43.0398
11.1947 43.2933
11.2395 43.0211
11.2844 42.7006
11.3292 41.2213
11.374 40.204
11.4189 39.3683
11.4637 38.811
11.5086 38.5717
11.5534 38.4093
11.5983 38.6451
11.6431 38.3869
11.688 37.7907
11.7328 37.5091
11.7777 37.5002
11.8225 37.7711
11.8674 38.5421
11.9122 40.7753
11.9571 49.3638
12.002 82.2788
12.0468 90.1251
12.0917 57.0834
12.1366 47.3072
12.1814 48.6765
12.2263 51.0722
12.2712 59.0181
12.3161 76.9888
12.3609 95.1822
12.4058 81.5761
12.4507 59.0303
12.4956 48.3357
12.5405 43.6814
12.5853 41.8626
12.6302 41.2274
12.6751 41.6836
12.72 41.9734
12.7649 41.3882
12.8098 40.3284
12.8547 40.0978
12.8996 40.2641
12.9445 40.4621
12.9894 41.2189
13.0343 42.1296
13.0792 44.1054
13.1242 49.3081
13.1691 60.5
13.214 64.1187
13.2589 67.521
13.3038 72.0131
13.3487 79.8386
13.3937 107.042
13.4386 170.284
13.4835 217.547
13.5285 163.894
13.5734 107.647
13.6183 87.7924
13.6633 81.0639
13.7082 85.247
13.7531 112.779
13.7981 177.797
13.843 197.006
13.888 126.846
13.9329 75.9369
13.9779 58.0206
14.0228 50.9035
14.0678 47.3524
14.1127 46.8769
14.1577 51.343
14.2027 74.2631
14.2476 89.4108
14.2926 63.193
14.3376 46.5302
14.3825 42.1675
14.4275 40.7777
14.4725 39.9249
14.5175 39.6988
14.5624 39.1042
14.6074 39.0984
14.6524 39.4878
14.6974 39.6873
14.7424 40.1032
14.7874 40.6009
14.8324 42.4099
14.8774 45.4981
14.9224 49.5504
14.9674 51.1129
15.0124 54.7901
15.0574 65.8482
15.1024 91.8171
15.1474 121.882
15.1924 110.575
15.2374 76.0472
15.2824 56.0967
15.3274 47.2146
15.3725 43.6479
15.4175 41.6039
15.4625 40.4702
15.5076 39.9076
15.5526 39.5418
15.5976 39.3935
15.6426 39.4839
15.6877 39.6199
15.7327 40.7304
15.7778 43.1167
15.8228 46.8433
15.8679 48.6099
15.9129 50.2793
15.958 57.7438
16.003 74.2801
16.0481 105.691
16.0931 119.511
16.1382 98.8709
16.1833 71.9823
16.2283 51.5782
16.2734 42.97
16.3185 39.1294
16.3636 37.1611
16.4086 35.9764
16.4537 35.3416
16.4988 34.2211
16.5439 33.8273
16.589 33.4093
16.6341 32.9951
16.6792 32.7319
16.7243 32.5749
16.7694 32.5941
16.8145 32.7338
16.8596 32.7031
16.9047 33.152
16.9498 34.4845
16.9949 38.183
17.04 40.8737
17.0851 37.7351
17.1302 34.6123
17.1754 34.1827
17.2205 34.6005
17.2656 35.018
17.3108 35.4717
17.3559 35.7481
17.401 38.0331
17.4462 42.4598
17.4913 49.0955
17.5365 49.9902
17.5815 43.6829
17.6268 38.6449
17.6718 36.5658
17.7171 35.9388
17.7622 36.2215
17.8074 38.2002
17.8525 41.8383
17.8977 42.5588
17.9428 40.3995
17.9881 40.4226
18.0331 42.4961
18.0784 43.3829
18.1237 44.3898
18.1688 47.3836
18.214 55.2223
18.2591 71.914
18.3044 93.1526
18.3495 91.9279
18.3948 70.726
18.4399 57.3025
18.4852 55.0596
18.5303 62.1094
18.5756 70.5989
18.6207 67.7212
18.666 56.1783
18.7112 46.9396
18.7565 40.5546
18.8016 38.1708
18.8469 36.5198
18.892 35.756
18.9374 35.174
18.9825 34.6493
19.0278 34.3429
19.073 34.3456
19.1183 34.1225
19.1635 34.2073
19.2088 34.7015
19.254 35.5527
19.2993 36.199
19.3447 37.5949
19.3898 42.0394
19.4352 46.9407
19.4804 47.0279
19.5257 45.1186
19.5709 47.009
19.6163 46.892
19.6615 42.3048
19.7068 37.2623
19.752 34.7612
19.7974 33.5605
19.8426 32.7899
19.888 32.4349
19.9332 32.5307
19.9786 33.0659
20.0238 33.0219
20.0692 33.248
20.1144 33.3515
20.1598 34.234
20.205 35.9772
20.2504 39.3532
20.2957 44.1828
20.3411 45.4214
20.3863 42.2543
20.4318 38.8755
20.477 38.8902
20.5224 41.718
20.5677 43.5509
20.6131 40.4911
20.6586 35.8105
20.7038 33.0952
20.7493 31.7885
20.7945 31.6554
20.84 32.7205
20.8853 34.1661
20.9307 33.4575
20.976 31.1948
21.0215 29.9214
21.0668 29.5728
21.1122 29.6356
21.1575 29.3996
21.203 29.3926
21.2483 29.405
21.2938 29.5978
21.3391 29.4954
21.3846 30.1841
21.4299 31.1046
21.4754 32.2001
21.5207 32.4196
21.5662 31.6596
21.6116 30.8016
21.6571 30.124
21.7024 29.9383
21.7479 30.3588
21.7933 30.86
21.8388 31.1831
21.8843 31.3372
21.9297 31.7305
21.9752 32.8086
22.0206 34.8422
22.0661 37.5458
22.1115 42.0865
22.157 45.4785
22.2024 44.8856
22.248 41.7201
22.2933 39.8044
22.3389 38.7043
22.3843 38.0496
22.4299 35.906
22.4753 33.5793
22.5208 31.9876
22.5662 31.0303
22.6118 30.7015
22.6572 30.3747
22.7028 30.2855
22.7483 30.1906
22.7939 30.4882
22.8393 31.2065
22.8849 32.0217
22.9303 32.2732
22.9759 31.9492
23.0214 31.6074
23.067 32.1472
23.1126 33.42
23.1581 36.1025
23.2037 39.7204
23.2492 40.4841
23.2948 37.551
23.3403 34.1944
23.3859 32.6991
23.4314 32.1431
23.477 32.7561
23.5225 33.7774
23.5682 34.0957
23.6137 33.321
23.6593 32.5652
23.7048 33.3251
23.7505 34.9853
23.796 38.2003
23.8417 41.4763
23.8872 40.5566
23.9329 36.3314
23.9784 32.7489
24.0241 30.7598
24.0697 29.8371
24.1154 29.2054
24.1609 29.1142
24.2066 28.8539
24.2522 28.2598
24.2979 27.693
24.3434 27.4338
24.3892 27.199
24.4349 27.2459
24.4805 26.9377
24.5262 26.8301
24.5718 26.7941
24.6175 26.8512
24.6631 26.8655
24.7089 27.3011
24.7545 27.9638
24.8002 28.0569
24.8458 27.7596
24.8916 26.9651
24.9372 26.7954
24.983 26.619
25.0286 26.5541
25.0744 26.4223
25.12 26.4623
25.1658 26.604
25.2114 26.7464
25.2572 27.1057
25.3029 27.5077
25.3487 28.1439
25.3943 29.1092
25.4402 29.5066
25.4858 29.5631
25.5316 29.4933
25.5773 30.0525
25.6231 31.0029
25.669 30.3341
25.7147 28.8508
25.7605 27.3918
25.8062 26.8049
25.8521 26.5289
25.8977 26.6749
25.9436 26.7907
25.9893 26.533
26.0352 26.3654
26.0809 25.8953
26.1268 25.7267
26.1725 25.885
26.2184 25.9089
26.2641 26.3726
26.31 26.9441
26.3557 27.8497
26.4017 27.8961
26.4474 27.7025
26.4933 26.9565
26.5391 26.525
26.585 26.2465
26.6308 25.9799
26.6767 26.0338
26.7225 26.2385
26.7684 26.4299
26.8142 26.8165
26.8601 27.7386
26.9059 28.7757
26.9519 29.4077
26.9979 29.3798
27.0437 28.9089
27.0896 28.5995
27.1354 27.9814
27.1814 27.0234
27.2272 26.1612
27.2732 25.5567
27.3191 25.157
27.3651 25.1146
27.4109 24.9738
27.4569 24.7958
27.5027 24.7043
27.5488 24.9036
27.5946 24.8851
27.6407 24.8314
27.6865 24.9299
27.7326 24.9194
27.7784 25.0629
27.8245 25.2866
27.8703 25.4787
27.9164 25.2205
27.9623 24.8508
28.0084 24.7755
28.0543 24.9862
28.1003 25.296
28.1462 25.582
28.1923 25.7805
28.2384 25.696
28.2843 26.1781
28.3304 26.7795
28.3764 27.3123
28.4225 27.0814
28.4684 26.471
28.5145 26.0771
28.5605 25.821
28.6066 25.2397
28.6526 24.771
28.6987 24.3563
28.7447 23.8755
28.7908 23.5728
28.8368 23.2203
28.8829 23.1458
28.9289 23.075
28.9751 22.8666
29.0211 22.8475
29.0673 22.7176
29.1133 22.9257
29.1595 23.0041
29.2055 23.2562
29.2517 23.2805
29.2977 22.955
29.3439 22.545
29.3899 22.3758
29.4361 22.198
29.4824 22.0326
29.5284 22.0962
29.5746 22.0938
29.6207 22.1934
29.6669 22.3463
29.713 22.5948
29.7593 22.4554
29.8053 22.3105
29.8516 21.9255
29.8977 21.6008
29.9439 21.513
29.99 21.3448
30.0363 21.2838
30.0824 21.4131
30.1287 21.3892
30.1748 21.4631
30.2211 21.5451
30.2673 21.2947
30.3136 21.2245
30.3597 21.1625
30.406 21.1735
30.4522 21.172
30.4985 21.3411
30.5447 21.5119
30.591 21.3991
30.6372 21.2202
30.6835 21.0127
30.7297 21.014
30.7761 20.9989
30.8224 21.0684
30.8686 21.1696
30.915 21.2736
30.9612 21.492
31.0076 21.8681
31.0538 22.0923
31.1002 22.0751
31.1464 21.8628
31.1928 21.6742
31.2391 21.5292
31.2855 21.1966
31.3317 20.8666
31.3781 20.7247
31.4244 20.5613
31.4708 20.5101
31.5171 20.4123
31.5636 20.4637
31.6098 20.5419
31.6563 20.675
31.7026 20.6191
31.7491 20.746
31.7953 20.9114
31.8418 20.9785
31.8881 20.9137
31.9346 20.6095
31.9809 20.339
32.0275 20.2596
32.074 20.1663
32.1203 20.1976
32.1668 20.2213
32.2132 20.3181
32.2597 20.3924
32.306 20.5791
32.3526 20.471
32.399 20.1424
32.4455 19.9884
32.4919 19.7353
32.5385 19.7196
32.5848 19.4027
32.6314 19.3973
32.6778 19.2997
32.7244 19.0797
32.7708 18.92
32.8174 18.9382
32.8638 18.8063
32.9104 18.8252
32.9569 18.8709
33.0035 18.8398
33.0499 18.8514
33.0966 18.7585
33.143 18.7663
33.1897 18.649
33.2361 18.5016
33.2828 18.4461
33.3293 18.4292
33.3759 18.4757
33.4226 18.6041
33.4691 18.6168
33.5158 18.6968
33.5623 18.7193
33.609 18.6968
33.6555 18.6148
33.7022 18.5585
33.7487 18.3247
33.7954 18.0988
33.842 17.9034
33.8887 17.8792
33.9353 17.8199
33.982 17.7165
34.0286 17.72
34.0753 17.6324
34.1219 17.5645
34.1687 17.5997
34.2152 17.5849
34.262 17.5317
34.3086 17.496
34.3554 17.3957
34.402 17.2078
34.4488 17.1569
34.4954 17.1298
34.5422 17.0742
34.5889 17.075
34.6357 17.0631
34.6825 17.0957
34.7292 16.9745
34.776 16.9136
34.8227 16.7821
34.8695 16.7317
34.9162 16.6577
34.9631 16.5373
35.0098 16.5286
35.0566 16.4134
35.1033 16.4251
35.1502 16.4085
35.1969 16.341
35.2438 16.384
35.2906 16.3016
35.3375 16.3672
35.3842 16.2539
35.4311 16.2636
35.4779 16.2676
35.5248 16.2375
35.5716 16.1863
35.6185 16.1706
35.6653 16.2464
35.7123 16.1766
35.759 16.3696
35.806 16.3173
35.8528 16.3068
35.8998 16.2948
35.9468 16.1449
35.9936 16.1898
36.0406 15.9598
36.0874 15.912
36.1345 15.806
36.1813 15.6458
36.2283 15.6647
36.2752 15.5517
36.3222 15.599
36.3691 15.4951
36.4161 15.4344
36.463 15.4381
36.5101 15.5053
36.557 15.4904
36.6041 15.3631
36.651 15.3648
36.6981 15.2237
36.745 15.1968
36.7921 15.1448
36.839 15.0661
36.8861 15.0838
36.9331 15.0769
36.9802 15.0955
37.0272 15.0027
37.0743 14.9132
37.1213 14.9354
37.1684 14.8063
37.2154 14.7098
37.2626 14.6827
37.3098 14.6317
37.3568 14.6099
37.404 14.5538
37.451 14.4479
37.4982 14.3806
37.5452 14.3298
37.5924 14.2902
37.6395 14.3922
37.6867 14.2517
37.7337 14.1887
37.781 14.1983
37.8281 14.1175
37.8753 14.0216
37.9224 14.0435
37.9697 13.9816
38.0168 13.9971
38.064 13.955
38.1111 13.9474
38.1584 13.9073
38.2056 13.8804
38.2529 13.7243
38.3 13.6461
38.3473 13.689
38.3945 13.5404
38.4418 13.554
38.489 13.5156
38.5363 13.4138
38.5837 13.4783
38.6309 13.4229
38.6782 13.4188
38.7254 13.3148
38.7728 13.3339
38.82 13.2551
38.8674 13.2121
38.9146 13.1585
38.9621 13.1366
39.0093 13.1632
39.0567 13.1098
39.104 13.0457
39.1514 13.0333
39.1987 12.9873
39.2461 12.8905
39.2934 12.882
39.3409 12.7791
39.3882 12.7819
39.4356 12.7221
39.483 12.6683
39.5304 12.6662
39.5778 12.5801
39.6253 12.5817
39.6726 12.5109
39.7201 12.5003
39.7675 12.3853
39.815 12.4582
39.8624 12.3632
39.9099 12.3051
39.9575 12.3405
40.0049 12.3054
40.0525 12.2366
40.0999 12.2446
40.1474 12.1971
40.1949 12.2107
40.2425 12.1222
40.2899 12.1798
40.3375 12.069
40.385 11.9981
40.4326 11.9625
40.48 11.917
40.5277 11.9122
40.5752 11.9042
40.6228 11.8287
40.6703 11.795
40.718 11.7523
40.7655 11.736
40.8132 11.7225
40.8607 11.6962
40.9084 11.6696
40.9559 11.6012
41.0036 11.6138
41.0512 11.5704
41.0989 11.5585
41.1465 11.4979
41.1942 11.4872
41.242 11.434
41.2896 11.4037
41.3373 11.3235
41.3849 11.3168
41.4327 11.2547
41.4803 11.1933
41.5281 11.1766
41.5758 11.0969
41.6236 11.0737
41.6712 11.0662
41.7191 10.9911
41.7667 10.9804
41.8146 10.9641
41.8622 10.9345
41.9101 10.8979
41.9578 10.8259
42.0057 10.8387
42.0534 10.7728
42.1013 10.7887
42.149 10.7545
42.1969 10.7319
42.2446 10.6781
42.2925 10.6313
42.3403 10.5975
42.3882 10.5662
42.436 10.4639
42.4839 10.4199
42.5319 10.4281
42.5797 10.4481
42.6277 10.3646
42.6755 10.3643
42.7235 10.3129
42.7713 10.2448
42.8193 10.2083
42.8671 10.2188
42.9152 10.1298
42.963 10.1107
43.0111 10.0695
43.0589 10.0447
43.107 10.0347
43.1549 10.024
43.2029 9.98222
43.2508 9.95837
43.2989 9.88978
43.3468 9.80869
43.3949 9.82629
43.4429 9.79269
43.491 9.74025
43.5389 9.7383
43.5871 9.63108
43.635 9.62883
43.6832 9.62924
43.7312 9.59134
43.7793 9.57297
43.8273 9.50971
43.8755 9.4597
43.9237 9.51904
43.9717 9.46299
44.0199 9.41295
44.068 9.37341
44.1162 9.35409
44.1642 9.37102
44.2125 9.31548
44.2606 9.26912
44.3088 9.2239
44.3569 9.21491
44.4052 9.20009
44.4533 9.11523
44.5016 9.07445
44.5497 9.10837
44.598 9.09717
44.6461 9.05152
44.6945 9.01269
44.7426 8.96179
44.791 8.93896
44.8391 8.88748
44.8875 8.90985
44.9357 8.87396
44.984 8.85195
45.0322 8.7795
45.0806 8.71493
45.1288 8.76966
45.1773 8.68111
45.2257 8.69117
45.2739 8.64836
45.3224 8.62539
45.3706 8.55245
45.4191 8.56029
45.4673 8.54194
45.5158 8.50526
45.5641 8.4961
45.6126 8.44099
45.6609 8.43778
45.7094 8.37772
45.7577 8.38724
45.8063 8.30954
45.8546 8.29714
45.9031 8.26438
45.9515 8.2547
46.0001 8.21624
46.0484 8.2071
46.097 8.1441
46.1454 8.14819
46.194 8.11977
46.2424 8.06634
46.291 8.06524
46.3395 8.01049
46.3881 7.96304
46.4365 7.97575
46.4852 7.96798
46.5337 7.94601
46.5823 7.91091
46.631 7.84155
46.6795 7.85102
46.7282 7.80497
46.7767 7.79696
46.8254 7.75349
46.8739 7.71167
46.9226 7.64887
46.9712 7.68269
47.0199 7.6427
47.0685 7.61332
47.1173 7.56884
47.1658 7.53951
47.2146 7.53475
47.2632 7.50076
47.312 7.45333
47.3606 7.45396
47.4095 7.38108
47.4581 7.39125
47.5069 7.32872
47.5556 7.34245
47.6044 7.28833
47.6531 7.30329
47.702 7.24699
47.7507 7.25131
47.7996 7.18334
47.8483 7.18642
47.8972 7.16076
47.9461 7.1594
47.9948 7.08443
48.0438 7.07962
48.0925 7.05239
48.1415 7.06879
48.1902 6.99484
48.2392 6.98022
48.288 6.98401
48.337 6.945
48.3858 6.91674
48.4348 6.88508
48.4837 6.86293
48.5327 6.88418
48.5815 6.81003
48.6306 6.80816
48.6795 6.74572
48.7285 6.74949
48.7774 6.71089
48.8265 6.7028
48.8754 6.68662
48.9245 6.63349
48.9734 6.66011
49.0226 6.63349
49.0715 6.57311
49.1206 6.54243
49.1696 6.53144
49.2188 6.53427
49.2679 6.47056
49.3169 6.45187
49.3661 6.40964
49.4151 6.4112
49.4643 6.38932
49.5134 6.37709
49.5626 6.33746
49.6117 6.30274
49.6609 6.26332
49.71 6.26805
49.7592 6.2371
49.8083 6.23196
49.8576 6.20609
49.9067 6.17182
49.956 6.17164
50.0052 6.15233
50.0545 6.12792
50.1036 6.09185
50.153 6.09363
50.2022 6.07112
50.2515 6.04351
50.3007 5.98829
50.3501 6.01076
50.3993 5.97015
50.4487 5.95349
50.498 5.91144
50.5474 5.9252
50.5966 5.87084
50.6461 5.84059
50.6955 5.83235
50.7448 5.81299
50.7943 5.79909
50.8436 5.77733
50.8931 5.73147
50.9424 5.7646
50.9919 5.74477
51.0413 5.68075
51.0908 5.68899
51.1402 5.65131
51.1897 5.61997
51.2391 5.61669
51.2887 5.59482
51.3381 5.58011
51.3877 5.54348
51.4371 5.52567
51.4867 5.49758
51.5362 5.50867
51.5858 5.455
51.6353 5.38202
51.6849 5.42264
51.7344 5.39361
51.7841 5.38861
51.8336 5.35598
51.8833 5.33071
51.9328 5.34052
51.9826 5.28185
52.0323 5.27877
52.0818 5.23272
52.1316 5.20651
52.1812 5.19491
52.231 5.17884
52.2806 5.16933
52.3304 5.12426
52.38 5.1347
52.4298 5.07177
52.4794 5.07982
52.5293 5.07835
52.5789 5.03729
52.6288 5.04078
52.6785 4.97367
52.7284 4.97846
52.7781 4.95646
52.828 4.95184
52.8777 4.90888
52.9276 4.89828
52.9774 4.89064
53.0273 4.86252
53.0771 4.88215
53.1271 4.83909
53.1769 4.81252
53.2269 4.77932
53.2767 4.77548
53.3267 4.76575
53.3765 4.77408
53.4266 4.72196
53.4766 4.66854
53.5265 4.70782
53.5765 4.64651
53.6264 4.63778
53.6765 4.62195
53.7264 4.57316
53.7765 4.56213
53.8265 4.56102
53.8766 4.56034
53.9266 4.4954
53.9767 4.4756
54.0267 4.47592
54.0769 4.42765
54.1269 4.40386
54.1771 4.35252
54.2271 4.36097
54.2773 4.35553
54.3274 4.33532
54.3776 4.25702
54.4277 4.26195
54.478 4.24851
54.528 4.14342
54.5783 4.15761
54.6285 4.13483
54.6788 4.10332
54.7289 4.07173
54.7792 3.99736
54.8296 3.98857
54.8798 3.94356
54.9301 3.9101
54.9803 3.91938
55.0307 3.92099
55.0809 3.86569
55.1314 3.85119
55.1816 3.788
55.232 3.73771
55.2823 3.7145
55.3328 3.64145
55.383 3.63943
55.4335 3.63448
55.4838 3.50811
55.5344 3.55789
55.5847 3.56774
55.6352 3.54574
55.6856 3.49541
55.7361 3.46823