File: XRD/Ni3Fe_FD0676.xy
TT I
1.27165 7.30635
1.31627 6.49253
1.36089 6.31062
1.40551 5.67678
1.45013 6.07938
1.49476 6.00058
1.53938 6.10502
1.584 5.42841
1.62863 4.61701
1.67325 5.2122
1.71787 5.18253
1.7625 4.83314
1.80712 4.77169
1.85174 4.36762
1.89636 4.84959
1.94099 4.71919
1.98562 4.60993
2.03025 4.88039
2.07487 4.61556
2.11949 4.82214
2.16411 4.36834
2.20874 12.3488
2.25338 16.3798
2.298 5.78627
2.34263 4.86113
2.38725 5.7112
2.43188 5.58922
2.4765 6.97243
2.52115 6.90687
2.56577 7.93221
2.6104 7.85972
2.65503 7.59145
2.69965 7.49963
2.7443 7.70458
2.78893 8.01411
2.83356 8.06482
2.87818 8.86199
2.92281 8.95526
2.96744 9.51075
3.01209 10.4981
3.05672 11.0876
3.10135 12.2086
3.14599 12.5556
3.19062 14.2011
3.23527 14.8855
3.2799 15.7888
3.32454 17.1785
3.36917 17.7563
3.4138 18.9827
3.45844 19.496
3.50309 21.1797
3.54773 21.5676
3.59237 23.672
3.637 68.8153
3.68164 46.1403
3.7263 25.7998
3.77094 25.9574
3.81558 26.5948
3.86022 27.835
3.90486 29.1182
3.9495 29.2648
3.99416 30.603
4.0388 31.9792
4.08344 33.5527
4.12809 34.0865
4.17273 36.4788
4.21738 40.7765
4.26204 179.311
4.30669 151.962
4.35133 46.5348
4.39598 44.1218
4.44063 51.3909
4.4853 58.7967
4.52995 51.8826
4.5746 52.6321
4.61925 53.3635
4.6639 55.7315
4.70855 58.0879
4.75322 61.2037
4.79788 64.915
4.84253 67.6659
4.88719 72.7242
4.93184 75.6037
4.97652 80.7543
5.02118 87.7765
5.06583 95.5012
5.11049 106.493
5.15515 162.178
5.19981 395.961
5.24449 3006.9
5.28916 12419.2
5.33382 2644.39
5.37848 183.774
5.42315 128.137
5.46783 114.358
5.5125 106.492
5.55716 102.032
5.60183 98.6005
5.6465 96.4278
5.69117 94.4908
5.73586 92.7958
5.78053 92.7758
5.8252 92.6123
5.86988 93.7327
5.91455 95.366
5.95924 105.087
6.00392 233.456
6.0486 1010.63
6.09328 4562.32
6.13795 3174.49
6.18263 222.798
6.22733 91.4901
6.27201 81.7281
6.3167 92.1752
6.36138 76.8108
6.40606 68.9331
6.45075 67.3529
6.49545 65.2408
6.54014 63.6927
6.58483 62.5451
6.62952 62.3447
6.67421 83.1524
6.71892 114.136
6.76361 64.6808
6.8083 58.3371
6.853 57.4734
6.89769 56.586
6.94239 56.2585
6.98711 55.4142
7.03181 55.394
7.07651 54.6909
7.12121 54.55
7.16591 55.3803
7.21063 55.1771
7.25533 65.1093
7.30004 135.458
7.34475 78.2216
7.38945 55.6911
7.43416 53.8449
7.47889 54.0025
7.5236 54.6033
7.56831 55.0469
7.61303 56.1484
7.65774 56.1732
7.70247 56.017
7.74719 55.9019
7.79191 56.5859
7.83663 56.726
7.88135 57.5713
7.92607 58.4807
7.97081 59.9581
8.01553 60.8969
8.06026 62.5747
8.10498 63.7915
8.14971 70.9856
8.19446 70.684
8.23919 69.6759
8.28392 71.9378
8.32865 74.3231
8.37339 78.8034
8.41812 84.8013
8.46288 108.358
8.50761 179.325
8.55235 410.307
8.59709 1237.69
8.64183 2225.47
8.68658 890.953
8.73134 152.501
8.77609 98.2126
8.82083 92.2026
8.86558 90.0167
8.91033 89.6873
8.9551 89.4935
8.99985 84.8482
9.04461 83.5385
9.08936 83.2806
9.13412 82.0562
9.17888 82.2633
9.22365 82.5318
9.26841 81.9522
9.31318 82.9534
9.35794 83.3816
9.4027 83.6133
9.44749 84.3267
9.49226 84.8256
9.53703 85.7253
9.5818 88.0199
9.62657 91.365
9.67134 95.8805
9.71614 93.5522
9.76091 94.1057
9.80569 96.9624
9.85047 100.489
9.89525 117.742
9.94005 131.666
9.98484 191.343
10.0296 363.783
10.0744 847.575
10.1192 1796.78
10.164 1555.05
10.2088 367.083
10.2536 122.882
10.2984 110.554
10.3432 111.109
10.388 104.587
10.4328 122.551
10.4776 165.146
10.5224 291.038
10.5672 511.758
10.612 493.374
10.6568 192.409
10.7017 94.5091
10.7465 85.7764
10.7913 83.0542
10.8361 80.8889
10.8809 79.1533
10.9257 78.0057
10.9706 77.4821
11.0154 74.6886
11.0602 72.64
11.105 71.6413
11.1499 74.0055
11.1947 78.0739
11.2395 72.0304
11.2844 69.0493
11.3292 66.8873
11.374 65.9251
11.4189 65.2134
11.4637 64.5911
11.5086 65.1526
11.5534 66.5031
11.5983 64.7518
11.6431 63.2531
11.688 62.7406
11.7328 62.8634
11.7777 63.0287
11.8225 62.4916
11.8674 62.3391
11.9122 62.7195
11.9571 62.9291
12.002 63.8344
12.0468 68.859
12.0917 79.862
12.1366 104.738
12.1814 154.218
12.2263 204.098
12.2712 158.85
12.3161 89.7619
12.3609 68.3503
12.4058 64.1558
12.4507 64.2638
12.4956 63.9768
12.5405 64.5908
12.5853 65.3268
12.6302 70.3347
12.6751 74.2984
12.72 68.8538
12.7649 67.7609
12.8098 68.2933
12.8547 69.7134
12.8996 70.9416
12.9445 72.542
12.9894 74.1857
13.0343 76.1016
13.0792 79.5259
13.1242 91.1285
13.1691 114.511
13.214 152.782
13.2589 248.261
13.3038 379.387
13.3487 419.845
13.3937 249.574
13.4386 120.249
13.4835 107.721
13.5285 122.46
13.5734 162.974
13.6183 255.08
13.6633 355.927
13.7082 325.643
13.7531 169.637
13.7981 93.3973
13.843 81.2041
13.888 79.6565
13.9329 77.1148
13.9779 75.6075
14.0228 74.2868
14.0678 72.8082
14.1127 72.188
14.1577 72.2032
14.2027 71.3127
14.2476 70.2925
14.2926 70.2811
14.3376 70.9807
14.3825 69.8437
14.4275 68.835
14.4725 68.6444
14.5175 68.8863
14.5624 69.0869
14.6074 70.5633
14.6524 70.8218
14.6974 70.5554
14.7424 72.7609
14.7874 80.2002
14.8324 90.2897
14.8774 112.943
14.9224 157.979
14.9674 212.971
15.0124 215.998
15.0574 140.442
15.1024 86.6183
15.1474 71.733
15.1924 69.7623
15.2374 70.0765
15.2824 69.2226
15.3274 67.5757
15.3725 66.6571
15.4175 66.488
15.4625 66.0481
15.5076 65.8524
15.5526 66.1339
15.5976 65.842
15.6426 67.6664
15.6877 73.5842
15.7327 81.1381
15.7778 96.9101
15.8228 129.814
15.8679 175.44
15.9129 194.382
15.958 151.135
16.003 92.235
16.0481 66.5791
16.0931 63.5373
16.1382 61.7283
16.1833 60.2162
16.2283 58.7118
16.2734 58.0948
16.3185 58.1987
16.3636 58.4935
16.4086 57.2077
16.4537 56.0285
16.4988 55.3262
16.5439 55.2346
16.589 54.8623
16.6341 54.5919
16.6792 54.2374
16.7243 54.636
16.7694 54.7277
16.8145 54.6128
16.8596 55.0916
16.9047 56.1862
16.9498 56.3995
16.9949 55.6504
17.04 56.0016
17.0851 57.1819
17.1302 58.8984
17.1754 61.7594
17.2205 67.1953
17.2656 75.1121
17.3108 83.432
17.3559 81.6571
17.401 69.6393
17.4462 61.2129
17.4913 58.9993
17.5365 59.063
17.5815 59.3877
17.6268 59.5975
17.6718 60.3278
17.7171 60.8323
17.7622 61.3204
17.8074 62.0446
17.8525 64.983
17.8977 68.9
17.9428 74.2932
17.9881 83.8338
18.0331 102.106
18.0784 124.544
18.1237 142.629
18.1688 130.075
18.214 100.57
18.2591 85.9026
18.3044 91.2767
18.3495 100.748
18.3948 105.523
18.4399 94.1894
18.4852 75.2713
18.5303 65.1588
18.5756 61.8806
18.6207 61.2114
18.666 60.2274
18.7112 59.5164
18.7565 58.7192
18.8016 58.4633
18.8469 57.93
18.892 57.5152
18.9374 57.0846
18.9825 56.8208
19.0278 56.8134
19.073 56.9426
19.1183 57.5086
19.1635 58.1458
19.2088 59.5057
19.254 62.5101
19.2993 67.2699
19.3447 73.2963
19.3898 76.4148
19.4352 71.1546
19.4804 62.3051
19.5257 56.1494
19.5709 53.9497
19.6163 53.617
19.6615 53.5741
19.7068 53.2004
19.752 53.3074
19.7974 53.6897
19.8426 54.5112
19.888 54.8369
19.9332 56.2741
19.9786 59.1363
20.0238 63.0175
20.0692 67.7904
20.1144 70.0539
20.1598 67.6047
20.205 62.9858
20.2504 62.0992
20.2957 64.0328
20.3411 65.2409
20.3863 63.3297
20.4318 57.484
20.477 53.1038
20.5224 51.0202
20.5677 50.5752
20.6131 50.0639
20.6586 49.6195
20.7038 49.4566
20.7493 49.0939
20.7945 48.8195
20.84 48.6929
20.8853 48.5615
20.9307 48.6096
20.976 48.6754
21.0215 48.6658
21.0668 48.9195
21.1122 49.4548
21.1575 50.0559
21.203 51.0653
21.2483 51.3368
21.2938 51.2677
21.3391 49.8318
21.3846 48.8691
21.4299 48.3395
21.4754 48.3492
21.5207 48.5422
21.5662 48.976
21.6116 49.3189
21.6571 49.9237
21.7024 50.9495
21.7479 52.8441
21.7933 55.6963
21.8388 59.5373
21.8843 63.2304
21.9297 64.8054
21.9752 62.9275
22.0206 58.6108
22.0661 56.2998
22.1115 56.0705
22.157 55.7233
22.2024 53.9078
22.248 51.1331
22.2933 49.6346
22.3389 48.956
22.3843 48.8426
22.4299 48.8023
22.4753 48.5438
22.5208 48.5188
22.5662 48.4365
22.6118 48.6034
22.6572 48.8496
22.7028 49.452
22.7483 49.7894
22.7939 50.4754
22.8393 52.3037
22.8849 54.2315
22.9303 56.2848
22.9759 57.9703
23.0214 57.0654
23.067 53.9441
23.1126 50.7307
23.1581 48.9951
23.2037 48.5958
23.2492 48.9135
23.2948 48.7581
23.3403 49.115
23.3859 49.6858
23.4314 50.9124
23.477 52.7568
23.5225 55.1682
23.5682 57.1997
23.6137 57.8825
23.6593 54.8151
23.7048 50.9001
23.7505 47.9447
23.796 46.6119
23.8417 46.0094
23.8872 45.5513
23.9329 45.0831
23.9784 44.8427
24.0241 44.492
24.0697 44.2119
24.1154 44.1121
24.1609 43.9429
24.2066 43.8103
24.2522 43.5071
24.2979 43.3582
24.3434 43.2437
24.3892 43.0321
24.4349 42.9062
24.4805 42.8947
24.5262 42.9373
24.5718 42.8198
24.6175 42.8347
24.6631 42.5739
24.7089 42.4017
24.7545 42.2373
24.8002 42.277
24.8458 42.1905
24.8916 42.0375
24.9372 42.1484
24.983 42.3768
25.0286 42.8336
25.0744 43.2258
25.12 43.8691
25.1658 44.4579
25.2114 44.6798
25.2572 44.7139
25.3029 44.6622
25.3487 44.9169
25.3943 44.5053
25.4402 43.3051
25.4858 42.2213
25.5316 41.3916
25.5773 40.814
25.6231 40.72
25.669 40.6142
25.7147 40.5782
25.7605 40.2974
25.8062 40.5246
25.8521 40.5429
25.8977 40.5803
25.9436 40.7904
25.9893 40.9736
26.0352 41.4124
26.0809 41.541
26.1268 41.6246
26.1725 41.2334
26.2184 40.6989
26.2641 40.1861
26.31 40.0622
26.3557 40.1749
26.4017 40.0468
26.4474 40.4075
26.4933 40.7106
26.5391 41.2064
26.585 41.7132
26.6308 42.1358
26.6767 42.0545
26.7225 41.9616
26.7684 41.2781
26.8142 40.7846
26.8601 40.4411
26.9059 39.8536
26.9519 39.4825
26.9979 39.2201
27.0437 38.6705
27.0896 38.6309
27.1354 38.7334
27.1814 38.5683
27.2272 38.5126
27.2732 38.5062
27.3191 38.4229
27.3651 38.428
27.4109 38.3219
27.4569 38.6046
27.5027 38.4683
27.5488 38.5702
27.5946 38.416
27.6407 38.0817
27.6865 37.9105
27.7326 37.7849
27.7784 37.8912
27.8245 37.7797
27.8703 37.921
27.9164 38.296
27.9623 38.4099
28.0084 38.8968
28.0543 39.1909
28.1003 38.9771
28.1462 38.7848
28.1923 38.3954
28.2384 37.9197
28.2843 37.5011
28.3304 37.0966
28.3764 36.6329
28.4225 36.3423
28.4684 36.1911
28.5145 35.936
28.5605 35.7943
28.6066 35.5774
28.6526 35.5167
28.6987 35.5251
28.7447 35.455
28.7908 35.3957
28.8368 35.4336
28.8829 35.3895
28.9289 35.3895
28.9751 35.1419
29.0211 34.8992
29.0673 34.5958
29.1133 34.4621
29.1595 34.3127
29.2055 34.2996
29.2517 34.3171
29.2977 34.2099
29.3439 34.2365
29.3899 34.1654
29.4361 34.1919
29.4824 33.8301
29.5284 33.758
29.5746 33.3502
29.6207 33.0784
29.6669 33.0526
29.713 32.9499
29.7593 32.8163
29.8053 32.7571
29.8516 32.7334
29.8977 32.7918
29.9439 32.5746
29.99 32.5903
30.0363 32.3045
30.0824 32.5337
30.1287 32.3653
30.1748 32.4123
30.2211 32.3806
30.2673 32.2269
30.3136 32.3325
30.3597 32.2111
30.406 32.1934
30.4522 31.9827
30.4985 32.1029
30.5447 32.1488
30.591 32.0772
30.6372 32.141
30.6835 32.1927
30.7297 32.1713
30.7761 32.079
30.8224 31.9698
30.8686 31.7763
30.915 31.5777
30.9612 31.4142
31.0076 31.1992
31.0538 31.107
31.1002 31.1268
31.1464 30.9159
31.1928 30.8516
31.2391 30.8857
31.2855 30.8305
31.3317 30.8397
31.3781 30.8588
31.4244 30.9198
31.4708 30.7978
31.5171 30.7694
31.5636 30.7489
31.6098 30.4353
31.6563 30.3021
31.7026 30.1684
31.7491 30.0128
31.7953 30.1142
31.8418 30.0869
31.8881 30.1832
31.9346 30.0369
31.9809 29.9773
32.0275 29.8804
32.074 29.8631
32.1203 29.5408
32.1668 29.5175
32.2132 29.3199
32.2597 29.2372
32.306 29.1435
32.3526 28.8493
32.399 28.8616
32.4455 28.7662
32.4919 28.626
32.5385 28.6241
32.5848 28.4659
32.6314 28.4931
32.6778 28.4097
32.7244 28.2965
32.7708 28.0757
32.8174 28.1721
32.8638 27.907
32.9104 27.9792
32.9569 27.9304
33.0035 27.8798
33.0499 27.8328
33.0966 27.801
33.143 27.7464
33.1897 27.7699
33.2361 27.5354
33.2828 27.51
33.3293 27.3117
33.3759 27.3657
33.4226 27.1002
33.4691 27.0319
33.5158 27.0488
33.5623 26.865
33.609 26.6476
33.6555 26.5668
33.7022 26.4822
33.7487 26.5357
33.7954 26.4777
33.842 26.3406
33.8887 26.3396
33.9353 26.2797
33.982 26.0745
34.0286 26.0044
34.0753 25.9602
34.1219 25.8525
34.1687 25.8053
34.2152 25.7558
34.262 25.6205
34.3086 25.5792
34.3554 25.4772
34.402 25.2683
34.4488 25.2949
34.4954 25.1976
34.5422 25.1507
34.5889 25.1223
34.6357 24.9414
34.6825 24.8564
34.7292 24.7487
34.776 24.7212
34.8227 24.6615
34.8695 24.6284
34.9162 24.5224
34.9631 24.4815
35.0098 24.4815
35.0566 24.3304
35.1033 24.3133
35.1502 24.2114
35.1969 24.1554
35.2438 24.1474
35.2906 23.9936
35.3375 23.9974
35.3842 24.0004
35.4311 23.958
35.4779 23.8269
35.5248 23.8983
35.5716 23.7044
35.6185 23.6815
35.6653 23.5715
35.7123 23.497
35.759 23.3463
35.806 23.2065
35.8528 23.1967
35.8998 23.1585
35.9468 23.0399
35.9936 23.1035
36.0406 23.0189
36.0874 22.9749
36.1345 22.8355
36.1813 22.7655
36.2283 22.7246
36.2752 22.5961
36.3222 22.5943
36.3691 22.5593
36.4161 22.372
36.463 22.4447
36.5101 22.3934
36.557 22.2949
36.6041 22.1448
36.651 22.1181
36.6981 22.031
36.745 22.0111
36.7921 21.9434
36.839 21.7778
36.8861 21.7491
36.9331 21.7053
36.9802 21.6293
37.0272 21.5887
37.0743 21.474
37.1213 21.4861
37.1684 21.3879
37.2154 21.2843
37.2626 21.2692
37.3098 21.1704
37.3568 21.0824
37.404 21.0996
37.451 20.9822
37.4982 20.9431
37.5452 20.8191
37.5924 20.7628
37.6395 20.8002
37.6867 20.6986
37.7337 20.6024
37.781 20.4624
37.8281 20.468
37.8753 20.3257
37.9224 20.3451
37.9697 20.2423
38.0168 20.2053
38.064 20.1188
38.1111 20.0069
38.1584 19.9106
38.2056 19.9328
38.2529 19.8654
38.3 19.7826
38.3473 19.761
38.3945 19.6328
38.4418 19.5992
38.489 19.6093
38.5363 19.495
38.5837 19.3695
38.6309 19.3168
38.6782 19.3104
38.7254 19.201
38.7728 19.1903
38.82 19.0352
38.8674 19.0325
38.9146 19.0058
38.9621 18.9524
39.0093 18.8732
39.0567 18.8179
39.104 18.7671
39.1514 18.6948
39.1987 18.6191
39.2461 18.6504
39.2934 18.54
39.3409 18.402
39.3882 18.3503
39.4356 18.3214
39.483 18.2852
39.5304 18.2316
39.5778 18.1951
39.6253 18.1654
39.6726 18.0634
39.7201 17.9768
39.7675 17.9979
39.815 17.9316
39.8624 17.7851
39.9099 17.7855
39.9575 17.7233
40.0049 17.6374
40.0525 17.5761
40.0999 17.5345
40.1474 17.4847
40.1949 17.3841
40.2425 17.3574
40.2899 17.3009
40.3375 17.2577
40.385 17.2415
40.4326 17.1475
40.48 17.0755
40.5277 17.0899
40.5752 17.0233
40.6228 16.9494
40.6703 16.8911
40.718 16.8684
40.7655 16.7545
40.8132 16.681
40.8607 16.6615
40.9084 16.6376
40.9559 16.5435
41.0036 16.4855
41.0512 16.4161
41.0989 16.4319
41.1465 16.3488
41.1942 16.2965
41.242 16.1866
41.2896 16.2172
41.3373 16.0596
41.3849 16.0623
41.4327 15.9674
41.4803 15.9471
41.5281 15.9455
41.5758 15.8206
41.6236 15.8131
41.6712 15.7592
41.7191 15.6848
41.7667 15.6579
41.8146 15.6107
41.8622 15.556
41.9101 15.5308
41.9578 15.4056
42.0057 15.38
42.0534 15.3557
42.1013 15.3591
42.149 15.2193
42.1969 15.1364
42.2446 15.145
42.2925 15.0706
42.3403 15.0414
42.3882 14.9672
42.436 14.9738
42.4839 14.9193
42.5319 14.8356
42.5797 14.8235
42.6277 14.7641
42.6755 14.7344
42.7235 14.6235
42.7713 14.6187
42.8193 14.5627
42.8671 14.5028
42.9152 14.4211
42.963 14.3871
43.0111 14.3168
43.0589 14.3022
43.107 14.1978
43.1549 14.1636
43.2029 14.1679
43.2508 14.1095
43.2989 14.051
43.3468 14.0139
43.3949 13.9137
43.4429 13.8984
43.491 13.8563
43.5389 13.8033
43.5871 13.8174
43.635 13.7126
43.6832 13.6761
43.7312 13.597
43.7793 13.5907
43.8273 13.5112
43.8755 13.4652
43.9237 13.4396
43.9717 13.4391
44.0199 13.3238
44.068 13.3147
44.1162 13.2892
44.1642 13.242
44.2125 13.1321
44.2606 13.1165
44.3088 13.0779
44.3569 13.0162
44.4052 12.9881
44.4533 12.8727
44.5016 12.8826
44.5497 12.8378
44.598 12.7714
44.6461 12.7359
44.6945 12.723
44.7426 12.6685
44.791 12.5898
44.8391 12.5886
44.8875 12.5009
44.9357 12.4977
44.984 12.4284
45.0322 12.3911
45.0806 12.38
45.1288 12.2845
45.1773 12.2551
45.2257 12.226
45.2739 12.1715
45.3224 12.1423
45.3706 12.0608
45.4191 12.0351
45.4673 12.0244
45.5158 11.973
45.5641 11.9092
45.6126 11.9126
45.6609 11.8163
45.7094 11.773
45.7577 11.7216
45.8063 11.6806
45.8546 11.6685
45.9031 11.5881
45.9515 11.6108
46.0001 11.5225
46.0484 11.4897
46.097 11.4482
46.1454 11.4365
46.194 11.4229
46.2424 11.382
46.291 11.2998
46.3395 11.2513
46.3881 11.2209
46.4365 11.1892
46.4852 11.1189
46.5337 11.1018
46.5823 11.0947
46.631 11.0088
46.6795 10.9402
46.7282 10.964
46.7767 10.8986
46.8254 10.8623
46.8739 10.8224
46.9226 10.7805
46.9712 10.677
47.0199 10.6498
47.0685 10.6577
47.1173 10.6215
47.1658 10.5488
47.2146 10.5593
47.2632 10.4985
47.312 10.469
47.3606 10.4201
47.4095 10.3884
47.4581 10.3553
47.5069 10.2632
47.5556 10.2507
47.6044 10.1967
47.6531 10.203
47.702 10.1519
47.7507 10.1028
47.7996 10.049
47.8483 10.0024
47.8972 10.0174
47.9461 9.99862
47.9948 9.93717
48.0438 9.88568
48.0925 9.85745
48.1415 9.84962
48.1902 9.76617
48.2392 9.80006
48.288 9.74638
48.337 9.66282
48.3858 9.61881
48.4348 9.61288
48.4837 9.60323
48.5327 9.52616
48.5815 9.49334
48.6306 9.48236
48.6795 9.42071
48.7285 9.3834
48.7774 9.37537
48.8265 9.36126
48.8754 9.31322
48.9245 9.26698
48.9734 9.18814
49.0226 9.21068
49.0715 9.19387
49.1206 9.1264
49.1696 9.08458
49.2188 9.04324
49.2679 9.00897
49.3169 8.95694
49.3661 8.92998
49.4151 8.92461
49.4643 8.88073
49.5134 8.8676
49.5626 8.77997
49.6117 8.78452
49.6609 8.73488
49.71 8.71297
49.7592 8.68092
49.8083 8.63001
49.8576 8.61541
49.9067 8.58222
49.956 8.5547
50.0052 8.51154
50.0545 8.47974
50.1036 8.44322
50.153 8.40932
50.2022 8.36456
50.2515 8.35657
50.3007 8.28211
50.3501 8.25315
50.3993 8.24997
50.4487 8.21386
50.498 8.19912
50.5474 8.13328
50.5966 8.10753
50.6461 8.1166
50.6955 8.06186
50.7448 8.05498
50.7943 8.00097
50.8436 7.94496
50.8931 7.97266
50.9424 7.89236
50.9919 7.86589
51.0413 7.87808
51.0908 7.82448
51.1402 7.79504
51.1897 7.74572
51.2391 7.70001
51.2887 7.68169
51.3381 7.58632
51.3877 7.64787
51.4371 7.58962
51.4867 7.53329
51.5362 7.53653
51.5858 7.52161
51.6353 7.45219
51.6849 7.46758
51.7344 7.39157
51.7841 7.38715
51.8336 7.35177
51.8833 7.32606
51.9328 7.27338
51.9826 7.24703
52.0323 7.20396
52.0818 7.20205
52.1316 7.18383
52.1812 7.14675
52.231 7.14325
52.2806 7.08299
52.3304 7.06174
52.38 7.01928
52.4298 6.97238
52.4794 6.94541
52.5293 6.94096
52.5789 6.91935
52.6288 6.89588
52.6785 6.82341
52.7284 6.81623
52.7781 6.80415
52.828 6.79254
52.8777 6.71474
52.9276 6.70591
52.9774 6.68737
53.0273 6.68613
53.0771 6.64699
53.1271 6.55231
53.1769 6.56381
53.2269 6.56639
53.2767 6.52274
53.3267 6.46018
53.3765 6.44012
53.4266 6.45653
53.4766 6.41548
53.5265 6.3939
53.5765 6.3411
53.6264 6.29581
53.6765 6.2819
53.7264 6.25544
53.7765 6.26352
53.8265 6.20447
53.8766 6.18303
53.9266 6.1714
53.9767 6.16057
54.0267 6.09103
54.0769 6.03533
54.1269 6.03374
54.1771 6.00528
54.2271 5.95655
54.2773 5.90897
54.3274 5.95018
54.3776 5.89918
54.4277 5.88469
54.478 5.81732
54.528 5.79856
54.5783 5.7735
54.6285 5.74471
54.6788 5.69757
54.7289 5.59776
54.7792 5.61849
54.8296 5.50659
54.8798 5.50845
54.9301 5.44942
54.9803 5.50591
55.0307 5.38999
55.0809 5.38317
55.1314 5.36388
55.1816 5.30261
55.232 5.23039
55.2823 5.19835
55.3328 5.16356
55.383 5.10879
55.4335 5.04412
55.4838 5.00101
55.5344 4.93885
55.5847 4.95355
55.6352 4.91768
55.6856 4.79862
55.7361 4.83444