File: XRD/Ni3Fe_FD0404.xy
TT I
1.27165 7.63902
1.31627 6.93671
1.36089 6.00598
1.40551 6.73589
1.45013 6.0123
1.49476 6.76308
1.53938 5.72594
1.584 5.5813
1.62863 5.64726
1.67325 5.84936
1.71787 4.92991
1.7625 5.13784
1.80712 5.28008
1.85174 5.14754
1.89636 4.42072
1.94099 5.07996
1.98562 4.39542
2.03025 4.23555
2.07487 4.65913
2.11949 4.84106
2.16411 5.71295
2.20874 15.9317
2.25338 26.6817
2.298 5.93283
2.34263 5.00246
2.38725 5.38854
2.43188 5.41102
2.4765 6.19255
2.52115 5.6627
2.56577 6.77018
2.6104 7.46321
2.65503 7.48476
2.69965 7.44176
2.7443 7.95013
2.78893 7.51716
2.83356 8.26415
2.87818 8.71467
2.92281 8.38888
2.96744 10.1406
3.01209 10.6325
3.05672 11.0524
3.10135 12.1523
3.14599 12.7643
3.19062 13.9881
3.23527 14.8549
3.2799 15.7572
3.32454 17.0648
3.36917 18.1099
3.4138 19.0159
3.45844 19.6482
3.50309 21.1177
3.54773 22.0265
3.59237 24.7801
3.637 109.448
3.68164 66.4257
3.7263 26.77
3.77094 26.7101
3.81558 27.4606
3.86022 28.1678
3.90486 29.354
3.9495 30.8098
3.99416 31.5662
4.0388 32.3859
4.08344 34.9075
4.12809 35.6614
4.17273 38.235
4.21738 45.1925
4.26204 296.333
4.30669 256.346
4.35133 50.5901
4.39598 46.2531
4.44063 56.9407
4.4853 70.7034
4.52995 51.9864
4.5746 52.6427
4.61925 54.4066
4.6639 56.6743
4.70855 59.3831
4.75322 62.5164
4.79788 65.7513
4.84253 68.7052
4.88719 73.0021
4.93184 77.2071
4.97652 82.7198
5.02118 88.9636
5.06583 97.4908
5.11049 111.313
5.15515 197.776
5.19981 436.336
5.24449 3000.12
5.28916 11695.9
5.33382 3545.04
5.37848 223.398
5.42315 138.662
5.46783 119.184
5.5125 109.708
5.55716 105.447
5.60183 101.722
5.6465 100.176
5.69117 96.5137
5.73586 95.1395
5.78053 95.0469
5.8252 94.6026
5.86988 95.4612
5.91455 97.7466
5.95924 107.18
6.00392 235.816
6.0486 1043.34
6.09328 3956.33
6.13795 3441.92
6.18263 301.723
6.22733 100.595
6.27201 87.489
6.3167 111.753
6.36138 84.7444
6.40606 71.5353
6.45075 69.4656
6.49545 67.302
6.54014 65.7832
6.58483 65.0193
6.62952 64.6452
6.67421 102.852
6.71892 164.922
6.76361 72.5069
6.8083 60.6772
6.853 58.9903
6.89769 58.0706
6.94239 57.9489
6.98711 57.4345
7.03181 57.0846
7.07651 56.9727
7.12121 56.8198
7.16591 57.3427
7.21063 57.6454
7.25533 75.4886
7.30004 210.49
7.34475 100.425
7.38945 58.527
7.43416 56.2529
7.47889 55.6753
7.5236 56.3811
7.56831 56.92
7.61303 59.1024
7.65774 59.4943
7.70247 57.6859
7.74719 57.5885
7.79191 58.3271
7.83663 58.0687
7.88135 59.2874
7.92607 60.3203
7.97081 61.4075
8.01553 62.3318
8.06026 63.6651
8.10498 65.6659
8.14971 77.1138
8.19446 75.0349
8.23919 71.4031
8.28392 73.5055
8.32865 75.9351
8.37339 80.4784
8.41812 88.4504
8.46288 123.343
8.50761 179.461
8.55235 419.634
8.59709 1099.23
8.64183 2085.54
8.68658 1117.29
8.73134 198.526
8.77609 104.744
8.82083 95.7883
8.86558 92.3069
8.91033 92.8912
8.9551 94.9057
8.99985 87.7915
9.04461 85.8037
9.08936 84.7644
9.13412 84.2374
9.17888 84.2216
9.22365 85.1133
9.26841 84.1609
9.31318 84.8795
9.35794 84.8957
9.4027 85.1047
9.44749 85.9869
9.49226 86.331
9.53703 87.662
9.5818 89.4231
9.62657 95.658
9.67134 102.615
9.71614 96.1968
9.76091 96.1757
9.80569 99.1427
9.85047 103.0
9.89525 131.392
9.94005 145.852
9.98484 189.02
10.0296 366.317
10.0744 778.01
10.1192 1593.67
10.164 1721.6
10.2088 497.597
10.2536 140.822
10.2984 119.296
10.3432 121.13
10.388 108.213
10.4328 123.1
10.4776 167.183
10.5224 271.101
10.5672 481.333
10.612 542.246
10.6568 229.27
10.7017 102.584
10.7465 89.2423
10.7913 85.6857
10.8361 83.1494
10.8809 81.0094
10.9257 80.8566
10.9706 81.8534
11.0154 77.254
11.0602 74.719
11.105 73.913
11.1499 79.6471
11.1947 88.617
11.2395 77.3911
11.2844 72.898
11.3292 68.8834
11.374 67.6348
11.4189 67.3143
11.4637 66.8292
11.5086 67.2566
11.5534 71.4035
11.5983 67.562
11.6431 65.2871
11.688 64.2672
11.7328 64.6677
11.7777 64.4513
11.8225 64.2394
11.8674 64.0483
11.9122 64.3897
11.9571 64.8163
12.002 65.0188
12.0468 69.9302
12.0917 82.2202
12.1366 103.478
12.1814 145.755
12.2263 200.291
12.2712 182.368
12.3161 108.082
12.3609 74.0164
12.4058 66.4724
12.4507 66.2733
12.4956 66.4114
12.5405 66.1852
12.5853 67.468
12.6302 77.0463
12.6751 83.2427
12.72 72.365
12.7649 69.3812
12.8098 70.1463
12.8547 71.5343
12.8996 72.5228
12.9445 73.9419
12.9894 75.4856
13.0343 77.619
13.0792 80.729
13.1242 90.8725
13.1691 117.072
13.214 152.736
13.2589 227.802
13.3038 343.909
13.3487 427.658
13.3937 292.936
13.4386 137.61
13.4835 110.171
13.5285 125.689
13.5734 159.801
13.6183 231.765
13.6633 328.057
13.7082 354.553
13.7531 215.04
13.7981 106.177
13.843 84.44
13.888 81.7901
13.9329 79.2089
13.9779 77.5849
14.0228 76.2052
14.0678 74.7841
14.1127 74.4394
14.1577 74.6353
14.2027 73.2923
14.2476 72.3739
14.2926 72.5288
14.3376 74.0038
14.3825 72.0509
14.4275 70.2931
14.4725 70.2282
14.5175 70.4929
14.5624 70.8435
14.6074 73.2187
14.6524 73.8876
14.6974 72.1677
14.7424 73.9223
14.7874 80.9805
14.8324 92.1853
14.8774 111.476
14.9224 146.612
14.9674 196.025
15.0124 219.228
15.0574 164.111
15.1024 99.9872
15.1474 75.3421
15.1924 72.8426
15.2374 73.4815
15.2824 72.6117
15.3274 70.0722
15.3725 68.3882
15.4175 68.0688
15.4625 68.0005
15.5076 68.0097
15.5526 67.9626
15.5976 67.4596
15.6426 68.3857
15.6877 74.3697
15.7327 82.6904
15.7778 96.3616
15.8228 121.764
15.8679 160.478
15.9129 193.075
15.958 169.945
16.003 106.729
16.0481 71.8239
16.0931 67.1538
16.1382 64.9988
16.1833 62.2748
16.2283 60.6715
16.2734 59.9951
16.3185 60.5493
16.3636 61.4954
16.4086 59.543
16.4537 57.689
16.4988 57.1707
16.5439 57.1511
16.589 56.7992
16.6341 56.3173
16.6792 55.958
16.7243 56.5011
16.7694 56.3867
16.8145 56.4486
16.8596 56.779
16.9047 58.4929
16.9498 58.6516
16.9949 57.3504
17.04 57.1086
17.0851 58.3908
17.1302 60.1546
17.1754 63.0873
17.2205 67.2331
17.2656 73.7673
17.3108 81.9772
17.3559 83.378
17.401 74.2172
17.4462 64.4658
17.4913 60.8395
17.5365 60.562
17.5815 60.8087
17.6268 60.9479
17.6718 61.8754
17.7171 62.5332
17.7622 62.7776
17.8074 63.0951
17.8525 65.9613
17.8977 70.248
17.9428 75.6235
17.9881 83.3103
18.0331 97.8741
18.0784 117.179
18.1237 137.304
18.1688 137.215
18.214 110.752
18.2591 89.6515
18.3044 89.816
18.3495 98.4355
18.3948 106.943
18.4399 101.525
18.4852 82.1045
18.5303 68.3928
18.5756 63.8881
18.6207 62.7385
18.666 62.0824
18.7112 61.1728
18.7565 60.3954
18.8016 60.2044
18.8469 59.4831
18.892 59.026
18.9374 58.6507
18.9825 58.7494
19.0278 58.5321
19.073 58.3325
19.1183 58.874
19.1635 59.939
19.2088 61.1052
19.254 62.914
19.2993 66.7566
19.3447 72.4279
19.3898 77.4383
19.4352 74.8598
19.4804 66.1665
19.5257 59.0083
19.5709 55.7997
19.6163 55.2256
19.6615 55.1081
19.7068 54.8178
19.752 54.5931
19.7974 54.7669
19.8426 55.7549
19.888 56.5666
19.9332 57.6173
19.9786 59.5535
20.0238 62.8704
20.0692 67.0752
20.1144 70.8273
20.1598 70.2372
20.205 65.5417
20.2504 63.1694
20.2957 64.1017
20.3411 66.2883
20.3863 65.9778
20.4318 61.0595
20.477 55.7654
20.5224 53.1857
20.5677 52.3993
20.6131 51.6821
20.6586 50.8129
20.7038 50.9127
20.7493 50.3484
20.7945 50.184
20.84 50.0817
20.8853 49.8161
20.9307 49.7396
20.976 49.9705
21.0215 49.9339
21.0668 50.3009
21.1122 50.7853
21.1575 51.0805
21.203 51.8388
21.2483 52.5376
21.2938 52.8019
21.3391 51.5518
21.3846 50.4736
21.4299 49.6417
21.4754 49.6901
21.5207 49.6171
21.5662 50.0512
21.6116 50.3275
21.6571 51.2187
21.7024 52.1991
21.7479 53.6903
21.7933 56.162
21.8388 59.2162
21.8843 62.8331
21.9297 65.5518
21.9752 65.6339
22.0206 61.8317
22.0661 57.9378
22.1115 56.8412
22.157 57.1471
22.2024 55.9285
22.248 53.1058
22.2933 51.4138
22.3389 50.4712
22.3843 50.4085
22.4299 50.201
22.4753 50.3277
22.5208 50.0253
22.5662 49.6587
22.6118 49.8267
22.6572 50.0365
22.7028 50.6655
22.7483 50.9267
22.7939 51.5116
22.8393 52.9373
22.8849 54.5938
22.9303 56.3954
22.9759 58.4532
23.0214 58.984
23.067 56.6589
23.1126 52.8775
23.1581 50.7865
23.2037 50.13
23.2492 50.1165
23.2948 50.0247
23.3403 50.4194
23.3859 50.9908
23.4314 51.6363
23.477 53.236
23.5225 55.1906
23.5682 57.1966
23.6137 58.9717
23.6593 57.3702
23.7048 53.8145
23.7505 49.9379
23.796 47.9994
23.8417 47.3066
23.8872 46.8162
23.9329 46.3084
23.9784 46.0259
24.0241 45.7027
24.0697 45.5372
24.1154 45.2777
24.1609 45.1904
24.2066 45.0099
24.2522 44.7176
24.2979 44.3791
24.3434 44.4303
24.3892 44.3313
24.4349 44.1923
24.4805 43.9666
24.5262 44.175
24.5718 44.0306
24.6175 43.9751
24.6631 43.9597
24.7089 43.6297
24.7545 43.4036
24.8002 43.2509
24.8458 43.1492
24.8916 43.1084
24.9372 43.2179
24.983 43.6229
25.0286 43.7944
25.0744 44.1391
25.12 44.509
25.1658 45.306
25.2114 45.467
25.2572 45.6527
25.3029 45.6033
25.3487 45.875
25.3943 45.8424
25.4402 44.8648
25.4858 43.6731
25.5316 42.6168
25.5773 41.9793
25.6231 42.008
25.669 41.5394
25.7147 41.5979
25.7605 41.6127
25.8062 41.6695
25.8521 41.777
25.8977 41.6102
25.9436 41.6602
25.9893 41.8432
26.0352 42.243
26.0809 42.4233
26.1268 42.5714
26.1725 42.4235
26.2184 41.964
26.2641 41.4765
26.31 41.1859
26.3557 41.0557
26.4017 41.1674
26.4474 41.4405
26.4933 41.6861
26.5391 42.1581
26.585 42.4369
26.6308 42.7583
26.6767 43.1001
26.7225 42.9182
26.7684 42.5257
26.8142 41.8369
26.8601 41.569
26.9059 40.9343
26.9519 40.5857
26.9979 40.2594
27.0437 39.9627
27.0896 39.6217
27.1354 39.7592
27.1814 39.6037
27.2272 39.4938
27.2732 39.4285
27.3191 39.3154
27.3651 39.422
27.4109 39.3802
27.4569 39.2834
27.5027 39.4968
27.5488 39.3764
27.5946 39.3078
27.6407 39.2296
27.6865 39.042
27.7326 38.7927
27.7784 38.6802
27.8245 38.6784
27.8703 38.765
27.9164 39.1311
27.9623 39.1995
28.0084 39.556
28.0543 39.894
28.1003 39.8402
28.1462 39.7069
28.1923 39.3882
28.2384 38.8472
28.2843 38.5497
28.3304 38.1581
28.3764 37.64
28.4225 37.3874
28.4684 37.0418
28.5145 36.8414
28.5605 36.7196
28.6066 36.6289
28.6526 36.5357
28.6987 36.5564
28.7447 36.3937
28.7908 36.3085
28.8368 36.2416
28.8829 36.249
28.9289 36.2473
28.9751 36.0341
29.0211 35.79
29.0673 35.5531
29.1133 35.4007
29.1595 35.1478
29.2055 35.1385
29.2517 35.1219
29.2977 35.0971
29.3439 35.0824
29.3899 35.0752
29.4361 34.8747
29.4824 34.8742
29.5284 34.563
29.5746 34.2066
29.6207 34.0602
29.6669 33.9875
29.713 33.8626
29.7593 33.7433
29.8053 33.7317
29.8516 33.6662
29.8977 33.5404
29.9439 33.4416
29.99 33.3511
30.0363 33.3137
30.0824 33.3649
30.1287 33.2169
30.1748 33.1475
30.2211 33.2106
30.2673 33.1186
30.3136 33.2661
30.3597 33.0723
30.406 32.9589
30.4522 32.846
30.4985 32.8381
30.5447 32.9076
30.591 32.9442
30.6372 32.8897
30.6835 32.8936
30.7297 32.8992
30.7761 32.8994
30.8224 32.8234
30.8686 32.6455
30.915 32.3825
30.9612 32.2752
31.0076 32.0532
31.0538 31.9846
31.1002 31.8719
31.1464 31.7006
31.1928 31.7032
31.2391 31.6974
31.2855 31.4939
31.3317 31.5486
31.3781 31.6354
31.4244 31.5887
31.4708 31.5238
31.5171 31.5343
31.5636 31.5005
31.6098 31.2333
31.6563 31.1017
31.7026 31.0351
31.7491 30.8634
31.7953 30.8646
31.8418 30.8642
31.8881 30.7437
31.9346 30.7802
31.9809 30.7497
32.0275 30.6439
32.074 30.5047
32.1203 30.398
32.1668 30.2284
32.2132 30.1187
32.2597 29.9867
32.306 29.966
32.3526 29.7726
32.399 29.6056
32.4455 29.5672
32.4919 29.3502
32.5385 29.3215
32.5848 29.1267
32.6314 29.135
32.6778 29.1484
32.7244 28.9049
32.7708 28.8255
32.8174 28.7836
32.8638 28.7093
32.9104 28.7159
32.9569 28.6173
33.0035 28.5905
33.0499 28.497
33.0966 28.5754
33.143 28.429
33.1897 28.3931
33.2361 28.3225
33.2828 28.1599
33.3293 28.1275
33.3759 28.1088
33.4226 27.8944
33.4691 27.7361
33.5158 27.731
33.5623 27.5615
33.609 27.4247
33.6555 27.4224
33.7022 27.2233
33.7487 27.2494
33.7954 27.1024
33.842 26.8931
33.8887 26.945
33.9353 26.9172
33.982 26.771
34.0286 26.7141
34.0753 26.5672
34.1219 26.526
34.1687 26.4364
34.2152 26.3737
34.262 26.2222
34.3086 26.2275
34.3554 26.1766
34.402 26.002
34.4488 25.9571
34.4954 25.7914
34.5422 25.8266
34.5889 25.6711
34.6357 25.5772
34.6825 25.5262
34.7292 25.3544
34.776 25.356
34.8227 25.2698
34.8695 25.2734
34.9162 25.0929
34.9631 25.0737
35.0098 25.0678
35.0566 24.9594
35.1033 24.8625
35.1502 24.8662
35.1969 24.7444
35.2438 24.7438
35.2906 24.5901
35.3375 24.6786
35.3842 24.4916
35.4311 24.5022
35.4779 24.4905
35.5248 24.4031
35.5716 24.3099
35.6185 24.1402
35.6653 24.1928
35.7123 24.0739
35.759 24.081
35.806 23.9667
35.8528 23.804
35.8998 23.7371
35.9468 23.6622
35.9936 23.6748
36.0406 23.5222
36.0874 23.4695
36.1345 23.455
36.1813 23.3811
36.2283 23.273
36.2752 23.1363
36.3222 23.1765
36.3691 23.0704
36.4161 22.9842
36.463 22.9643
36.5101 22.9766
36.557 22.8901
36.6041 22.6879
36.651 22.7321
36.6981 22.6749
36.745 22.5203
36.7921 22.4356
36.839 22.3491
36.8861 22.2754
36.9331 22.235
36.9802 22.1504
37.0272 22.0627
37.0743 22.029
37.1213 21.9824
37.1684 21.9028
37.2154 21.8786
37.2626 21.7125
37.3098 21.6244
37.3568 21.5742
37.404 21.6431
37.451 21.453
37.4982 21.4238
37.5452 21.3405
37.5924 21.3852
37.6395 21.3762
37.6867 21.1643
37.7337 21.1267
37.781 21.0232
37.8281 21.0057
37.8753 20.8712
37.9224 20.886
37.9697 20.7323
38.0168 20.7418
38.064 20.6033
38.1111 20.5429
38.1584 20.477
38.2056 20.4176
38.2529 20.4026
38.3 20.2617
38.3473 20.2679
38.3945 20.1896
38.4418 20.1291
38.489 20.1239
38.5363 20.0257
38.5837 19.8743
38.6309 19.8387
38.6782 19.8068
38.7254 19.689
38.7728 19.6565
38.82 19.6032
38.8674 19.5541
38.9146 19.4573
38.9621 19.4509
39.0093 19.3943
39.0567 19.2805
39.104 19.2711
39.1514 19.2
39.1987 19.125
39.2461 19.0663
39.2934 18.9721
39.3409 18.8485
39.3882 18.8714
39.4356 18.8358
39.483 18.7632
39.5304 18.676
39.5778 18.6479
39.6253 18.5299
39.6726 18.5576
39.7201 18.4943
39.7675 18.4318
39.815 18.3565
39.8624 18.2569
39.9099 18.2305
39.9575 18.214
40.0049 18.0795
40.0525 18.0949
40.0999 18.0114
40.1474 17.9394
40.1949 17.8941
40.2425 17.7883
40.2899 17.8094
40.3375 17.7045
40.385 17.6035
40.4326 17.5896
40.48 17.5984
40.5277 17.5266
40.5752 17.4661
40.6228 17.3771
40.6703 17.3436
40.718 17.2851
40.7655 17.2496
40.8132 17.1757
40.8607 17.1719
40.9084 17.0548
40.9559 16.9907
41.0036 16.9658
41.0512 16.8882
41.0989 16.8797
41.1465 16.7586
41.1942 16.7511
41.242 16.6801
41.2896 16.6477
41.3373 16.495
41.3849 16.5266
41.4327 16.4795
41.4803 16.3965
41.5281 16.2855
41.5758 16.2088
41.6236 16.1694
41.6712 16.1747
41.7191 16.1599
41.7667 16.0471
41.8146 16.01
41.8622 15.904
41.9101 15.8961
41.9578 15.8021
42.0057 15.7986
42.0534 15.7133
42.1013 15.7409
42.149 15.7227
42.1969 15.5787
42.2446 15.5049
42.2925 15.4495
42.3403 15.4215
42.3882 15.4062
42.436 15.3696
42.4839 15.2227
42.5319 15.2108
42.5797 15.1894
42.6277 15.185
42.6755 15.057
42.7235 15.0206
42.7713 14.985
42.8193 14.9188
42.8671 14.8211
42.9152 14.8415
42.963 14.7172
43.0111 14.6621
43.0589 14.6482
43.107 14.6343
43.1549 14.5843
43.2029 14.5056
43.2508 14.456
43.2989 14.3903
43.3468 14.3439
43.3949 14.3188
43.4429 14.2301
43.491 14.2197
43.5389 14.1809
43.5871 14.1182
43.635 14.0671
43.6832 13.9728
43.7312 13.9436
43.7793 13.9339
43.8273 13.867
43.8755 13.8391
43.9237 13.8
43.9717 13.7193
44.0199 13.6604
44.068 13.6685
44.1162 13.5786
44.1642 13.5526
44.2125 13.516
44.2606 13.3873
44.3088 13.3646
44.3569 13.3366
44.4052 13.3379
44.4533 13.2837
44.5016 13.1774
44.5497 13.2181
44.598 13.1553
44.6461 13.0874
44.6945 13.0414
44.7426 13.005
44.791 12.9286
44.8391 12.902
44.8875 12.8426
44.9357 12.8375
44.984 12.7735
45.0322 12.7185
45.0806 12.6816
45.1288 12.6017
45.1773 12.6185
45.2257 12.5607
45.2739 12.453
45.3224 12.4246
45.3706 12.4132
45.4191 12.3357
45.4673 12.3274
45.5158 12.2668
45.5641 12.227
45.6126 12.1572
45.6609 12.1322
45.7094 12.1058
45.7577 12.0657
45.8063 11.9658
45.8546 11.9709
45.9031 11.9176
45.9515 11.8955
46.0001 11.8289
46.0484 11.8812
46.097 11.7647
46.1454 11.7262
46.194 11.689
46.2424 11.6169
46.291 11.5896
46.3395 11.5505
46.3881 11.4863
46.4365 11.4819
46.4852 11.4344
46.5337 11.3538
46.5823 11.3596
46.631 11.2941
46.6795 11.2483
46.7282 11.2105
46.7767 11.1858
46.8254 11.0816
46.8739 11.0777
46.9226 11.023
46.9712 11.0
47.0199 10.9855
47.0685 10.9128
47.1173 10.8938
47.1658 10.8422
47.2146 10.8068
47.2632 10.7571
47.312 10.7508
47.3606 10.6505
47.4095 10.6421
47.4581 10.6035
47.5069 10.5839
47.5556 10.5198
47.6044 10.4713
47.6531 10.4429
47.702 10.4006
47.7507 10.3826
47.7996 10.2969
47.8483 10.2871
47.8972 10.287
47.9461 10.2496
47.9948 10.174
48.0438 10.1714
48.0925 10.1092
48.1415 10.0817
48.1902 9.99711
48.2392 10.0045
48.288 9.97708
48.337 9.95093
48.3858 9.87499
48.4348 9.87278
48.4837 9.8297
48.5327 9.79994
48.5815 9.7061
48.6306 9.70209
48.6795 9.67752
48.7285 9.6282
48.7774 9.61706
48.8265 9.57016
48.8754 9.51648
48.9245 9.5238
48.9734 9.47862
49.0226 9.46543
49.0715 9.40748
49.1206 9.37273
49.1696 9.32757
49.2188 9.2922
49.2679 9.26102
49.3169 9.2339
49.3661 9.17707
49.4151 9.12087
49.4643 9.09781
49.5134 9.09284
49.5626 9.0278
49.6117 9.00689
49.6609 8.97724
49.71 8.88597
49.7592 8.86775
49.8083 8.84681
49.8576 8.85143
49.9067 8.77492
49.956 8.77536
50.0052 8.72204
50.0545 8.70476
50.1036 8.66053
50.153 8.62959
50.2022 8.58448
50.2515 8.52476
50.3007 8.51537
50.3501 8.46479
50.3993 8.47021
50.4487 8.45402
50.498 8.4092
50.5474 8.3901
50.5966 8.35764
50.6461 8.33075
50.6955 8.28325
50.7448 8.26715
50.7943 8.20817
50.8436 8.17052
50.8931 8.18008
50.9424 8.1206
50.9919 8.0839
51.0413 8.04398
51.0908 8.01347
51.1402 8.0085
51.1897 7.95404
51.2391 7.90808
51.2887 7.87149
51.3381 7.86162
51.3877 7.82981
51.4371 7.80337
51.4867 7.76473
51.5362 7.73348
51.5858 7.68749
51.6353 7.6787
51.6849 7.6687
51.7344 7.61588
51.7841 7.58225
51.8336 7.54326
51.8833 7.50969
51.9328 7.4909
51.9826 7.4287
52.0323 7.42625
52.0818 7.37747
52.1316 7.3326
52.1812 7.33799
52.231 7.27658
52.2806 7.26968
52.3304 7.24657
52.38 7.18655
52.4298 7.17004
52.4794 7.126
52.5293 7.09227
52.5789 7.04919
52.6288 7.05211
52.6785 7.00491
52.7284 6.98371
52.7781 6.97004
52.828 6.94789
52.8777 6.86913
52.9276 6.86899
52.9774 6.88585
53.0273 6.84806
53.0771 6.79781
53.1271 6.79018
53.1769 6.73428
53.2269 6.70565
53.2767 6.68819
53.3267 6.61977
53.3765 6.63508
53.4266 6.56843
53.4766 6.55915
53.5265 6.52915
53.5765 6.50471
53.6264 6.45038
53.6765 6.43029
53.7264 6.40187
53.7765 6.41354
53.8265 6.38727
53.8766 6.34794
53.9266 6.33355
53.9767 6.2869
54.0267 6.30126
54.0769 6.23856
54.1269 6.16881
54.1771 6.18594
54.2271 6.15538
54.2773 6.12469
54.3274 6.08227
54.3776 6.02659
54.4277 6.01288
54.478 5.95205
54.528 5.94869
54.5783 5.91728
54.6285 5.80732
54.6788 5.82693
54.7289 5.75755
54.7792 5.69311
54.8296 5.68151
54.8798 5.67
54.9301 5.53637
54.9803 5.60607
55.0307 5.57048
55.0809 5.51527
55.1314 5.4695
55.1816 5.42538
55.232 5.36618
55.2823 5.34878
55.3328 5.27136
55.383 5.23172
55.4335 5.15441
55.4838 5.11209
55.5344 5.08804
55.5847 5.07443
55.6352 5.01314
55.6856 4.96632
55.7361 4.94972