File: XRD/Ni3Fe_FD0339.xy
TT I
1.27165 8.03636
1.31627 6.97892
1.36089 7.11912
1.40551 6.13752
1.45013 6.3668
1.49476 5.78376
1.53938 5.69534
1.584 5.4517
1.62863 5.3441
1.67325 5.60477
1.71787 5.42889
1.7625 5.05179
1.80712 4.84171
1.85174 4.43588
1.89636 4.77345
1.94099 5.36978
1.98562 4.62386
2.03025 4.6812
2.07487 4.48176
2.11949 5.02149
2.16411 4.77535
2.20874 11.0857
2.25338 15.8191
2.298 5.1428
2.34263 4.45802
2.38725 4.81286
2.43188 5.33654
2.4765 5.68797
2.52115 5.55472
2.56577 6.7115
2.6104 6.95616
2.65503 6.76619
2.69965 6.83498
2.7443 7.14226
2.78893 7.90441
2.83356 7.74091
2.87818 8.94809
2.92281 8.94351
2.96744 8.85338
3.01209 10.7025
3.05672 11.5623
3.10135 12.2389
3.14599 13.2157
3.19062 14.2031
3.23527 14.9041
3.2799 15.749
3.32454 17.2075
3.36917 17.844
3.4138 18.6736
3.45844 19.942
3.50309 21.1822
3.54773 22.0739
3.59237 23.6677
3.637 67.9276
3.68164 46.6842
3.7263 26.0386
3.77094 26.2859
3.81558 27.1966
3.86022 28.24
3.90486 29.3903
3.9495 30.2246
3.99416 31.3495
4.0388 32.6162
4.08344 33.9082
4.12809 34.9971
4.17273 37.2596
4.21738 41.4733
4.26204 173.749
4.30669 151.017
4.35133 47.461
4.39598 45.3378
4.44063 51.8474
4.4853 59.6608
4.52995 52.3233
4.5746 52.7042
4.61925 54.8705
4.6639 57.0453
4.70855 59.7443
4.75322 63.2867
4.79788 66.2126
4.84253 70.0489
4.88719 74.3699
4.93184 78.2863
4.97652 84.6416
5.02118 92.0588
5.06583 100.979
5.11049 115.545
5.15515 178.828
5.19981 577.501
5.24449 3624.53
5.28916 11430.0
5.33382 3508.99
5.37848 225.685
5.42315 139.976
5.46783 121.255
5.5125 111.343
5.55716 106.77
5.60183 102.412
5.6465 99.9524
5.69117 97.9767
5.73586 96.4209
5.78053 96.7179
5.8252 96.3313
5.86988 98.226
5.91455 101.583
5.95924 115.966
6.00392 309.074
6.0486 1261.7
6.09328 4079.99
6.13795 3447.71
6.18263 294.457
6.22733 100.098
6.27201 85.9579
6.3167 95.0535
6.36138 79.7007
6.40606 71.377
6.45075 69.2865
6.49545 66.849
6.54014 65.4777
6.58483 64.3876
6.62952 63.7118
6.67421 82.9057
6.71892 114.093
6.76361 66.2383
6.8083 59.8997
6.853 58.8104
6.89769 58.1554
6.94239 57.6429
6.98711 57.132
7.03181 56.6162
7.07651 56.1906
7.12121 56.368
7.16591 56.6865
7.21063 56.612
7.25533 65.9038
7.30004 136.488
7.34475 79.5197
7.38945 57.0562
7.43416 55.342
7.47889 55.6093
7.5236 55.7117
7.56831 56.3513
7.61303 57.8621
7.65774 57.8096
7.70247 57.7052
7.74719 57.5846
7.79191 58.0589
7.83663 58.405
7.88135 59.4954
7.92607 60.1165
7.97081 61.5395
8.01553 62.5574
8.06026 64.1758
8.10498 65.6659
8.14971 72.6656
8.19446 72.3953
8.23919 71.3452
8.28392 73.9008
8.32865 76.8272
8.37339 81.124
8.41812 88.1704
8.46288 114.551
8.50761 217.596
8.55235 490.969
8.59709 1167.66
8.64183 2100.71
8.68658 1049.58
8.73134 183.816
8.77609 104.226
8.82083 96.2094
8.86558 92.8835
8.91033 91.9035
8.9551 92.1551
8.99985 87.5295
9.04461 85.9773
9.08936 85.4248
9.13412 84.4679
9.17888 84.505
9.22365 85.1177
9.26841 84.3923
9.31318 85.7699
9.35794 85.741
9.4027 85.7563
9.44749 86.3664
9.49226 87.2684
9.53703 88.1928
9.5818 90.3417
9.62657 93.6582
9.67134 98.3265
9.71614 96.0167
9.76091 97.0944
9.80569 99.9013
9.85047 103.526
9.89525 120.854
9.94005 138.792
9.98484 227.687
10.0296 432.281
10.0744 863.895
10.1192 1593.06
10.164 1664.02
10.2088 490.019
10.2536 137.02
10.2984 115.924
10.3432 115.389
10.388 109.725
10.4328 134.496
10.4776 185.257
10.5224 294.817
10.5672 484.873
10.612 529.244
10.6568 217.672
10.7017 100.4
10.7465 89.42
10.7913 85.545
10.8361 83.2479
10.8809 81.3267
10.9257 80.1138
10.9706 79.9917
11.0154 76.4822
11.0602 74.6778
11.105 73.9407
11.1499 75.7525
11.1947 80.1296
11.2395 73.8994
11.2844 71.3994
11.3292 68.893
11.374 67.7381
11.4189 67.3821
11.4637 66.5684
11.5086 66.6834
11.5534 68.0661
11.5983 66.561
11.6431 65.3233
11.688 64.331
11.7328 64.4635
11.7777 64.2588
11.8225 64.1228
11.8674 64.4187
11.9122 64.36
11.9571 64.8933
12.002 66.08
12.0468 73.0567
12.0917 86.5083
12.1366 109.196
12.1814 149.47
12.2263 197.228
12.2712 174.198
12.3161 98.8708
12.3609 71.1974
12.4058 66.3244
12.4507 66.0118
12.4956 66.1546
12.5405 66.2012
12.5853 66.9339
12.6302 72.158
12.6751 75.8826
12.72 70.7295
12.7649 69.7735
12.8098 70.1905
12.8547 71.8028
12.8996 73.2241
12.9445 74.5257
12.9894 76.6403
13.0343 78.3241
13.0792 82.5192
13.1242 97.7713
13.1691 126.679
13.214 167.015
13.2589 244.988
13.3038 349.971
13.3487 421.945
13.3937 282.747
13.4386 133.511
13.4835 116.949
13.5285 135.735
13.5734 172.803
13.6183 242.344
13.6633 330.692
13.7082 343.579
13.7531 200.991
13.7981 102.889
13.843 84.5197
13.888 81.8684
13.9329 79.4862
13.9779 78.2736
14.0228 76.5997
14.0678 75.0207
14.1127 74.7933
14.1577 74.3753
14.2027 73.4563
14.2476 72.294
14.2926 72.2874
14.3376 72.9106
14.3825 71.8647
14.4275 70.7913
14.4725 70.8731
14.5175 71.0323
14.5624 71.0817
14.6074 72.6932
14.6524 73.1452
14.6974 72.8692
14.7424 76.0658
14.7874 85.6303
14.8324 97.4807
14.8774 118.975
14.9224 153.801
14.9674 199.445
15.0124 219.588
15.0574 156.073
15.1024 95.0616
15.1474 74.5424
15.1924 72.631
15.2374 72.347
15.2824 71.4949
15.3274 69.7562
15.3725 68.9628
15.4175 68.3603
15.4625 67.8467
15.5076 67.7719
15.5526 67.9254
15.5976 68.1522
15.6426 70.7135
15.6877 78.3966
15.7327 87.2133
15.7778 102.485
15.8228 128.577
15.8679 163.05
15.9129 191.355
15.958 165.35
16.003 103.278
16.0481 70.1987
16.0931 65.589
16.1382 64.0656
16.1833 62.243
16.2283 60.8213
16.2734 60.0159
16.3185 60.0352
16.3636 59.9281
16.4086 58.924
16.4537 57.5637
16.4988 56.7927
16.5439 56.9901
16.589 56.8355
16.6341 56.4262
16.6792 55.8723
16.7243 56.3837
16.7694 56.3082
16.8145 56.2922
16.8596 56.5346
16.9047 57.7429
16.9498 57.9546
16.9949 57.1623
17.04 57.8876
17.0851 59.4498
17.1302 61.4426
17.1754 64.5389
17.2205 69.136
17.2656 75.0535
17.3108 83.06
17.3559 84.5429
17.401 74.03
17.4462 64.5624
17.4913 60.9454
17.5365 60.9737
17.5815 61.0219
17.6268 61.6152
17.6718 62.1233
17.7171 62.6289
17.7622 63.422
17.8074 64.0403
17.8525 68.0122
17.8977 72.7296
17.9428 78.8762
17.9881 87.6604
18.0331 101.908
18.0784 119.539
18.1237 140.009
18.1688 138.491
18.214 111.48
18.2591 91.4278
18.3044 91.5759
18.3495 99.3629
18.3948 106.512
18.4399 99.1826
18.4852 80.0647
18.5303 68.1105
18.5756 64.0285
18.6207 63.1246
18.666 62.2763
18.7112 61.4438
18.7565 60.7746
18.8016 60.5417
18.8469 59.7301
18.892 59.3998
18.9374 58.9459
18.9825 58.8007
19.0278 58.6091
19.073 59.0913
19.1183 59.5952
19.1635 60.1217
19.2088 61.6804
19.254 64.2811
19.2993 67.807
19.3447 72.5005
19.3898 77.2211
19.4352 75.1035
19.4804 65.9026
19.5257 58.8027
19.5709 55.8222
19.6163 55.6968
19.6615 55.5398
19.7068 54.7903
19.752 54.9652
19.7974 55.4069
19.8426 56.7213
19.888 57.312
19.9332 58.5387
19.9786 60.8692
20.0238 63.714
20.0692 68.017
20.1144 71.4798
20.1598 71.2981
20.205 66.4206
20.2504 63.7295
20.2957 64.5118
20.3411 66.8224
20.3863 65.8982
20.4318 60.6886
20.477 55.2234
20.5224 52.8805
20.5677 52.4253
20.6131 51.7828
20.6586 51.1811
20.7038 50.9802
20.7493 50.4739
20.7945 50.43
20.84 50.2663
20.8853 50.2914
20.9307 50.1036
20.976 50.2282
21.0215 50.075
21.0668 50.7236
21.1122 51.0354
21.1575 51.5858
21.203 52.0924
21.2483 52.7469
21.2938 53.0214
21.3391 51.8762
21.3846 50.5898
21.4299 50.0231
21.4754 50.0913
21.5207 50.2051
21.5662 50.546
21.6116 51.1534
21.6571 51.8773
21.7024 52.8155
21.7479 54.834
21.7933 57.1352
21.8388 60.1432
21.8843 63.4379
21.9297 66.2773
21.9752 65.6717
22.0206 61.8704
22.0661 57.9207
22.1115 57.2829
22.157 57.5167
22.2024 56.0275
22.248 53.2376
22.2933 51.349
22.3389 50.5793
22.3843 50.4662
22.4299 50.292
22.4753 50.3316
22.5208 50.1508
22.5662 49.9765
22.6118 50.2382
22.6572 50.57
22.7028 51.0974
22.7483 51.5828
22.7939 52.4617
22.8393 53.8199
22.8849 55.4388
22.9303 57.0819
22.9759 58.8247
23.0214 59.192
23.067 56.3931
23.1126 52.8033
23.1581 50.6331
23.2037 50.3745
23.2492 50.7518
23.2948 50.6206
23.3403 50.9521
23.3859 51.6773
23.4314 52.5891
23.477 54.0802
23.5225 55.7293
23.5682 57.6762
23.6137 59.2289
23.6593 57.5884
23.7048 53.5745
23.7505 50.0115
23.796 48.1978
23.8417 47.3233
23.8872 46.9434
23.9329 46.4689
23.9784 46.3585
24.0241 45.9756
24.0697 45.7902
24.1154 45.3835
24.1609 45.2925
24.2066 45.1136
24.2522 45.1214
24.2979 44.7182
24.3434 44.6934
24.3892 44.3196
24.4349 44.3444
24.4805 44.257
24.5262 44.2973
24.5718 44.2089
24.6175 44.2799
24.6631 44.0333
24.7089 43.7869
24.7545 43.629
24.8002 43.4598
24.8458 43.5621
24.8916 43.3862
24.9372 43.5335
24.983 43.9636
25.0286 44.313
25.0744 44.6062
25.12 45.0693
25.1658 45.5826
25.2114 46.0259
25.2572 45.9313
25.3029 45.8056
25.3487 46.152
25.3943 46.0028
25.4402 45.0963
25.4858 43.9633
25.5316 42.6768
25.5773 42.2797
25.6231 42.0154
25.669 41.8168
25.7147 41.7195
25.7605 41.7974
25.8062 41.7928
25.8521 41.8823
25.8977 41.9771
25.9436 42.0388
25.9893 42.0992
26.0352 42.6004
26.0809 42.6382
26.1268 42.9664
26.1725 42.6531
26.2184 42.1638
26.2641 41.645
26.31 41.4205
26.3557 41.3451
26.4017 41.4154
26.4474 41.6907
26.4933 41.9766
26.5391 42.4762
26.585 42.7069
26.6308 43.1194
26.6767 43.3586
26.7225 43.2422
26.7684 42.7248
26.8142 42.0109
26.8601 41.6961
26.9059 41.3312
26.9519 40.7077
26.9979 40.4171
27.0437 40.067
27.0896 39.8854
27.1354 39.9821
27.1814 39.748
27.2272 39.741
27.2732 39.7564
27.3191 39.4495
27.3651 39.6521
27.4109 39.5413
27.4569 39.8084
27.5027 39.6218
27.5488 39.7458
27.5946 39.71
27.6407 39.4067
27.6865 39.2301
27.7326 39.001
27.7784 38.9917
27.8245 39.0464
27.8703 39.2069
27.9164 39.4229
27.9623 39.4621
28.0084 39.769
28.0543 40.2327
28.1003 40.3255
28.1462 40.0063
28.1923 39.5629
28.2384 39.0979
28.2843 38.7822
28.3304 38.2037
28.3764 37.8438
28.4225 37.4831
28.4684 37.235
28.5145 36.9759
28.5605 36.799
28.6066 36.7026
28.6526 36.7706
28.6987 36.7534
28.7447 36.5639
28.7908 36.4386
28.8368 36.4196
28.8829 36.4415
28.9289 36.3425
28.9751 36.2597
29.0211 35.9167
29.0673 35.6511
29.1133 35.6602
29.1595 35.4244
29.2055 35.3719
29.2517 35.3343
29.2977 35.3543
29.3439 35.1686
29.3899 35.1799
29.4361 35.1517
29.4824 34.943
29.5284 34.7115
29.5746 34.4239
29.6207 34.0861
29.6669 33.9663
29.713 33.824
29.7593 33.8591
29.8053 33.8793
29.8516 33.7422
29.8977 33.7168
29.9439 33.5499
29.99 33.5195
30.0363 33.3801
30.0824 33.4358
30.1287 33.2938
30.1748 33.358
30.2211 33.3846
30.2673 33.2411
30.3136 33.4234
30.3597 33.2301
30.406 33.0612
30.4522 32.9202
30.4985 33.0288
30.5447 33.1601
30.591 33.0351
30.6372 33.0609
30.6835 32.9557
30.7297 33.1202
30.7761 33.1248
30.8224 32.8744
30.8686 32.7615
30.915 32.6282
30.9612 32.4319
31.0076 32.2457
31.0538 32.1367
31.1002 32.0308
31.1464 31.9155
31.1928 31.8491
31.2391 31.8902
31.2855 31.7553
31.3317 31.7797
31.3781 31.777
31.4244 31.7605
31.4708 31.6249
31.5171 31.6717
31.5636 31.6916
31.6098 31.3981
31.6563 31.2949
31.7026 31.1858
31.7491 30.9634
31.7953 30.9941
31.8418 31.1245
31.8881 31.0489
31.9346 30.9708
31.9809 30.867
32.0275 30.7116
32.074 30.7056
32.1203 30.4531
32.1668 30.3602
32.2132 30.2802
32.2597 30.1184
32.306 29.9587
32.3526 29.8864
32.399 29.7412
32.4455 29.5891
32.4919 29.5671
32.5385 29.4451
32.5848 29.3642
32.6314 29.3488
32.6778 29.1923
32.7244 29.1659
32.7708 29.0705
32.8174 29.0067
32.8638 28.9388
32.9104 28.9588
32.9569 28.8289
33.0035 28.673
33.0499 28.646
33.0966 28.5986
33.143 28.6036
33.1897 28.5128
33.2361 28.3771
33.2828 28.4584
33.3293 28.2235
33.3759 28.1996
33.4226 28.0055
33.4691 27.9408
33.5158 27.814
33.5623 27.7394
33.609 27.5283
33.6555 27.442
33.7022 27.2866
33.7487 27.2748
33.7954 27.2276
33.842 27.1738
33.8887 27.0539
33.9353 26.9894
33.982 26.9783
34.0286 26.8107
34.0753 26.6945
34.1219 26.606
34.1687 26.6191
34.2152 26.4343
34.262 26.3925
34.3086 26.3421
34.3554 26.2894
34.402 26.1266
34.4488 26.0126
34.4954 26.0107
34.5422 25.9064
34.5889 25.8004
34.6357 25.6928
34.6825 25.6935
34.7292 25.5316
34.776 25.4332
34.8227 25.443
34.8695 25.3378
34.9162 25.3285
34.9631 25.1484
35.0098 25.1492
35.0566 25.0343
35.1033 24.9515
35.1502 24.9623
35.1969 24.9216
35.2438 24.7885
35.2906 24.8674
35.3375 24.7252
35.3842 24.6792
35.4311 24.6865
35.4779 24.6393
35.5248 24.5173
35.5716 24.4263
35.6185 24.3827
35.6653 24.3006
35.7123 24.2024
35.759 24.1781
35.806 23.9697
35.8528 23.9313
35.8998 23.857
35.9468 23.7618
35.9936 23.7095
36.0406 23.6991
36.0874 23.6812
36.1345 23.5435
36.1813 23.3793
36.2283 23.325
36.2752 23.3329
36.3222 23.3078
36.3691 23.2139
36.4161 23.0528
36.463 23.0278
36.5101 23.0962
36.557 23.0354
36.6041 22.758
36.651 22.8136
36.6981 22.7423
36.745 22.6259
36.7921 22.5599
36.839 22.5351
36.8861 22.3696
36.9331 22.3468
36.9802 22.2738
37.0272 22.2024
37.0743 22.0564
37.1213 22.0792
37.1684 22.0342
37.2154 21.9631
37.2626 21.893
37.3098 21.7961
37.3568 21.7815
37.404 21.7562
37.451 21.5977
37.4982 21.6284
37.5452 21.3988
37.5924 21.3235
37.6395 21.4874
37.6867 21.3122
37.7337 21.2225
37.781 21.1186
37.8281 21.0611
37.8753 20.9333
37.9224 20.8368
37.9697 20.9059
38.0168 20.8263
38.064 20.6579
38.1111 20.6174
38.1584 20.5506
38.2056 20.4534
38.2529 20.4646
38.3 20.3766
38.3473 20.3626
38.3945 20.2692
38.4418 20.2377
38.489 20.1382
38.5363 20.0791
38.5837 19.9827
38.6309 19.9405
38.6782 19.8816
38.7254 19.8225
38.7728 19.7888
38.82 19.6631
38.8674 19.6563
38.9146 19.6223
38.9621 19.4419
39.0093 19.4709
39.0567 19.3819
39.104 19.3148
39.1514 19.1933
39.1987 19.1732
39.2461 19.1932
39.2934 19.0659
39.3409 19.0202
39.3882 19.0006
39.4356 18.9166
39.483 18.8415
39.5304 18.7702
39.5778 18.7786
39.6253 18.7022
39.6726 18.6222
39.7201 18.5277
39.7675 18.534
39.815 18.4783
39.8624 18.35
39.9099 18.3243
39.9575 18.2285
40.0049 18.2452
40.0525 18.1475
40.0999 18.0656
40.1474 18.0416
40.1949 17.9808
40.2425 17.8965
40.2899 17.8491
40.3375 17.8272
40.385 17.7165
40.4326 17.6644
40.48 17.5457
40.5277 17.6248
40.5752 17.5112
40.6228 17.4489
40.6703 17.3712
40.718 17.4141
40.7655 17.3085
40.8132 17.2419
40.8607 17.2463
40.9084 17.166
40.9559 17.0721
41.0036 17.0523
41.0512 16.9827
41.0989 16.9338
41.1465 16.8374
41.1942 16.826
41.242 16.7326
41.2896 16.7005
41.3373 16.6233
41.3849 16.5895
41.4327 16.5615
41.4803 16.4766
41.5281 16.3736
41.5758 16.3541
41.6236 16.2371
41.6712 16.2551
41.7191 16.2148
41.7667 16.1583
41.8146 16.1408
41.8622 16.0476
41.9101 15.9636
41.9578 15.8601
42.0057 15.8378
42.0534 15.814
42.1013 15.8087
42.149 15.655
42.1969 15.6298
42.2446 15.5957
42.2925 15.5118
42.3403 15.5013
42.3882 15.4858
42.436 15.4073
42.4839 15.3195
42.5319 15.3112
42.5797 15.2793
42.6277 15.2013
42.6755 15.1962
42.7235 15.075
42.7713 15.0646
42.8193 14.9721
42.8671 14.9741
42.9152 14.9008
42.963 14.7974
43.0111 14.8025
43.0589 14.7134
43.107 14.6045
43.1549 14.587
43.2029 14.5381
43.2508 14.5161
43.2989 14.466
43.3468 14.4251
43.3949 14.3117
43.4429 14.309
43.491 14.2889
43.5389 14.2089
43.5871 14.1654
43.635 14.1083
43.6832 14.0708
43.7312 14.0103
43.7793 13.9695
43.8273 13.9351
43.8755 13.8333
43.9237 13.8448
43.9717 13.8047
44.0199 13.7314
44.068 13.7024
44.1162 13.6218
44.1642 13.5943
44.2125 13.5405
44.2606 13.4839
44.3088 13.4111
44.3569 13.4393
44.4052 13.3935
44.4533 13.3436
44.5016 13.2506
44.5497 13.2482
44.598 13.1615
44.6461 13.1124
44.6945 13.1004
44.7426 13.0572
44.791 12.9921
44.8391 12.926
44.8875 12.8937
44.9357 12.8368
44.984 12.7959
45.0322 12.7794
45.0806 12.6891
45.1288 12.6717
45.1773 12.6393
45.2257 12.5853
45.2739 12.5474
45.3224 12.4588
45.3706 12.4545
45.4191 12.3857
45.4673 12.3821
45.5158 12.2836
45.5641 12.2692
45.6126 12.2123
45.6609 12.1686
45.7094 12.1373
45.7577 12.1107
45.8063 12.0386
45.8546 11.9996
45.9031 11.9959
45.9515 11.9309
46.0001 11.844
46.0484 11.8365
46.097 11.8091
46.1454 11.7721
46.194 11.7202
46.2424 11.6825
46.291 11.5789
46.3395 11.5703
46.3881 11.5679
46.4365 11.4624
46.4852 11.4422
46.5337 11.4051
46.5823 11.4289
46.631 11.3444
46.6795 11.2545
46.7282 11.2411
46.7767 11.2135
46.8254 11.1252
46.8739 11.1338
46.9226 11.0886
46.9712 11.059
47.0199 10.9647
47.0685 10.9256
47.1173 10.8971
47.1658 10.8817
47.2146 10.8586
47.2632 10.7892
47.312 10.7527
47.3606 10.7245
47.4095 10.6445
47.4581 10.6742
47.5069 10.5906
47.5556 10.5366
47.6044 10.5015
47.6531 10.4499
47.702 10.438
47.7507 10.4019
47.7996 10.3471
47.8483 10.3228
47.8972 10.2865
47.9461 10.2935
47.9948 10.2311
48.0438 10.1626
48.0925 10.1655
48.1415 10.1177
48.1902 10.0313
48.2392 10.0567
48.288 9.98542
48.337 10.0177
48.3858 9.91126
48.4348 9.90435
48.4837 9.85416
48.5327 9.85475
48.5815 9.77131
48.6306 9.75946
48.6795 9.73245
48.7285 9.68633
48.7774 9.65965
48.8265 9.62118
48.8754 9.54296
48.9245 9.51867
48.9734 9.49499
49.0226 9.51648
49.0715 9.46943
49.1206 9.40983
49.1696 9.35092
49.2188 9.29844
49.2679 9.26742
49.3169 9.22808
49.3661 9.18183
49.4151 9.18817
49.4643 9.11448
49.5134 9.10457
49.5626 9.05793
49.6117 9.05134
49.6609 8.98284
49.71 8.95893
49.7592 8.92921
49.8083 8.89336
49.8576 8.85627
49.9067 8.82309
49.956 8.81139
50.0052 8.77011
50.0545 8.77046
50.1036 8.70595
50.153 8.67853
50.2022 8.63357
50.2515 8.55226
50.3007 8.57147
50.3501 8.52388
50.3993 8.47121
50.4487 8.43819
50.498 8.43838
50.5474 8.4244
50.5966 8.3804
50.6461 8.33462
50.6955 8.31444
50.7448 8.29105
50.7943 8.25139
50.8436 8.23764
50.8931 8.18644
50.9424 8.13286
50.9919 8.10078
51.0413 8.08904
51.0908 8.04613
51.1402 8.04862
51.1897 7.99291
51.2391 7.94841
51.2887 7.93181
51.3381 7.89653
51.3877 7.85411
51.4371 7.79039
51.4867 7.74614
51.5362 7.79324
51.5858 7.76945
51.6353 7.68285
51.6849 7.67289
51.7344 7.64232
51.7841 7.65546
51.8336 7.56628
51.8833 7.56546
51.9328 7.50451
51.9826 7.42428
52.0323 7.43637
52.0818 7.41279
52.1316 7.34654
52.1812 7.35367
52.231 7.31141
52.2806 7.29481
52.3304 7.28321
52.38 7.18548
52.4298 7.18585
52.4794 7.15256
52.5293 7.14289
52.5789 7.11844
52.6288 7.09348
52.6785 7.02816
52.7284 7.01433
52.7781 6.99481
52.828 6.96831
52.8777 6.93417
52.9276 6.89052
52.9774 6.87903
53.0273 6.8618
53.0771 6.82193
53.1271 6.78141
53.1769 6.76487
53.2269 6.72298
53.2767 6.71214
53.3267 6.63289
53.3765 6.64987
53.4266 6.60275
53.4766 6.57568
53.5265 6.51703
53.5765 6.48951
53.6264 6.48808
53.6765 6.50723
53.7264 6.4798
53.7765 6.41901
53.8265 6.36552
53.8766 6.33224
53.9266 6.34352
53.9767 6.29342
54.0267 6.27393
54.0769 6.21961
54.1269 6.25164
54.1771 6.17299
54.2271 6.15286
54.2773 6.13447
54.3274 6.06399
54.3776 6.04852
54.4277 5.98911
54.478 5.9868
54.528 5.92102
54.5783 5.91846
54.6285 5.85082
54.6788 5.80214
54.7289 5.7977
54.7792 5.76577
54.8296 5.66723
54.8798 5.68072
54.9301 5.56999
54.9803 5.60569
55.0307 5.58231
55.0809 5.51138
55.1314 5.52397
55.1816 5.40072
55.232 5.42274
55.2823 5.38215
55.3328 5.30521
55.383 5.18602
55.4335 5.17061
55.4838 5.15481
55.5344 5.11343
55.5847 5.06564
55.6352 4.99816
55.6856 4.98511
55.7361 4.89085