File: XRD/Ni3Fe_FD0896.xy
TT I
1.27165 6.94553
1.31627 7.02476
1.36089 6.10411
1.40551 6.4073
1.45013 6.56937
1.49476 5.82727
1.53938 5.97439
1.584 5.51325
1.62863 5.48034
1.67325 5.49747
1.71787 4.96725
1.7625 5.03501
1.80712 4.55295
1.85174 5.00111
1.89636 5.36272
1.94099 4.75291
1.98562 4.26209
2.03025 5.10257
2.07487 4.90257
2.11949 5.30796
2.16411 4.67934
2.20874 13.3479
2.25338 19.1749
2.298 6.30309
2.34263 5.49943
2.38725 6.22289
2.43188 6.50685
2.4765 7.24724
2.52115 7.42649
2.56577 8.47446
2.6104 8.85157
2.65503 9.00187
2.69965 7.96643
2.7443 9.00121
2.78893 8.6016
2.83356 9.08081
2.87818 9.45491
2.92281 9.08963
2.96744 9.755
3.01209 10.6047
3.05672 11.1361
3.10135 12.3347
3.14599 13.1032
3.19062 14.3782
3.23527 15.0579
3.2799 15.7916
3.32454 17.4993
3.36917 18.0688
3.4138 18.8017
3.45844 19.7938
3.50309 20.7641
3.54773 21.4235
3.59237 23.4669
3.637 77.6649
3.68164 51.7406
3.7263 25.6649
3.77094 25.9328
3.81558 26.6439
3.86022 27.475
3.90486 28.9257
3.9495 29.5688
3.99416 30.0845
4.0388 31.4549
4.08344 33.1389
4.12809 33.9901
4.17273 36.1408
4.21738 40.7694
4.26204 202.529
4.30669 182.331
4.35133 46.8268
4.39598 43.257
4.44063 51.7306
4.4853 61.606
4.52995 49.3602
4.5746 50.3049
4.61925 52.8028
4.6639 54.8882
4.70855 57.1721
4.75322 59.9169
4.79788 62.6621
4.84253 66.0764
4.88719 69.9913
4.93184 73.7174
4.97652 79.0823
5.02118 84.9604
5.06583 92.0601
5.11049 102.431
5.15515 158.618
5.19981 309.465
5.24449 2602.38
5.28916 13633.1
5.33382 2605.84
5.37848 169.265
5.42315 123.26
5.46783 109.087
5.5125 103.039
5.55716 99.1646
5.60183 95.7913
5.6465 93.9142
5.69117 91.829
5.73586 90.2254
5.78053 89.5603
5.8252 88.99
5.86988 89.7066
5.91455 91.9077
5.95924 99.2853
6.00392 189.428
6.0486 877.136
6.09328 4485.18
6.13795 3054.69
6.18263 197.172
6.22733 87.8848
6.27201 79.4391
6.3167 93.7616
6.36138 77.1351
6.40606 67.3081
6.45075 65.9629
6.49545 63.8937
6.54014 62.6469
6.58483 61.608
6.62952 61.2846
6.67421 85.6312
6.71892 123.811
6.76361 65.7853
6.8083 57.2425
6.853 56.4379
6.89769 55.5511
6.94239 55.2824
6.98711 54.8577
7.03181 54.3649
7.07651 54.0515
7.12121 53.8969
7.16591 54.3401
7.21063 54.4264
7.25533 66.309
7.30004 150.466
7.34475 82.9956
7.38945 55.3133
7.43416 53.3927
7.47889 53.497
7.5236 53.8571
7.56831 54.3009
7.61303 55.5616
7.65774 55.7706
7.70247 54.9974
7.74719 55.0957
7.79191 55.6985
7.83663 55.677
7.88135 56.6289
7.92607 57.58
7.97081 58.685
8.01553 59.8386
8.06026 60.8508
8.10498 62.5904
8.14971 70.498
8.19446 70.0693
8.23919 68.1179
8.28392 70.7094
8.32865 72.4647
8.37339 76.5073
8.41812 82.9179
8.46288 107.31
8.50761 155.341
8.55235 351.498
8.59709 1183.63
8.64183 2299.89
8.68658 893.034
8.73134 145.548
8.77609 95.6072
8.82083 89.9664
8.86558 87.2494
8.91033 87.2395
8.9551 88.3905
8.99985 83.6952
9.04461 81.6538
9.08936 81.0172
9.13412 80.384
9.17888 80.1038
9.22365 80.9238
9.26841 80.0755
9.31318 80.7593
9.35794 81.1327
9.4027 81.5628
9.44749 82.2422
9.49226 82.9319
9.53703 83.433
9.5818 85.4638
9.62657 89.1098
9.67134 94.5378
9.71614 91.5008
9.76091 91.6645
9.80569 94.4136
9.85047 97.4204
9.89525 117.366
9.94005 129.804
9.98484 166.514
10.0296 316.694
10.0744 786.536
10.1192 1856.05
10.164 1484.05
10.2088 339.577
10.2536 118.459
10.2984 109.097
10.3432 109.776
10.388 102.149
10.4328 114.111
10.4776 154.425
10.5224 278.754
10.5672 534.399
10.612 504.789
10.6568 182.385
10.7017 92.3643
10.7465 84.2088
10.7913 81.1264
10.8361 79.1363
10.8809 77.1601
10.9257 76.3698
10.9706 76.2593
11.0154 73.1938
11.0602 71.258
11.105 70.1965
11.1499 73.1381
11.1947 78.6806
11.2395 71.857
11.2844 68.6017
11.3292 65.82
11.374 64.6804
11.4189 64.2538
11.4637 63.7438
11.5086 63.7957
11.5534 66.1261
11.5983 63.9638
11.6431 62.252
11.688 61.6354
11.7328 61.3652
11.7777 61.3917
11.8225 61.0189
11.8674 61.234
11.9122 61.6503
11.9571 61.559
12.002 62.2334
12.0468 65.9501
12.0917 75.932
12.1366 99.5683
12.1814 157.21
12.2263 221.247
12.2712 156.943
12.3161 88.3305
12.3609 67.7757
12.4058 63.2606
12.4507 62.5656
12.4956 62.7279
12.5405 63.0726
12.5853 64.0146
12.6302 69.8495
12.6751 74.6086
12.72 68.0133
12.7649 66.276
12.8098 66.7928
12.8547 68.2673
12.8996 69.4179
12.9445 70.8057
12.9894 72.1933
13.0343 74.1397
13.0792 77.5637
13.1242 85.3967
13.1691 107.031
13.214 141.751
13.2589 236.875
13.3038 390.733
13.3487 425.504
13.3937 238.125
13.4386 114.984
13.4835 101.501
13.5285 114.908
13.5734 152.633
13.6183 251.799
13.6633 371.14
13.7082 334.16
13.7531 168.051
13.7981 91.4166
13.843 79.6738
13.888 77.5752
13.9329 75.266
13.9779 74.182
14.0228 72.6639
14.0678 71.2989
14.1127 70.8294
14.1577 70.6511
14.2027 69.8347
14.2476 68.7933
14.2926 68.7887
14.3376 69.6754
14.3825 68.418
14.4275 66.9959
14.4725 67.3515
14.5175 67.4486
14.5624 67.7675
14.6074 69.2118
14.6524 69.7643
14.6974 68.8362
14.7424 70.4287
14.7874 76.1543
14.8324 85.6586
14.8774 107.386
14.9224 155.075
14.9674 220.157
15.0124 219.093
15.0574 137.123
15.1024 84.7709
15.1474 70.3379
15.1924 68.7617
15.2374 68.937
15.2824 68.2979
15.3274 66.401
15.3725 65.3481
15.4175 64.8811
15.4625 64.5557
15.5076 64.6886
15.5526 64.6851
15.5976 64.401
15.6426 65.1552
15.6877 70.2015
15.7327 76.7347
15.7778 91.668
15.8228 125.783
15.8679 176.224
15.9129 197.519
15.958 149.921
16.003 89.3216
16.0481 65.1832
16.0931 62.6338
16.1382 60.9881
16.1833 59.1132
16.2283 57.6369
16.2734 56.8969
16.3185 57.1892
16.3636 57.4076
16.4086 56.3973
16.4537 54.875
16.4988 54.346
16.5439 54.2038
16.589 53.8257
16.6341 53.5709
16.6792 53.2395
16.7243 53.5976
16.7694 53.6606
16.8145 53.6794
16.8596 54.0555
16.9047 55.1031
16.9498 55.556
16.9949 54.5746
17.04 54.662
17.0851 55.6667
17.1302 57.1821
17.1754 60.0176
17.2205 65.0775
17.2656 73.8654
17.3108 83.6716
17.3559 81.3273
17.401 68.0848
17.4462 59.7092
17.4913 57.7472
17.5365 57.7922
17.5815 57.9049
17.6268 58.2997
17.6718 58.8677
17.7171 59.48
17.7622 60.0548
17.8074 60.6823
17.8525 62.5723
17.8977 66.2801
17.9428 71.221
17.9881 80.4707
18.0331 99.1863
18.0784 124.869
18.1237 140.029
18.1688 126.329
18.214 96.9793
18.2591 82.7782
18.3044 89.7462
18.3495 102.086
18.3948 107.171
18.4399 92.3599
18.4852 73.6945
18.5303 63.9178
18.5756 60.5771
18.6207 60.008
18.666 59.0096
18.7112 58.35
18.7565 57.6986
18.8016 57.5424
18.8469 56.78
18.892 56.4999
18.9374 56.0511
18.9825 55.8165
19.0278 55.6359
19.073 55.7969
19.1183 56.0203
19.1635 56.8086
19.2088 58.0846
19.254 60.8418
19.2993 65.8761
19.3447 72.5315
19.3898 75.8758
19.4352 70.154
19.4804 60.8088
19.5257 54.8028
19.5709 53.1268
19.6163 52.6808
19.6615 52.5626
19.7068 52.2953
19.752 52.0355
19.7974 52.5281
19.8426 53.3941
19.888 53.8088
19.9332 55.1813
19.9786 57.7224
20.0238 61.6727
20.0692 67.0177
20.1144 69.1676
20.1598 66.2988
20.205 61.4198
20.2504 61.0286
20.2957 63.9346
20.3411 65.611
20.3863 62.8851
20.4318 56.4716
20.477 52.0811
20.5224 50.1674
20.5677 49.8053
20.6131 49.1602
20.6586 48.6879
20.7038 48.4624
20.7493 48.0375
20.7945 48.001
20.84 47.7488
20.8853 47.6807
20.9307 47.6019
20.976 47.8466
21.0215 47.5842
21.0668 47.9541
21.1122 48.3296
21.1575 49.2658
21.203 50.2168
21.2483 50.734
21.2938 50.1892
21.3391 48.822
21.3846 47.9231
21.4299 47.4029
21.4754 47.5391
21.5207 47.6349
21.5662 47.7777
21.6116 48.1509
21.6571 48.8546
21.7024 49.6217
21.7479 51.5401
21.7933 54.2979
21.8388 58.6818
21.8843 63.0038
21.9297 64.2546
21.9752 61.5187
22.0206 57.5802
22.0661 55.3918
22.1115 55.5119
22.157 54.9597
22.2024 52.9347
22.248 49.8969
22.2933 48.5461
22.3389 47.9921
22.3843 47.8524
22.4299 47.851
22.4753 47.9897
22.5208 47.4741
22.5662 47.5945
22.6118 47.6661
22.6572 47.7691
22.7028 48.2499
22.7483 48.5933
22.7939 49.3998
22.8393 50.9995
22.8849 53.3082
22.9303 55.8414
22.9759 57.5411
23.0214 56.3584
23.067 52.9067
23.1126 49.6762
23.1581 48.0118
23.2037 47.8382
23.2492 47.8432
23.2948 47.9013
23.3403 48.0522
23.3859 48.8733
23.4314 49.8001
23.477 51.9722
23.5225 54.4058
23.5682 57.0296
23.6137 57.4259
23.6593 54.2518
23.7048 50.1042
23.7505 47.0709
23.796 45.6509
23.8417 45.3928
23.8872 44.5675
23.9329 44.4171
23.9784 43.9869
24.0241 43.975
24.0697 43.6019
24.1154 43.2243
24.1609 43.1236
24.2066 42.8248
24.2522 42.7763
24.2979 42.502
24.3434 42.41
24.3892 42.4774
24.4349 42.1747
24.4805 41.9055
24.5262 42.2113
24.5718 42.2577
24.6175 42.1528
24.6631 41.8073
24.7089 41.7628
24.7545 41.5293
24.8002 41.4854
24.8458 41.3514
24.8916 41.053
24.9372 41.3894
24.983 41.6069
25.0286 41.9784
25.0744 42.5307
25.12 42.995
25.1658 43.6841
25.2114 43.9518
25.2572 44.0191
25.3029 44.2222
25.3487 44.2818
25.3943 43.7589
25.4402 42.4991
25.4858 41.4066
25.5316 40.6554
25.5773 40.2427
25.6231 40.0281
25.669 39.8238
25.7147 39.7968
25.7605 39.6412
25.8062 39.7483
25.8521 39.8805
25.8977 39.8211
25.9436 40.0132
25.9893 40.3476
26.0352 40.8843
26.0809 40.9321
26.1268 41.0688
26.1725 40.6219
26.2184 39.9075
26.2641 39.3806
26.31 39.2741
26.3557 39.4
26.4017 39.4013
26.4474 39.5224
26.4933 40.1519
26.5391 40.4361
26.585 41.2354
26.6308 41.5589
26.6767 41.431
26.7225 41.2132
26.7684 40.7131
26.8142 39.9804
26.8601 39.7385
26.9059 39.2921
26.9519 38.722
26.9979 38.441
27.0437 38.1459
27.0896 38.0932
27.1354 37.9829
27.1814 37.9019
27.2272 37.7245
27.2732 37.84
27.3191 37.5896
27.3651 37.8036
27.4109 37.6711
27.4569 37.8223
27.5027 37.8061
27.5488 37.7492
27.5946 37.6216
27.6407 37.3465
27.6865 37.1822
27.7326 37.1572
27.7784 37.2338
27.8245 37.083
27.8703 37.3431
27.9164 37.5511
27.9623 37.756
28.0084 38.1427
28.0543 38.5406
28.1003 38.4097
28.1462 38.251
28.1923 37.7573
28.2384 37.2693
28.2843 36.8663
28.3304 36.4314
28.3764 35.991
28.4225 35.6516
28.4684 35.5789
28.5145 35.3114
28.5605 35.1542
28.6066 35.0474
28.6526 35.0044
28.6987 35.0781
28.7447 34.8639
28.7908 34.7878
28.8368 34.8543
28.8829 34.7798
28.9289 34.7088
28.9751 34.6083
29.0211 34.2054
29.0673 34.1599
29.1133 33.8594
29.1595 33.7856
29.2055 33.6292
29.2517 33.6373
29.2977 33.717
29.3439 33.6963
29.3899 33.6342
29.4361 33.4826
29.4824 33.2704
29.5284 33.1775
29.5746 32.7486
29.6207 32.5656
29.6669 32.4423
29.713 32.2976
29.7593 32.1362
29.8053 32.2223
29.8516 32.0829
29.8977 32.1942
29.9439 32.068
29.99 32.051
30.0363 31.8266
30.0824 31.9319
30.1287 31.7526
30.1748 31.8352
30.2211 31.8254
30.2673 31.7032
30.3136 31.8448
30.3597 31.5685
30.406 31.5154
30.4522 31.4679
30.4985 31.3975
30.5447 31.6212
30.591 31.6109
30.6372 31.6493
30.6835 31.6453
30.7297 31.6716
30.7761 31.5859
30.8224 31.3421
30.8686 31.2435
30.915 31.0697
30.9612 30.879
31.0076 30.7339
31.0538 30.6111
31.1002 30.5326
31.1464 30.4115
31.1928 30.4359
31.2391 30.393
31.2855 30.2699
31.3317 30.3142
31.3781 30.4749
31.4244 30.358
31.4708 30.2636
31.5171 30.369
31.5636 30.0906
31.6098 29.921
31.6563 29.7467
31.7026 29.6169
31.7491 29.58
31.7953 29.6555
31.8418 29.6305
31.8881 29.6621
31.9346 29.5734
31.9809 29.5026
32.0275 29.3024
32.074 29.1734
32.1203 29.0327
32.1668 29.0154
32.2132 28.9228
32.2597 28.7953
32.306 28.5765
32.3526 28.4716
32.399 28.4573
32.4455 28.3576
32.4919 28.0504
32.5385 28.0448
32.5848 28.0018
32.6314 28.0175
32.6778 27.9208
32.7244 27.8125
32.7708 27.7288
32.8174 27.6188
32.8638 27.4451
32.9104 27.4921
32.9569 27.4822
33.0035 27.407
33.0499 27.4007
33.0966 27.3117
33.143 27.3522
33.1897 27.1838
33.2361 27.1296
33.2828 27.1126
33.3293 26.8935
33.3759 26.876
33.4226 26.7471
33.4691 26.6149
33.5158 26.5236
33.5623 26.4389
33.609 26.1801
33.6555 26.2553
33.7022 26.0581
33.7487 25.9909
33.7954 25.9972
33.842 25.9545
33.8887 25.8662
33.9353 25.8088
33.982 25.6096
34.0286 25.5082
34.0753 25.4555
34.1219 25.4406
34.1687 25.2825
34.2152 25.2894
34.262 25.1882
34.3086 25.0478
34.3554 25.0747
34.402 24.8963
34.4488 24.8356
34.4954 24.795
34.5422 24.714
34.5889 24.6134
34.6357 24.4928
34.6825 24.5027
34.7292 24.3597
34.776 24.3644
34.8227 24.2816
34.8695 24.2624
34.9162 24.1339
34.9631 24.0221
35.0098 24.0638
35.0566 23.9123
35.1033 23.7868
35.1502 23.855
35.1969 23.7823
35.2438 23.6729
35.2906 23.7084
35.3375 23.6508
35.3842 23.5581
35.4311 23.5247
35.4779 23.4919
35.5248 23.4295
35.5716 23.4219
35.6185 23.228
35.6653 23.2428
35.7123 23.0717
35.759 23.1079
35.806 22.8908
35.8528 22.8497
35.8998 22.7683
35.9468 22.7715
35.9936 22.6918
36.0406 22.5958
36.0874 22.603
36.1345 22.4662
36.1813 22.4359
36.2283 22.2737
36.2752 22.2546
36.3222 22.2866
36.3691 22.2576
36.4161 22.0537
36.463 21.9937
36.5101 22.0624
36.557 21.9554
36.6041 21.7735
36.651 21.776
36.6981 21.7802
36.745 21.6771
36.7921 21.5834
36.839 21.5359
36.8861 21.3965
36.9331 21.3804
36.9802 21.288
37.0272 21.2357
37.0743 21.1222
37.1213 21.0547
37.1684 20.9887
37.2154 20.9146
37.2626 20.8512
37.3098 20.885
37.3568 20.7748
37.404 20.6922
37.451 20.6167
37.4982 20.6187
37.5452 20.5146
37.5924 20.4439
37.6395 20.3962
37.6867 20.3518
37.7337 20.2636
37.781 20.1699
37.8281 20.2316
37.8753 20.05
37.9224 19.9338
37.9697 19.8636
38.0168 19.8288
38.064 19.6998
38.1111 19.7217
38.1584 19.6446
38.2056 19.5447
38.2529 19.5744
38.3 19.4371
38.3473 19.4395
38.3945 19.2663
38.4418 19.3183
38.489 19.244
38.5363 19.1423
38.5837 19.1158
38.6309 19.0378
38.6782 18.9869
38.7254 18.888
38.7728 18.8849
38.82 18.7386
38.8674 18.7171
38.9146 18.6663
38.9621 18.579
39.0093 18.6611
39.0567 18.5527
39.104 18.5259
39.1514 18.3908
39.1987 18.3804
39.2461 18.27
39.2934 18.1788
39.3409 18.1585
39.3882 18.1524
39.4356 17.9582
39.483 18.0355
39.5304 17.9339
39.5778 17.8963
39.6253 17.8201
39.6726 17.7804
39.7201 17.7828
39.7675 17.7175
39.815 17.5755
39.8624 17.5464
39.9099 17.5103
39.9575 17.4203
40.0049 17.4004
40.0525 17.3244
40.0999 17.2901
40.1474 17.221
40.1949 17.1514
40.2425 17.1017
40.2899 17.0646
40.3375 17.0464
40.385 16.9389
40.4326 16.9079
40.48 16.8333
40.5277 16.8187
40.5752 16.7494
40.6228 16.7209
40.6703 16.5904
40.718 16.5685
40.7655 16.5415
40.8132 16.424
40.8607 16.4472
40.9084 16.3853
40.9559 16.3315
41.0036 16.2877
41.0512 16.2005
41.0989 16.1785
41.1465 16.1065
41.1942 16.0348
41.242 15.9392
41.2896 15.9568
41.3373 15.9161
41.3849 15.8047
41.4327 15.8016
41.4803 15.689
41.5281 15.6811
41.5758 15.6432
41.6236 15.5735
41.6712 15.5526
41.7191 15.4513
41.7667 15.3865
41.8146 15.3665
41.8622 15.2798
41.9101 15.2659
41.9578 15.2055
42.0057 15.1753
42.0534 15.1128
42.1013 15.0688
42.149 14.9546
42.1969 14.9424
42.2446 14.9082
42.2925 14.8937
42.3403 14.7849
42.3882 14.7603
42.436 14.7411
42.4839 14.6234
42.5319 14.6054
42.5797 14.5827
42.6277 14.5201
42.6755 14.4412
42.7235 14.4049
42.7713 14.3737
42.8193 14.3092
42.8671 14.25
42.9152 14.1902
42.963 14.1537
43.0111 14.1048
43.0589 14.0872
43.107 14.0629
43.1549 13.9838
43.2029 13.9522
43.2508 13.8915
43.2989 13.7803
43.3468 13.7599
43.3949 13.7893
43.4429 13.7023
43.491 13.6724
43.5389 13.6133
43.5871 13.5614
43.635 13.4831
43.6832 13.4947
43.7312 13.3577
43.7793 13.3516
43.8273 13.3042
43.8755 13.278
43.9237 13.2129
43.9717 13.1691
44.0199 13.1398
44.068 13.0929
44.1162 13.036
44.1642 12.987
44.2125 12.9643
44.2606 12.9378
44.3088 12.8461
44.3569 12.8083
44.4052 12.7973
44.4533 12.7631
44.5016 12.6738
44.5497 12.6347
44.598 12.6084
44.6461 12.5409
44.6945 12.475
44.7426 12.4386
44.791 12.4192
44.8391 12.3357
44.8875 12.3356
44.9357 12.3005
44.984 12.2569
45.0322 12.2318
45.0806 12.1515
45.1288 12.1262
45.1773 12.0925
45.2257 11.9721
45.2739 11.9628
45.3224 11.9591
45.3706 11.8866
45.4191 11.8416
45.4673 11.8097
45.5158 11.8172
45.5641 11.7076
45.6126 11.7219
45.6609 11.6297
45.7094 11.5954
45.7577 11.5397
45.8063 11.4756
45.8546 11.4909
45.9031 11.4438
45.9515 11.3999
46.0001 11.3452
46.0484 11.3246
46.097 11.29
46.1454 11.2467
46.194 11.2115
46.2424 11.1436
46.291 11.1061
46.3395 11.0842
46.3881 11.0486
46.4365 10.999
46.4852 10.9637
46.5337 10.91
46.5823 10.9263
46.631 10.8482
46.6795 10.8155
46.7282 10.754
46.7767 10.7107
46.8254 10.7058
46.8739 10.6463
46.9226 10.5876
46.9712 10.5401
47.0199 10.5058
47.0685 10.4899
47.1173 10.4689
47.1658 10.3946
47.2146 10.3886
47.2632 10.3586
47.312 10.2877
47.3606 10.2155
47.4095 10.2197
47.4581 10.1642
47.5069 10.1535
47.5556 10.0886
47.6044 10.0391
47.6531 10.0315
47.702 9.9805
47.7507 9.96922
47.7996 9.91633
47.8483 9.86478
47.8972 9.83141
47.9461 9.81364
47.9948 9.75778
48.0438 9.72899
48.0925 9.72984
48.1415 9.67518
48.1902 9.64654
48.2392 9.66051
48.288 9.56241
48.337 9.55836
48.3858 9.49142
48.4348 9.46422
48.4837 9.46202
48.5327 9.38806
48.5815 9.35722
48.6306 9.3311
48.6795 9.27812
48.7285 9.24126
48.7774 9.26686
48.8265 9.21308
48.8754 9.15653
48.9245 9.10864
48.9734 9.11693
49.0226 9.07402
49.0715 9.05633
49.1206 8.98514
49.1696 8.95331
49.2188 8.93143
49.2679 8.88322
49.3169 8.83616
49.3661 8.80166
49.4151 8.77059
49.4643 8.73153
49.5134 8.689
49.5626 8.65955
49.6117 8.607
49.6609 8.64605
49.71 8.57983
49.7592 8.53924
49.8083 8.49563
49.8576 8.50838
49.9067 8.44557
49.956 8.39081
50.0052 8.38935
50.0545 8.3348
50.1036 8.33695
50.153 8.27983
50.2022 8.23775
50.2515 8.20654
50.3007 8.17219
50.3501 8.16222
50.3993 8.1216
50.4487 8.09338
50.498 8.072
50.5474 8.03264
50.5966 7.99683
50.6461 7.98514
50.6955 7.94508
50.7448 7.91834
50.7943 7.91281
50.8436 7.8251
50.8931 7.84753
50.9424 7.80601
50.9919 7.77187
51.0413 7.77702
51.0908 7.72251
51.1402 7.64526
51.1897 7.64169
51.2391 7.63044
51.2887 7.56359
51.3381 7.5277
51.3877 7.52157
51.4371 7.5064
51.4867 7.41179
51.5362 7.42641
51.5858 7.41713
51.6353 7.31325
51.6849 7.32694
51.7344 7.33584
51.7841 7.27307
51.8336 7.26009
51.8833 7.21316
51.9328 7.16924
51.9826 7.13342
52.0323 7.1495
52.0818 7.09812
52.1316 7.09222
52.1812 7.04055
52.231 6.99151
52.2806 6.98138
52.3304 6.95006
52.38 6.87393
52.4298 6.85198
52.4794 6.85439
52.5293 6.84623
52.5789 6.81012
52.6288 6.79254
52.6785 6.76411
52.7284 6.73147
52.7781 6.68069
52.828 6.65993
52.8777 6.63195
52.9276 6.62003
52.9774 6.63191
53.0273 6.56894
53.0771 6.51247
53.1271 6.51668
53.1769 6.47702
53.2269 6.42604
53.2767 6.43821
53.3267 6.39461
53.3765 6.34817
53.4266 6.33997
53.4766 6.31415
53.5265 6.26637
53.5765 6.23566
53.6264 6.23352
53.6765 6.20063
53.7264 6.19098
53.7765 6.18819
53.8265 6.11636
53.8766 6.09951
53.9266 6.02834
53.9767 6.04889
54.0267 5.9997
54.0769 6.00685
54.1269 5.94849
54.1771 5.92677
54.2271 5.88683
54.2773 5.8285
54.3274 5.8628
54.3776 5.74288
54.4277 5.77519
54.478 5.76771
54.528 5.70703
54.5783 5.65437
54.6285 5.61936
54.6788 5.56498
54.7289 5.55018
54.7792 5.56233
54.8296 5.46019
54.8798 5.43675
54.9301 5.40227
54.9803 5.37064
55.0307 5.32977
55.0809 5.28443
55.1314 5.24805
55.1816 5.15875
55.232 5.13129
55.2823 5.07
55.3328 5.05577
55.383 4.98162
55.4335 4.9709
55.4838 4.8555
55.5344 4.87439
55.5847 4.83943
55.6352 4.79544
55.6856 4.75302
55.7361 4.71404