File: XRD/Ni3Fe_FD0256.xy
TT I
1.27165 7.68551
1.31627 7.19857
1.36089 7.08591
1.40551 6.17531
1.45013 6.96111
1.49476 6.3152
1.53938 6.13854
1.584 5.83253
1.62863 5.94771
1.67325 5.45362
1.71787 5.65729
1.7625 5.13936
1.80712 5.38887
1.85174 5.0473
1.89636 5.67101
1.94099 5.06241
1.98562 5.12135
2.03025 4.69903
2.07487 4.5483
2.11949 5.71498
2.16411 5.00423
2.20874 7.33372
2.25338 8.68694
2.298 4.73112
2.34263 4.60825
2.38725 5.0689
2.43188 5.4999
2.4765 4.91533
2.52115 5.27676
2.56577 5.67556
2.6104 6.29749
2.65503 6.03342
2.69965 6.42516
2.7443 6.79723
2.78893 7.00489
2.83356 7.07934
2.87818 8.08286
2.92281 8.90157
2.96744 9.56831
3.01209 10.2514
3.05672 11.36
3.10135 12.3408
3.14599 12.8506
3.19062 14.2388
3.23527 15.0266
3.2799 16.1564
3.32454 16.8472
3.36917 17.8716
3.4138 18.8243
3.45844 19.6935
3.50309 20.922
3.54773 21.9618
3.59237 22.8972
3.637 39.4972
3.68164 32.7949
3.7263 25.781
3.77094 26.3589
3.81558 26.9344
3.86022 27.521
3.90486 29.3606
3.9495 30.7435
3.99416 31.2488
4.0388 32.8664
4.08344 34.5153
4.12809 35.0823
4.17273 36.992
4.21738 41.1019
4.26204 87.9967
4.30669 82.6218
4.35133 45.6733
4.39598 45.6288
4.44063 49.0864
4.4853 52.7611
4.52995 53.6797
4.5746 54.3626
4.61925 56.044
4.6639 57.7076
4.70855 60.675
4.75322 64.0419
4.79788 67.3987
4.84253 70.9593
4.88719 76.0751
4.93184 80.2604
4.97652 86.8972
5.02118 95.4842
5.06583 105.27
5.11049 120.431
5.15515 166.958
5.19981 603.048
5.24449 3935.64
5.28916 10445.0
5.33382 4283.21
5.37848 280.774
5.42315 152.162
5.46783 129.114
5.5125 117.254
5.55716 111.076
5.60183 105.894
5.6465 103.332
5.69117 101.639
5.73586 99.4352
5.78053 100.79
5.8252 100.395
5.86988 102.686
5.91455 105.893
5.95924 122.023
6.00392 314.613
6.0486 1389.98
6.09328 3653.24
6.13795 3802.55
6.18263 387.165
6.22733 109.3
6.27201 88.8884
6.3167 86.4662
6.36138 78.2895
6.40606 72.792
6.45075 70.9634
6.49545 67.9584
6.54014 66.2376
6.58483 65.2066
6.62952 64.5239
6.67421 69.8466
6.71892 81.2855
6.76361 63.3742
6.8083 60.4774
6.853 59.4839
6.89769 58.5196
6.94239 58.0985
6.98711 57.3211
7.03181 57.3051
7.07651 56.4249
7.12121 57.2329
7.16591 57.6972
7.21063 56.2873
7.25533 60.1334
7.30004 84.3881
7.34475 65.9662
7.38945 56.8257
7.43416 55.6487
7.47889 55.741
7.5236 56.1731
7.56831 57.0183
7.61303 57.2544
7.65774 57.7736
7.70247 58.0358
7.74719 57.9169
7.79191 58.6345
7.83663 58.8367
7.88135 59.9111
7.92607 61.1678
7.97081 62.375
8.01553 63.0697
8.06026 65.1364
8.10498 66.4328
8.14971 70.3972
8.19446 71.2361
8.23919 72.5066
8.28392 75.6199
8.32865 78.1468
8.37339 83.2405
8.41812 89.3331
8.46288 106.435
8.50761 209.089
8.55235 562.54
8.59709 1104.63
8.64183 1922.69
8.68658 1290.84
8.73134 244.901
8.77609 110.672
8.82083 99.7797
8.86558 95.6741
8.91033 93.8793
8.9551 91.7292
8.99985 89.4408
9.04461 87.7728
9.08936 87.4238
9.13412 86.4241
9.17888 86.118
9.22365 85.9339
9.26841 86.172
9.31318 87.6487
9.35794 87.6645
9.4027 88.1037
9.44749 88.3225
9.49226 88.8027
9.53703 89.6153
9.5818 92.2375
9.62657 94.9145
9.67134 96.9224
9.71614 96.5728
9.76091 99.2264
9.80569 102.399
9.85047 105.711
9.89525 114.727
9.94005 128.198
9.98484 222.768
10.0296 501.623
10.0744 842.249
10.1192 1426.73
10.164 1752.29
10.2088 628.469
10.2536 155.906
10.2984 118.53
10.3432 114.551
10.388 111.33
10.4328 135.444
10.4776 205.766
10.5224 292.775
10.5672 438.423
10.612 522.735
10.6568 263.391
10.7017 110.296
10.7465 92.134
10.7913 87.7396
10.8361 85.0494
10.8809 82.547
10.9257 80.9946
10.9706 80.3503
11.0154 77.7265
11.0602 76.1297
11.105 74.8169
11.1499 74.2908
11.1947 75.2107
11.2395 72.8627
11.2844 70.9041
11.3292 69.8816
11.374 68.601
11.4189 68.2974
11.4637 67.276
11.5086 67.2876
11.5534 67.2536
11.5983 66.5543
11.6431 65.9771
11.688 65.459
11.7328 65.4656
11.7777 65.4082
11.8225 64.8677
11.8674 64.9105
11.9122 65.5475
11.9571 65.8853
12.002 66.7719
12.0468 73.3166
12.0917 91.3997
12.1366 112.392
12.1814 142.56
12.2263 189.632
12.2712 190.041
12.3161 111.157
12.3609 72.458
12.4058 67.1908
12.4507 66.8711
12.4956 67.1218
12.5405 67.1213
12.5853 67.8883
12.6302 69.5481
12.6751 71.9048
12.72 70.1407
12.7649 70.4826
12.8098 71.4687
12.8547 72.6053
12.8996 73.9997
12.9445 75.7286
12.9894 77.7128
13.0343 79.6338
13.0792 83.5126
13.1242 96.3982
13.1691 134.67
13.214 180.082
13.2589 237.177
13.3038 318.422
13.3487 408.421
13.3937 319.76
13.4386 156.683
13.4835 120.021
13.5285 148.267
13.5734 181.411
13.6183 231.973
13.6633 306.467
13.7082 357.546
13.7531 241.807
13.7981 116.961
13.843 87.0818
13.888 83.9498
13.9329 80.8874
13.9779 79.6582
14.0228 77.9106
14.0678 76.3062
14.1127 75.8588
14.1577 75.1864
14.2027 74.3931
14.2476 73.7015
14.2926 73.3871
14.3376 72.9423
14.3825 72.7025
14.4275 71.9152
14.4725 71.8064
14.5175 72.1886
14.5624 72.1457
14.6074 72.7363
14.6524 73.3751
14.6974 73.6666
14.7424 76.5931
14.7874 87.014
14.8324 105.241
14.8774 122.881
14.9224 148.165
14.9674 184.375
15.0124 216.486
15.0574 176.279
15.1024 106.977
15.1474 77.5646
15.1924 73.8645
15.2374 72.6451
15.2824 71.6946
15.3274 70.5135
15.3725 69.994
15.4175 69.55
15.4625 68.8344
15.5076 68.7967
15.5526 69.0232
15.5976 69.132
15.6426 70.5802
15.6877 79.5369
15.7327 93.0306
15.7778 106.697
15.8228 125.224
15.8679 151.7
15.9129 183.203
15.958 175.336
16.003 118.472
16.0481 75.389
16.0931 66.4758
16.1382 64.1265
16.1833 62.8699
16.2283 61.4587
16.2734 60.8001
16.3185 60.2453
16.3636 59.9044
16.4086 58.9922
16.4537 58.4493
16.4988 57.6659
16.5439 57.6589
16.589 57.5005
16.6341 57.3434
16.6792 56.7554
16.7243 57.182
16.7694 57.0123
16.8145 57.0071
16.8596 57.1759
16.9047 57.5398
16.9498 57.9058
16.9949 57.6386
17.04 58.2703
17.0851 60.0614
17.1302 63.0103
17.1754 65.9946
17.2205 69.2453
17.2656 74.1556
17.3108 81.1723
17.3559 84.9018
17.401 77.8958
17.4462 67.5102
17.4913 62.1986
17.5365 61.8451
17.5815 61.888
17.6268 62.4217
17.6718 62.9557
17.7171 63.5237
17.7622 64.1054
17.8074 65.038
17.8525 68.3272
17.8977 74.7721
17.9428 82.7612
17.9881 89.7182
18.0331 100.01
18.0784 113.879
18.1237 133.583
18.1688 142.767
18.214 121.559
18.2591 96.8935
18.3044 91.5018
18.3495 96.5698
18.3948 104.503
18.4399 101.845
18.4852 85.6313
18.5303 71.3165
18.5756 65.69
18.6207 64.2551
18.666 63.0747
18.7112 62.2935
18.7565 61.5982
18.8016 61.3198
18.8469 60.6749
18.892 60.581
18.9374 59.8412
18.9825 59.5221
19.0278 59.3736
19.073 59.5753
19.1183 60.2648
19.1635 61.5042
19.2088 63.35
19.254 65.0845
19.2993 67.4323
19.3447 71.1669
19.3898 75.3957
19.4352 76.0684
19.4804 69.3165
19.5257 61.0847
19.5709 56.9785
19.6163 56.6357
19.6615 56.2023
19.7068 55.8642
19.752 55.716
19.7974 56.1884
19.8426 57.3441
19.888 58.3671
19.9332 59.6426
19.9786 61.3613
20.0238 63.5439
20.0692 67.4672
20.1144 71.5771
20.1598 73.0675
20.205 68.4717
20.2504 65.0516
20.2957 64.4275
20.3411 66.2597
20.3863 67.038
20.4318 62.9953
20.477 57.2402
20.5224 53.8662
20.5677 53.0071
20.6131 52.3588
20.6586 51.7966
20.7038 51.8887
20.7493 51.3644
20.7945 51.0736
20.84 51.073
20.8853 50.8202
20.9307 50.7266
20.976 51.2215
21.0215 50.8017
21.0668 51.4556
21.1122 51.6056
21.1575 51.9892
21.203 52.4808
21.2483 53.0342
21.2938 53.5366
21.3391 52.6768
21.3846 51.6303
21.4299 50.8597
21.4754 50.5383
21.5207 50.9211
21.5662 51.1024
21.6116 51.836
21.6571 52.9825
21.7024 54.3559
21.7479 55.6305
21.7933 57.3841
21.8388 59.8924
21.8843 63.047
21.9297 66.0376
21.9752 67.0755
22.0206 63.7799
22.0661 59.2776
22.1115 57.7581
22.157 57.8869
22.2024 57.3649
22.248 54.739
22.2933 52.679
22.3389 51.4958
22.3843 51.1481
22.4299 50.8932
22.4753 50.9557
22.5208 50.8013
22.5662 50.5807
22.6118 50.8367
22.6572 51.2634
22.7028 52.1272
22.7483 52.6246
22.7939 53.1849
22.8393 54.2333
22.8849 55.5383
22.9303 56.9409
22.9759 58.699
23.0214 59.721
23.067 58.0957
23.1126 54.7173
23.1581 52.1811
23.2037 51.1027
23.2492 51.2542
23.2948 51.5103
23.3403 52.071
23.3859 52.6758
23.4314 53.5228
23.477 54.3635
23.5225 55.4457
23.5682 57.1891
23.6137 59.0317
23.6593 58.7528
23.7048 55.4567
23.7505 51.6014
23.796 49.0589
23.8417 48.0952
23.8872 47.6449
23.9329 47.4533
23.9784 47.027
24.0241 46.6477
24.0697 46.445
24.1154 46.1765
24.1609 45.9423
24.2066 45.5849
24.2522 45.6464
24.2979 45.2587
24.3434 45.3122
24.3892 44.9622
24.4349 44.9418
24.4805 44.7496
24.5262 44.9998
24.5718 44.6429
24.6175 44.7912
24.6631 44.7798
24.7089 44.4348
24.7545 44.3798
24.8002 44.0638
24.8458 44.1354
24.8916 43.9961
24.9372 44.2215
24.983 44.5178
25.0286 44.8348
25.0744 45.3027
25.12 45.5491
25.1658 46.1735
25.2114 46.4169
25.2572 46.5084
25.3029 46.4593
25.3487 46.5461
25.3943 46.5055
25.4402 45.8054
25.4858 44.787
25.5316 43.7142
25.5773 42.8591
25.6231 42.6347
25.669 42.4086
25.7147 42.37
25.7605 42.3754
25.8062 42.4124
25.8521 42.5687
25.8977 42.4767
25.9436 42.6787
25.9893 42.5934
26.0352 42.9422
26.0809 43.0691
26.1268 43.4559
26.1725 43.4053
26.2184 42.9927
26.2641 42.3103
26.31 42.042
26.3557 42.1591
26.4017 42.0923
26.4474 42.2763
26.4933 42.5174
26.5391 42.8029
26.585 43.1916
26.6308 43.5743
26.6767 43.8205
26.7225 43.9348
26.7684 43.5072
26.8142 42.85
26.8601 42.3642
26.9059 41.9246
26.9519 41.4467
26.9979 40.998
27.0437 40.6497
27.0896 40.5781
27.1354 40.501
27.1814 40.3336
27.2272 40.2345
27.2732 40.309
27.3191 40.0093
27.3651 40.2126
27.4109 40.1058
27.4569 40.0685
27.5027 40.0787
27.5488 40.1285
27.5946 40.2514
27.6407 40.1003
27.6865 39.9109
27.7326 39.6425
27.7784 39.6791
27.8245 39.5341
27.8703 39.7725
27.9164 39.9669
27.9623 39.8851
28.0084 40.1005
28.0543 40.5714
28.1003 40.5763
28.1462 40.574
28.1923 40.3348
28.2384 39.5484
28.2843 39.2988
28.3304 38.9821
28.3764 38.4712
28.4225 38.1877
28.4684 37.8727
28.5145 37.4928
28.5605 37.3466
28.6066 37.2184
28.6526 37.1543
28.6987 37.2206
28.7447 37.1296
28.7908 36.8819
28.8368 36.8715
28.8829 36.8222
28.9289 36.8897
28.9751 36.6791
29.0211 36.4369
29.0673 36.1954
29.1133 36.2027
29.1595 36.0739
29.2055 35.8271
29.2517 35.8894
29.2977 35.8226
29.3439 35.6009
29.3899 35.6385
29.4361 35.6714
29.4824 35.4754
29.5284 35.2588
29.5746 34.9045
29.6207 34.5999
29.6669 34.6147
29.713 34.3828
29.7593 34.2776
29.8053 34.2798
29.8516 34.3053
29.8977 34.2261
29.9439 34.0505
29.99 34.0222
30.0363 33.8671
30.0824 33.8749
30.1287 33.8551
30.1748 33.7685
30.2211 33.733
30.2673 33.6199
30.3136 33.8069
30.3597 33.6437
30.406 33.7335
30.4522 33.5362
30.4985 33.4461
30.5447 33.5756
30.591 33.4107
30.6372 33.4517
30.6835 33.509
30.7297 33.6424
30.7761 33.5511
30.8224 33.4653
30.8686 33.2007
30.915 33.0795
30.9612 32.9198
31.0076 32.7836
31.0538 32.5709
31.1002 32.5863
31.1464 32.3402
31.1928 32.2203
31.2391 32.2904
31.2855 32.3099
31.3317 32.2703
31.3781 32.218
31.4244 32.2422
31.4708 32.0999
31.5171 32.119
31.5636 32.2386
31.6098 31.9451
31.6563 31.7585
31.7026 31.6083
31.7491 31.4223
31.7953 31.5107
31.8418 31.4629
31.8881 31.4658
31.9346 31.4053
31.9809 31.3848
32.0275 31.1565
32.074 31.2049
32.1203 30.8803
32.1668 30.9144
32.2132 30.7007
32.2597 30.5746
32.306 30.4214
32.3526 30.2471
32.399 30.2894
32.4455 30.0597
32.4919 29.9135
32.5385 29.9512
32.5848 29.7292
32.6314 29.7617
32.6778 29.6921
32.7244 29.512
32.7708 29.4419
32.8174 29.3879
32.8638 29.199
32.9104 29.3039
32.9569 29.298
33.0035 29.1021
33.0499 29.1238
33.0966 29.0212
33.143 29.0604
33.1897 28.9059
33.2361 28.75
33.2828 28.7555
33.3293 28.6441
33.3759 28.6041
33.4226 28.4112
33.4691 28.3891
33.5158 28.2463
33.5623 28.1722
33.609 27.9265
33.6555 27.8179
33.7022 27.7576
33.7487 27.7324
33.7954 27.7294
33.842 27.5774
33.8887 27.4433
33.9353 27.3886
33.982 27.3083
34.0286 27.1855
34.0753 27.1589
34.1219 27.0319
34.1687 26.9268
34.2152 26.9589
34.262 26.7694
34.3086 26.729
34.3554 26.6332
34.402 26.5763
34.4488 26.3582
34.4954 26.2827
34.5422 26.3123
34.5889 26.1591
34.6357 26.0696
34.6825 25.9995
34.7292 25.9273
34.776 25.7705
34.8227 25.7483
34.8695 25.6746
34.9162 25.6116
34.9631 25.576
35.0098 25.5765
35.0566 25.4115
35.1033 25.3969
35.1502 25.314
35.1969 25.2389
35.2438 25.1995
35.2906 25.0742
35.3375 25.0933
35.3842 24.9595
35.4311 25.01
35.4779 24.9634
35.5248 24.8944
35.5716 24.8231
35.6185 24.7028
35.6653 24.6255
35.7123 24.6
35.759 24.4849
35.806 24.3796
35.8528 24.2571
35.8998 24.2328
35.9468 24.1325
35.9936 24.0234
36.0406 24.0142
36.0874 24.0271
36.1345 23.8705
36.1813 23.8193
36.2283 23.6561
36.2752 23.5387
36.3222 23.613
36.3691 23.5945
36.4161 23.4093
36.463 23.4303
36.5101 23.333
36.557 23.308
36.6041 23.1435
36.651 23.1805
36.6981 23.0306
36.745 23.0211
36.7921 22.8968
36.839 22.9043
36.8861 22.776
36.9331 22.6975
36.9802 22.569
37.0272 22.4813
37.0743 22.4858
37.1213 22.3663
37.1684 22.3158
37.2154 22.337
37.2626 22.13
37.3098 22.0869
37.3568 22.0706
37.404 22.059
37.451 21.8563
37.4982 21.8534
37.5452 21.7834
37.5924 21.8058
37.6395 21.7264
37.6867 21.6149
37.7337 21.4756
37.781 21.4029
37.8281 21.3287
37.8753 21.2607
37.9224 21.309
37.9697 21.1371
38.0168 21.0724
38.064 20.9674
38.1111 21.0073
38.1584 20.8842
38.2056 20.8365
38.2529 20.7845
38.3 20.7172
38.3473 20.6456
38.3945 20.551
38.4418 20.5236
38.489 20.4827
38.5363 20.4154
38.5837 20.3153
38.6309 20.2446
38.6782 20.1383
38.7254 20.0805
38.7728 20.0585
38.82 19.9841
38.8674 19.9595
38.9146 19.8619
38.9621 19.8058
39.0093 19.7192
39.0567 19.6601
39.104 19.5858
39.1514 19.5576
39.1987 19.5085
39.2461 19.4547
39.2934 19.3239
39.3409 19.2762
39.3882 19.2157
39.4356 19.1816
39.483 19.113
39.5304 19.05
39.5778 18.9696
39.6253 18.9495
39.6726 18.8518
39.7201 18.8204
39.7675 18.7813
39.815 18.7205
39.8624 18.6409
39.9099 18.6681
39.9575 18.5184
40.0049 18.476
40.0525 18.4499
40.0999 18.3466
40.1474 18.2301
40.1949 18.1901
40.2425 18.1274
40.2899 18.0578
40.3375 18.0865
40.385 17.987
40.4326 17.9797
40.48 17.8587
40.5277 17.8371
40.5752 17.7474
40.6228 17.7113
40.6703 17.6796
40.718 17.593
40.7655 17.5236
40.8132 17.4409
40.8607 17.481
40.9084 17.3967
40.9559 17.2687
41.0036 17.261
41.0512 17.2085
41.0989 17.1489
41.1465 17.0971
41.1942 17.0311
41.242 16.9457
41.2896 16.9321
41.3373 16.8264
41.3849 16.8644
41.4327 16.7622
41.4803 16.6804
41.5281 16.5702
41.5758 16.5683
41.6236 16.4572
41.6712 16.4237
41.7191 16.3887
41.7667 16.3253
41.8146 16.3034
41.8622 16.3088
41.9101 16.2256
41.9578 16.0914
42.0057 16.0841
42.0534 16.0308
42.1013 16.0125
42.149 15.9202
42.1969 15.8636
42.2446 15.8159
42.2925 15.7866
42.3403 15.725
42.3882 15.689
42.436 15.6443
42.4839 15.4884
42.5319 15.5307
42.5797 15.449
42.6277 15.4137
42.6755 15.3822
42.7235 15.2898
42.7713 15.2584
42.8193 15.1534
42.8671 15.1229
42.9152 15.0934
42.963 15.0478
43.0111 14.9784
43.0589 14.9299
43.107 14.889
43.1549 14.8583
43.2029 14.7762
43.2508 14.709
43.2989 14.6556
43.3468 14.6539
43.3949 14.5529
43.4429 14.5231
43.491 14.4561
43.5389 14.3825
43.5871 14.355
43.635 14.2833
43.6832 14.3048
43.7312 14.2508
43.7793 14.1559
43.8273 14.1407
43.8755 14.0961
43.9237 14.0676
43.9717 14.0046
44.0199 13.912
44.068 13.8868
44.1162 13.8341
44.1642 13.7766
44.2125 13.73
44.2606 13.6929
44.3088 13.5909
44.3569 13.569
44.4052 13.5361
44.4533 13.4838
44.5016 13.4754
44.5497 13.3924
44.598 13.3249
44.6461 13.2604
44.6945 13.2473
44.7426 13.2396
44.791 13.1674
44.8391 13.1198
44.8875 13.0779
44.9357 13.0454
44.984 12.9649
45.0322 12.9307
45.0806 12.9002
45.1288 12.8213
45.1773 12.8124
45.2257 12.7601
45.2739 12.7287
45.3224 12.6939
45.3706 12.622
45.4191 12.5336
45.4673 12.5452
45.5158 12.5075
45.5641 12.4273
45.6126 12.365
45.6609 12.368
45.7094 12.3098
45.7577 12.2696
45.8063 12.2292
45.8546 12.2006
45.9031 12.1047
45.9515 12.0802
46.0001 12.0504
46.0484 11.9886
46.097 11.9516
46.1454 11.9096
46.194 11.8962
46.2424 11.8342
46.291 11.761
46.3395 11.7914
46.3881 11.6483
46.4365 11.7071
46.4852 11.6145
46.5337 11.5711
46.5823 11.5463
46.631 11.4643
46.6795 11.4442
46.7282 11.399
46.7767 11.3599
46.8254 11.2942
46.8739 11.2363
46.9226 11.2552
46.9712 11.16
47.0199 11.1652
47.0685 11.1331
47.1173 11.0623
47.1658 10.9947
47.2146 10.9929
47.2632 10.925
47.312 10.8724
47.3606 10.8191
47.4095 10.8282
47.4581 10.7402
47.5069 10.7298
47.5556 10.7
47.6044 10.646
47.6531 10.555
47.702 10.5587
47.7507 10.5548
47.7996 10.4865
47.8483 10.4582
47.8972 10.4203
47.9461 10.4069
47.9948 10.3551
48.0438 10.293
48.0925 10.2742
48.1415 10.2399
48.1902 10.2131
48.2392 10.1966
48.288 10.1508
48.337 10.0853
48.3858 10.0296
48.4348 10.0336
48.4837 10.0059
48.5327 9.98136
48.5815 9.87725
48.6306 9.87718
48.6795 9.85329
48.7285 9.76511
48.7774 9.73345
48.8265 9.73535
48.8754 9.67085
48.9245 9.69337
48.9734 9.64057
49.0226 9.62901
49.0715 9.5472
49.1206 9.51944
49.1696 9.47554
49.2188 9.42959
49.2679 9.38796
49.3169 9.36814
49.3661 9.30332
49.4151 9.2962
49.4643 9.27726
49.5134 9.24839
49.5626 9.16797
49.6117 9.1277
49.6609 9.13084
49.71 9.06119
49.7592 9.06016
49.8083 9.01288
49.8576 8.99903
49.9067 8.94415
49.956 8.92706
50.0052 8.84784
50.0545 8.84111
50.1036 8.78651
50.153 8.77244
50.2022 8.73971
50.2515 8.69427
50.3007 8.65385
50.3501 8.67037
50.3993 8.63573
50.4487 8.57996
50.498 8.5487
50.5474 8.54304
50.5966 8.47189
50.6461 8.45067
50.6955 8.38347
50.7448 8.39183
50.7943 8.34564
50.8436 8.3324
50.8931 8.31331
50.9424 8.20959
50.9919 8.22982
51.0413 8.17997
51.0908 8.16716
51.1402 8.13956
51.1897 8.07869
51.2391 8.05338
51.2887 7.99552
51.3381 8.00759
51.3877 7.96506
51.4371 7.92747
51.4867 7.85141
51.5362 7.85959
51.5858 7.82013
51.6353 7.75577
51.6849 7.749
51.7344 7.72051
51.7841 7.66422
51.8336 7.67837
51.8833 7.59636
51.9328 7.59772
51.9826 7.56173
52.0323 7.52508
52.0818 7.51559
52.1316 7.43865
52.1812 7.42302
52.231 7.43647
52.2806 7.33458
52.3304 7.38482
52.38 7.29963
52.4298 7.3184
52.4794 7.25798
52.5293 7.24806
52.5789 7.16721
52.6288 7.1891
52.6785 7.16074
52.7284 7.13438
52.7781 7.04061
52.828 7.04981
52.8777 7.01493
52.9276 6.99648
52.9774 6.99095
53.0273 6.93153
53.0771 6.89747
53.1271 6.88243
53.1769 6.86598
53.2269 6.82584
53.2767 6.80148
53.3267 6.7678
53.3765 6.73191
53.4266 6.68472
53.4766 6.70666
53.5265 6.63878
53.5765 6.62156
53.6264 6.53878
53.6765 6.53548
53.7264 6.52326
53.7765 6.52162
53.8265 6.47973
53.8766 6.48478
53.9266 6.40954
53.9767 6.36427
54.0267 6.33254
54.0769 6.33755
54.1269 6.26989
54.1771 6.28574
54.2271 6.24431
54.2773 6.18366
54.3274 6.16094
54.3776 6.12414
54.4277 6.10417
54.478 6.03934
54.528 5.99151
54.5783 5.97143
54.6285 5.89213
54.6788 5.8851
54.7289 5.88914
54.7792 5.83783
54.8296 5.74281
54.8798 5.70767
54.9301 5.69489
54.9803 5.63142
55.0307 5.65534
55.0809 5.59304
55.1314 5.54328
55.1816 5.4536
55.232 5.43063
55.2823 5.3576
55.3328 5.29855
55.383 5.26888
55.4335 5.26642
55.4838 5.15295
55.5344 5.09769
55.5847 5.08111
55.6352 5.04667
55.6856 5.01056
55.7361 5.03