File: XRD/Ni3Fe_FD0357.xy
TT I
1.27165 7.56501
1.31627 6.92902
1.36089 7.2742
1.40551 6.80172
1.45013 6.12506
1.49476 5.31607
1.53938 5.68242
1.584 5.60294
1.62863 5.38912
1.67325 5.85855
1.71787 4.93722
1.7625 4.84621
1.80712 4.74382
1.85174 4.75694
1.89636 4.85441
1.94099 4.97767
1.98562 5.45425
2.03025 4.70905
2.07487 4.97112
2.11949 5.10456
2.16411 4.45837
2.20874 9.01436
2.25338 12.5474
2.298 4.88121
2.34263 4.55891
2.38725 5.42146
2.43188 5.4539
2.4765 5.27925
2.52115 5.75817
2.56577 6.01964
2.6104 6.96013
2.65503 7.03012
2.69965 7.38145
2.7443 7.44065
2.78893 7.74284
2.83356 7.84557
2.87818 8.5027
2.92281 8.82808
2.96744 9.22538
3.01209 10.2811
3.05672 10.7346
3.10135 12.5265
3.14599 12.6536
3.19062 14.1033
3.23527 14.9472
3.2799 15.5483
3.32454 16.6684
3.36917 17.6905
3.4138 18.6492
3.45844 19.3752
3.50309 21.1661
3.54773 21.6933
3.59237 23.2523
3.637 55.0345
3.68164 39.6009
3.7263 25.6078
3.77094 25.9522
3.81558 26.4737
3.86022 27.6139
3.90486 28.9098
3.9495 29.846
3.99416 30.9941
4.0388 32.7013
4.08344 33.911
4.12809 35.4612
4.17273 36.6444
4.21738 40.8587
4.26204 135.027
4.30669 120.192
4.35133 45.7802
4.39598 44.6928
4.44063 49.8638
4.4853 56.0502
4.52995 53.183
4.5746 53.8078
4.61925 55.0478
4.6639 57.1643
4.70855 60.0374
4.75322 63.5271
4.79788 66.7121
4.84253 69.7625
4.88719 75.204
4.93184 78.5316
4.97652 84.5289
5.02118 92.3814
5.06583 100.934
5.11049 115.813
5.15515 170.652
5.19981 614.066
5.24449 3705.8
5.28916 11336.2
5.33382 3354.26
5.37848 220.598
5.42315 139.287
5.46783 121.36
5.5125 112.105
5.55716 106.718
5.60183 102.568
5.6465 99.8652
5.69117 98.7877
5.73586 96.7181
5.78053 97.6884
5.8252 97.8462
5.86988 98.9298
5.91455 101.803
5.95924 116.756
6.00392 329.085
6.0486 1283.04
6.09328 3972.3
6.13795 3332.18
6.18263 283.907
6.22733 99.448
6.27201 85.3237
6.3167 89.9045
6.36138 77.8766
6.40606 71.1369
6.45075 69.5024
6.49545 67.0771
6.54014 65.3765
6.58483 64.5182
6.62952 64.0354
6.67421 77.208
6.71892 98.6195
6.76361 64.3088
6.8083 59.5674
6.853 58.9408
6.89769 57.5381
6.94239 57.3814
6.98711 56.6156
7.03181 56.4761
7.07651 56.3306
7.12121 55.9429
7.16591 56.3993
7.21063 55.7631
7.25533 62.8408
7.30004 112.647
7.34475 72.2129
7.38945 56.6368
7.43416 55.5106
7.47889 55.1392
7.5236 55.7648
7.56831 56.4279
7.61303 57.1352
7.65774 57.6298
7.70247 57.4026
7.74719 57.2242
7.79191 57.994
7.83663 58.2944
7.88135 59.0865
7.92607 60.1436
7.97081 61.369
8.01553 62.5616
8.06026 63.7162
8.10498 65.3797
8.14971 71.7937
8.19446 71.593
8.23919 71.582
8.28392 74.3267
8.32865 76.8331
8.37339 81.7788
8.41812 88.2068
8.46288 112.346
8.50761 228.014
8.55235 506.548
8.59709 1195.58
8.64183 2085.04
8.68658 1031.83
8.73134 178.355
8.77609 104.076
8.82083 96.0924
8.86558 93.5676
8.91033 92.084
8.9551 91.1563
8.99985 87.6207
9.04461 86.2566
9.08936 85.6597
9.13412 84.7228
9.17888 84.5794
9.22365 84.5193
9.26841 84.2749
9.31318 86.2518
9.35794 86.1229
9.4027 86.5772
9.44749 87.1365
9.49226 87.1283
9.53703 88.3726
9.5818 90.628
9.62657 93.35
9.67134 97.2868
9.71614 95.945
9.76091 97.4104
9.80569 100.536
9.85047 104.183
9.89525 117.868
9.94005 137.671
9.98484 239.088
10.0296 444.221
10.0744 875.385
10.1192 1595.57
10.164 1622.78
10.2088 454.518
10.2536 134.608
10.2984 114.758
10.3432 113.523
10.388 110.106
10.4328 137.498
10.4776 189.252
10.5224 301.105
10.5672 489.492
10.612 514.105
10.6568 215.271
10.7017 99.7265
10.7465 89.3957
10.7913 85.8642
10.8361 83.3045
10.8809 81.2725
10.9257 79.9016
10.9706 79.554
11.0154 76.7266
11.0602 74.8111
11.105 73.4436
11.1499 74.5168
11.1947 77.6413
11.2395 72.9433
11.2844 70.697
11.3292 68.7489
11.374 67.9298
11.4189 67.1015
11.4637 66.5854
11.5086 66.659
11.5534 67.5273
11.5983 66.4344
11.6431 65.2048
11.688 64.6105
11.7328 64.3712
11.7777 64.3005
11.8225 64.1956
11.8674 64.1959
11.9122 64.4126
11.9571 64.7767
12.002 66.5359
12.0468 73.8016
12.0917 87.0494
12.1366 110.105
12.1814 151.506
12.2263 201.55
12.2712 170.959
12.3161 95.8776
12.3609 70.0469
12.4058 66.4031
12.4507 65.8751
12.4956 66.4147
12.5405 66.0571
12.5853 67.1298
12.6302 70.633
12.6751 73.8554
12.72 70.313
12.7649 69.7548
12.8098 70.4233
12.8547 71.9123
12.8996 73.3721
12.9445 74.8998
12.9894 77.0883
13.0343 78.4273
13.0792 83.4034
13.1242 100.378
13.1691 128.87
13.214 168.967
13.2589 247.213
13.3038 353.119
13.3487 420.625
13.3937 276.022
13.4386 132.737
13.4835 118.694
13.5285 137.214
13.5734 175.369
13.6183 245.067
13.6633 333.481
13.7082 345.026
13.7531 200.18
13.7981 101.83
13.843 84.3271
13.888 81.9724
13.9329 79.3369
13.9779 78.1944
14.0228 76.7124
14.0678 75.2826
14.1127 74.7845
14.1577 74.2037
14.2027 73.3612
14.2476 72.5966
14.2926 72.4354
14.3376 72.5204
14.3825 71.8388
14.4275 70.9149
14.4725 70.6894
14.5175 71.1008
14.5624 71.1141
14.6074 71.9247
14.6524 72.9324
14.6974 72.8945
14.7424 76.9717
14.7874 86.4378
14.8324 98.7768
14.8774 120.373
14.9224 155.298
14.9674 199.476
15.0124 216.535
15.0574 152.096
15.1024 93.5407
15.1474 74.447
15.1924 72.2583
15.2374 71.6952
15.2824 70.7829
15.3274 69.6543
15.3725 68.9154
15.4175 68.4517
15.4625 67.9173
15.5076 67.8808
15.5526 67.9131
15.5976 68.3595
15.6426 71.6361
15.6877 79.0797
15.7327 87.8713
15.7778 103.378
15.8228 129.685
15.8679 165.311
15.9129 192.499
15.958 161.47
16.003 101.176
16.0481 69.5603
16.0931 65.2207
16.1382 63.5593
16.1833 62.0305
16.2283 60.6426
16.2734 59.8777
16.3185 59.6403
16.3636 59.5247
16.4086 58.5987
16.4537 57.3718
16.4988 56.9026
16.5439 57.0176
16.589 56.5898
16.6341 56.4535
16.6792 56.0611
16.7243 56.4459
16.7694 56.1839
16.8145 56.1746
16.8596 56.455
16.9047 57.4045
16.9498 57.6209
16.9949 56.9719
17.04 57.9178
17.0851 59.7035
17.1302 61.4248
17.1754 64.6072
17.2205 69.1861
17.2656 75.0514
17.3108 82.6327
17.3559 83.8128
17.401 73.2174
17.4462 64.4108
17.4913 61.1013
17.5365 60.9304
17.5815 61.0154
17.6268 61.4305
17.6718 62.0927
17.7171 62.5909
17.7622 63.1774
17.8074 64.6758
17.8525 68.614
17.8977 73.0783
17.9428 78.8691
17.9881 88.2264
18.0331 102.449
18.0784 119.783
18.1237 139.808
18.1688 136.564
18.214 110.875
18.2591 90.8649
18.3044 91.9201
18.3495 99.436
18.3948 106.05
18.4399 98.0107
18.4852 79.1956
18.5303 67.5832
18.5756 63.917
18.6207 63.139
18.666 62.1684
18.7112 61.5848
18.7565 60.7745
18.8016 60.5462
18.8469 59.9768
18.892 59.4454
18.9374 58.9949
18.9825 58.5152
19.0278 58.595
19.073 59.1043
19.1183 59.6157
19.1635 60.4585
19.2088 61.8653
19.254 64.5173
19.2993 67.782
19.3447 72.7095
19.3898 76.8508
19.4352 74.1023
19.4804 65.354
19.5257 58.4129
19.5709 55.7431
19.6163 55.4607
19.6615 55.4413
19.7068 54.9869
19.752 54.9522
19.7974 55.5606
19.8426 56.5911
19.888 57.144
19.9332 58.5312
19.9786 61.1648
20.0238 64.1021
20.0692 68.1933
20.1144 71.5268
20.1598 70.8264
20.205 65.9186
20.2504 63.5526
20.2957 64.5879
20.3411 66.6828
20.3863 65.8104
20.4318 60.2485
20.477 55.0856
20.5224 52.6997
20.5677 52.1383
20.6131 51.5002
20.6586 51.2093
20.7038 51.0596
20.7493 50.5186
20.7945 50.5342
20.84 50.1947
20.8853 50.0989
20.9307 50.0834
20.976 50.2714
21.0215 50.2282
21.0668 50.6497
21.1122 51.0188
21.1575 51.4827
21.203 52.0758
21.2483 52.7263
21.2938 53.1442
21.3391 51.6707
21.3846 50.5472
21.4299 49.9104
21.4754 49.8225
21.5207 50.0554
21.5662 50.6226
21.6116 51.2231
21.6571 51.9794
21.7024 52.9967
21.7479 54.9393
21.7933 57.2385
21.8388 60.0647
21.8843 63.4445
21.9297 65.9755
21.9752 65.2986
22.0206 61.3375
22.0661 57.8253
22.1115 57.3248
22.157 57.4034
22.2024 55.9097
22.248 53.1134
22.2933 51.2707
22.3389 50.6063
22.3843 50.3193
22.4299 50.1947
22.4753 50.1521
22.5208 50.0173
22.5662 50.0989
22.6118 50.345
22.6572 50.571
22.7028 51.0851
22.7483 51.7113
22.7939 52.4375
22.8393 53.8595
22.8849 55.5081
22.9303 57.0383
22.9759 58.9485
23.0214 58.921
23.067 56.1608
23.1126 52.5703
23.1581 50.6894
23.2037 50.2288
23.2492 50.5265
23.2948 50.6
23.3403 50.9474
23.3859 51.8118
23.4314 52.6445
23.477 54.1208
23.5225 55.8185
23.5682 57.6847
23.6137 59.0613
23.6593 57.2704
23.7048 53.221
23.7505 49.8054
23.796 48.0327
23.8417 47.337
23.8872 46.7908
23.9329 46.4991
23.9784 46.203
24.0241 45.9798
24.0697 45.77
24.1154 45.2864
24.1609 45.166
24.2066 45.0717
24.2522 45.0388
24.2979 44.8178
24.3434 44.5205
24.3892 44.4458
24.4349 44.3204
24.4805 44.1762
24.5262 44.3049
24.5718 44.21
24.6175 44.1534
24.6631 44.0291
24.7089 43.6938
24.7545 43.6074
24.8002 43.4547
24.8458 43.4645
24.8916 43.5385
24.9372 43.666
24.983 43.9053
25.0286 44.2282
25.0744 44.6887
25.12 44.9536
25.1658 45.6715
25.2114 45.952
25.2572 45.9005
25.3029 45.7368
25.3487 45.9064
25.3943 46.0084
25.4402 44.7392
25.4858 43.6838
25.5316 42.6487
25.5773 42.0328
25.6231 42.1207
25.669 41.6836
25.7147 41.7499
25.7605 41.7669
25.8062 41.6742
25.8521 41.9081
25.8977 41.8621
25.9436 41.9441
25.9893 42.0356
26.0352 42.4729
26.0809 42.5975
26.1268 42.8591
26.1725 42.5816
26.2184 41.9921
26.2641 41.5277
26.31 41.4091
26.3557 41.4951
26.4017 41.4034
26.4474 41.8211
26.4933 42.0502
26.5391 42.3569
26.585 42.7693
26.6308 43.2124
26.6767 43.3746
26.7225 43.1999
26.7684 42.5859
26.8142 42.0844
26.8601 41.5336
26.9059 41.1997
26.9519 40.668
26.9979 40.4318
27.0437 40.0219
27.0896 39.9566
27.1354 39.8322
27.1814 39.7725
27.2272 39.5561
27.2732 39.5709
27.3191 39.4209
27.3651 39.6127
27.4109 39.5506
27.4569 39.5386
27.5027 39.6156
27.5488 39.7053
27.5946 39.5051
27.6407 39.2814
27.6865 39.2762
27.7326 39.0275
27.7784 39.0553
27.8245 38.8902
27.8703 39.155
27.9164 39.3672
27.9623 39.4271
28.0084 39.7587
28.0543 40.1252
28.1003 40.1158
28.1462 39.816
28.1923 39.4682
28.2384 39.0795
28.2843 38.7443
28.3304 38.2563
28.3764 37.7675
28.4225 37.4373
28.4684 37.2491
28.5145 36.922
28.5605 36.9217
28.6066 36.6219
28.6526 36.6384
28.6987 36.5814
28.7447 36.5584
28.7908 36.4173
28.8368 36.478
28.8829 36.3474
28.9289 36.2007
28.9751 36.079
29.0211 35.9455
29.0673 35.6172
29.1133 35.6235
29.1595 35.3251
29.2055 35.2815
29.2517 35.2737
29.2977 35.3194
29.3439 35.2567
29.3899 35.2084
29.4361 35.0263
29.4824 34.9123
29.5284 34.6831
29.5746 34.3399
29.6207 34.0174
29.6669 34.0229
29.713 33.882
29.7593 33.6984
29.8053 33.8103
29.8516 33.7485
29.8977 33.728
29.9439 33.5572
29.99 33.4404
30.0363 33.3638
30.0824 33.4904
30.1287 33.3184
30.1748 33.2055
30.2211 33.2971
30.2673 33.2167
30.3136 33.3186
30.3597 33.147
30.406 33.0696
30.4522 33.0126
30.4985 32.9916
30.5447 33.0591
30.591 33.0387
30.6372 33.1035
30.6835 33.009
30.7297 33.0917
30.7761 33.0024
30.8224 32.8531
30.8686 32.8006
30.915 32.533
30.9612 32.4271
31.0076 32.2827
31.0538 32.1729
31.1002 31.9193
31.1464 31.8252
31.1928 31.8105
31.2391 31.7065
31.2855 31.7193
31.3317 31.6158
31.3781 31.7325
31.4244 31.6829
31.4708 31.6637
31.5171 31.7293
31.5636 31.594
31.6098 31.3216
31.6563 31.2195
31.7026 31.1376
31.7491 30.9319
31.7953 31.0669
31.8418 30.9193
31.8881 30.9604
31.9346 30.8669
31.9809 30.8176
32.0275 30.6695
32.074 30.6718
32.1203 30.4394
32.1668 30.3175
32.2132 30.2059
32.2597 30.058
32.306 29.9902
32.3526 29.7841
32.399 29.7453
32.4455 29.5414
32.4919 29.5564
32.5385 29.5021
32.5848 29.2997
32.6314 29.2891
32.6778 29.2724
32.7244 29.0782
32.7708 28.9386
32.8174 28.9554
32.8638 28.8741
32.9104 28.8505
32.9569 28.7237
33.0035 28.5759
33.0499 28.6467
33.0966 28.6471
33.143 28.4811
33.1897 28.422
33.2361 28.3176
33.2828 28.3754
33.3293 28.1265
33.3759 28.1188
33.4226 27.9755
33.4691 27.8548
33.5158 27.7798
33.5623 27.6273
33.609 27.4356
33.6555 27.4482
33.7022 27.3148
33.7487 27.1732
33.7954 27.2187
33.842 27.041
33.8887 27.1338
33.9353 26.9868
33.982 26.8524
34.0286 26.77
34.0753 26.6581
34.1219 26.6543
34.1687 26.4902
34.2152 26.4727
34.262 26.4554
34.3086 26.1962
34.3554 26.2679
34.402 26.1606
34.4488 25.9607
34.4954 25.9007
34.5422 25.8761
34.5889 25.7991
34.6357 25.6253
34.6825 25.5826
34.7292 25.5316
34.776 25.4448
34.8227 25.4553
34.8695 25.3161
34.9162 25.3467
34.9631 25.1228
35.0098 25.2146
35.0566 24.949
35.1033 24.9159
35.1502 24.9442
35.1969 24.8772
35.2438 24.7697
35.2906 24.7628
35.3375 24.7203
35.3842 24.6575
35.4311 24.5037
35.4779 24.6095
35.5248 24.6276
35.5716 24.4028
35.6185 24.326
35.6653 24.2294
35.7123 24.073
35.759 24.0962
35.806 24.0066
35.8528 23.8505
35.8998 23.9112
35.9468 23.7714
35.9936 23.7631
36.0406 23.6693
36.0874 23.541
36.1345 23.4495
36.1813 23.421
36.2283 23.3742
36.2752 23.2929
36.3222 23.2979
36.3691 23.1283
36.4161 23.062
36.463 22.9563
36.5101 22.996
36.557 22.8784
36.6041 22.7489
36.651 22.8178
36.6981 22.7143
36.745 22.6358
36.7921 22.5801
36.839 22.5128
36.8861 22.4537
36.9331 22.3523
36.9802 22.2499
37.0272 22.22
37.0743 22.0191
37.1213 22.0234
37.1684 21.9884
37.2154 21.9135
37.2626 21.7908
37.3098 21.7861
37.3568 21.756
37.404 21.6972
37.451 21.5702
37.4982 21.4969
37.5452 21.4439
37.5924 21.3145
37.6395 21.4249
37.6867 21.2704
37.7337 21.1782
37.781 21.1005
37.8281 21.0338
37.8753 20.9719
37.9224 20.88
37.9697 20.8583
38.0168 20.8013
38.064 20.7253
38.1111 20.6332
38.1584 20.4976
38.2056 20.4475
38.2529 20.4494
38.3 20.3537
38.3473 20.3449
38.3945 20.1983
38.4418 20.205
38.489 20.0559
38.5363 20.013
38.5837 20.0188
38.6309 19.861
38.6782 19.8558
38.7254 19.7685
38.7728 19.782
38.82 19.6469
38.8674 19.5976
38.9146 19.5277
38.9621 19.4566
39.0093 19.4167
39.0567 19.3786
39.104 19.2807
39.1514 19.227
39.1987 19.1725
39.2461 19.1563
39.2934 19.0526
39.3409 18.9923
39.3882 18.9173
39.4356 18.8463
39.483 18.8051
39.5304 18.7451
39.5778 18.7069
39.6253 18.6389
39.6726 18.6353
39.7201 18.5431
39.7675 18.4898
39.815 18.4049
39.8624 18.3416
39.9099 18.3102
39.9575 18.2571
40.0049 18.1972
40.0525 18.0825
40.0999 18.0648
40.1474 17.9917
40.1949 17.8923
40.2425 17.8651
40.2899 17.8816
40.3375 17.7345
40.385 17.7266
40.4326 17.633
40.48 17.584
40.5277 17.6001
40.5752 17.5311
40.6228 17.386
40.6703 17.4037
40.718 17.309
40.7655 17.3023
40.8132 17.2753
40.8607 17.2185
40.9084 17.1563
40.9559 17.0561
41.0036 16.9935
41.0512 16.9686
41.0989 16.9132
41.1465 16.8585
41.1942 16.8038
41.242 16.679
41.2896 16.6788
41.3373 16.589
41.3849 16.4958
41.4327 16.5092
41.4803 16.3667
41.5281 16.3907
41.5758 16.293
41.6236 16.2772
41.6712 16.2269
41.7191 16.1276
41.7667 16.1116
41.8146 16.0485
41.8622 16.0596
41.9101 15.9731
41.9578 15.8692
42.0057 15.8985
42.0534 15.787
42.1013 15.736
42.149 15.6371
42.1969 15.5621
42.2446 15.5683
42.2925 15.5234
42.3403 15.4164
42.3882 15.4563
42.436 15.3497
42.4839 15.3058
42.5319 15.3008
42.5797 15.1844
42.6277 15.1668
42.6755 15.1088
42.7235 15.0322
42.7713 15.0398
42.8193 15.0291
42.8671 14.8866
42.9152 14.8552
42.963 14.7865
43.0111 14.7842
43.0589 14.7008
43.107 14.616
43.1549 14.604
43.2029 14.5521
43.2508 14.5591
43.2989 14.5244
43.3468 14.3609
43.3949 14.3282
43.4429 14.3035
43.491 14.2703
43.5389 14.1749
43.5871 14.1957
43.635 14.0417
43.6832 14.0488
43.7312 14.0218
43.7793 13.9978
43.8273 13.9298
43.8755 13.8187
43.9237 13.7884
43.9717 13.7868
44.0199 13.6964
44.068 13.6815
44.1162 13.6078
44.1642 13.6108
44.2125 13.5337
44.2606 13.5188
44.3088 13.4109
44.3569 13.4216
44.4052 13.3672
44.4533 13.2497
44.5016 13.2096
44.5497 13.2621
44.598 13.1888
44.6461 13.1024
44.6945 13.0434
44.7426 13.0385
44.791 12.9435
44.8391 12.9441
44.8875 12.8588
44.9357 12.8746
44.984 12.8013
45.0322 12.7571
45.0806 12.6736
45.1288 12.6219
45.1773 12.5736
45.2257 12.5754
45.2739 12.533
45.3224 12.4856
45.3706 12.4539
45.4191 12.344
45.4673 12.3439
45.5158 12.2744
45.5641 12.2546
45.6126 12.2147
45.6609 12.1755
45.7094 12.1435
45.7577 12.0929
45.8063 11.9966
45.8546 12.0201
45.9031 11.9137
45.9515 11.9347
46.0001 11.853
46.0484 11.8519
46.097 11.7722
46.1454 11.7861
46.194 11.7392
46.2424 11.6556
46.291 11.641
46.3395 11.5679
46.3881 11.5069
46.4365 11.4947
46.4852 11.4699
46.5337 11.4025
46.5823 11.3972
46.631 11.3283
46.6795 11.3084
46.7282 11.2613
46.7767 11.1892
46.8254 11.1483
46.8739 11.0845
46.9226 11.0609
46.9712 10.9951
47.0199 11.0036
47.0685 10.9681
47.1173 10.9109
47.1658 10.8575
47.2146 10.8238
47.2632 10.8223
47.312 10.7405
47.3606 10.691
47.4095 10.6724
47.4581 10.6175
47.5069 10.571
47.5556 10.5424
47.6044 10.4939
47.6531 10.4442
47.702 10.4185
47.7507 10.3611
47.7996 10.3534
47.8483 10.3272
47.8972 10.2965
47.9461 10.2582
47.9948 10.2178
48.0438 10.1729
48.0925 10.1766
48.1415 10.1037
48.1902 10.0514
48.2392 10.0378
48.288 9.98591
48.337 9.98907
48.3858 9.91646
48.4348 9.87955
48.4837 9.88493
48.5327 9.84223
48.5815 9.76129
48.6306 9.77203
48.6795 9.70597
48.7285 9.65493
48.7774 9.62422
48.8265 9.60186
48.8754 9.55798
48.9245 9.52726
48.9734 9.48935
49.0226 9.49206
49.0715 9.44495
49.1206 9.37842
49.1696 9.3177
49.2188 9.28841
49.2679 9.2875
49.3169 9.21399
49.3661 9.18028
49.4151 9.16871
49.4643 9.16468
49.5134 9.08204
49.5626 9.02307
49.6117 9.042
49.6609 9.00004
49.71 8.9728
49.7592 8.9289
49.8083 8.87576
49.8576 8.82914
49.9067 8.82796
49.956 8.80511
50.0052 8.78753
50.0545 8.73189
50.1036 8.68331
50.153 8.65009
50.2022 8.60228
50.2515 8.59745
50.3007 8.52952
50.3501 8.51041
50.3993 8.49853
50.4487 8.47332
50.498 8.41185
50.5474 8.40087
50.5966 8.34665
50.6461 8.3121
50.6955 8.27559
50.7448 8.255
50.7943 8.25488
50.8436 8.21367
50.8931 8.19296
50.9424 8.1402
50.9919 8.06971
51.0413 8.08479
51.0908 8.02417
51.1402 7.99121
51.1897 7.97623
51.2391 7.96655
51.2887 7.9162
51.3381 7.87796
51.3877 7.85779
51.4371 7.80321
51.4867 7.76094
51.5362 7.74687
51.5858 7.73207
51.6353 7.6644
51.6849 7.67299
51.7344 7.62689
51.7841 7.58597
51.8336 7.53311
51.8833 7.51799
51.9328 7.47753
51.9826 7.4343
52.0323 7.41579
52.0818 7.39457
52.1316 7.35311
52.1812 7.3235
52.231 7.28453
52.2806 7.26207
52.3304 7.24515
52.38 7.21959
52.4298 7.19576
52.4794 7.13916
52.5293 7.13348
52.5789 7.11283
52.6288 7.05422
52.6785 7.01988
52.7284 7.00158
52.7781 6.9663
52.828 6.95345
52.8777 6.88165
52.9276 6.86838
52.9774 6.85066
53.0273 6.8584
53.0771 6.80151
53.1271 6.80453
53.1769 6.72023
53.2269 6.71597
53.2767 6.69036
53.3267 6.71497
53.3765 6.6587
53.4266 6.63574
53.4766 6.55808
53.5265 6.5494
53.5765 6.5139
53.6264 6.45749
53.6765 6.51102
53.7264 6.42643
53.7765 6.4093
53.8265 6.37185
53.8766 6.35318
53.9266 6.32022
53.9767 6.29933
54.0267 6.26091
54.0769 6.2446
54.1269 6.20891
54.1771 6.16211
54.2271 6.16267
54.2773 6.11356
54.3274 6.04337
54.3776 6.05988
54.4277 5.99439
54.478 5.98085
54.528 5.91279
54.5783 5.90128
54.6285 5.82113
54.6788 5.79376
54.7289 5.76276
54.7792 5.71329
54.8296 5.71002
54.8798 5.64996
54.9301 5.61349
54.9803 5.56621
55.0307 5.54756
55.0809 5.49898
55.1314 5.45497
55.1816 5.42096
55.232 5.32552
55.2823 5.3663
55.3328 5.31095
55.383 5.19037
55.4335 5.1633
55.4838 5.12265
55.5344 5.07602
55.5847 5.01074
55.6352 4.99485
55.6856 4.96233
55.7361 4.93245