File: XRD/Ni3Fe_FD0379.xy
TT I
1.27165 7.5647
1.31627 6.97145
1.36089 6.85843
1.40551 7.03526
1.45013 6.12862
1.49476 5.8276
1.53938 6.0257
1.584 4.81651
1.62863 6.01272
1.67325 5.42844
1.71787 4.79765
1.7625 5.10326
1.80712 5.25012
1.85174 4.87102
1.89636 4.95521
1.94099 5.01449
1.98562 4.51045
2.03025 5.24876
2.07487 4.64104
2.11949 5.12673
2.16411 4.75025
2.20874 13.46
2.25338 20.0932
2.298 5.9935
2.34263 5.05794
2.38725 5.20038
2.43188 5.37473
2.4765 6.45575
2.52115 6.7273
2.56577 6.80031
2.6104 6.74946
2.65503 7.2306
2.69965 7.33231
2.7443 7.57107
2.78893 7.81864
2.83356 8.16409
2.87818 8.62637
2.92281 9.35917
2.96744 8.88432
3.01209 10.0271
3.05672 11.0743
3.10135 12.1146
3.14599 12.8917
3.19062 14.1627
3.23527 14.8808
3.2799 15.8872
3.32454 16.8383
3.36917 17.86
3.4138 18.9666
3.45844 19.7785
3.50309 21.1595
3.54773 21.4103
3.59237 24.0769
3.637 83.1416
3.68164 53.9628
3.7263 26.3047
3.77094 26.1086
3.81558 27.098
3.86022 27.685
3.90486 29.6147
3.9495 30.1419
3.99416 31.4908
4.0388 32.5932
4.08344 34.3064
4.12809 35.5204
4.17273 37.4961
4.21738 43.8481
4.26204 218.132
4.30669 188.827
4.35133 49.1514
4.39598 45.2087
4.44063 53.4262
4.4853 63.1964
4.52995 52.81
4.5746 52.8457
4.61925 54.5482
4.6639 56.795
4.70855 59.4018
4.75322 62.4349
4.79788 65.4577
4.84253 68.6336
4.88719 74.1616
4.93184 77.3518
4.97652 83.616
5.02118 90.0044
5.06583 98.3373
5.11049 112.436
5.15515 181.243
5.19981 479.401
5.24449 3318.17
5.28916 11228.7
5.33382 3536.94
5.37848 225.868
5.42315 138.906
5.46783 120.735
5.5125 110.911
5.55716 105.996
5.60183 101.742
5.6465 99.9214
5.69117 97.728
5.73586 95.5189
5.78053 96.0524
5.8252 95.7139
5.86988 97.0231
5.91455 99.5594
5.95924 111.276
6.00392 260.707
6.0486 1156.29
6.09328 3999.79
6.13795 3557.1
6.18263 315.992
6.22733 101.249
6.27201 86.8581
6.3167 100.389
6.36138 81.7774
6.40606 71.6836
6.45075 69.4194
6.49545 67.3296
6.54014 64.9988
6.58483 64.4124
6.62952 64.2954
6.67421 89.9765
6.71892 131.202
6.76361 68.53
6.8083 60.4323
6.853 58.7207
6.89769 58.2343
6.94239 58.0816
6.98711 56.8145
7.03181 56.7857
7.07651 56.3024
7.12121 56.3879
7.16591 56.4291
7.21063 56.7451
7.25533 69.4623
7.30004 161.123
7.34475 87.0202
7.38945 57.5955
7.43416 55.8688
7.47889 55.6384
7.5236 55.9801
7.56831 56.6668
7.61303 57.9458
7.65774 58.4572
7.70247 57.4428
7.74719 57.2115
7.79191 58.1437
7.83663 58.2501
7.88135 59.1498
7.92607 59.9323
7.97081 61.3447
8.01553 62.3162
8.06026 63.8934
8.10498 65.2384
8.14971 74.1405
8.19446 73.4988
8.23919 71.2688
8.28392 73.3914
8.32865 76.1559
8.37339 80.4781
8.41812 88.0433
8.46288 115.705
8.50761 189.388
8.55235 452.67
8.59709 1169.56
8.64183 2063.02
8.68658 1180.78
8.73134 199.2
8.77609 105.028
8.82083 96.3426
8.86558 92.693
8.91033 92.6279
8.9551 93.6281
8.99985 87.7625
9.04461 85.6529
9.08936 85.2747
9.13412 84.4348
9.17888 84.3466
9.22365 84.1543
9.26841 84.2487
9.31318 85.5263
9.35794 85.5626
9.4027 85.5818
9.44749 86.3441
9.49226 86.9955
9.53703 87.9961
9.5818 90.1157
9.62657 94.6943
9.67134 99.7539
9.71614 95.9454
9.76091 96.6146
9.80569 99.6971
9.85047 103.011
9.89525 124.411
9.94005 138.171
9.98484 200.528
10.0296 400.893
10.0744 838.41
10.1192 1600.07
10.164 1693.74
10.2088 512.663
10.2536 144.332
10.2984 117.142
10.3432 116.747
10.388 108.568
10.4328 127.465
10.4776 176.303
10.5224 290.096
10.5672 478.259
10.612 516.955
10.6568 229.209
10.7017 102.4
10.7465 89.5164
10.7913 85.6869
10.8361 83.4379
10.8809 80.9458
10.9257 80.2682
10.9706 80.9417
11.0154 76.9038
11.0602 74.749
11.105 73.7565
11.1499 77.1077
11.1947 82.7229
11.2395 75.3473
11.2844 71.9118
11.3292 69.3167
11.374 67.8538
11.4189 67.2426
11.4637 66.747
11.5086 67.0099
11.5534 69.2612
11.5983 66.9576
11.6431 65.0922
11.688 64.7399
11.7328 64.321
11.7777 64.5005
11.8225 63.9296
11.8674 64.0763
11.9122 64.5801
11.9571 64.501
12.002 65.5052
12.0468 70.8628
12.0917 84.3167
12.1366 107.122
12.1814 150.171
12.2263 197.189
12.2712 177.162
12.3161 105.891
12.3609 72.3404
12.4058 66.4303
12.4507 66.1597
12.4956 66.3458
12.5405 66.2833
12.5853 67.1864
12.6302 73.8562
12.6751 78.3109
12.72 71.3318
12.7649 69.876
12.8098 70.0926
12.8547 71.6031
12.8996 72.9825
12.9445 74.1342
12.9894 75.9281
13.0343 77.6786
13.0792 81.6192
13.1242 93.1843
13.1691 121.192
13.214 160.198
13.2589 241.104
13.3038 349.375
13.3487 422.587
13.3937 298.725
13.4386 140.855
13.4835 112.954
13.5285 130.248
13.5734 166.955
13.6183 242.159
13.6633 326.375
13.7082 345.647
13.7531 212.715
13.7981 106.784
13.843 84.8765
13.888 81.8323
13.9329 79.2619
13.9779 77.8564
14.0228 76.4818
14.0678 75.1394
14.1127 74.6962
14.1577 74.4865
14.2027 73.3293
14.2476 72.2739
14.2926 72.4938
14.3376 73.1064
14.3825 71.8706
14.4275 70.4621
14.4725 70.4815
14.5175 70.9572
14.5624 70.9913
14.6074 72.7899
14.6524 73.6672
14.6974 72.5785
14.7424 74.4238
14.7874 83.1853
14.8324 95.051
14.8774 116.006
14.9224 152.811
14.9674 197.229
15.0124 214.249
15.0574 161.877
15.1024 98.832
15.1474 75.079
15.1924 72.5773
15.2374 72.9186
15.2824 71.9018
15.3274 69.8429
15.3725 68.5516
15.4175 68.1604
15.4625 67.9391
15.5076 68.0195
15.5526 67.755
15.5976 67.8612
15.6426 69.0248
15.6877 75.9203
15.7327 84.9309
15.7778 99.685
15.8228 127.075
15.8679 164.204
15.9129 189.039
15.958 167.305
16.003 106.376
16.0481 71.9891
16.0931 66.362
16.1382 64.2187
16.1833 62.2173
16.2283 60.5957
16.2734 60.1527
16.3185 59.9812
16.3636 60.6301
16.4086 59.1427
16.4537 57.7672
16.4988 57.2287
16.5439 57.0567
16.589 56.7585
16.6341 56.2722
16.6792 56.0796
16.7243 56.1176
16.7694 56.434
16.8145 56.1234
16.8596 56.5699
16.9047 58.0046
16.9498 58.2893
16.9949 57.1088
17.04 57.3771
17.0851 59.0169
17.1302 60.9437
17.1754 63.7754
17.2205 68.4845
17.2656 74.7191
17.3108 81.8552
17.3559 83.3557
17.401 74.8156
17.4462 64.8124
17.4913 60.9884
17.5365 60.8213
17.5815 60.7463
17.6268 61.1837
17.6718 61.9529
17.7171 62.6511
17.7622 63.0159
17.8074 63.6273
17.8525 66.8094
17.8977 71.2959
17.9428 77.3236
17.9881 85.9358
18.0331 101.283
18.0784 118.702
18.1237 136.001
18.1688 136.363
18.214 112.688
18.2591 91.747
18.3044 91.7403
18.3495 98.8592
18.3948 105.306
18.4399 99.4846
18.4852 82.4432
18.5303 68.9803
18.5756 64.1032
18.6207 63.0121
18.666 62.0369
18.7112 61.3828
18.7565 60.591
18.8016 60.411
18.8469 59.7586
18.892 59.0931
18.9374 59.017
18.9825 58.6071
19.0278 58.5235
19.073 58.7174
19.1183 59.084
19.1635 60.0512
19.2088 61.6096
19.254 64.1169
19.2993 67.6241
19.3447 72.2451
19.3898 76.2451
19.4352 74.7377
19.4804 66.5163
19.5257 59.0956
19.5709 55.9901
19.6163 55.5341
19.6615 55.3416
19.7068 54.7832
19.752 54.7474
19.7974 55.1507
19.8426 56.2964
19.888 56.8208
19.9332 57.9027
19.9786 60.5138
20.0238 63.6214
20.0692 67.43
20.1144 70.6072
20.1598 70.7419
20.205 66.7464
20.2504 64.007
20.2957 64.4646
20.3411 66.0374
20.3863 65.6328
20.4318 60.7679
20.477 55.9962
20.5224 53.2356
20.5677 52.3296
20.6131 51.6577
20.6586 51.1511
20.7038 50.8651
20.7493 50.4364
20.7945 50.3866
20.84 50.3353
20.8853 50.2212
20.9307 50.02
20.976 50.1957
21.0215 50.0596
21.0668 50.5239
21.1122 50.8718
21.1575 51.4494
21.203 51.9307
21.2483 52.4252
21.2938 52.8067
21.3391 51.5508
21.3846 50.3921
21.4299 49.7567
21.4754 49.7971
21.5207 49.9572
21.5662 50.2466
21.6116 50.8259
21.6571 51.4456
21.7024 52.6747
21.7479 54.4163
21.7933 56.7162
21.8388 59.7937
21.8843 63.0262
21.9297 65.2997
21.9752 65.3441
22.0206 62.0669
22.0661 58.5068
22.1115 57.0819
22.157 57.3424
22.2024 56.1489
22.248 53.5219
22.2933 51.6772
22.3389 50.4651
22.3843 50.3734
22.4299 50.118
22.4753 50.2782
22.5208 49.9333
22.5662 49.8191
22.6118 50.162
22.6572 50.4104
22.7028 50.6617
22.7483 51.2477
22.7939 52.0205
22.8393 53.5588
22.8849 55.3369
22.9303 56.931
22.9759 58.4875
23.0214 58.8054
23.067 56.623
23.1126 53.154
23.1581 50.8025
23.2037 50.2229
23.2492 50.3596
23.2948 50.4281
23.3403 50.6819
23.3859 51.2402
23.4314 52.262
23.477 53.757
23.5225 55.5869
23.5682 57.1997
23.6137 58.7266
23.6593 57.4255
23.7048 54.0505
23.7505 50.1418
23.796 48.042
23.8417 47.3465
23.8872 46.8635
23.9329 46.4443
23.9784 46.1531
24.0241 45.7508
24.0697 45.6205
24.1154 45.3676
24.1609 45.1855
24.2066 45.1172
24.2522 44.8718
24.2979 44.625
24.3434 44.4284
24.3892 44.4447
24.4349 44.2691
24.4805 44.0504
24.5262 44.1866
24.5718 44.0582
24.6175 44.0576
24.6631 43.8922
24.7089 43.7341
24.7545 43.7119
24.8002 43.4446
24.8458 43.4765
24.8916 43.2931
24.9372 43.366
24.983 43.6747
25.0286 44.1091
25.0744 44.3845
25.12 44.7799
25.1658 45.3749
25.2114 45.7675
25.2572 45.8869
25.3029 45.7619
25.3487 45.9471
25.3943 45.8235
25.4402 45.0274
25.4858 43.9257
25.5316 42.8228
25.5773 42.0784
25.6231 42.1299
25.669 41.7122
25.7147 41.6935
25.7605 41.6717
25.8062 41.5741
25.8521 41.7453
25.8977 41.7928
25.9436 41.9402
25.9893 42.0956
26.0352 42.4804
26.0809 42.5307
26.1268 42.7021
26.1725 42.6156
26.2184 42.0127
26.2641 41.4796
26.31 41.2598
26.3557 41.2956
26.4017 41.3551
26.4474 41.5766
26.4933 41.9034
26.5391 42.2084
26.585 42.5912
26.6308 43.0434
26.6767 43.233
26.7225 43.1951
26.7684 42.7285
26.8142 41.9607
26.8601 41.6575
26.9059 41.2141
26.9519 40.5109
26.9979 40.2888
27.0437 40.2074
27.0896 39.9145
27.1354 39.9104
27.1814 39.6527
27.2272 39.6725
27.2732 39.6306
27.3191 39.4405
27.3651 39.5282
27.4109 39.4323
27.4569 39.5493
27.5027 39.5617
27.5488 39.6539
27.5946 39.3904
27.6407 39.2039
27.6865 39.2094
27.7326 38.8953
27.7784 39.0533
27.8245 38.8974
27.8703 38.9538
27.9164 39.3181
27.9623 39.4685
28.0084 39.7347
28.0543 39.9662
28.1003 40.0778
28.1462 40.0149
28.1923 39.595
28.2384 38.8543
28.2843 38.6758
28.3304 38.3147
28.3764 37.8448
28.4225 37.4515
28.4684 37.4
28.5145 37.027
28.5605 36.7882
28.6066 36.6912
28.6526 36.6635
28.6987 36.5815
28.7447 36.3834
28.7908 36.4091
28.8368 36.3743
28.8829 36.4637
28.9289 36.3591
28.9751 36.0461
29.0211 35.8312
29.0673 35.6396
29.1133 35.5841
29.1595 35.368
29.2055 35.3303
29.2517 35.2849
29.2977 35.2439
29.3439 35.2278
29.3899 35.1899
29.4361 35.0783
29.4824 34.8203
29.5284 34.7191
29.5746 34.3663
29.6207 34.119
29.6669 34.0008
29.713 33.81
29.7593 33.7604
29.8053 33.7774
29.8516 33.6939
29.8977 33.6317
29.9439 33.6333
29.99 33.4682
30.0363 33.4275
30.0824 33.3675
30.1287 33.3399
30.1748 33.3466
30.2211 33.3263
30.2673 33.1065
30.3136 33.3059
30.3597 33.2221
30.406 33.0263
30.4522 32.9685
30.4985 32.9615
30.5447 33.0012
30.591 32.9621
30.6372 33.0138
30.6835 32.9718
30.7297 32.9909
30.7761 33.0203
30.8224 32.9913
30.8686 32.8798
30.915 32.4444
30.9612 32.2646
31.0076 32.2163
31.0538 32.0539
31.1002 32.0504
31.1464 31.7615
31.1928 31.8128
31.2391 31.8299
31.2855 31.7535
31.3317 31.8318
31.3781 31.7123
31.4244 31.7481
31.4708 31.6304
31.5171 31.558
31.5636 31.6462
31.6098 31.4274
31.6563 31.269
31.7026 31.1174
31.7491 31.0116
31.7953 30.9183
31.8418 30.8709
31.8881 30.957
31.9346 30.906
31.9809 30.8903
32.0275 30.766
32.074 30.5856
32.1203 30.4479
32.1668 30.3089
32.2132 30.2444
32.2597 30.0187
32.306 29.9435
32.3526 29.7351
32.399 29.6984
32.4455 29.5117
32.4919 29.4945
32.5385 29.4058
32.5848 29.2545
32.6314 29.3208
32.6778 29.202
32.7244 29.1407
32.7708 28.8989
32.8174 28.9909
32.8638 28.7926
32.9104 28.784
32.9569 28.8803
33.0035 28.7076
33.0499 28.6313
33.0966 28.5236
33.143 28.5393
33.1897 28.4406
33.2361 28.4091
33.2828 28.336
33.3293 28.1396
33.3759 28.0977
33.4226 28.0499
33.4691 27.9041
33.5158 27.7808
33.5623 27.6049
33.609 27.4316
33.6555 27.3753
33.7022 27.2996
33.7487 27.2044
33.7954 27.3078
33.842 27.1104
33.8887 27.092
33.9353 26.9488
33.982 26.8828
34.0286 26.7768
34.0753 26.641
34.1219 26.6215
34.1687 26.4632
34.2152 26.5198
34.262 26.2678
34.3086 26.2233
34.3554 26.2454
34.402 26.0531
34.4488 26.0127
34.4954 25.9797
34.5422 25.8673
34.5889 25.7164
34.6357 25.6125
34.6825 25.535
34.7292 25.5376
34.776 25.398
34.8227 25.3969
34.8695 25.3123
34.9162 25.3632
34.9631 25.2256
35.0098 25.1442
35.0566 24.9828
35.1033 24.9875
35.1502 24.8842
35.1969 24.8374
35.2438 24.7516
35.2906 24.7527
35.3375 24.7547
35.3842 24.6522
35.4311 24.5816
35.4779 24.5388
35.5248 24.5572
35.5716 24.413
35.6185 24.3801
35.6653 24.3331
35.7123 24.1902
35.759 24.1096
35.806 23.977
35.8528 23.9231
35.8998 23.8666
35.9468 23.7343
35.9936 23.6806
36.0406 23.6041
36.0874 23.524
36.1345 23.5363
36.1813 23.431
36.2283 23.3719
36.2752 23.181
36.3222 23.3042
36.3691 23.1475
36.4161 23.0544
36.463 23.0071
36.5101 23.0222
36.557 22.9445
36.6041 22.7634
36.651 22.7474
36.6981 22.7557
36.745 22.6589
36.7921 22.5208
36.839 22.3577
36.8861 22.4273
36.9331 22.3252
36.9802 22.3045
37.0272 22.099
37.0743 22.0911
37.1213 21.9919
37.1684 21.9345
37.2154 21.9032
37.2626 21.8202
37.3098 21.7832
37.3568 21.709
37.404 21.6861
37.451 21.4618
37.4982 21.4704
37.5452 21.3738
37.5924 21.3778
37.6395 21.4042
37.6867 21.317
37.7337 21.1166
37.781 21.0972
37.8281 21.0654
37.8753 20.9873
37.9224 20.8932
37.9697 20.8398
38.0168 20.7931
38.064 20.5565
38.1111 20.6501
38.1584 20.5113
38.2056 20.5088
38.2529 20.4966
38.3 20.3356
38.3473 20.3654
38.3945 20.233
38.4418 20.1529
38.489 20.1487
38.5363 20.0502
38.5837 19.9995
38.6309 20.0034
38.6782 19.863
38.7254 19.8075
38.7728 19.6359
38.82 19.6194
38.8674 19.5725
38.9146 19.5089
38.9621 19.4947
39.0093 19.4024
39.0567 19.3924
39.104 19.2801
39.1514 19.2744
39.1987 19.157
39.2461 19.1466
39.2934 19.096
39.3409 18.979
39.3882 18.9078
39.4356 18.9194
39.483 18.8029
39.5304 18.7607
39.5778 18.764
39.6253 18.6525
39.6726 18.5328
39.7201 18.5179
39.7675 18.4579
39.815 18.3876
39.8624 18.3043
39.9099 18.2786
39.9575 18.1987
40.0049 18.2043
40.0525 18.1703
40.0999 18.0337
40.1474 17.9834
40.1949 17.8759
40.2425 17.8491
40.2899 17.8278
40.3375 17.7615
40.385 17.7566
40.4326 17.6369
40.48 17.5864
40.5277 17.5277
40.5752 17.5286
40.6228 17.4078
40.6703 17.3682
40.718 17.3236
40.7655 17.2907
40.8132 17.1819
40.8607 17.1888
40.9084 17.1213
40.9559 17.1104
41.0036 17.0004
41.0512 16.8996
41.0989 16.9285
41.1465 16.8257
41.1942 16.7837
41.242 16.6609
41.2896 16.6851
41.3373 16.6061
41.3849 16.5168
41.4327 16.5379
41.4803 16.4391
41.5281 16.3789
41.5758 16.3598
41.6236 16.2327
41.6712 16.2061
41.7191 16.183
41.7667 16.1052
41.8146 16.0967
41.8622 15.9647
41.9101 15.9823
41.9578 15.8446
42.0057 15.8573
42.0534 15.7596
42.1013 15.7859
42.149 15.7042
42.1969 15.6114
42.2446 15.591
42.2925 15.489
42.3403 15.438
42.3882 15.4473
42.436 15.4053
42.4839 15.3031
42.5319 15.2673
42.5797 15.2132
42.6277 15.1614
42.6755 15.1158
42.7235 15.0231
42.7713 14.9952
42.8193 14.9905
42.8671 14.8958
42.9152 14.8507
42.963 14.8172
43.0111 14.7573
43.0589 14.7389
43.107 14.5929
43.1549 14.6251
43.2029 14.5416
43.2508 14.4526
43.2989 14.4538
43.3468 14.3761
43.3949 14.3368
43.4429 14.2876
43.491 14.2118
43.5389 14.1867
43.5871 14.1671
43.635 14.0675
43.6832 14.0506
43.7312 13.987
43.7793 13.9644
43.8273 13.9392
43.8755 13.8316
43.9237 13.8056
43.9717 13.7545
44.0199 13.7586
44.068 13.6851
44.1162 13.6775
44.1642 13.6256
44.2125 13.5246
44.2606 13.4706
44.3088 13.4311
44.3569 13.3851
44.4052 13.41
44.4533 13.2776
44.5016 13.2135
44.5497 13.2539
44.598 13.1256
44.6461 13.0672
44.6945 13.0427
44.7426 13.043
44.791 12.9573
44.8391 12.9244
44.8875 12.8848
44.9357 12.8671
44.984 12.7975
45.0322 12.7704
45.0806 12.6978
45.1288 12.6559
45.1773 12.6629
45.2257 12.5871
45.2739 12.525
45.3224 12.5426
45.3706 12.4643
45.4191 12.4013
45.4673 12.3225
45.5158 12.2998
45.5641 12.2558
45.6126 12.2223
45.6609 12.1505
45.7094 12.122
45.7577 12.0357
45.8063 12.0254
45.8546 12.0209
45.9031 11.9552
45.9515 11.9042
46.0001 11.8403
46.0484 11.8103
46.097 11.7896
46.1454 11.7605
46.194 11.7115
46.2424 11.6435
46.291 11.6016
46.3395 11.5987
46.3881 11.5222
46.4365 11.4914
46.4852 11.4736
46.5337 11.3769
46.5823 11.3761
46.631 11.3347
46.6795 11.2738
46.7282 11.232
46.7767 11.2084
46.8254 11.1389
46.8739 11.08
46.9226 11.0762
46.9712 11.0604
47.0199 11.0108
47.0685 10.9382
47.1173 10.8911
47.1658 10.8791
47.2146 10.8473
47.2632 10.8078
47.312 10.7604
47.3606 10.7032
47.4095 10.6484
47.4581 10.6359
47.5069 10.5807
47.5556 10.5733
47.6044 10.5114
47.6531 10.4603
47.702 10.461
47.7507 10.427
47.7996 10.384
47.8483 10.3407
47.8972 10.3067
47.9461 10.2248
47.9948 10.2158
48.0438 10.1501
48.0925 10.1761
48.1415 10.1232
48.1902 10.0633
48.2392 10.0594
48.288 10.0119
48.337 9.95502
48.3858 9.90862
48.4348 9.87521
48.4837 9.86046
48.5327 9.84226
48.5815 9.79879
48.6306 9.7702
48.6795 9.72787
48.7285 9.68176
48.7774 9.63101
48.8265 9.62268
48.8754 9.54971
48.9245 9.52214
48.9734 9.50804
49.0226 9.46339
49.0715 9.39295
49.1206 9.40136
49.1696 9.32756
49.2188 9.32002
49.2679 9.25629
49.3169 9.23746
49.3661 9.23483
49.4151 9.17753
49.4643 9.13917
49.5134 9.085
49.5626 9.0781
49.6117 8.99716
49.6609 9.00758
49.71 8.93053
49.7592 8.91152
49.8083 8.88442
49.8576 8.89898
49.9067 8.817
49.956 8.7655
50.0052 8.74374
50.0545 8.76404
50.1036 8.66416
50.153 8.66873
50.2022 8.62569
50.2515 8.60071
50.3007 8.55229
50.3501 8.53762
50.3993 8.48128
50.4487 8.47499
50.498 8.42005
50.5474 8.36999
50.5966 8.34319
50.6461 8.32189
50.6955 8.28603
50.7448 8.23838
50.7943 8.2094
50.8436 8.22157
50.8931 8.19
50.9424 8.14299
50.9919 8.10475
51.0413 8.07992
51.0908 8.03789
51.1402 8.04245
51.1897 7.99214
51.2391 7.93703
51.2887 7.87589
51.3381 7.85237
51.3877 7.83624
51.4371 7.7728
51.4867 7.77728
51.5362 7.73056
51.5858 7.71528
51.6353 7.65062
51.6849 7.59934
51.7344 7.61208
51.7841 7.63464
51.8336 7.5271
51.8833 7.52354
51.9328 7.4964
51.9826 7.38766
52.0323 7.442
52.0818 7.39654
52.1316 7.33455
52.1812 7.36395
52.231 7.29291
52.2806 7.25059
52.3304 7.23957
52.38 7.1808
52.4298 7.15655
52.4794 7.13214
52.5293 7.12578
52.5789 7.11323
52.6288 7.06146
52.6785 7.0202
52.7284 7.01468
52.7781 6.97782
52.828 6.95411
52.8777 6.88256
52.9276 6.89072
52.9774 6.84113
53.0273 6.85437
53.0771 6.83616
53.1271 6.77335
53.1769 6.72989
53.2269 6.73579
53.2767 6.69527
53.3267 6.66798
53.3765 6.59863
53.4266 6.62505
53.4766 6.56812
53.5265 6.56634
53.5765 6.57394
53.6264 6.48077
53.6765 6.46579
53.7264 6.42031
53.7765 6.39768
53.8265 6.34856
53.8766 6.36606
53.9266 6.35961
53.9767 6.29397
54.0267 6.29766
54.0769 6.26139
54.1269 6.19662
54.1771 6.15243
54.2271 6.18995
54.2773 6.12596
54.3274 6.07337
54.3776 6.04881
54.4277 6.00207
54.478 6.00067
54.528 5.95955
54.5783 5.9253
54.6285 5.87069
54.6788 5.84696
54.7289 5.77431
54.7792 5.73249
54.8296 5.67256
54.8798 5.65047
54.9301 5.62716
54.9803 5.60142
55.0307 5.58137
55.0809 5.53253
55.1314 5.48927
55.1816 5.445
55.232 5.42283
55.2823 5.35319
55.3328 5.27615
55.383 5.22623
55.4335 5.19448
55.4838 5.10648
55.5344 5.08045
55.5847 5.04768
55.6352 4.99011
55.6856 4.96361
55.7361 4.90771