File: XRD/Ni3Fe_FD0425.xy
TT I
1.27165 7.52978
1.31627 6.5579
1.36089 6.57784
1.40551 5.56995
1.45013 6.03243
1.49476 6.57104
1.53938 6.47538
1.584 5.78705
1.62863 5.25197
1.67325 4.81617
1.71787 5.36678
1.7625 4.71705
1.80712 5.03614
1.85174 4.7258
1.89636 5.05425
1.94099 4.82711
1.98562 4.68176
2.03025 4.76162
2.07487 4.59674
2.11949 5.26117
2.16411 4.9221
2.20874 18.5123
2.25338 31.7471
2.298 6.65905
2.34263 5.1523
2.38725 4.86455
2.43188 5.24092
2.4765 6.51867
2.52115 5.99498
2.56577 6.98964
2.6104 7.21772
2.65503 7.12486
2.69965 7.5784
2.7443 7.80245
2.78893 8.50225
2.83356 8.27269
2.87818 8.93128
2.92281 9.12369
2.96744 9.18158
3.01209 10.0804
3.05672 11.3346
3.10135 12.4525
3.14599 13.2322
3.19062 14.5644
3.23527 15.4147
3.2799 16.1586
3.32454 16.7607
3.36917 17.6019
3.4138 19.0637
3.45844 19.7848
3.50309 21.6315
3.54773 22.1464
3.59237 25.1623
3.637 125.672
3.68164 77.304
3.7263 27.2279
3.77094 27.1211
3.81558 27.0732
3.86022 28.242
3.90486 29.6391
3.9495 30.0841
3.99416 31.3243
4.0388 33.1978
4.08344 34.8139
4.12809 35.908
4.17273 38.8194
4.21738 46.5793
4.26204 345.35
4.30669 304.881
4.35133 52.8793
4.39598 46.3007
4.44063 58.7545
4.4853 75.6838
4.52995 52.1217
4.5746 51.9678
4.61925 54.1989
4.6639 56.4974
4.70855 58.8846
4.75322 61.2783
4.79788 64.7933
4.84253 67.6729
4.88719 72.6242
4.93184 75.8229
4.97652 81.9517
5.02118 88.256
5.06583 96.2821
5.11049 110.004
5.15515 204.744
5.19981 418.768
5.24449 2826.18
5.28916 11379.5
5.33382 3627.46
5.37848 222.611
5.42315 137.335
5.46783 117.722
5.5125 109.114
5.55716 104.64
5.60183 101.261
5.6465 99.0654
5.69117 96.0437
5.73586 93.7275
5.78053 93.636
5.8252 93.321
5.86988 94.1292
5.91455 96.5232
5.95924 105.806
6.00392 225.163
6.0486 980.574
6.09328 3904.66
6.13795 3658.33
6.18263 318.338
6.22733 100.541
6.27201 87.3464
6.3167 117.381
6.36138 87.0048
6.40606 71.3759
6.45075 69.1179
6.49545 67.1911
6.54014 65.2394
6.58483 64.7937
6.62952 64.6918
6.67421 109.647
6.71892 187.971
6.76361 74.914
6.8083 60.5511
6.853 59.3879
6.89769 58.3896
6.94239 58.1316
6.98711 57.6084
7.03181 57.0548
7.07651 56.6979
7.12121 56.9229
7.16591 57.2059
7.21063 57.4198
7.25533 78.2523
7.30004 242.799
7.34475 111.811
7.38945 59.2408
7.43416 56.4359
7.47889 56.1581
7.5236 56.4895
7.56831 56.923
7.61303 59.5483
7.65774 60.1956
7.70247 57.6959
7.74719 57.6334
7.79191 58.2917
7.83663 58.3728
7.88135 59.2342
7.92607 60.2213
7.97081 61.0102
8.01553 62.2496
8.06026 63.3597
8.10498 65.2714
8.14971 78.5234
8.19446 76.3206
8.23919 70.7577
8.28392 73.0908
8.32865 75.2109
8.37339 79.5259
8.41812 87.6893
8.46288 127.909
8.50761 175.56
8.55235 396.254
8.59709 1053.56
8.64183 2104.48
8.68658 1143.1
8.73134 194.438
8.77609 104.106
8.82083 95.2622
8.86558 91.9166
8.91033 92.7246
8.9551 96.151
8.99985 87.2568
9.04461 84.7612
9.08936 84.3088
9.13412 83.6723
9.17888 83.564
9.22365 84.8361
9.26841 83.7883
9.31318 84.1636
9.35794 84.4356
9.4027 84.5792
9.44749 84.7838
9.49226 85.8178
9.53703 86.9332
9.5818 88.3961
9.62657 95.2877
9.67134 104.864
9.71614 96.3158
9.76091 95.3032
9.80569 98.0703
9.85047 101.672
9.89525 135.472
9.94005 152.113
9.98484 184.12
10.0296 348.213
10.0744 737.017
10.1192 1576.15
10.164 1769.82
10.2088 502.859
10.2536 140.595
10.2984 120.139
10.3432 123.158
10.388 107.996
10.4328 121.342
10.4776 161.865
10.5224 260.464
10.5672 467.92
10.612 525.166
10.6568 234.802
10.7017 102.102
10.7465 88.9524
10.7913 85.4112
10.8361 82.7714
10.8809 80.4186
10.9257 80.6218
10.9706 82.4835
11.0154 76.9666
11.0602 74.8158
11.105 73.5975
11.1499 80.3107
11.1947 92.0171
11.2395 79.0034
11.2844 73.1735
11.3292 69.0979
11.374 67.6756
11.4189 67.1379
11.4637 66.2961
11.5086 67.3285
11.5534 72.1798
11.5983 68.2468
11.6431 65.0353
11.688 64.2481
11.7328 64.2754
11.7777 64.4669
11.8225 63.9858
11.8674 63.7218
11.9122 63.9533
11.9571 64.306
12.002 65.2745
12.0468 69.6511
12.0917 80.8441
12.1366 102.012
12.1814 142.772
12.2263 201.874
12.2712 186.36
12.3161 112.642
12.3609 75.4803
12.4058 66.814
12.4507 65.7382
12.4956 65.8715
12.5405 66.1748
12.5853 67.3244
12.6302 78.5821
12.6751 87.0164
12.72 73.1013
12.7649 69.4796
12.8098 70.0256
12.8547 71.0608
12.8996 72.4061
12.9445 73.7115
12.9894 75.4737
13.0343 77.0873
13.0792 80.1928
13.1242 90.1351
13.1691 114.975
13.214 148.379
13.2589 218.605
13.3038 334.624
13.3487 436.571
13.3937 303.956
13.4386 140.01
13.4835 109.814
13.5285 122.692
13.5734 154.872
13.6183 224.348
13.6633 324.45
13.7082 365.962
13.7531 219.993
13.7981 106.38
13.843 84.3209
13.888 81.4976
13.9329 78.8023
13.9779 77.3876
14.0228 75.6908
14.0678 74.5695
14.1127 74.0753
14.1577 74.5232
14.2027 73.4162
14.2476 72.0352
14.2926 72.2979
14.3376 74.2212
14.3825 72.2542
14.4275 70.4069
14.4725 70.0875
14.5175 70.2467
14.5624 70.4282
14.6074 73.5247
14.6524 74.289
14.6974 72.0933
14.7424 73.229
14.7874 80.3782
14.8324 90.4921
14.8774 108.31
14.9224 142.939
14.9674 192.834
15.0124 224.719
15.0574 169.182
15.1024 101.668
15.1474 75.4599
15.1924 72.5088
15.2374 73.8682
15.2824 72.8613
15.3274 70.1999
15.3725 68.5026
15.4175 67.4704
15.4625 67.3886
15.5076 67.8268
15.5526 68.0008
15.5976 67.3302
15.6426 68.1511
15.6877 73.745
15.7327 81.2738
15.7778 94.4376
15.8228 118.363
15.8679 156.461
15.9129 191.985
15.958 171.973
16.003 107.812
16.0481 72.0606
16.0931 67.8395
16.1382 65.2677
16.1833 62.3654
16.2283 60.6655
16.2734 59.874
16.3185 60.7371
16.3636 62.2807
16.4086 60.0804
16.4537 57.84
16.4988 56.8277
16.5439 56.905
16.589 56.4
16.6341 56.3285
16.6792 55.9182
16.7243 56.1929
16.7694 56.4276
16.8145 56.3793
16.8596 56.6616
16.9047 59.2002
16.9498 59.228
16.9949 57.4649
17.04 57.0307
17.0851 58.2513
17.1302 60.012
17.1754 62.7634
17.2205 66.6278
17.2656 72.681
17.3108 81.3291
17.3559 84.5184
17.401 74.6991
17.4462 64.4358
17.4913 60.5901
17.5365 60.5276
17.5815 60.6277
17.6268 60.8943
17.6718 61.8475
17.7171 62.3883
17.7622 62.4768
17.8074 63.1584
17.8525 65.3735
17.8977 69.6457
17.9428 74.728
17.9881 82.0737
18.0331 95.789
18.0784 114.456
18.1237 137.795
18.1688 139.025
18.214 112.45
18.2591 89.1929
18.3044 88.8272
18.3495 96.818
18.3948 107.082
18.4399 102.435
18.4852 83.3099
18.5303 68.709
18.5756 63.8608
18.6207 62.9019
18.666 61.7674
18.7112 61.2951
18.7565 60.2592
18.8016 59.9498
18.8469 59.2534
18.892 58.9807
18.9374 58.3225
18.9825 58.5114
19.0278 58.311
19.073 58.3774
19.1183 58.9788
19.1635 59.7755
19.2088 61.0069
19.254 62.6205
19.2993 66.1314
19.3447 72.1932
19.3898 77.8272
19.4352 76.0699
19.4804 66.574
19.5257 59.0063
19.5709 55.8158
19.6163 54.9252
19.6615 54.9395
19.7068 54.5062
19.752 54.3237
19.7974 54.6442
19.8426 55.8223
19.888 56.3459
19.9332 57.3418
19.9786 59.4053
20.0238 61.8337
20.0692 66.3867
20.1144 70.4652
20.1598 70.6517
20.205 65.6939
20.2504 62.712
20.2957 63.6242
20.3411 66.1767
20.3863 66.5527
20.4318 61.2588
20.477 55.9443
20.5224 53.5027
20.5677 52.4467
20.6131 51.778
20.6586 50.9058
20.7038 50.773
20.7493 50.3355
20.7945 50.1592
20.84 49.8962
20.8853 49.6783
20.9307 49.58
20.976 49.8428
21.0215 49.7407
21.0668 49.9918
21.1122 50.5383
21.1575 50.8834
21.203 51.5511
21.2483 52.0554
21.2938 52.9159
21.3391 51.4033
21.3846 50.2019
21.4299 49.5696
21.4754 49.4827
21.5207 49.5839
21.5662 49.7611
21.6116 50.3129
21.6571 50.8398
21.7024 51.9679
21.7479 53.3698
21.7933 55.513
21.8388 58.6046
21.8843 62.4687
21.9297 65.4987
21.9752 65.5953
22.0206 62.0026
22.0661 57.783
22.1115 56.6951
22.157 57.2526
22.2024 56.208
22.248 53.3133
22.2933 51.3608
22.3389 50.255
22.3843 50.2034
22.4299 50.2102
22.4753 50.0276
22.5208 49.7409
22.5662 49.4737
22.6118 49.9923
22.6572 49.9095
22.7028 50.3548
22.7483 50.5278
22.7939 51.2029
22.8393 52.5004
22.8849 54.3376
22.9303 56.0417
22.9759 58.2935
23.0214 59.1019
23.067 56.8743
23.1126 53.0538
23.1581 50.6687
23.2037 49.9048
23.2492 50.0235
23.2948 49.8256
23.3403 50.1735
23.3859 50.7475
23.4314 51.3803
23.477 52.907
23.5225 54.5696
23.5682 56.9385
23.6137 58.9541
23.6593 57.7141
23.7048 53.9726
23.7505 49.9391
23.796 47.9481
23.8417 47.129
23.8872 46.5123
23.9329 46.2482
23.9784 45.7885
24.0241 45.6672
24.0697 45.595
24.1154 45.2162
24.1609 45.0556
24.2066 44.7649
24.2522 44.7833
24.2979 44.3402
24.3434 44.2677
24.3892 44.3252
24.4349 44.0751
24.4805 43.8549
24.5262 43.9769
24.5718 43.767
24.6175 43.937
24.6631 43.8589
24.7089 43.6874
24.7545 43.304
24.8002 43.322
24.8458 43.093
24.8916 42.9036
24.9372 43.1266
24.983 43.4874
25.0286 43.6533
25.0744 44.008
25.12 44.3702
25.1658 45.0794
25.2114 45.5075
25.2572 45.6261
25.3029 45.465
25.3487 45.9271
25.3943 45.8492
25.4402 44.8718
25.4858 43.8246
25.5316 42.4599
25.5773 41.8263
25.6231 41.8823
25.669 41.4942
25.7147 41.3951
25.7605 41.4467
25.8062 41.5467
25.8521 41.5923
25.8977 41.5143
25.9436 41.5688
25.9893 41.7945
26.0352 42.0781
26.0809 42.3543
26.1268 42.7099
26.1725 42.4515
26.2184 41.8244
26.2641 41.3234
26.31 41.0777
26.3557 41.0264
26.4017 41.032
26.4474 41.2622
26.4933 41.571
26.5391 42.0688
26.585 42.2216
26.6308 42.7059
26.6767 42.9644
26.7225 42.9408
26.7684 42.5261
26.8142 41.8472
26.8601 41.4868
26.9059 41.0124
26.9519 40.4978
26.9979 40.1995
27.0437 39.7544
27.0896 39.6264
27.1354 39.7301
27.1814 39.3839
27.2272 39.4239
27.2732 39.361
27.3191 39.2672
27.3651 39.301
27.4109 39.1869
27.4569 39.2428
27.5027 39.4131
27.5488 39.3997
27.5946 39.2268
27.6407 39.001
27.6865 38.9417
27.7326 38.502
27.7784 38.6903
27.8245 38.5834
27.8703 38.7865
27.9164 39.0574
27.9623 39.0612
28.0084 39.4084
28.0543 39.8022
28.1003 39.9443
28.1462 39.7846
28.1923 39.4717
28.2384 38.8202
28.2843 38.4511
28.3304 38.2137
28.3764 37.6736
28.4225 37.2599
28.4684 37.0224
28.5145 36.7649
28.5605 36.6954
28.6066 36.5206
28.6526 36.4211
28.6987 36.453
28.7447 36.3572
28.7908 36.0833
28.8368 36.2394
28.8829 36.136
28.9289 36.1239
28.9751 36.0033
29.0211 35.7943
29.0673 35.59
29.1133 35.4352
29.1595 35.2243
29.2055 34.9938
29.2517 35.1151
29.2977 35.0046
29.3439 34.9841
29.3899 34.8599
29.4361 35.0153
29.4824 34.7289
29.5284 34.6117
29.5746 34.2289
29.6207 33.8721
29.6669 33.8409
29.713 33.6809
29.7593 33.6461
29.8053 33.6722
29.8516 33.5359
29.8977 33.5885
29.9439 33.3031
29.99 33.3383
30.0363 33.1533
30.0824 33.2228
30.1287 33.0984
30.1748 33.1844
30.2211 33.1065
30.2673 32.931
30.3136 33.096
30.3597 33.0552
30.406 32.9099
30.4522 32.7484
30.4985 32.7691
30.5447 32.8086
30.591 32.8515
30.6372 32.8712
30.6835 32.7781
30.7297 32.9485
30.7761 32.874
30.8224 32.6905
30.8686 32.5621
30.915 32.3492
30.9612 32.198
31.0076 32.0672
31.0538 31.9637
31.1002 31.8431
31.1464 31.7081
31.1928 31.644
31.2391 31.5608
31.2855 31.6418
31.3317 31.5724
31.3781 31.5241
31.4244 31.5373
31.4708 31.4793
31.5171 31.5006
31.5636 31.533
31.6098 31.248
31.6563 31.064
31.7026 30.8902
31.7491 30.7682
31.7953 30.8255
31.8418 30.7267
31.8881 30.8104
31.9346 30.6359
31.9809 30.6384
32.0275 30.6426
32.074 30.4709
32.1203 30.3019
32.1668 30.1386
32.2132 30.0441
32.2597 29.9419
32.306 29.8499
32.3526 29.6448
32.399 29.6527
32.4455 29.4338
32.4919 29.3274
32.5385 29.2671
32.5848 29.1539
32.6314 29.1812
32.6778 29.0795
32.7244 28.8652
32.7708 28.8126
32.8174 28.8073
32.8638 28.6928
32.9104 28.6719
32.9569 28.6377
33.0035 28.4102
33.0499 28.4648
33.0966 28.3259
33.143 28.4715
33.1897 28.3172
33.2361 28.1421
33.2828 28.2758
33.3293 28.0241
33.3759 28.0369
33.4226 27.8201
33.4691 27.787
33.5158 27.7157
33.5623 27.5464
33.609 27.3871
33.6555 27.2746
33.7022 27.2062
33.7487 27.0877
33.7954 27.0926
33.842 27.0892
33.8887 27.0002
33.9353 26.894
33.982 26.7625
34.0286 26.6591
34.0753 26.5932
34.1219 26.5324
34.1687 26.4125
34.2152 26.4507
34.262 26.193
34.3086 26.2238
34.3554 26.1372
34.402 25.9846
34.4488 25.8248
34.4954 25.8195
34.5422 25.8298
34.5889 25.6024
34.6357 25.5569
34.6825 25.551
34.7292 25.4717
34.776 25.3211
34.8227 25.2544
34.8695 25.2653
34.9162 25.0862
34.9631 25.0248
35.0098 25.0907
35.0566 24.9541
35.1033 24.7131
35.1502 24.8294
35.1969 24.7564
35.2438 24.7455
35.2906 24.5937
35.3375 24.5358
35.3842 24.5047
35.4311 24.6108
35.4779 24.5184
35.5248 24.4234
35.5716 24.3666
35.6185 24.2496
35.6653 24.1895
35.7123 24.0789
35.759 24.0402
35.806 23.8407
35.8528 23.7397
35.8998 23.7412
35.9468 23.6351
35.9936 23.6033
36.0406 23.5825
36.0874 23.5631
36.1345 23.4197
36.1813 23.4031
36.2283 23.1646
36.2752 23.1918
36.3222 23.2038
36.3691 23.0774
36.4161 23.0944
36.463 22.9897
36.5101 22.9082
36.557 22.8903
36.6041 22.6991
36.651 22.7055
36.6981 22.5468
36.745 22.5154
36.7921 22.4911
36.839 22.3756
36.8861 22.3024
36.9331 22.2237
36.9802 22.1938
37.0272 22.0522
37.0743 22.0152
37.1213 21.9007
37.1684 21.8838
37.2154 21.8423
37.2626 21.7799
37.3098 21.7147
37.3568 21.6077
37.404 21.5483
37.451 21.4643
37.4982 21.4046
37.5452 21.2724
37.5924 21.2674
37.6395 21.275
37.6867 21.1824
37.7337 21.038
37.781 20.9231
37.8281 21.0209
37.8753 20.8696
37.9224 20.7583
37.9697 20.7696
38.0168 20.632
38.064 20.5708
38.1111 20.5378
38.1584 20.5138
38.2056 20.4323
38.2529 20.3914
38.3 20.3004
38.3473 20.279
38.3945 20.1455
38.4418 20.1307
38.489 20.0732
38.5363 19.8885
38.5837 19.9668
38.6309 19.874
38.6782 19.7526
38.7254 19.6831
38.7728 19.6754
38.82 19.5796
38.8674 19.5565
38.9146 19.5193
38.9621 19.4107
39.0093 19.3338
39.0567 19.3013
39.104 19.2231
39.1514 19.1515
39.1987 19.1197
39.2461 19.0983
39.2934 19.0256
39.3409 18.976
39.3882 18.8771
39.4356 18.7958
39.483 18.7182
39.5304 18.6684
39.5778 18.6719
39.6253 18.5612
39.6726 18.5133
39.7201 18.4465
39.7675 18.4422
39.815 18.3322
39.8624 18.2089
39.9099 18.2494
39.9575 18.1774
40.0049 18.1398
40.0525 18.0415
40.0999 17.981
40.1474 18.005
40.1949 17.8769
40.2425 17.7768
40.2899 17.7726
40.3375 17.6917
40.385 17.6556
40.4326 17.5555
40.48 17.5426
40.5277 17.4909
40.5752 17.4174
40.6228 17.3482
40.6703 17.3253
40.718 17.2663
40.7655 17.2668
40.8132 17.184
40.8607 17.1121
40.9084 17.0679
40.9559 17.0475
41.0036 16.9238
41.0512 16.9187
41.0989 16.8491
41.1465 16.787
41.1942 16.7112
41.242 16.6483
41.2896 16.5579
41.3373 16.493
41.3849 16.4372
41.4327 16.448
41.4803 16.327
41.5281 16.387
41.5758 16.2661
41.6236 16.2174
41.6712 16.2089
41.7191 16.1415
41.7667 16.0351
41.8146 15.9952
41.8622 15.9166
41.9101 15.9227
41.9578 15.8165
42.0057 15.7785
42.0534 15.805
42.1013 15.6768
42.149 15.6341
42.1969 15.5961
42.2446 15.526
42.2925 15.5003
42.3403 15.4345
42.3882 15.4231
42.436 15.3898
42.4839 15.2425
42.5319 15.2099
42.5797 15.1545
42.6277 15.0661
42.6755 15.0674
42.7235 14.9422
42.7713 14.9339
42.8193 14.9042
42.8671 14.8107
42.9152 14.7922
42.963 14.7546
43.0111 14.6832
43.0589 14.6173
43.107 14.6048
43.1549 14.5309
43.2029 14.4612
43.2508 14.4608
43.2989 14.3792
43.3468 14.3326
43.3949 14.3385
43.4429 14.3062
43.491 14.1538
43.5389 14.1196
43.5871 14.133
43.635 14.0675
43.6832 14.0071
43.7312 13.9153
43.7793 13.8836
43.8273 13.8798
43.8755 13.8208
43.9237 13.7712
43.9717 13.7289
44.0199 13.6846
44.068 13.6215
44.1162 13.5479
44.1642 13.5735
44.2125 13.4902
44.2606 13.4148
44.3088 13.3286
44.3569 13.4014
44.4052 13.3679
44.4533 13.2545
44.5016 13.2019
44.5497 13.2036
44.598 13.1129
44.6461 13.058
44.6945 13.0508
44.7426 12.969
44.791 12.9415
44.8391 12.9077
44.8875 12.8653
44.9357 12.84
44.984 12.7665
45.0322 12.7243
45.0806 12.6145
45.1288 12.608
45.1773 12.5626
45.2257 12.5463
45.2739 12.4616
45.3224 12.457
45.3706 12.404
45.4191 12.2924
45.4673 12.3005
45.5158 12.255
45.5641 12.2149
45.6126 12.1695
45.6609 12.171
45.7094 12.0841
45.7577 12.0129
45.8063 11.9763
45.8546 11.9579
45.9031 11.8977
45.9515 11.8746
46.0001 11.814
46.0484 11.7778
46.097 11.7493
46.1454 11.7545
46.194 11.686
46.2424 11.6203
46.291 11.5606
46.3395 11.5445
46.3881 11.4499
46.4365 11.4608
46.4852 11.4067
46.5337 11.3585
46.5823 11.2973
46.631 11.2659
46.6795 11.2256
46.7282 11.2073
46.7767 11.1891
46.8254 11.087
46.8739 11.0369
46.9226 11.0037
46.9712 11.0208
47.0199 10.91
47.0685 10.9108
47.1173 10.8961
47.1658 10.8447
47.2146 10.8201
47.2632 10.7364
47.312 10.7104
47.3606 10.688
47.4095 10.6242
47.4581 10.5575
47.5069 10.5589
47.5556 10.5097
47.6044 10.4719
47.6531 10.4495
47.702 10.3592
47.7507 10.3655
47.7996 10.361
47.8483 10.2398
47.8972 10.2846
47.9461 10.2163
47.9948 10.1466
48.0438 10.1387
48.0925 10.1138
48.1415 10.0772
48.1902 10.04
48.2392 10.0247
48.288 9.95617
48.337 9.92902
48.3858 9.86991
48.4348 9.8446
48.4837 9.82592
48.5327 9.77447
48.5815 9.7643
48.6306 9.72753
48.6795 9.68766
48.7285 9.63261
48.7774 9.61923
48.8265 9.59059
48.8754 9.51866
48.9245 9.51276
48.9734 9.44338
49.0226 9.45813
49.0715 9.36674
49.1206 9.37178
49.1696 9.32088
49.2188 9.30949
49.2679 9.27673
49.3169 9.18679
49.3661 9.15422
49.4151 9.12504
49.4643 9.11302
49.5134 9.08801
49.5626 8.96426
49.6117 8.99761
49.6609 8.93513
49.71 8.93847
49.7592 8.88471
49.8083 8.82999
49.8576 8.85285
49.9067 8.79991
49.956 8.7795
50.0052 8.73811
50.0545 8.69733
50.1036 8.65817
50.153 8.63278
50.2022 8.60661
50.2515 8.5618
50.3007 8.52412
50.3501 8.496
50.3993 8.47363
50.4487 8.43418
50.498 8.3923
50.5474 8.36309
50.5966 8.32619
50.6461 8.32632
50.6955 8.27448
50.7448 8.25554
50.7943 8.16534
50.8436 8.16385
50.8931 8.12963
50.9424 8.12125
50.9919 8.09539
51.0413 8.07034
51.0908 8.0314
51.1402 7.98492
51.1897 7.96974
51.2391 7.91207
51.2887 7.90046
51.3381 7.88161
51.3877 7.86499
51.4371 7.7651
51.4867 7.77322
51.5362 7.70837
51.5858 7.7066
51.6353 7.69247
51.6849 7.60714
51.7344 7.59071
51.7841 7.57963
51.8336 7.50499
51.8833 7.49071
51.9328 7.44911
51.9826 7.3733
52.0323 7.40343
52.0818 7.39378
52.1316 7.3553
52.1812 7.3441
52.231 7.30301
52.2806 7.23534
52.3304 7.246
52.38 7.19588
52.4298 7.1602
52.4794 7.13532
52.5293 7.13092
52.5789 7.07552
52.6288 7.06631
52.6785 6.9959
52.7284 6.97322
52.7781 6.98599
52.828 6.9018
52.8777 6.9359
52.9276 6.85179
52.9774 6.822
53.0273 6.85256
53.0771 6.79646
53.1271 6.77605
53.1769 6.72997
53.2269 6.71974
53.2767 6.67465
53.3267 6.64299
53.3765 6.62918
53.4266 6.57435
53.4766 6.58151
53.5265 6.52926
53.5765 6.47254
53.6264 6.47261
53.6765 6.47226
53.7264 6.42337
53.7765 6.43719
53.8265 6.3689
53.8766 6.37458
53.9266 6.29581
53.9767 6.28789
54.0267 6.24439
54.0769 6.21118
54.1269 6.14667
54.1771 6.13019
54.2271 6.10681
54.2773 6.08891
54.3274 6.13245
54.3776 6.02528
54.4277 6.01379
54.478 5.97385
54.528 5.94185
54.5783 5.89471
54.6285 5.84831
54.6788 5.81556
54.7289 5.83132
54.7792 5.73332
54.8296 5.69617
54.8798 5.62542
54.9301 5.61694
54.9803 5.60001
55.0307 5.56109
55.0809 5.5372
55.1314 5.44199
55.1816 5.46102
55.232 5.35173
55.2823 5.34699
55.3328 5.29204
55.383 5.21371
55.4335 5.23047
55.4838 5.13912
55.5344 5.0405
55.5847 5.0243
55.6352 5.02728
55.6856 4.97024
55.7361 4.94707