File: XRD/Ni3Fe_FD0983.xy
TT I
1.27165 7.38643
1.31627 6.34023
1.36089 6.84522
1.40551 6.39361
1.45013 6.23145
1.49476 5.74273
1.53938 5.36774
1.584 5.54001
1.62863 4.92071
1.67325 5.30449
1.71787 4.67321
1.7625 5.03425
1.80712 4.37871
1.85174 4.31448
1.89636 4.71877
1.94099 5.45576
1.98562 5.02601
2.03025 4.88418
2.07487 4.30294
2.11949 4.78092
2.16411 5.37022
2.20874 15.1607
2.25338 23.3649
2.298 6.75688
2.34263 5.89917
2.38725 6.25012
2.43188 5.88811
2.4765 7.30095
2.52115 8.16077
2.56577 8.08655
2.6104 8.56665
2.65503 7.85255
2.69965 8.47634
2.7443 8.75588
2.78893 8.13967
2.83356 8.40376
2.87818 8.93543
2.92281 8.943
2.96744 9.18128
3.01209 10.5865
3.05672 11.1977
3.10135 12.6246
3.14599 12.731
3.19062 14.3492
3.23527 15.3676
3.2799 15.6128
3.32454 16.1754
3.36917 18.0242
3.4138 18.8499
3.45844 19.6576
3.50309 21.014
3.54773 21.8138
3.59237 23.7622
3.637 95.9795
3.68164 61.9504
3.7263 26.2417
3.77094 26.2697
3.81558 26.4453
3.86022 27.4586
3.90486 28.9292
3.9495 29.4601
3.99416 30.7499
4.0388 31.6465
4.08344 33.574
4.12809 34.6991
4.17273 36.7417
4.21738 43.2338
4.26204 261.97
4.30669 234.055
4.35133 48.762
4.39598 44.025
4.44063 54.1977
4.4853 66.4685
4.52995 49.9127
4.5746 50.1905
4.61925 52.4714
4.6639 54.6838
4.70855 56.9907
4.75322 59.6557
4.79788 62.4919
4.84253 65.985
4.88719 69.8209
4.93184 73.2982
4.97652 78.0273
5.02118 83.9222
5.06583 90.6315
5.11049 100.358
5.15515 165.132
5.19981 270.931
5.24449 2278.73
5.28916 13475.2
5.33382 2785.92
5.37848 173.253
5.42315 123.566
5.46783 109.835
5.5125 103.349
5.55716 98.929
5.60183 96.369
5.6465 93.9843
5.69117 91.8652
5.73586 89.6883
5.78053 88.6891
5.8252 88.2577
5.86988 88.8554
5.91455 89.9621
5.95924 95.1496
6.00392 165.28
6.0486 768.652
6.09328 4584.55
6.13795 3296.0
6.18263 215.848
6.22733 89.06
6.27201 80.8047
6.3167 102.172
6.36138 79.9037
6.40606 67.7857
6.45075 66.2317
6.49545 64.3793
6.54014 62.6153
6.58483 62.0433
6.62952 61.5898
6.67421 94.4334
6.71892 148.947
6.76361 69.0457
6.8083 57.4426
6.853 56.393
6.89769 55.7559
6.94239 55.3117
6.98711 55.0254
7.03181 54.7767
7.07651 54.4362
7.12121 54.539
7.16591 54.3456
7.21063 55.003
7.25533 71.1077
7.30004 188.133
7.34475 94.5598
7.38945 56.1383
7.43416 53.6541
7.47889 53.7283
7.5236 53.7933
7.56831 54.7412
7.61303 56.3433
7.65774 56.8414
7.70247 55.4066
7.74719 55.5047
7.79191 55.8152
7.83663 56.0969
7.88135 56.8656
7.92607 57.864
7.97081 58.7178
8.01553 59.5953
8.06026 60.7172
8.10498 62.3309
8.14971 72.7358
8.19446 71.15
8.23919 67.9385
8.28392 70.118
8.32865 72.0939
8.37339 76.1867
8.41812 82.6683
8.46288 111.06
8.50761 140.244
8.55235 319.875
8.59709 1116.74
8.64183 2312.03
8.68658 924.511
8.73134 160.4
8.77609 96.2363
8.82083 90.138
8.86558 87.9919
8.91033 87.9976
8.9551 90.4649
8.99985 83.5942
9.04461 81.6209
9.08936 80.8552
9.13412 80.2032
9.17888 80.3291
9.22365 81.0589
9.26841 79.9045
9.31318 80.2601
9.35794 80.8497
9.4027 81.2272
9.44749 81.7212
9.49226 82.5784
9.53703 83.5707
9.5818 85.0209
9.62657 90.3165
9.67134 97.3839
9.71614 92.0536
9.76091 91.8853
9.80569 93.9352
9.85047 97.3789
9.89525 121.942
9.94005 133.599
9.98484 151.87
10.0296 289.373
10.0744 746.485
10.1192 1766.5
10.164 1561.72
10.2088 370.374
10.2536 122.433
10.2984 110.693
10.3432 112.578
10.388 101.918
10.4328 109.741
10.4776 143.635
10.5224 266.082
10.5672 530.369
10.612 509.881
10.6568 198.493
10.7017 94.715
10.7465 84.5553
10.7913 81.2969
10.8361 79.3935
10.8809 77.3803
10.9257 77.1234
10.9706 77.6742
11.0154 73.3892
11.0602 71.1457
11.105 70.3051
11.1499 75.0135
11.1947 82.8753
11.2395 73.5622
11.2844 69.3508
11.3292 65.8625
11.374 64.5955
11.4189 64.2997
11.4637 63.6839
11.5086 64.2771
11.5534 67.1388
11.5983 64.3125
11.6431 62.6522
11.688 61.3731
11.7328 61.7423
11.7777 61.5801
11.8225 61.0517
11.8674 61.0486
11.9122 61.1636
11.9571 61.3875
12.002 62.0303
12.0468 64.7022
12.0917 74.4849
12.1366 97.1093
12.1814 150.397
12.2263 203.876
12.2712 163.133
12.3161 95.3072
12.3609 69.4622
12.4058 63.5805
12.4507 62.9931
12.4956 62.7446
12.5405 63.3686
12.5853 64.3284
12.6302 72.4717
12.6751 78.2571
12.72 68.8668
12.7649 66.546
12.8098 66.7724
12.8547 67.9779
12.8996 69.3285
12.9445 70.2963
12.9894 72.215
13.0343 73.6417
13.0792 76.5803
13.1242 83.2608
13.1691 102.649
13.214 135.98
13.2589 227.514
13.3038 377.959
13.3487 428.111
13.3937 250.19
13.4386 120.093
13.4835 99.3337
13.5285 111.372
13.5734 147.384
13.6183 243.063
13.6633 358.463
13.7082 334.966
13.7531 178.206
13.7981 94.692
13.843 79.9122
13.888 77.7289
13.9329 75.1703
13.9779 74.1077
14.0228 72.7786
14.0678 71.4216
14.1127 71.2138
14.1577 71.1262
14.2027 69.9294
14.2476 68.8171
14.2926 69.0365
14.3376 70.2901
14.3825 68.7633
14.4275 67.2845
14.4725 66.8401
14.5175 67.2217
14.5624 67.5674
14.6074 69.5977
14.6524 70.0564
14.6974 68.5628
14.7424 69.5798
14.7874 74.3236
14.8324 83.2623
14.8774 103.762
14.9224 149.874
14.9674 213.112
15.0124 218.623
15.0574 148.278
15.1024 88.1982
15.1474 70.899
15.1924 68.955
15.2374 69.5965
15.2824 69.1274
15.3274 66.7487
15.3725 65.3984
15.4175 64.7589
15.4625 64.5644
15.5076 64.9899
15.5526 64.7128
15.5976 64.2653
15.6426 64.5496
15.6877 68.4592
15.7327 74.9936
15.7778 89.2725
15.8228 121.431
15.8679 172.245
15.9129 197.805
15.958 153.388
16.003 94.4008
16.0481 66.9566
16.0931 63.471
16.1382 61.4781
16.1833 59.5066
16.2283 57.7391
16.2734 57.3238
16.3185 57.5429
16.3636 58.2665
16.4086 56.9151
16.4537 55.2666
16.4988 54.5028
16.5439 54.3505
16.589 53.9313
16.6341 53.7433
16.6792 53.378
16.7243 53.8562
16.7694 53.7908
16.8145 53.6068
16.8596 54.0319
16.9047 55.6872
16.9498 55.8122
16.9949 54.6084
17.04 54.2956
17.0851 55.2404
17.1302 56.9308
17.1754 59.6989
17.2205 64.7854
17.2656 72.9989
17.3108 82.6272
17.3559 80.4487
17.401 68.84
17.4462 60.3639
17.4913 57.7464
17.5365 57.843
17.5815 57.7943
17.6268 58.0792
17.6718 58.9146
17.7171 59.4357
17.7622 59.7219
17.8074 60.158
17.8525 62.0131
17.8977 65.4337
17.9428 70.345
17.9881 78.746
18.0331 96.5904
18.0784 120.927
18.1237 138.587
18.1688 125.945
18.214 99.6165
18.2591 83.2859
18.3044 88.939
18.3495 100.405
18.3948 106.101
18.4399 94.4674
18.4852 75.6184
18.5303 64.8025
18.5756 61.0245
18.6207 59.8847
18.666 59.0963
18.7112 58.6009
18.7565 57.5437
18.8016 57.5318
18.8469 56.7064
18.892 56.5854
18.9374 55.8653
18.9825 55.7422
19.0278 55.6595
19.073 55.6464
19.1183 56.0546
19.1635 56.6137
19.2088 57.8423
19.254 60.2533
19.2993 65.2009
19.3447 71.8582
19.3898 75.3387
19.4352 70.4842
19.4804 61.2809
19.5257 55.5357
19.5709 53.0025
19.6163 52.722
19.6615 52.7008
19.7068 52.0904
19.752 52.1909
19.7974 52.531
19.8426 52.9852
19.888 53.5349
19.9332 54.7916
19.9786 57.3031
20.0238 60.9239
20.0692 66.2978
20.1144 68.9299
20.1598 66.2646
20.205 61.7503
20.2504 60.6983
20.2957 63.3311
20.3411 64.9671
20.3863 62.9738
20.4318 57.2097
20.477 52.7095
20.5224 50.738
20.5677 50.074
20.6131 49.219
20.6586 48.6846
20.7038 48.5581
20.7493 48.0659
20.7945 48.0136
20.84 47.8893
20.8853 47.7493
20.9307 47.4793
20.976 47.8449
21.0215 47.6545
21.0668 47.9505
21.1122 48.2756
21.1575 48.9402
21.203 49.9073
21.2483 50.5202
21.2938 50.2454
21.3391 49.0332
21.3846 47.8816
21.4299 47.3838
21.4754 47.4204
21.5207 47.5271
21.5662 47.6912
21.6116 47.9484
21.6571 48.5491
21.7024 49.3753
21.7479 51.2016
21.7933 53.9257
21.8388 57.9628
21.8843 62.0195
21.9297 63.5905
21.9752 61.8207
22.0206 58.0254
22.0661 55.5117
22.1115 55.364
22.157 54.9413
22.2024 53.1709
22.248 50.2418
22.2933 48.949
22.3389 48.1274
22.3843 48.1775
22.4299 47.9625
22.4753 47.9528
22.5208 47.5286
22.5662 47.5307
22.6118 47.625
22.6572 47.6661
22.7028 48.2145
22.7483 48.4438
22.7939 49.2599
22.8393 50.6227
22.8849 52.9622
22.9303 55.556
22.9759 57.1434
23.0214 56.3517
23.067 53.396
23.1126 50.074
23.1581 48.1249
23.2037 47.8567
23.2492 47.7514
23.2948 47.4687
23.3403 47.8512
23.3859 48.5506
23.4314 49.5196
23.477 51.4851
23.5225 54.1742
23.5682 56.5107
23.6137 57.0804
23.6593 54.4384
23.7048 50.4562
23.7505 47.3638
23.796 45.8109
23.8417 45.1398
23.8872 44.5849
23.9329 44.3244
23.9784 44.0134
24.0241 43.872
24.0697 43.5435
24.1154 43.3505
24.1609 43.2431
24.2066 43.1342
24.2522 42.7802
24.2979 42.6386
24.3434 42.4459
24.3892 42.2527
24.4349 42.3129
24.4805 42.0407
24.5262 42.3114
24.5718 42.1085
24.6175 42.1083
24.6631 42.0643
24.7089 41.635
24.7545 41.477
24.8002 41.3021
24.8458 41.2534
24.8916 41.158
24.9372 41.377
24.983 41.6694
25.0286 42.0426
25.0744 42.3356
25.12 42.8545
25.1658 43.4936
25.2114 43.8781
25.2572 43.9172
25.3029 44.1855
25.3487 44.246
25.3943 43.7562
25.4402 42.5234
25.4858 41.6155
25.5316 40.6858
25.5773 40.104
25.6231 40.0881
25.669 39.7665
25.7147 39.7342
25.7605 39.7439
25.8062 39.6374
25.8521 39.7847
25.8977 39.7832
25.9436 40.0287
25.9893 40.2854
26.0352 40.7812
26.0809 40.8211
26.1268 41.023
26.1725 40.6692
26.2184 39.8831
26.2641 39.474
26.31 39.3573
26.3557 39.2002
26.4017 39.3798
26.4474 39.434
26.4933 39.9365
26.5391 40.5361
26.585 40.9738
26.6308 41.2438
26.6767 41.4617
26.7225 41.259
26.7684 40.6247
26.8142 40.0072
26.8601 39.6982
26.9059 39.1846
26.9519 38.7402
26.9979 38.4798
27.0437 37.9303
27.0896 37.946
27.1354 38.0038
27.1814 37.8621
27.2272 37.7909
27.2732 37.8453
27.3191 37.5438
27.3651 37.7383
27.4109 37.6754
27.4569 37.7986
27.5027 37.8447
27.5488 37.869
27.5946 37.6383
27.6407 37.4585
27.6865 37.3605
27.7326 37.171
27.7784 37.052
27.8245 37.0152
27.8703 37.1937
27.9164 37.5738
27.9623 37.7871
28.0084 38.0192
28.0543 38.2756
28.1003 38.2943
28.1462 38.0938
28.1923 37.7452
28.2384 37.1979
28.2843 36.8667
28.3304 36.4514
28.3764 35.9252
28.4225 35.7151
28.4684 35.6134
28.5145 35.2547
28.5605 35.2046
28.6066 35.017
28.6526 35.017
28.6987 34.8583
28.7447 34.8875
28.7908 34.7263
28.8368 34.7379
28.8829 34.7652
28.9289 34.7587
28.9751 34.5947
29.0211 34.1272
29.0673 33.958
29.1133 33.9069
29.1595 33.6928
29.2055 33.5891
29.2517 33.6895
29.2977 33.6341
29.3439 33.6602
29.3899 33.6673
29.4361 33.3975
29.4824 33.2244
29.5284 33.0685
29.5746 32.7696
29.6207 32.4679
29.6669 32.4888
29.713 32.4012
29.7593 32.306
29.8053 32.2083
29.8516 32.1034
29.8977 32.1253
29.9439 32.0398
29.99 31.7809
30.0363 31.8036
30.0824 31.925
30.1287 31.84
30.1748 31.8717
30.2211 31.778
30.2673 31.6735
30.3136 31.7671
30.3597 31.66
30.406 31.5408
30.4522 31.4261
30.4985 31.4383
30.5447 31.5728
30.591 31.4199
30.6372 31.5545
30.6835 31.6135
30.7297 31.6369
30.7761 31.5439
30.8224 31.3813
30.8686 31.2655
30.915 30.9616
30.9612 30.8458
31.0076 30.7417
31.0538 30.6083
31.1002 30.5567
31.1464 30.4269
31.1928 30.2818
31.2391 30.3076
31.2855 30.2463
31.3317 30.2268
31.3781 30.3534
31.4244 30.3162
31.4708 30.2262
31.5171 30.1659
31.5636 30.1404
31.6098 29.9705
31.6563 29.7448
31.7026 29.723
31.7491 29.4951
31.7953 29.557
31.8418 29.5353
31.8881 29.6039
31.9346 29.5424
31.9809 29.5351
32.0275 29.3515
32.074 29.2492
32.1203 29.0995
32.1668 29.0377
32.2132 28.7557
32.2597 28.6757
32.306 28.6442
32.3526 28.4271
32.399 28.3668
32.4455 28.2398
32.4919 28.0618
32.5385 28.1231
32.5848 27.9613
32.6314 27.9976
32.6778 27.9163
32.7244 27.6543
32.7708 27.6022
32.8174 27.6528
32.8638 27.4096
32.9104 27.4118
32.9569 27.4905
33.0035 27.3788
33.0499 27.3549
33.0966 27.2876
33.143 27.3078
33.1897 27.1584
33.2361 27.0519
33.2828 27.0113
33.3293 26.8308
33.3759 26.8372
33.4226 26.701
33.4691 26.5637
33.5158 26.5072
33.5623 26.4559
33.609 26.2538
33.6555 26.1262
33.7022 26.0435
33.7487 25.9906
33.7954 26.0133
33.842 25.9054
33.8887 25.818
33.9353 25.7649
33.982 25.6749
34.0286 25.5695
34.0753 25.5578
34.1219 25.4616
34.1687 25.2937
34.2152 25.2796
34.262 25.2075
34.3086 25.141
34.3554 25.1181
34.402 24.8752
34.4488 24.7974
34.4954 24.6927
34.5422 24.68
34.5889 24.5126
34.6357 24.5478
34.6825 24.4647
34.7292 24.3681
34.776 24.2748
34.8227 24.189
34.8695 24.1417
34.9162 24.0885
34.9631 24.0099
35.0098 24.0324
35.0566 23.8755
35.1033 23.8342
35.1502 23.8317
35.1969 23.726
35.2438 23.7082
35.2906 23.6939
35.3375 23.6235
35.3842 23.6274
35.4311 23.519
35.4779 23.567
35.5248 23.4605
35.5716 23.4038
35.6185 23.2546
35.6653 23.1768
35.7123 23.0812
35.759 23.0471
35.806 22.9317
35.8528 22.7956
35.8998 22.8684
35.9468 22.6894
35.9936 22.7062
36.0406 22.6131
36.0874 22.5878
36.1345 22.4528
36.1813 22.3234
36.2283 22.2735
36.2752 22.2392
36.3222 22.2434
36.3691 22.1471
36.4161 22.0008
36.463 22.0003
36.5101 22.0334
36.557 21.8856
36.6041 21.7694
36.651 21.77
36.6981 21.678
36.745 21.6391
36.7921 21.5997
36.839 21.4739
36.8861 21.4596
36.9331 21.3002
36.9802 21.2535
37.0272 21.171
37.0743 21.1021
37.1213 21.0722
37.1684 21.0401
37.2154 20.974
37.2626 20.8144
37.3098 20.8133
37.3568 20.7764
37.404 20.7294
37.451 20.6397
37.4982 20.5171
37.5452 20.4746
37.5924 20.4414
37.6395 20.4092
37.6867 20.2593
37.7337 20.2639
37.781 20.1695
37.8281 20.129
37.8753 20.0022
37.9224 19.9928
37.9697 19.8953
38.0168 19.8254
38.064 19.7546
38.1111 19.7833
38.1584 19.6451
38.2056 19.5811
38.2529 19.5457
38.3 19.3992
38.3473 19.4336
38.3945 19.3297
38.4418 19.3497
38.489 19.295
38.5363 19.1159
38.5837 19.0843
38.6309 19.1112
38.6782 19.0128
38.7254 18.8824
38.7728 18.828
38.82 18.8086
38.8674 18.8382
38.9146 18.6913
38.9621 18.6348
39.0093 18.6
39.0567 18.4816
39.104 18.4055
39.1514 18.3724
39.1987 18.3511
39.2461 18.344
39.2934 18.2277
39.3409 18.1584
39.3882 18.082
39.4356 18.0754
39.483 18.0086
39.5304 17.9265
39.5778 17.8538
39.6253 17.8109
39.6726 17.7797
39.7201 17.7319
39.7675 17.6675
39.815 17.6158
39.8624 17.5081
39.9099 17.4781
39.9575 17.3864
40.0049 17.4109
40.0525 17.3622
40.0999 17.2989
40.1474 17.2424
40.1949 17.1624
40.2425 17.0384
40.2899 17.0743
40.3375 17.0282
40.385 16.9047
40.4326 16.8639
40.48 16.8635
40.5277 16.8312
40.5752 16.7476
40.6228 16.69
40.6703 16.6098
40.718 16.5567
40.7655 16.492
40.8132 16.4525
40.8607 16.428
40.9084 16.3601
40.9559 16.3483
41.0036 16.2213
41.0512 16.1784
41.0989 16.1612
41.1465 16.0739
41.1942 16.0571
41.242 15.9631
41.2896 15.8876
41.3373 15.9505
41.3849 15.8697
41.4327 15.7552
41.4803 15.6322
41.5281 15.6256
41.5758 15.6632
41.6236 15.5726
41.6712 15.4517
41.7191 15.4651
41.7667 15.3853
41.8146 15.3636
41.8622 15.3175
41.9101 15.3022
41.9578 15.1759
42.0057 15.1185
42.0534 15.1274
42.1013 15.0076
42.149 15.0081
42.1969 14.9457
42.2446 14.9285
42.2925 14.897
42.3403 14.8365
42.3882 14.7583
42.436 14.6709
42.4839 14.6607
42.5319 14.6391
42.5797 14.5906
42.6277 14.5225
42.6755 14.4357
42.7235 14.3906
42.7713 14.3422
42.8193 14.332
42.8671 14.2751
42.9152 14.2125
42.963 14.152
43.0111 14.0906
43.0589 14.0621
43.107 13.983
43.1549 13.9768
43.2029 13.9305
43.2508 13.8822
43.2989 13.8627
43.3468 13.7536
43.3949 13.7656
43.4429 13.7069
43.491 13.6145
43.5389 13.6093
43.5871 13.5472
43.635 13.4899
43.6832 13.5029
43.7312 13.358
43.7793 13.346
43.8273 13.2964
43.8755 13.2184
43.9237 13.2166
43.9717 13.152
44.0199 13.1248
44.068 13.0624
44.1162 12.9972
44.1642 12.9996
44.2125 12.9511
44.2606 12.9144
44.3088 12.8194
44.3569 12.7943
44.4052 12.7493
44.4533 12.7057
44.5016 12.7093
44.5497 12.67
44.598 12.5802
44.6461 12.5203
44.6945 12.4765
44.7426 12.4668
44.791 12.3414
44.8391 12.3826
44.8875 12.3185
44.9357 12.2978
44.984 12.279
45.0322 12.2158
45.0806 12.1666
45.1288 12.1028
45.1773 12.0785
45.2257 12.0667
45.2739 11.9854
45.3224 11.9212
45.3706 11.917
45.4191 11.8514
45.4673 11.7832
45.5158 11.7919
45.5641 11.7442
45.6126 11.7138
45.6609 11.665
45.7094 11.6003
45.7577 11.5638
45.8063 11.4775
45.8546 11.5032
45.9031 11.4685
45.9515 11.4301
46.0001 11.3852
46.0484 11.3436
46.097 11.2873
46.1454 11.2826
46.194 11.2107
46.2424 11.2341
46.291 11.1003
46.3395 11.0596
46.3881 11.0354
46.4365 11.0304
46.4852 10.9883
46.5337 10.9261
46.5823 10.8983
46.631 10.8692
46.6795 10.8019
46.7282 10.7701
46.7767 10.728
46.8254 10.6467
46.8739 10.6271
46.9226 10.6011
46.9712 10.5885
47.0199 10.5355
47.0685 10.4725
47.1173 10.4062
47.1658 10.4068
47.2146 10.3736
47.2632 10.3442
47.312 10.3421
47.3606 10.2517
47.4095 10.227
47.4581 10.233
47.5069 10.1346
47.5556 10.0831
47.6044 10.0255
47.6531 10.0432
47.702 10.0121
47.7507 9.96041
47.7996 9.93035
47.8483 9.87996
47.8972 9.86663
47.9461 9.81846
47.9948 9.75448
48.0438 9.73556
48.0925 9.70449
48.1415 9.68587
48.1902 9.63946
48.2392 9.63402
48.288 9.55945
48.337 9.52111
48.3858 9.47053
48.4348 9.46342
48.4837 9.4717
48.5327 9.42542
48.5815 9.37615
48.6306 9.32272
48.6795 9.30573
48.7285 9.27484
48.7774 9.25628
48.8265 9.21167
48.8754 9.14355
48.9245 9.12298
48.9734 9.08743
49.0226 9.08573
49.0715 9.03848
49.1206 8.97698
49.1696 8.91969
49.2188 8.93513
49.2679 8.87055
49.3169 8.84842
49.3661 8.79546
49.4151 8.7505
49.4643 8.73781
49.5134 8.69534
49.5626 8.66871
49.6117 8.61954
49.6609 8.62298
49.71 8.5509
49.7592 8.55402
49.8083 8.49444
49.8576 8.48533
49.9067 8.44386
49.956 8.42181
50.0052 8.38495
50.0545 8.3553
50.1036 8.3175
50.153 8.29132
50.2022 8.25083
50.2515 8.21807
50.3007 8.15424
50.3501 8.15061
50.3993 8.16331
50.4487 8.09617
50.498 8.06975
50.5474 8.02352
50.5966 8.01766
50.6461 7.97161
50.6955 7.94854
50.7448 7.93042
50.7943 7.89074
50.8436 7.83732
50.8931 7.81283
50.9424 7.79632
50.9919 7.75164
51.0413 7.72196
51.0908 7.73541
51.1402 7.66442
51.1897 7.61269
51.2391 7.61827
51.2887 7.57856
51.3381 7.52299
51.3877 7.52693
51.4371 7.51093
51.4867 7.468
51.5362 7.42208
51.5858 7.41565
51.6353 7.34788
51.6849 7.34547
51.7344 7.30021
51.7841 7.28634
51.8336 7.2479
51.8833 7.18603
51.9328 7.19592
51.9826 7.14448
52.0323 7.13217
52.0818 7.07555
52.1316 7.04744
52.1812 7.07342
52.231 7.03388
52.2806 6.97444
52.3304 6.95691
52.38 6.92637
52.4298 6.9057
52.4794 6.84593
52.5293 6.85832
52.5789 6.791
52.6288 6.79878
52.6785 6.74479
52.7284 6.74575
52.7781 6.70923
52.828 6.67335
52.8777 6.62623
52.9276 6.63571
52.9774 6.61294
53.0273 6.57183
53.0771 6.55752
53.1271 6.53214
53.1769 6.49198
53.2269 6.50351
53.2767 6.42059
53.3267 6.41325
53.3765 6.3871
53.4266 6.33913
53.4766 6.30361
53.5265 6.26139
53.5765 6.30589
53.6264 6.16975
53.6765 6.1961
53.7264 6.17892
53.7765 6.13137
53.8265 6.10487
53.8766 6.06976
53.9266 6.06467
53.9767 6.01614
54.0267 6.02282
54.0769 5.98047
54.1269 5.97818
54.1771 5.95267
54.2271 5.93464
54.2773 5.86224
54.3274 5.83627
54.3776 5.79392
54.4277 5.79788
54.478 5.73947
54.528 5.74885
54.5783 5.64713
54.6285 5.66072
54.6788 5.57902
54.7289 5.55444
54.7792 5.51727
54.8296 5.40334
54.8798 5.36589
54.9301 5.38904
54.9803 5.33921
55.0307 5.3264
55.0809 5.25943
55.1314 5.28983
55.1816 5.18036
55.232 5.18695
55.2823 5.09487
55.3328 5.06732
55.383 5.03469
55.4335 4.97683
55.4838 4.91502
55.5344 4.87103
55.5847 4.79377
55.6352 4.83319
55.6856 4.79151
55.7361 4.74231