File: XRD/Ni3Fe_FD0840.xy
TT I
1.27165 7.99813
1.31627 6.81991
1.36089 6.5367
1.40551 6.53294
1.45013 6.63575
1.49476 6.3716
1.53938 5.95198
1.584 5.64594
1.62863 5.00325
1.67325 4.57709
1.71787 5.1022
1.7625 5.12171
1.80712 5.01403
1.85174 4.71231
1.89636 5.36375
1.94099 4.80374
1.98562 5.08536
2.03025 4.61979
2.07487 4.49114
2.11949 5.01814
2.16411 5.57836
2.20874 12.5303
2.25338 17.7759
2.298 5.6625
2.34263 6.16981
2.38725 5.74806
2.43188 7.15772
2.4765 6.95579
2.52115 7.06612
2.56577 7.96308
2.6104 8.45361
2.65503 8.37681
2.69965 8.66426
2.7443 8.63794
2.78893 8.07318
2.83356 8.27706
2.87818 8.99039
2.92281 9.13194
2.96744 9.58926
3.01209 10.7681
3.05672 11.4447
3.10135 11.8045
3.14599 13.1444
3.19062 14.2113
3.23527 14.8639
3.2799 15.9298
3.32454 16.8122
3.36917 17.6933
3.4138 19.1588
3.45844 19.2958
3.50309 20.6227
3.54773 21.4276
3.59237 23.5645
3.637 74.9372
3.68164 49.5409
3.7263 25.9665
3.77094 25.9556
3.81558 26.3244
3.86022 27.5673
3.90486 28.9477
3.9495 29.645
3.99416 30.3817
4.0388 31.9533
4.08344 33.167
4.12809 35.1472
4.17273 37.0464
4.21738 41.707
4.26204 199.097
4.30669 170.574
4.35133 46.9305
4.39598 43.5851
4.44063 51.5556
4.4853 60.4323
4.52995 50.4692
4.5746 52.0716
4.61925 53.0494
4.6639 54.9327
4.70855 57.7864
4.75322 60.8061
4.79788 64.2208
4.84253 66.7889
4.88719 71.3719
4.93184 74.6712
4.97652 79.545
5.02118 85.7313
5.06583 93.4133
5.11049 103.522
5.15515 158.533
5.19981 319.307
5.24449 2705.23
5.28916 12326.6
5.33382 2726.12
5.37848 179.287
5.42315 126.285
5.46783 112.679
5.5125 105.685
5.55716 100.973
5.60183 97.2429
5.6465 96.0595
5.69117 93.4282
5.73586 91.181
5.78053 91.556
5.8252 91.4676
5.86988 92.1633
5.91455 92.4102
5.95924 99.2769
6.00392 193.136
6.0486 903.777
6.09328 4306.67
6.13795 3108.42
6.18263 225.377
6.22733 90.0662
6.27201 80.7848
6.3167 93.4535
6.36138 76.9992
6.40606 68.5774
6.45075 67.4404
6.49545 64.3774
6.54014 62.8184
6.58483 62.3937
6.62952 62.1026
6.67421 85.5446
6.71892 119.943
6.76361 65.5634
6.8083 58.2192
6.853 57.3809
6.89769 56.4468
6.94239 55.9765
6.98711 55.0005
7.03181 54.8891
7.07651 54.7062
7.12121 54.3851
7.16591 54.7614
7.21063 54.9624
7.25533 67.5463
7.30004 144.754
7.34475 80.7931
7.38945 55.3573
7.43416 53.8993
7.47889 53.3219
7.5236 54.1834
7.56831 54.6179
7.61303 55.8957
7.65774 56.7955
7.70247 55.8611
7.74719 55.8377
7.79191 55.7608
7.83663 56.5095
7.88135 57.0691
7.92607 58.1043
7.97081 59.1173
8.01553 60.0943
8.06026 61.6021
8.10498 63.5537
8.14971 70.8234
8.19446 70.6784
8.23919 68.7805
8.28392 71.028
8.32865 73.303
8.37339 77.3731
8.41812 83.5676
8.46288 106.421
8.50761 154.417
8.55235 363.813
8.59709 1176.03
8.64183 2167.03
8.68658 930.979
8.73134 159.19
8.77609 97.8313
8.82083 91.7135
8.86558 88.9054
8.91033 89.1013
8.9551 89.1384
8.99985 84.5059
9.04461 82.8503
9.08936 81.8603
9.13412 81.382
9.17888 81.2215
9.22365 81.6692
9.26841 81.1704
9.31318 82.0591
9.35794 82.6491
9.4027 82.5248
9.44749 83.0461
9.49226 83.4577
9.53703 84.6606
9.5818 87.0997
9.62657 90.8629
9.67134 95.5812
9.71614 92.373
9.76091 93.36
9.80569 96.2287
9.85047 99.3682
9.89525 117.733
9.94005 127.282
9.98484 166.698
10.0296 323.386
10.0744 810.202
10.1192 1750.16
10.164 1534.44
10.2088 403.162
10.2536 124.373
10.2984 110.848
10.3432 110.755
10.388 102.767
10.4328 114.973
10.4776 156.276
10.5224 287.632
10.5672 523.082
10.612 496.244
10.6568 199.155
10.7017 95.7908
10.7465 85.0781
10.7913 82.1802
10.8361 80.2483
10.8809 78.1351
10.9257 77.2974
10.9706 77.4349
11.0154 74.0279
11.0602 71.9265
11.105 71.1449
11.1499 73.9881
11.1947 78.8034
11.2395 71.7005
11.2844 68.7303
11.3292 66.5064
11.374 65.5879
11.4189 64.9908
11.4637 64.136
11.5086 64.3722
11.5534 66.3483
11.5983 64.4204
11.6431 62.996
11.688 62.2779
11.7328 62.1116
11.7777 62.0266
11.8225 61.7981
11.8674 61.6944
11.9122 61.9845
11.9571 61.9887
12.002 62.9688
12.0468 66.5872
12.0917 76.803
12.1366 101.434
12.1814 156.87
12.2263 207.497
12.2712 169.852
12.3161 93.9663
12.3609 68.2685
12.4058 63.8631
12.4507 63.3866
12.4956 63.6225
12.5405 63.9119
12.5853 64.8594
12.6302 70.5458
12.6751 74.4233
12.72 68.3955
12.7649 67.1101
12.8098 67.4975
12.8547 68.4252
12.8996 70.2993
12.9445 71.4377
12.9894 73.3912
13.0343 74.9006
13.0792 77.9328
13.1242 86.1837
13.1691 107.922
13.214 144.956
13.2589 242.281
13.3038 380.266
13.3487 414.726
13.3937 252.408
13.4386 121.772
13.4835 102.951
13.5285 117.281
13.5734 156.3
13.6183 251.919
13.6633 351.864
13.7082 328.156
13.7531 179.599
13.7981 95.9835
13.843 80.857
13.888 78.4812
13.9329 76.3417
13.9779 74.933
14.0228 73.4505
14.0678 72.1659
14.1127 71.6734
14.1577 71.3975
14.2027 70.7518
14.2476 69.76
14.2926 69.687
14.3376 70.2292
14.3825 69.4911
14.4275 68.0561
14.4725 67.7848
14.5175 68.0423
14.5624 68.4177
14.6074 69.9859
14.6524 70.1283
14.6974 69.5054
14.7424 70.8751
14.7874 77.1691
14.8324 86.9443
14.8774 109.451
14.9224 156.41
14.9674 211.076
15.0124 215.738
15.0574 145.5
15.1024 89.8832
15.1474 71.2781
15.1924 69.4525
15.2374 69.7241
15.2824 68.8722
15.3274 67.3206
15.3725 65.9869
15.4175 65.6826
15.4625 65.2379
15.5076 65.4905
15.5526 65.1415
15.5976 64.9755
15.6426 65.7883
15.6877 70.6794
15.7327 78.118
15.7778 93.9643
15.8228 127.774
15.8679 172.91
15.9129 190.816
15.958 151.0
16.003 93.5773
16.0481 67.0915
16.0931 63.1465
16.1382 61.4778
16.1833 59.9004
16.2283 58.2335
16.2734 57.7881
16.3185 57.7089
16.3636 57.9269
16.4086 56.9136
16.4537 55.6419
16.4988 54.865
16.5439 54.7801
16.589 54.4926
16.6341 54.2191
16.6792 53.7424
16.7243 54.3976
16.7694 54.0379
16.8145 54.1939
16.8596 54.5246
16.9047 55.636
16.9498 55.8298
16.9949 54.9264
17.04 55.0015
17.0851 56.2812
17.1302 57.8287
17.1754 60.8786
17.2205 66.3173
17.2656 74.6573
17.3108 81.8928
17.3559 80.7255
17.401 69.6028
17.4462 61.5157
17.4913 58.4174
17.5365 58.2511
17.5815 58.5913
17.6268 59.0035
17.6718 59.7315
17.7171 60.0237
17.7622 60.5053
17.8074 61.2456
17.8525 63.1266
17.8977 67.1508
17.9428 72.4012
17.9881 81.8945
18.0331 100.446
18.0784 122.215
18.1237 137.73
18.1688 127.212
18.214 101.782
18.2591 85.6459
18.3044 90.8065
18.3495 100.336
18.3948 103.65
18.4399 93.2995
18.4852 75.9419
18.5303 65.3047
18.5756 61.5689
18.6207 60.627
18.666 59.7438
18.7112 59.1235
18.7565 58.2833
18.8016 57.6842
18.8469 57.2725
18.892 57.0938
18.9374 56.6149
18.9825 56.1668
19.0278 56.3184
19.073 56.2897
19.1183 56.5906
19.1635 57.1764
19.2088 58.5718
19.254 61.4788
19.2993 66.2126
19.3447 72.3734
19.3898 75.3793
19.4352 70.7807
19.4804 62.263
19.5257 56.2426
19.5709 53.6943
19.6163 53.2512
19.6615 53.1506
19.7068 52.6493
19.752 52.8288
19.7974 53.0734
19.8426 53.6827
19.888 54.2598
19.9332 55.5602
19.9786 58.1242
20.0238 62.1449
20.0692 67.0569
20.1144 69.0517
20.1598 67.4314
20.205 62.8306
20.2504 61.9521
20.2957 63.7062
20.3411 64.7092
20.3863 63.2303
20.4318 57.57
20.477 52.9349
20.5224 50.8788
20.5677 50.2714
20.6131 49.6916
20.6586 49.1559
20.7038 48.9598
20.7493 48.5745
20.7945 48.4269
20.84 48.382
20.8853 48.1248
20.9307 48.0552
20.976 48.2028
21.0215 48.0517
21.0668 48.4436
21.1122 48.9812
21.1575 49.7619
21.203 50.3328
21.2483 50.8131
21.2938 50.6922
21.3391 49.4171
21.3846 48.4321
21.4299 47.8239
21.4754 47.7343
21.5207 48.0181
21.5662 48.1529
21.6116 48.5319
21.6571 49.3145
21.7024 50.3831
21.7479 52.0042
21.7933 55.0077
21.8388 58.4424
21.8843 62.2226
21.9297 63.6332
21.9752 62.1891
22.0206 58.6028
22.0661 56.0396
22.1115 55.5061
22.157 55.1131
22.2024 53.6606
22.248 50.7652
22.2933 49.4046
22.3389 48.6145
22.3843 48.4138
22.4299 48.266
22.4753 48.26
22.5208 48.1066
22.5662 47.9435
22.6118 48.0448
22.6572 48.3209
22.7028 48.5801
22.7483 49.1043
22.7939 49.7793
22.8393 51.4751
22.8849 53.8023
22.9303 55.7377
22.9759 56.929
23.0214 56.38
23.067 53.6969
23.1126 50.4916
23.1581 48.6006
23.2037 48.2958
23.2492 48.2742
23.2948 48.3477
23.3403 48.466
23.3859 49.1508
23.4314 50.2887
23.477 52.192
23.5225 54.6738
23.5682 56.5812
23.6137 56.9625
23.6593 54.7334
23.7048 50.9039
23.7505 47.8067
23.796 46.0524
23.8417 45.4874
23.8872 45.0264
23.9329 44.6615
23.9784 44.3361
24.0241 44.1508
24.0697 43.9554
24.1154 43.74
24.1609 43.5007
24.2066 43.4256
24.2522 43.2588
24.2979 42.8451
24.3434 42.9333
24.3892 42.6759
24.4349 42.7011
24.4805 42.6232
24.5262 42.6126
24.5718 42.4871
24.6175 42.4395
24.6631 42.2234
24.7089 42.0283
24.7545 41.9639
24.8002 41.7773
24.8458 41.8247
24.8916 41.5509
24.9372 41.5677
24.983 42.087
25.0286 42.4702
25.0744 42.8216
25.12 43.2906
25.1658 43.9607
25.2114 44.2031
25.2572 44.4067
25.3029 44.3192
25.3487 44.4153
25.3943 43.912
25.4402 43.0579
25.4858 41.9252
25.5316 40.9258
25.5773 40.4619
25.6231 40.558
25.669 40.0283
25.7147 40.1325
25.7605 40.0357
25.8062 40.0526
25.8521 40.0836
25.8977 40.1021
25.9436 40.4847
25.9893 40.5371
26.0352 41.118
26.0809 41.2388
26.1268 41.1899
26.1725 40.8223
26.2184 40.3401
26.2641 39.7977
26.31 39.6929
26.3557 39.742
26.4017 39.6843
26.4474 39.9889
26.4933 40.3328
26.5391 40.7991
26.585 41.2699
26.6308 41.7437
26.6767 41.634
26.7225 41.4753
26.7684 40.9778
26.8142 40.4088
26.8601 39.9197
26.9059 39.619
26.9519 38.9918
26.9979 38.71
27.0437 38.4486
27.0896 38.2858
27.1354 38.2517
27.1814 38.1575
27.2272 38.063
27.2732 38.0354
27.3191 37.9737
27.3651 38.0225
27.4109 38.0606
27.4569 38.1465
27.5027 38.0902
27.5488 38.2045
27.5946 37.7993
27.6407 37.7883
27.6865 37.6902
27.7326 37.3009
27.7784 37.4001
27.8245 37.3324
27.8703 37.5582
27.9164 37.9529
27.9623 37.9963
28.0084 38.3297
28.0543 38.6379
28.1003 38.6221
28.1462 38.3486
28.1923 37.9883
28.2384 37.4678
28.2843 37.132
28.3304 36.6987
28.3764 36.2507
28.4225 36.0291
28.4684 35.911
28.5145 35.5339
28.5605 35.6334
28.6066 35.2219
28.6526 35.2233
28.6987 35.3183
28.7447 34.9999
28.7908 35.0394
28.8368 35.1243
28.8829 34.9361
28.9289 34.9411
28.9751 34.8679
29.0211 34.5527
29.0673 34.3063
29.1133 34.2044
29.1595 34.0985
29.2055 34.0453
29.2517 33.8992
29.2977 33.9645
29.3439 33.824
29.3899 33.8693
29.4361 33.6679
29.4824 33.5763
29.5284 33.3693
29.5746 33.0513
29.6207 32.717
29.6669 32.6692
29.713 32.5922
29.7593 32.5947
29.8053 32.5275
29.8516 32.3952
29.8977 32.4714
29.9439 32.2552
29.99 32.2529
30.0363 32.1472
30.0824 32.2508
30.1287 32.0845
30.1748 32.1123
30.2211 32.1342
30.2673 31.9275
30.3136 31.9696
30.3597 31.9298
30.406 31.8335
30.4522 31.7472
30.4985 31.7749
30.5447 31.9202
30.591 31.7358
30.6372 31.8632
30.6835 31.927
30.7297 31.8509
30.7761 31.8104
30.8224 31.6517
30.8686 31.4846
30.915 31.2763
30.9612 31.2015
31.0076 30.9839
31.0538 30.8702
31.1002 30.8315
31.1464 30.6022
31.1928 30.5893
31.2391 30.635
31.2855 30.5992
31.3317 30.546
31.3781 30.5701
31.4244 30.5832
31.4708 30.3903
31.5171 30.4739
31.5636 30.3572
31.6098 30.2677
31.6563 30.0204
31.7026 29.8696
31.7491 29.76
31.7953 29.8029
31.8418 29.8909
31.8881 29.8132
31.9346 29.8333
31.9809 29.7115
32.0275 29.5893
32.074 29.5284
32.1203 29.3042
32.1668 29.2514
32.2132 29.1231
32.2597 28.9387
32.306 28.8445
32.3526 28.7026
32.399 28.531
32.4455 28.4631
32.4919 28.3706
32.5385 28.28
32.5848 28.1853
32.6314 28.1288
32.6778 28.1042
32.7244 27.8808
32.7708 27.8162
32.8174 27.8298
32.8638 27.6935
32.9104 27.7496
32.9569 27.7019
33.0035 27.5919
33.0499 27.585
33.0966 27.4638
33.143 27.5292
33.1897 27.4939
33.2361 27.2814
33.2828 27.3335
33.3293 27.1331
33.3759 27.0936
33.4226 26.9388
33.4691 26.822
33.5158 26.7166
33.5623 26.6069
33.609 26.5346
33.6555 26.316
33.7022 26.3062
33.7487 26.2154
33.7954 26.1744
33.842 26.0493
33.8887 26.0425
33.9353 25.9624
33.982 25.8456
34.0286 25.7658
34.0753 25.7791
34.1219 25.7175
34.1687 25.5926
34.2152 25.5517
34.262 25.415
34.3086 25.2647
34.3554 25.2681
34.402 25.1849
34.4488 24.9794
34.4954 24.9311
34.5422 24.9209
34.5889 24.8775
34.6357 24.7152
34.6825 24.6518
34.7292 24.5378
34.776 24.442
34.8227 24.4175
34.8695 24.4218
34.9162 24.3336
34.9631 24.1967
35.0098 24.3164
35.0566 24.0783
35.1033 24.0659
35.1502 24.0685
35.1969 24.0168
35.2438 23.9348
35.2906 23.8524
35.3375 23.8258
35.3842 23.6492
35.4311 23.7431
35.4779 23.7564
35.5248 23.6642
35.5716 23.5588
35.6185 23.464
35.6653 23.3585
35.7123 23.2846
35.759 23.2249
35.806 23.1278
35.8528 22.968
35.8998 22.9828
35.9468 22.852
35.9936 22.8711
36.0406 22.7649
36.0874 22.8114
36.1345 22.7296
36.1813 22.6058
36.2283 22.4775
36.2752 22.351
36.3222 22.3683
36.3691 22.3062
36.4161 22.268
36.463 22.1047
36.5101 22.1926
36.557 22.1482
36.6041 21.9759
36.651 21.9456
36.6981 21.9023
36.745 21.8378
36.7921 21.7262
36.839 21.6489
36.8861 21.548
36.9331 21.4772
36.9802 21.4947
37.0272 21.3607
37.0743 21.276
37.1213 21.2299
37.1684 21.1937
37.2154 21.1235
37.2626 21.0523
37.3098 20.9977
37.3568 20.8533
37.404 20.8518
37.451 20.8052
37.4982 20.7403
37.5452 20.6573
37.5924 20.5272
37.6395 20.6034
37.6867 20.5075
37.7337 20.3787
37.781 20.243
37.8281 20.272
37.8753 20.1845
37.9224 20.0988
37.9697 20.0957
38.0168 19.9788
38.064 19.9348
38.1111 19.8731
38.1584 19.8322
38.2056 19.7282
38.2529 19.7409
38.3 19.605
38.3473 19.6197
38.3945 19.4665
38.4418 19.4405
38.489 19.445
38.5363 19.3153
38.5837 19.2753
38.6309 19.154
38.6782 19.1494
38.7254 19.0137
38.7728 18.9742
38.82 18.8564
38.8674 18.8639
38.9146 18.7954
38.9621 18.7534
39.0093 18.7063
39.0567 18.6372
39.104 18.6034
39.1514 18.5323
39.1987 18.4945
39.2461 18.4182
39.2934 18.3532
39.3409 18.3015
39.3882 18.1947
39.4356 18.1409
39.483 18.1587
39.5304 18.0222
39.5778 17.9646
39.6253 18.009
39.6726 17.9065
39.7201 17.8416
39.7675 17.828
39.815 17.7931
39.8624 17.6615
39.9099 17.6533
39.9575 17.5363
40.0049 17.5295
40.0525 17.4114
40.0999 17.4537
40.1474 17.3236
40.1949 17.2815
40.2425 17.2246
40.2899 17.1198
40.3375 17.1437
40.385 17.0623
40.4326 16.9979
40.48 16.9453
40.5277 16.9282
40.5752 16.8269
40.6228 16.7059
40.6703 16.7229
40.718 16.6884
40.7655 16.7002
40.8132 16.5656
40.8607 16.5822
40.9084 16.5614
40.9559 16.4255
41.0036 16.4057
41.0512 16.3318
41.0989 16.2661
41.1465 16.1642
41.1942 16.1526
41.242 16.0839
41.2896 16.0434
41.3373 15.967
41.3849 15.9942
41.4327 15.8805
41.4803 15.8402
41.5281 15.7835
41.5758 15.7307
41.6236 15.7016
41.6712 15.6122
41.7191 15.5536
41.7667 15.5309
41.8146 15.5097
41.8622 15.4149
41.9101 15.3934
41.9578 15.2953
42.0057 15.2336
42.0534 15.2397
42.1013 15.1409
42.149 15.1183
42.1969 15.0296
42.2446 15.0243
42.2925 14.9766
42.3403 14.8994
42.3882 14.8638
42.436 14.841
42.4839 14.7503
42.5319 14.7784
42.5797 14.6842
42.6277 14.6133
42.6755 14.5589
42.7235 14.5236
42.7713 14.5168
42.8193 14.4413
42.8671 14.3872
42.9152 14.3129
42.963 14.252
43.0111 14.1838
43.0589 14.2106
43.107 14.1371
43.1549 14.057
43.2029 13.9918
43.2508 14.0229
43.2989 13.9447
43.3468 13.878
43.3949 13.7988
43.4429 13.7988
43.491 13.7239
43.5389 13.6747
43.5871 13.6197
43.635 13.5919
43.6832 13.5631
43.7312 13.5309
43.7793 13.4209
43.8273 13.407
43.8755 13.3831
43.9237 13.3538
43.9717 13.3034
44.0199 13.2641
44.068 13.238
44.1162 13.1447
44.1642 13.0868
44.2125 13.0571
44.2606 13.0099
44.3088 12.9608
44.3569 12.925
44.4052 12.9294
44.4533 12.8207
44.5016 12.711
44.5497 12.7182
44.598 12.6764
44.6461 12.6787
44.6945 12.5954
44.7426 12.5315
44.791 12.4771
44.8391 12.4375
44.8875 12.435
44.9357 12.349
44.984 12.3206
45.0322 12.3193
45.0806 12.2047
45.1288 12.2235
45.1773 12.1668
45.2257 12.1349
45.2739 12.0868
45.3224 12.0444
45.3706 11.9941
45.4191 11.898
45.4673 11.9391
45.5158 11.8646
45.5641 11.8036
45.6126 11.8123
45.6609 11.7413
45.7094 11.663
45.7577 11.619
45.8063 11.5982
45.8546 11.6077
45.9031 11.5077
45.9515 11.4879
46.0001 11.4016
46.0484 11.3697
46.097 11.3714
46.1454 11.3559
46.194 11.3293
46.2424 11.2455
46.291 11.2092
46.3395 11.1468
46.3881 11.0863
46.4365 11.1042
46.4852 11.0395
46.5337 10.9949
46.5823 10.9874
46.631 10.9429
46.6795 10.9012
46.7282 10.8506
46.7767 10.8272
46.8254 10.71
46.8739 10.738
46.9226 10.7391
46.9712 10.671
47.0199 10.5879
47.0685 10.5349
47.1173 10.531
47.1658 10.4734
47.2146 10.4628
47.2632 10.3942
47.312 10.3838
47.3606 10.2976
47.4095 10.2878
47.4581 10.2737
47.5069 10.2091
47.5556 10.1684
47.6044 10.1497
47.6531 10.0788
47.702 10.0815
47.7507 10.0199
47.7996 9.98517
47.8483 9.92668
47.8972 9.91829
47.9461 9.8874
47.9948 9.83046
48.0438 9.80501
48.0925 9.78031
48.1415 9.72717
48.1902 9.71758
48.2392 9.672
48.288 9.6235
48.337 9.61816
48.3858 9.59914
48.4348 9.5002
48.4837 9.51262
48.5327 9.48614
48.5815 9.42534
48.6306 9.39693
48.6795 9.34312
48.7285 9.33011
48.7774 9.2959
48.8265 9.29297
48.8754 9.1915
48.9245 9.19765
48.9734 9.13575
49.0226 9.14879
49.0715 9.10548
49.1206 9.04208
49.1696 9.00308
49.2188 8.95914
49.2679 8.97735
49.3169 8.91823
49.3661 8.86999
49.4151 8.84405
49.4643 8.81394
49.5134 8.77749
49.5626 8.71493
49.6117 8.70218
49.6609 8.68025
49.71 8.66669
49.7592 8.63725
49.8083 8.5604
49.8576 8.56639
49.9067 8.53228
49.956 8.47541
50.0052 8.45272
50.0545 8.44794
50.1036 8.38494
50.153 8.36122
50.2022 8.34154
50.2515 8.27037
50.3007 8.21199
50.3501 8.21097
50.3993 8.19312
50.4487 8.14676
50.498 8.11033
50.5474 8.07824
50.5966 8.04707
50.6461 8.04623
50.6955 7.99576
50.7448 7.98823
50.7943 7.93123
50.8436 7.89531
50.8931 7.88896
50.9424 7.84102
50.9919 7.79813
51.0413 7.79223
51.0908 7.78283
51.1402 7.72025
51.1897 7.69769
51.2391 7.6697
51.2887 7.63958
51.3381 7.58863
51.3877 7.59985
51.4371 7.54447
51.4867 7.50781
51.5362 7.51585
51.5858 7.45519
51.6353 7.38188
51.6849 7.37249
51.7344 7.37477
51.7841 7.3348
51.8336 7.32998
51.8833 7.25564
51.9328 7.25723
51.9826 7.20361
52.0323 7.17021
52.0818 7.15128
52.1316 7.10783
52.1812 7.09903
52.231 7.05424
52.2806 7.01027
52.3304 7.00042
52.38 6.96209
52.4298 6.94469
52.4794 6.89162
52.5293 6.90509
52.5789 6.85109
52.6288 6.83154
52.6785 6.76779
52.7284 6.77269
52.7781 6.7636
52.828 6.69562
52.8777 6.68764
52.9276 6.64559
52.9774 6.597
53.0273 6.58962
53.0771 6.58054
53.1271 6.55777
53.1769 6.53947
53.2269 6.47755
53.2767 6.49836
53.3267 6.44823
53.3765 6.4386
53.4266 6.38562
53.4766 6.35051
53.5265 6.29188
53.5765 6.31805
53.6264 6.26897
53.6765 6.2501
53.7264 6.21303
53.7765 6.17086
53.8265 6.12468
53.8766 6.12099
53.9266 6.12417
53.9767 6.07655
54.0267 6.06282
54.0769 6.02145
54.1269 5.99304
54.1771 5.91812
54.2271 5.91761
54.2773 5.88006
54.3274 5.8814
54.3776 5.84411
54.4277 5.81394
54.478 5.80857
54.528 5.71177
54.5783 5.70224
54.6285 5.68042
54.6788 5.56162
54.7289 5.57314
54.7792 5.52523
54.8296 5.48579
54.8798 5.4199
54.9301 5.43401
54.9803 5.40048
55.0307 5.38328
55.0809 5.3263
55.1314 5.28244
55.1816 5.22648
55.232 5.19285
55.2823 5.18253
55.3328 5.13817
55.383 5.07267
55.4335 5.0247
55.4838 4.9293
55.5344 4.9234
55.5847 4.88692
55.6352 4.77984
55.6856 4.79514
55.7361 4.72081