File: XRD/Ni3Fe_FD0326.xy
TT I
1.27165 7.78951
1.31627 6.85571
1.36089 6.78858
1.40551 6.27819
1.45013 6.64227
1.49476 6.18649
1.53938 5.86837
1.584 5.54884
1.62863 5.24307
1.67325 5.39843
1.71787 5.49698
1.7625 5.03675
1.80712 5.17034
1.85174 4.83589
1.89636 4.47323
1.94099 4.86458
1.98562 4.67269
2.03025 4.27368
2.07487 4.51743
2.11949 4.82366
2.16411 4.44992
2.20874 12.1863
2.25338 18.9559
2.298 5.17595
2.34263 4.87347
2.38725 4.8252
2.43188 5.50925
2.4765 5.4591
2.52115 5.50388
2.56577 6.17746
2.6104 7.1399
2.65503 6.83706
2.69965 6.79109
2.7443 7.41237
2.78893 7.26567
2.83356 7.89289
2.87818 8.04711
2.92281 8.61204
2.96744 8.61372
3.01209 9.85803
3.05672 10.9992
3.10135 12.0263
3.14599 12.7922
3.19062 13.8681
3.23527 15.231
3.2799 15.7203
3.32454 16.97
3.36917 17.7592
3.4138 18.8455
3.45844 19.9816
3.50309 21.4333
3.54773 21.8741
3.59237 23.785
3.637 81.1716
3.68164 53.8951
3.7263 26.4182
3.77094 26.3757
3.81558 26.8228
3.86022 27.8046
3.90486 29.2496
3.9495 30.1114
3.99416 31.2033
4.0388 32.5643
4.08344 34.4039
4.12809 35.6021
4.17273 37.5285
4.21738 43.2022
4.26204 216.257
4.30669 188.872
4.35133 48.4071
4.39598 45.5579
4.44063 53.7805
4.4853 63.5816
4.52995 52.059
4.5746 52.8645
4.61925 54.923
4.6639 56.8779
4.70855 59.604
4.75322 62.6768
4.79788 65.8764
4.84253 69.1457
4.88719 74.2803
4.93184 77.9419
4.97652 84.2693
5.02118 91.7227
5.06583 100.659
5.11049 115.08
5.15515 187.518
5.19981 540.718
5.24449 3480.42
5.28916 11443.5
5.33382 3622.68
5.37848 231.198
5.42315 140.104
5.46783 120.907
5.5125 111.878
5.55716 106.221
5.60183 102.789
5.6465 100.317
5.69117 97.9643
5.73586 96.0918
5.78053 96.6681
5.8252 95.9596
5.86988 97.6707
5.91455 101.637
5.95924 114.056
6.00392 287.26
6.0486 1200.84
6.09328 3994.0
6.13795 3493.56
6.18263 301.831
6.22733 101.097
6.27201 86.6559
6.3167 100.836
6.36138 81.4488
6.40606 71.2514
6.45075 69.8141
6.49545 66.7792
6.54014 65.6851
6.58483 64.3203
6.62952 64.1817
6.67421 89.8856
6.71892 132.346
6.76361 68.4638
6.8083 59.6661
6.853 59.0331
6.89769 58.4316
6.94239 57.7933
6.98711 57.3751
7.03181 56.945
7.07651 56.4336
7.12121 56.2414
7.16591 56.8674
7.21063 56.7698
7.25533 69.0199
7.30004 160.252
7.34475 87.1657
7.38945 57.4824
7.43416 55.7823
7.47889 55.5143
7.5236 55.7721
7.56831 56.8865
7.61303 58.0907
7.65774 58.2957
7.70247 57.5322
7.74719 57.4079
7.79191 58.2476
7.83663 58.2256
7.88135 59.5961
7.92607 60.2768
7.97081 61.5298
8.01553 62.667
8.06026 64.3293
8.10498 65.7225
8.14971 74.5124
8.19446 73.6333
8.23919 71.8389
8.28392 74.472
8.32865 76.9512
8.37339 81.4378
8.41812 88.676
8.46288 117.126
8.50761 206.514
8.55235 471.655
8.59709 1146.36
8.64183 2114.09
8.68658 1099.02
8.73134 188.475
8.77609 104.85
8.82083 96.2016
8.86558 92.7905
8.91033 92.6488
8.9551 93.0159
8.99985 87.4408
9.04461 85.9135
9.08936 85.421
9.13412 84.2796
9.17888 84.556
9.22365 85.3019
9.26841 84.3264
9.31318 85.2909
9.35794 85.7242
9.4027 85.589
9.44749 86.3709
9.49226 87.2357
9.53703 87.8038
9.5818 90.1795
9.62657 94.3011
9.67134 100.184
9.71614 96.2163
9.76091 97.1031
9.80569 99.567
9.85047 103.908
9.89525 124.987
9.94005 141.302
9.98484 215.991
10.0296 413.718
10.0744 833.285
10.1192 1621.42
10.164 1709.07
10.2088 495.775
10.2536 140.542
10.2984 117.53
10.3432 117.585
10.388 109.219
10.4328 131.315
10.4776 180.48
10.5224 286.975
10.5672 478.696
10.612 523.419
10.6568 223.606
10.7017 101.097
10.7465 89.2914
10.7913 85.7761
10.8361 83.5005
10.8809 81.0573
10.9257 80.3149
10.9706 80.5644
11.0154 76.8019
11.0602 74.8381
11.105 73.8896
11.1499 77.0703
11.1947 83.3886
11.2395 75.0834
11.2844 71.961
11.3292 68.9271
11.374 67.9775
11.4189 67.4568
11.4637 66.7481
11.5086 66.8707
11.5534 69.523
11.5983 67.0139
11.6431 65.5042
11.688 64.6696
11.7328 64.8065
11.7777 64.6106
11.8225 64.3061
11.8674 64.1556
11.9122 64.5895
11.9571 64.9074
12.002 66.2081
12.0468 72.0929
12.0917 85.4443
12.1366 107.907
12.1814 148.617
12.2263 201.029
12.2712 180.342
12.3161 102.133
12.3609 72.2332
12.4058 66.3929
12.4507 66.1846
12.4956 66.3511
12.5405 66.5173
12.5853 67.0841
12.6302 73.8698
12.6751 78.7638
12.72 71.6811
12.7649 69.6353
12.8098 70.2292
12.8547 71.7796
12.8996 73.4151
12.9445 74.6376
12.9894 76.2977
13.0343 78.4601
13.0792 82.3004
13.1242 95.637
13.1691 124.492
13.214 162.655
13.2589 239.695
13.3038 348.463
13.3487 429.681
13.3937 287.975
13.4386 133.867
13.4835 115.124
13.5285 133.222
13.5734 169.165
13.6183 238.262
13.6633 329.149
13.7082 345.302
13.7531 204.198
13.7981 103.428
13.843 84.6233
13.888 82.09
13.9329 79.2118
13.9779 78.0212
14.0228 76.3683
14.0678 75.0533
14.1127 74.7679
14.1577 74.531
14.2027 73.4977
14.2476 72.5961
14.2926 72.6628
14.3376 73.4507
14.3825 72.4594
14.4275 70.8688
14.4725 70.6583
14.5175 70.7864
14.5624 71.1664
14.6074 73.0337
14.6524 73.7597
14.6974 72.7879
14.7424 75.4516
14.7874 84.8204
14.8324 96.5356
14.8774 117.071
14.9224 151.764
14.9674 198.046
15.0124 220.256
15.0574 157.912
15.1024 95.4212
15.1474 74.8629
15.1924 72.4568
15.2374 72.8289
15.2824 72.0528
15.3274 70.0537
15.3725 69.1197
15.4175 68.3855
15.4625 68.1393
15.5076 68.2567
15.5526 68.1124
15.5976 68.0139
15.6426 69.9936
15.6877 77.439
15.7327 86.0525
15.7778 100.857
15.8228 126.723
15.8679 162.378
15.9129 193.637
15.958 167.66
16.003 104.485
16.0481 70.6804
16.0931 66.5233
16.1382 64.3497
16.1833 62.3566
16.2283 60.5442
16.2734 60.0432
16.3185 60.2395
16.3636 60.6355
16.4086 59.2176
16.4537 58.1044
16.4988 57.1909
16.5439 57.2524
16.589 57.0046
16.6341 56.5786
16.6792 56.3164
16.7243 56.7081
16.7694 56.5291
16.8145 56.2507
16.8596 56.9183
16.9047 58.1998
16.9498 58.3978
16.9949 57.3251
17.04 57.7962
17.0851 59.3865
17.1302 61.3071
17.1754 64.3432
17.2205 68.6925
17.2656 74.8726
17.3108 83.2271
17.3559 84.4469
17.401 74.5695
17.4462 64.398
17.4913 60.9562
17.5365 60.9598
17.5815 61.0135
17.6268 61.3651
17.6718 62.3022
17.7171 62.6779
17.7622 63.3081
17.8074 64.1262
17.8525 67.3054
17.8977 72.2873
17.9428 78.0453
17.9881 86.5461
18.0331 100.935
18.0784 118.819
18.1237 139.767
18.1688 139.033
18.214 112.132
18.2591 90.8581
18.3044 91.3971
18.3495 98.9226
18.3948 107.568
18.4399 100.492
18.4852 81.2305
18.5303 68.1753
18.5756 64.247
18.6207 63.015
18.666 62.3629
18.7112 61.7523
18.7565 60.7865
18.8016 60.3542
18.8469 59.9215
18.892 59.6254
18.9374 59.082
18.9825 59.0321
19.0278 58.6254
19.073 58.7794
19.1183 59.5402
19.1635 60.4295
19.2088 61.8183
19.254 64.1121
19.2993 67.8656
19.3447 72.5975
19.3898 77.6276
19.4352 75.1092
19.4804 66.0878
19.5257 59.0403
19.5709 55.9499
19.6163 55.6492
19.6615 55.3819
19.7068 54.9263
19.752 54.8907
19.7974 55.6224
19.8426 56.4135
19.888 57.0453
19.9332 58.3302
19.9786 60.7137
20.0238 63.6186
20.0692 67.9468
20.1144 71.2426
20.1598 71.0272
20.205 66.3099
20.2504 63.5948
20.2957 64.4096
20.3411 66.8524
20.3863 66.3824
20.4318 60.8746
20.477 55.4937
20.5224 53.2195
20.5677 52.4809
20.6131 52.0242
20.6586 51.1201
20.7038 51.1074
20.7493 50.7075
20.7945 50.523
20.84 50.3797
20.8853 50.1749
20.9307 50.0655
20.976 50.2662
21.0215 49.989
21.0668 50.569
21.1122 50.9755
21.1575 51.6662
21.203 52.0073
21.2483 52.8832
21.2938 53.3154
21.3391 51.9065
21.3846 50.7515
21.4299 50.0471
21.4754 49.9044
21.5207 49.8153
21.5662 50.4101
21.6116 51.0446
21.6571 51.71
21.7024 52.7635
21.7479 54.5342
21.7933 56.9566
21.8388 59.99
21.8843 63.3497
21.9297 66.4226
21.9752 65.8909
22.0206 62.0383
22.0661 58.003
22.1115 57.1622
22.157 57.5169
22.2024 56.26
22.248 53.2105
22.2933 51.6269
22.3389 50.6254
22.3843 50.5701
22.4299 50.3624
22.4753 50.3819
22.5208 50.0747
22.5662 50.0934
22.6118 50.2889
22.6572 50.4897
22.7028 51.1136
22.7483 51.6513
22.7939 52.079
22.8393 53.6931
22.8849 55.2807
22.9303 56.9215
22.9759 59.064
23.0214 59.1776
23.067 56.6144
23.1126 52.9768
23.1581 50.6784
23.2037 50.305
23.2492 50.5455
23.2948 50.6235
23.3403 50.9871
23.3859 51.5012
23.4314 52.483
23.477 53.8722
23.5225 55.5766
23.5682 57.715
23.6137 59.3432
23.6593 57.8205
23.7048 53.8085
23.7505 49.9798
23.796 48.2457
23.8417 47.4652
23.8872 46.9494
23.9329 46.6835
23.9784 46.2461
24.0241 45.9853
24.0697 45.8073
24.1154 45.3565
24.1609 45.3157
24.2066 45.1277
24.2522 44.9584
24.2979 44.7039
24.3434 44.6703
24.3892 44.6886
24.4349 44.4338
24.4805 44.1252
24.5262 44.3197
24.5718 44.2628
24.6175 44.3511
24.6631 44.1782
24.7089 43.7382
24.7545 43.7109
24.8002 43.4874
24.8458 43.6169
24.8916 43.4333
24.9372 43.5554
24.983 44.0379
25.0286 44.1923
25.0744 44.5435
25.12 45.0641
25.1658 45.526
25.2114 46.0541
25.2572 46.0328
25.3029 45.8838
25.3487 46.2334
25.3943 46.0958
25.4402 45.1708
25.4858 43.9741
25.5316 42.8304
25.5773 42.254
25.6231 42.031
25.669 41.7578
25.7147 41.8329
25.7605 41.6398
25.8062 41.7609
25.8521 41.9479
25.8977 41.7843
25.9436 42.0857
25.9893 42.1567
26.0352 42.5514
26.0809 42.5958
26.1268 42.877
26.1725 42.7311
26.2184 42.2555
26.2641 41.63
26.31 41.3906
26.3557 41.4898
26.4017 41.3163
26.4474 41.5606
26.4933 41.934
26.5391 42.3639
26.585 42.808
26.6308 43.095
26.6767 43.3922
26.7225 43.2657
26.7684 42.7374
26.8142 41.9998
26.8601 41.7219
26.9059 41.3751
26.9519 40.7521
26.9979 40.3561
27.0437 40.0641
27.0896 39.9146
27.1354 39.9155
27.1814 39.7732
27.2272 39.7152
27.2732 39.7039
27.3191 39.5445
27.3651 39.6073
27.4109 39.5488
27.4569 39.6604
27.5027 39.589
27.5488 39.748
27.5946 39.5892
27.6407 39.312
27.6865 39.369
27.7326 39.0185
27.7784 38.9704
27.8245 38.8024
27.8703 39.0214
27.9164 39.2765
27.9623 39.428
28.0084 39.8072
28.0543 40.1519
28.1003 40.2056
28.1462 40.0005
28.1923 39.526
28.2384 39.097
28.2843 38.8182
28.3304 38.3418
28.3764 37.8101
28.4225 37.5009
28.4684 37.3404
28.5145 37.1047
28.5605 37.0437
28.6066 36.587
28.6526 36.598
28.6987 36.6244
28.7447 36.5411
28.7908 36.4028
28.8368 36.4602
28.8829 36.3901
28.9289 36.3784
28.9751 36.1953
29.0211 36.0593
29.0673 35.761
29.1133 35.524
29.1595 35.4249
29.2055 35.3314
29.2517 35.3659
29.2977 35.2714
29.3439 35.2611
29.3899 35.265
29.4361 35.1501
29.4824 34.9809
29.5284 34.8069
29.5746 34.4702
29.6207 34.2247
29.6669 34.1117
29.713 33.9263
29.7593 33.8398
29.8053 33.9021
29.8516 33.7516
29.8977 33.7242
29.9439 33.5283
29.99 33.5368
30.0363 33.4939
30.0824 33.5165
30.1287 33.2973
30.1748 33.2603
30.2211 33.2878
30.2673 33.2033
30.3136 33.3874
30.3597 33.1973
30.406 33.2412
30.4522 33.0802
30.4985 33.073
30.5447 33.029
30.591 33.0911
30.6372 33.1533
30.6835 33.1128
30.7297 33.0722
30.7761 33.2333
30.8224 33.0191
30.8686 32.8397
30.915 32.6139
30.9612 32.4209
31.0076 32.1545
31.0538 32.0306
31.1002 32.1361
31.1464 31.8731
31.1928 31.9338
31.2391 31.8979
31.2855 31.7849
31.3317 31.7288
31.3781 31.8422
31.4244 31.8079
31.4708 31.7173
31.5171 31.723
31.5636 31.7095
31.6098 31.3836
31.6563 31.3279
31.7026 31.129
31.7491 31.0359
31.7953 31.0397
31.8418 31.0705
31.8881 30.9799
31.9346 30.9026
31.9809 30.9679
32.0275 30.8692
32.074 30.8202
32.1203 30.4441
32.1668 30.4653
32.2132 30.2454
32.2597 30.2078
32.306 30.0224
32.3526 29.8336
32.399 29.7833
32.4455 29.6162
32.4919 29.5335
32.5385 29.4488
32.5848 29.2699
32.6314 29.3565
32.6778 29.2864
32.7244 29.1908
32.7708 29.0579
32.8174 29.0149
32.8638 28.9045
32.9104 28.8964
32.9569 28.7979
33.0035 28.751
33.0499 28.6854
33.0966 28.6273
33.143 28.6359
33.1897 28.549
33.2361 28.492
33.2828 28.3314
33.3293 28.2402
33.3759 28.1874
33.4226 28.033
33.4691 27.8729
33.5158 27.8309
33.5623 27.7541
33.609 27.5972
33.6555 27.4396
33.7022 27.4185
33.7487 27.3467
33.7954 27.2342
33.842 27.1316
33.8887 27.0407
33.9353 27.0604
33.982 26.9674
34.0286 26.9103
34.0753 26.7514
34.1219 26.6699
34.1687 26.6503
34.2152 26.5804
34.262 26.4551
34.3086 26.2884
34.3554 26.2779
34.402 26.1483
34.4488 26.0889
34.4954 25.9479
34.5422 25.8578
34.5889 25.8435
34.6357 25.7886
34.6825 25.71
34.7292 25.589
34.776 25.4679
34.8227 25.4527
34.8695 25.3747
34.9162 25.3517
34.9631 25.1838
35.0098 25.2482
35.0566 25.1013
35.1033 25.0126
35.1502 25.0109
35.1969 24.933
35.2438 24.8829
35.2906 24.8376
35.3375 24.7426
35.3842 24.6889
35.4311 24.6911
35.4779 24.6775
35.5248 24.5818
35.5716 24.4419
35.6185 24.4624
35.6653 24.3592
35.7123 24.1716
35.759 24.1906
35.806 24.0652
35.8528 23.898
35.8998 23.9316
35.9468 23.8624
35.9936 23.7496
36.0406 23.6114
36.0874 23.6584
36.1345 23.5823
36.1813 23.4774
36.2283 23.3516
36.2752 23.2918
36.3222 23.2975
36.3691 23.2529
36.4161 23.0449
36.463 23.1174
36.5101 23.0398
36.557 23.0269
36.6041 22.7987
36.651 22.8222
36.6981 22.7561
36.745 22.7206
36.7921 22.6056
36.839 22.5042
36.8861 22.4703
36.9331 22.4503
36.9802 22.3043
37.0272 22.2315
37.0743 22.0829
37.1213 22.1014
37.1684 22.0281
37.2154 21.9613
37.2626 21.9301
37.3098 21.8898
37.3568 21.785
37.404 21.7397
37.451 21.6836
37.4982 21.569
37.5452 21.4351
37.5924 21.4546
37.6395 21.4524
37.6867 21.2906
37.7337 21.2358
37.781 21.1101
37.8281 21.0587
37.8753 21.0528
37.9224 20.8921
37.9697 20.874
38.0168 20.8034
38.064 20.7468
38.1111 20.7201
38.1584 20.5939
38.2056 20.5572
38.2529 20.5676
38.3 20.4277
38.3473 20.4244
38.3945 20.25
38.4418 20.2336
38.489 20.1432
38.5363 20.1244
38.5837 20.0287
38.6309 19.9771
38.6782 19.9063
38.7254 19.8826
38.7728 19.7703
38.82 19.7599
38.8674 19.688
38.9146 19.6708
38.9621 19.493
39.0093 19.4998
39.0567 19.4666
39.104 19.3127
39.1514 19.2614
39.1987 19.2326
39.2461 19.1977
39.2934 19.1697
39.3409 18.9507
39.3882 18.9644
39.4356 18.8569
39.483 18.8889
39.5304 18.7229
39.5778 18.7171
39.6253 18.6936
39.6726 18.5434
39.7201 18.5834
39.7675 18.4743
39.815 18.5288
39.8624 18.3576
39.9099 18.2714
39.9575 18.2852
40.0049 18.2089
40.0525 18.1547
40.0999 18.0795
40.1474 18.0363
40.1949 17.9284
40.2425 17.9792
40.2899 17.877
40.3375 17.8421
40.385 17.7587
40.4326 17.719
40.48 17.6511
40.5277 17.6188
40.5752 17.5307
40.6228 17.491
40.6703 17.3743
40.718 17.3548
40.7655 17.2933
40.8132 17.219
40.8607 17.2503
40.9084 17.1676
40.9559 17.1248
41.0036 17.049
41.0512 17.0088
41.0989 16.9632
41.1465 16.8866
41.1942 16.8449
41.242 16.7232
41.2896 16.721
41.3373 16.644
41.3849 16.5613
41.4327 16.5333
41.4803 16.4569
41.5281 16.4499
41.5758 16.3782
41.6236 16.2928
41.6712 16.2635
41.7191 16.2267
41.7667 16.163
41.8146 16.1255
41.8622 16.0614
41.9101 15.9569
41.9578 15.9039
42.0057 15.9286
42.0534 15.8355
42.1013 15.7466
42.149 15.7157
42.1969 15.6601
42.2446 15.5924
42.2925 15.6357
42.3403 15.5066
42.3882 15.4997
42.436 15.4181
42.4839 15.3375
42.5319 15.3255
42.5797 15.2376
42.6277 15.1796
42.6755 15.155
42.7235 15.0601
42.7713 15.0677
42.8193 15.0299
42.8671 14.9306
42.9152 14.9223
42.963 14.8379
43.0111 14.7988
43.0589 14.7351
43.107 14.6585
43.1549 14.6545
43.2029 14.6107
43.2508 14.5807
43.2989 14.4623
43.3468 14.4222
43.3949 14.4051
43.4429 14.3356
43.491 14.2945
43.5389 14.2088
43.5871 14.1952
43.635 14.1557
43.6832 14.0546
43.7312 14.0418
43.7793 13.993
43.8273 13.9526
43.8755 13.9009
43.9237 13.8518
43.9717 13.8106
44.0199 13.7431
44.068 13.7554
44.1162 13.6757
44.1642 13.6475
44.2125 13.5967
44.2606 13.5024
44.3088 13.4297
44.3569 13.4397
44.4052 13.4076
44.4533 13.3302
44.5016 13.3284
44.5497 13.2354
44.598 13.1781
44.6461 13.0986
44.6945 13.0997
44.7426 13.0262
44.791 12.9553
44.8391 13.0103
44.8875 12.9784
44.9357 12.856
44.984 12.7816
45.0322 12.7964
45.0806 12.7345
45.1288 12.7087
45.1773 12.6388
45.2257 12.5761
45.2739 12.5299
45.3224 12.4823
45.3706 12.5052
45.4191 12.4175
45.4673 12.447
45.5158 12.3048
45.5641 12.2669
45.6126 12.2236
45.6609 12.2245
45.7094 12.1485
45.7577 12.0994
45.8063 12.0342
45.8546 12.042
45.9031 11.9911
45.9515 11.9535
46.0001 11.9149
46.0484 11.869
46.097 11.8541
46.1454 11.8022
46.194 11.7428
46.2424 11.7052
46.291 11.6479
46.3395 11.6137
46.3881 11.5358
46.4365 11.5115
46.4852 11.4523
46.5337 11.4567
46.5823 11.3866
46.631 11.3583
46.6795 11.3157
46.7282 11.2833
46.7767 11.2202
46.8254 11.17
46.8739 11.1317
46.9226 11.0887
46.9712 11.0497
47.0199 11.0702
47.0685 10.9811
47.1173 10.9145
47.1658 10.9107
47.2146 10.8781
47.2632 10.8043
47.312 10.8155
47.3606 10.7359
47.4095 10.6617
47.4581 10.6665
47.5069 10.5938
47.5556 10.5394
47.6044 10.507
47.6531 10.4956
47.702 10.4619
47.7507 10.4198
47.7996 10.3949
47.8483 10.3752
47.8972 10.3337
47.9461 10.2827
47.9948 10.2535
48.0438 10.1773
48.0925 10.1666
48.1415 10.1433
48.1902 10.1013
48.2392 10.0985
48.288 10.0255
48.337 9.97488
48.3858 9.93905
48.4348 9.90431
48.4837 9.88167
48.5327 9.86602
48.5815 9.79669
48.6306 9.77067
48.6795 9.73684
48.7285 9.69911
48.7774 9.67041
48.8265 9.64394
48.8754 9.56436
48.9245 9.58783
48.9734 9.52937
49.0226 9.51798
49.0715 9.46302
49.1206 9.40614
49.1696 9.35184
49.2188 9.3548
49.2679 9.32951
49.3169 9.23353
49.3661 9.24206
49.4151 9.16815
49.4643 9.17449
49.5134 9.14717
49.5626 9.11585
49.6117 9.05623
49.6609 9.00524
49.71 8.94922
49.7592 8.9571
49.8083 8.8964
49.8576 8.91089
49.9067 8.85463
49.956 8.86133
50.0052 8.7845
50.0545 8.76641
50.1036 8.72023
50.153 8.67031
50.2022 8.61891
50.2515 8.60851
50.3007 8.55036
50.3501 8.53844
50.3993 8.51526
50.4487 8.49793
50.498 8.46979
50.5474 8.40072
50.5966 8.40065
50.6461 8.38832
50.6955 8.32235
50.7448 8.26397
50.7943 8.25308
50.8436 8.21122
50.8931 8.19991
50.9424 8.17593
50.9919 8.13596
51.0413 8.11071
51.0908 8.03185
51.1402 8.06107
51.1897 8.0223
51.2391 7.956
51.2887 7.94827
51.3381 7.86335
51.3877 7.89369
51.4371 7.83346
51.4867 7.81767
51.5362 7.77334
51.5858 7.73832
51.6353 7.66696
51.6849 7.62845
51.7344 7.63001
51.7841 7.62621
51.8336 7.60297
51.8833 7.5306
51.9328 7.51258
51.9826 7.48847
52.0323 7.49482
52.0818 7.46999
52.1316 7.33439
52.1812 7.35254
52.231 7.319
52.2806 7.29857
52.3304 7.25846
52.38 7.26357
52.4298 7.19598
52.4794 7.18465
52.5293 7.14634
52.5789 7.10626
52.6288 7.09261
52.6785 7.04879
52.7284 6.99106
52.7781 6.99182
52.828 6.97223
52.8777 6.92387
52.9276 6.91027
52.9774 6.88728
53.0273 6.89712
53.0771 6.82567
53.1271 6.78749
53.1769 6.77419
53.2269 6.77602
53.2767 6.73123
53.3267 6.72279
53.3765 6.65355
53.4266 6.6192
53.4766 6.58898
53.5265 6.55844
53.5765 6.55101
53.6264 6.52073
53.6765 6.46969
53.7264 6.47612
53.7765 6.42691
53.8265 6.40107
53.8766 6.36127
53.9266 6.30821
53.9767 6.33563
54.0267 6.30201
54.0769 6.23849
54.1269 6.25279
54.1771 6.18128
54.2271 6.21559
54.2773 6.14585
54.3274 6.13914
54.3776 6.0893
54.4277 6.03328
54.478 6.03827
54.528 5.93679
54.5783 5.88753
54.6285 5.87138
54.6788 5.87435
54.7289 5.81169
54.7792 5.78433
54.8296 5.6599
54.8798 5.64268
54.9301 5.62145
54.9803 5.66213
55.0307 5.61196
55.0809 5.53812
55.1314 5.52193
55.1816 5.40603
55.232 5.38932
55.2823 5.36543
55.3328 5.28987
55.383 5.24114
55.4335 5.19917
55.4838 5.12788
55.5344 5.10771
55.5847 5.04832
55.6352 5.03574
55.6856 4.93314
55.7361 4.9384