File: XRD/Ni3Fe_FD0083.xy
TT I
1.27165 10.2569
1.31627 8.77456
1.36089 9.28735
1.40551 8.83257
1.45013 7.60628
1.49476 7.88503
1.53938 7.13485
1.584 7.13783
1.62863 7.1715
1.67325 6.59724
1.71787 6.87088
1.7625 6.39259
1.80712 6.30971
1.85174 6.18702
1.89636 6.35446
1.94099 6.21098
1.98562 6.1363
2.03025 6.55853
2.07487 5.20895
2.11949 5.79244
2.16411 5.79954
2.20874 5.68587
2.25338 5.33393
2.298 5.45459
2.34263 5.29488
2.38725 4.71057
2.43188 4.7896
2.4765 4.63017
2.52115 4.85152
2.56577 4.63062
2.6104 5.01469
2.65503 4.67671
2.69965 5.36548
2.7443 5.67888
2.78893 6.4124
2.83356 7.08423
2.87818 7.50423
2.92281 8.67652
2.96744 9.09907
3.01209 10.2431
3.05672 11.4695
3.10135 12.6813
3.14599 13.5417
3.19062 14.3467
3.23527 15.026
3.2799 15.3191
3.32454 16.8295
3.36917 17.6617
3.4138 18.8248
3.45844 19.502
3.50309 20.1501
3.54773 20.8681
3.59237 21.415
3.637 22.6492
3.68164 22.684
3.7263 24.1708
3.77094 24.5256
3.81558 24.9275
3.86022 25.8044
3.90486 27.5117
3.9495 28.3146
3.99416 28.7786
4.0388 30.1467
4.08344 31.3936
4.12809 31.8689
4.17273 33.1649
4.21738 34.9877
4.26204 35.62
4.30669 37.1453
4.35133 39.0589
4.39598 40.3447
4.44063 42.2104
4.4853 44.3565
4.52995 46.7404
4.5746 48.2394
4.61925 51.1213
4.6639 53.1608
4.70855 56.089
4.75322 59.484
4.79788 62.5733
4.84253 66.282
4.88719 71.0106
4.93184 78.0406
4.97652 86.7457
5.02118 98.4178
5.06583 112.755
5.11049 135.897
5.15515 195.455
5.19981 758.001
5.24449 3512.63
5.28916 4958.16
5.33382 8127.69
5.37848 1170.71
5.42315 246.123
5.46783 158.747
5.5125 131.674
5.55716 119.982
5.60183 111.348
5.6465 106.598
5.69117 104.579
5.73586 102.037
5.78053 101.955
5.8252 103.483
5.86988 109.345
5.91455 121.285
5.95924 154.161
6.00392 382.678
6.0486 1365.57
6.09328 1581.35
6.13795 3529.32
6.18263 1263.83
6.22733 192.674
6.27201 108.709
6.3167 86.7129
6.36138 76.6743
6.40606 70.8239
6.45075 67.2618
6.49545 64.7638
6.54014 62.2122
6.58483 60.4582
6.62952 59.0312
6.67421 57.473
6.71892 56.3336
6.76361 55.3739
6.8083 54.4415
6.853 53.555
6.89769 53.3381
6.94239 53.0802
6.98711 52.1722
7.03181 52.1427
7.07651 51.8265
7.12121 51.3551
7.16591 51.4007
7.21063 50.6606
7.25533 50.7489
7.30004 50.8833
7.34475 50.8478
7.38945 51.1193
7.43416 50.7454
7.47889 52.4614
7.5236 68.2654
7.56831 116.74
7.61303 73.6817
7.65774 54.2088
7.70247 53.2368
7.74719 53.2259
7.79191 53.4388
7.83663 53.5265
7.88135 54.8163
7.92607 55.5784
7.97081 56.6243
8.01553 57.6223
8.06026 59.1462
8.10498 60.3093
8.14971 62.1711
8.19446 64.0116
8.23919 66.3609
8.28392 69.5833
8.32865 72.4073
8.37339 78.1753
8.41812 85.141
8.46288 102.117
8.50761 201.956
8.55235 643.624
8.59709 609.966
8.64183 795.409
8.68658 1799.05
8.73134 771.127
8.77609 155.227
8.82083 106.717
8.86558 94.5939
8.91033 88.7641
8.9551 85.4675
8.99985 83.7336
9.04461 82.4328
9.08936 81.6322
9.13412 81.6976
9.17888 83.3111
9.22365 109.473
9.26841 185.704
9.31318 127.984
9.35794 85.5327
9.4027 82.0906
9.44749 82.0914
9.49226 82.4315
9.53703 82.8947
9.5818 84.4247
9.62657 84.8917
9.67134 86.578
9.71614 88.8608
9.76091 91.3556
9.80569 94.0016
9.85047 97.8975
9.89525 104.5
9.94005 119.497
9.98484 211.189
10.0296 589.726
10.0744 580.263
10.1192 510.679
10.164 1210.13
10.2088 1444.48
10.2536 385.428
10.2984 133.107
10.3432 112.68
10.388 107.014
10.4328 127.343
10.4776 229.013
10.5224 220.952
10.5672 192.535
10.612 352.184
10.6568 485.8
10.7017 215.313
10.7465 108.79
10.7913 85.5027
10.8361 79.9845
10.8809 76.765
10.9257 74.3498
10.9706 72.7591
11.0154 71.0596
11.0602 69.7701
11.105 68.0211
11.1499 66.9226
11.1947 65.6916
11.2395 64.5499
11.2844 64.1691
11.3292 63.391
11.374 62.6303
11.4189 62.1068
11.4637 61.5175
11.5086 60.5336
11.5534 60.4361
11.5983 60.0308
11.6431 60.2169
11.688 59.7644
11.7328 59.9262
11.7777 59.6216
11.8225 59.5332
11.8674 60.3349
11.9122 64.4508
11.9571 82.5186
12.002 83.5096
12.0468 73.3779
12.0917 93.0099
12.1366 102.439
12.1814 90.3564
12.2263 99.8197
12.2712 160.727
12.3161 174.67
12.3609 92.6882
12.4058 65.3138
12.4507 62.452
12.4956 61.7734
12.5405 61.2861
12.5853 61.4413
12.6302 61.684
12.6751 62.0655
12.72 62.8938
12.7649 63.8146
12.8098 64.4545
12.8547 65.6479
12.8996 67.2569
12.9445 68.7899
12.9894 70.7452
13.0343 72.9385
13.0792 79.1014
13.1242 91.279
13.1691 141.595
13.214 189.887
13.2589 161.76
13.3038 150.075
13.3487 218.249
13.3937 384.627
13.4386 310.972
13.4835 150.211
13.5285 166.207
13.5734 178.355
13.6183 143.18
13.6633 144.565
13.7082 230.476
13.7531 351.891
13.7981 228.889
13.843 101.042
13.888 80.9449
13.9329 76.8681
13.9779 74.7157
14.0228 73.3055
14.0678 71.8875
14.1127 74.2552
14.1577 86.3557
14.2027 85.7346
14.2476 73.7824
14.2926 68.5857
14.3376 67.342
14.3825 66.7432
14.4275 66.3094
14.4725 66.162
14.5175 66.2212
14.5624 66.0082
14.6074 66.6231
14.6524 67.0345
14.6974 67.6809
14.7424 69.8562
14.7874 80.7084
14.8324 109.932
14.8774 115.39
14.9224 100.042
14.9674 99.9073
15.0124 130.69
15.0574 202.913
15.1024 186.532
15.1474 100.741
15.1924 73.727
15.2374 68.4131
15.2824 66.2816
15.3274 65.3721
15.3725 64.5657
15.4175 64.055
15.4625 63.774
15.5076 63.2988
15.5526 63.39
15.5976 63.76
15.6426 65.3129
15.6877 73.8528
15.7327 97.3894
15.7778 105.051
15.8228 91.5145
15.8679 87.3575
15.9129 101.584
15.958 157.463
16.003 186.694
16.0481 122.426
16.0931 77.2906
16.1382 64.8352
16.1833 59.9413
16.2283 57.6117
16.2734 56.6412
16.3185 55.8137
16.3636 55.2292
16.4086 54.2427
16.4537 53.9932
16.4988 53.2842
16.5439 53.3332
16.589 52.9622
16.6341 52.8236
16.6792 52.3054
16.7243 52.4344
16.7694 52.2286
16.8145 52.2552
16.8596 52.5278
16.9047 53.6339
16.9498 55.4401
16.9949 55.1527
17.04 54.3639
17.0851 55.4858
17.1302 60.0276
17.1754 62.8813
17.2205 60.7009
17.2656 59.1921
17.3108 60.8494
17.3559 66.8876
17.401 79.5277
17.4462 78.2479
17.4913 64.1432
17.5365 57.8797
17.5815 57.135
17.6268 57.1915
17.6718 57.7075
17.7171 58.2277
17.7622 60.4548
17.8074 61.7949
17.8525 63.1935
17.8977 71.3858
17.9428 84.2304
17.9881 84.7268
18.0331 77.838
18.0784 76.283
18.1237 84.3158
18.1688 113.812
18.214 150.911
18.2591 133.172
18.3044 89.9043
18.3495 74.3261
18.3948 76.452
18.4399 90.8781
18.4852 103.482
18.5303 88.4488
18.5756 69.0523
18.6207 62.4726
18.666 59.9976
18.7112 58.4533
18.7565 57.6261
18.8016 56.9633
18.8469 56.3761
18.892 56.0567
18.9374 55.568
18.9825 55.1236
19.0278 54.951
19.073 55.1284
19.1183 55.7656
19.1635 58.5906
19.2088 60.5162
19.254 59.5702
19.2993 59.0769
19.3447 60.1697
19.3898 61.786
19.4352 66.1225
19.4804 73.1177
19.5257 69.9007
19.5709 58.8671
19.6163 53.5276
19.6615 52.3396
19.7068 51.6394
19.752 51.6655
19.7974 51.7971
19.8426 53.036
19.888 55.5245
19.9332 56.5681
19.9786 55.5962
20.0238 54.2959
20.0692 55.6256
20.1144 59.07
20.1598 65.4667
20.205 70.3378
20.2504 67.0632
20.2957 58.6033
20.3411 55.2105
20.3863 57.8132
20.4318 63.2881
20.477 62.8571
20.5224 55.5074
20.5677 50.342
20.6131 48.8205
20.6586 48.4874
20.7038 48.2089
20.7493 48.0062
20.7945 48.5878
20.84 48.265
20.8853 47.6643
20.9307 47.0991
20.976 47.3369
21.0215 47.4958
21.0668 47.8878
21.1122 47.6664
21.1575 47.2029
21.203 47.1063
21.2483 47.197
21.2938 48.3311
21.3391 49.3264
21.3846 49.8981
21.4299 48.7875
21.4754 47.4491
21.5207 47.339
21.5662 47.3807
21.6116 47.7894
21.6571 49.879
21.7024 51.8237
21.7479 52.1736
21.7933 50.7897
21.8388 50.8005
21.8843 52.3434
21.9297 54.2733
21.9752 58.5615
22.0206 64.1733
22.0661 62.9374
22.1115 56.3749
22.157 52.7932
22.2024 53.6155
22.248 55.0775
22.2933 53.5943
22.3389 49.8773
22.3843 47.9682
22.4299 47.2924
22.4753 47.3069
22.5208 47.1612
22.5662 47.1632
22.6118 47.4167
22.6572 47.5595
22.7028 48.909
22.7483 50.157
22.7939 50.5145
22.8393 49.7691
22.8849 49.1277
22.9303 49.0036
22.9759 49.6322
23.0214 51.3326
23.067 55.365
23.1126 57.1613
23.1581 54.3771
23.2037 49.8692
23.2492 48.2159
23.2948 48.3447
23.3403 49.7443
23.3859 50.891
23.4314 50.1412
23.477 49.0486
23.5225 48.4276
23.5682 48.4219
23.6137 49.6389
23.6593 52.3791
23.7048 56.5883
23.7505 56.2411
23.796 51.0456
23.8417 46.5754
23.8872 45.1086
23.9329 44.4474
23.9784 43.9076
24.0241 43.7349
24.0697 43.4328
24.1154 43.1115
24.1609 42.9062
24.2066 42.7073
24.2522 42.4561
24.2979 42.3979
24.3434 42.2599
24.3892 41.8727
24.4349 41.7056
24.4805 41.6819
24.5262 41.6501
24.5718 41.373
24.6175 41.4601
24.6631 41.956
24.7089 41.8126
24.7545 41.8134
24.8002 41.3398
24.8458 41.2805
24.8916 41.1792
24.9372 41.3761
24.983 41.4085
25.0286 41.3813
25.0744 41.6938
25.12 41.8858
25.1658 41.9979
25.2114 41.9708
25.2572 42.5517
25.3029 42.9578
25.3487 42.869
25.3943 42.3899
25.4402 42.8905
25.4858 43.9901
25.5316 43.2233
25.5773 41.4706
25.6231 40.2301
25.669 39.549
25.7147 39.4831
25.7605 39.516
25.8062 39.7592
25.8521 39.9143
25.8977 39.667
25.9436 39.5328
25.9893 39.3416
26.0352 39.3505
26.0809 39.1834
26.1268 39.4657
26.1725 39.9877
26.2184 40.7267
26.2641 40.921
26.31 40.2978
26.3557 39.8458
26.4017 39.6168
26.4474 39.5295
26.4933 39.3503
26.5391 39.2183
26.585 39.29
26.6308 39.278
26.6767 39.5593
26.7225 40.1808
26.7684 41.2148
26.8142 41.2059
26.8601 40.495
26.9059 39.7214
26.9519 39.5148
26.9979 39.4435
27.0437 38.719
27.0896 38.217
27.1354 37.9138
27.1814 37.7265
27.2272 37.7896
27.2732 37.6982
27.3191 37.3499
27.3651 37.4326
27.4109 37.2597
27.4569 37.2326
27.5027 37.2227
27.5488 37.3273
27.5946 37.2528
27.6407 37.4049
27.6865 37.7687
27.7326 37.6781
27.7784 37.5184
27.8245 37.1018
27.8703 36.9189
27.9164 37.0016
27.9623 36.8461
28.0084 37.0039
28.0543 37.0947
28.1003 37.0265
28.1462 37.4548
28.1923 37.9408
28.2384 37.9216
28.2843 37.3001
28.3304 37.0291
28.3764 36.6655
28.4225 36.4288
28.4684 35.9679
28.5145 35.2823
28.5605 35.1529
28.6066 35.0535
28.6526 35.0879
28.6987 34.7574
28.7447 34.5046
28.7908 34.3694
28.8368 34.2988
28.8829 34.2073
28.9289 34.1896
28.9751 34.065
29.0211 34.1221
29.0673 34.1369
29.1133 34.1209
29.1595 33.7625
29.2055 33.3411
29.2517 33.2812
29.2977 33.1958
29.3439 32.9218
29.3899 33.0387
29.4361 32.8624
29.4824 32.8434
29.5284 33.0556
29.5746 32.9974
29.6207 32.7287
29.6669 32.3638
29.713 31.9881
29.7593 31.9224
29.8053 31.9444
29.8516 31.9086
29.8977 31.9577
29.9439 31.7249
29.99 31.5887
30.0363 31.5285
30.0824 31.5843
30.1287 31.4543
30.1748 31.3752
30.2211 31.3036
30.2673 31.1614
30.3136 31.4082
30.3597 31.4253
30.406 31.5032
30.4522 31.4104
30.4985 31.1692
30.5447 31.2167
30.591 31.0209
30.6372 30.9807
30.6835 30.8553
30.7297 30.9323
30.7761 30.9873
30.8224 31.1688
30.8686 31.2026
30.915 31.086
30.9612 30.9192
31.0076 30.7847
31.0538 30.6832
31.1002 30.5035
31.1464 30.1893
31.1928 30.0877
31.2391 30.1175
31.2855 29.9369
31.3317 29.9043
31.3781 29.9344
31.4244 29.8669
31.4708 29.8131
31.5171 29.7306
31.5636 29.8528
31.6098 29.834
31.6563 29.9247
31.7026 29.808
31.7491 29.4125
31.7953 29.2884
31.8418 29.2628
31.8881 29.2022
31.9346 29.0596
31.9809 29.0476
32.0275 28.9855
32.074 29.0688
32.1203 28.9587
32.1668 29.0085
32.2132 28.774
32.2597 28.5628
32.306 28.5675
32.3526 28.3007
32.399 28.1701
32.4455 28.0707
32.4919 28.0298
32.5385 27.84
32.5848 27.807
32.6314 27.7137
32.6778 27.6721
32.7244 27.5486
32.7708 27.3539
32.8174 27.3748
32.8638 27.2989
32.9104 27.2396
32.9569 27.1986
33.0035 27.0721
33.0499 26.9733
33.0966 26.9437
33.143 26.8448
33.1897 26.806
33.2361 26.6648
33.2828 26.725
33.3293 26.5995
33.3759 26.6416
33.4226 26.6167
33.4691 26.5379
33.5158 26.5025
33.5623 26.342
33.609 26.0602
33.6555 25.9936
33.7022 25.7989
33.7487 25.7428
33.7954 25.718
33.842 25.5348
33.8887 25.4721
33.9353 25.534
33.982 25.4221
34.0286 25.3135
34.0753 25.3584
34.1219 25.2319
34.1687 25.0805
34.2152 25.008
34.262 24.8534
34.3086 24.7973
34.3554 24.8001
34.402 24.5669
34.4488 24.5913
34.4954 24.6096
34.5422 24.4799
34.5889 24.3343
34.6357 24.2371
34.6825 24.2488
34.7292 24.0912
34.776 23.9334
34.8227 23.9629
34.8695 23.9323
34.9162 23.8369
34.9631 23.7156
35.0098 23.6901
35.0566 23.6218
35.1033 23.5931
35.1502 23.5835
35.1969 23.5358
35.2438 23.43
35.2906 23.3307
35.3375 23.2577
35.3842 23.2613
35.4311 23.2207
35.4779 23.1585
35.5248 23.1439
35.5716 23.0577
35.6185 22.9622
35.6653 22.9809
35.7123 22.9476
35.759 22.7967
35.806 22.7346
35.8528 22.6068
35.8998 22.5086
35.9468 22.4437
35.9936 22.3693
36.0406 22.2687
36.0874 22.2717
36.1345 22.2192
36.1813 22.2184
36.2283 22.1197
36.2752 21.9633
36.3222 22.0169
36.3691 21.8484
36.4161 21.7749
36.463 21.7402
36.5101 21.6596
36.557 21.5648
36.6041 21.5259
36.651 21.5748
36.6981 21.4591
36.745 21.4069
36.7921 21.3861
36.839 21.3562
36.8861 21.2412
36.9331 21.198
36.9802 21.0994
37.0272 20.9479
37.0743 20.9156
37.1213 20.782
37.1684 20.7864
37.2154 20.7073
37.2626 20.6748
37.3098 20.5982
37.3568 20.5763
37.404 20.5034
37.451 20.4152
37.4982 20.3614
37.5452 20.1477
37.5924 20.1145
37.6395 20.1723
37.6867 20.1556
37.7337 20.0022
37.781 19.9015
37.8281 19.8949
37.8753 19.8065
37.9224 19.7843
37.9697 19.7164
38.0168 19.6308
38.064 19.6214
38.1111 19.5839
38.1584 19.4578
38.2056 19.373
38.2529 19.3319
38.3 19.2683
38.3473 19.2731
38.3945 19.0988
38.4418 19.1281
38.489 19.0052
38.5363 18.9805
38.5837 18.9158
38.6309 18.8776
38.6782 18.736
38.7254 18.7022
38.7728 18.6777
38.82 18.6255
38.8674 18.5576
38.9146 18.5482
38.9621 18.4399
39.0093 18.3322
39.0567 18.3469
39.104 18.2552
39.1514 18.2548
39.1987 18.1818
39.2461 18.1023
39.2934 18.0847
39.3409 17.9204
39.3882 17.8752
39.4356 17.8537
39.483 17.8206
39.5304 17.6627
39.5778 17.6734
39.6253 17.5808
39.6726 17.6238
39.7201 17.5253
39.7675 17.4444
39.815 17.4531
39.8624 17.3472
39.9099 17.3832
39.9575 17.1948
40.0049 17.2813
40.0525 17.1477
40.0999 17.18
40.1474 17.0489
40.1949 16.9672
40.2425 16.9321
40.2899 16.8198
40.3375 16.799
40.385 16.7831
40.4326 16.7542
40.48 16.6214
40.5277 16.6475
40.5752 16.5234
40.6228 16.5111
40.6703 16.4529
40.718 16.3878
40.7655 16.3912
40.8132 16.3229
40.8607 16.2938
40.9084 16.2151
40.9559 16.205
41.0036 16.0978
41.0512 16.091
41.0989 16.0154
41.1465 15.9971
41.1942 15.9209
41.242 15.7946
41.2896 15.7572
41.3373 15.7324
41.3849 15.7093
41.4327 15.628
41.4803 15.5716
41.5281 15.4817
41.5758 15.4824
41.6236 15.393
41.6712 15.3328
41.7191 15.3158
41.7667 15.2452
41.8146 15.2047
41.8622 15.155
41.9101 15.0989
41.9578 15.018
42.0057 15.0277
42.0534 14.9817
42.1013 14.9669
42.149 14.8298
42.1969 14.7776
42.2446 14.8022
42.2925 14.6788
42.3403 14.6515
42.3882 14.62
42.436 14.5685
42.4839 14.5076
42.5319 14.4934
42.5797 14.4233
42.6277 14.3922
42.6755 14.3012
42.7235 14.2281
42.7713 14.2334
42.8193 14.2187
42.8671 14.1206
42.9152 14.1106
42.963 14.0235
43.0111 13.9308
43.0589 13.9556
43.107 13.8786
43.1549 13.8732
43.2029 13.7887
43.2508 13.7105
43.2989 13.7414
43.3468 13.6722
43.3949 13.6068
43.4429 13.5482
43.491 13.5479
43.5389 13.4566
43.5871 13.4187
43.635 13.3595
43.6832 13.3259
43.7312 13.2905
43.7793 13.1977
43.8273 13.2296
43.8755 13.1606
43.9237 13.0799
43.9717 13.0239
44.0199 13.0201
44.068 13.0134
44.1162 12.934
44.1642 12.9227
44.2125 12.8093
44.2606 12.8237
44.3088 12.7052
44.3569 12.6859
44.4052 12.6334
44.4533 12.5778
44.5016 12.5602
44.5497 12.5088
44.598 12.4858
44.6461 12.4402
44.6945 12.3782
44.7426 12.3621
44.791 12.3071
44.8391 12.289
44.8875 12.2277
44.9357 12.1582
44.984 12.1759
45.0322 12.1016
45.0806 12.0185
45.1288 11.9961
45.1773 11.9571
45.2257 11.8881
45.2739 11.8513
45.3224 11.8399
45.3706 11.784
45.4191 11.7285
45.4673 11.7045
45.5158 11.694
45.5641 11.6123
45.6126 11.5971
45.6609 11.5369
45.7094 11.434
45.7577 11.4402
45.8063 11.4114
45.8546 11.4115
45.9031 11.3071
45.9515 11.3232
46.0001 11.277
46.0484 11.1898
46.097 11.1539
46.1454 11.1383
46.194 11.1236
46.2424 11.0581
46.291 11.0013
46.3395 10.9605
46.3881 10.9147
46.4365 10.9093
46.4852 10.8711
46.5337 10.8158
46.5823 10.7861
46.631 10.7316
46.6795 10.6922
46.7282 10.642
46.7767 10.613
46.8254 10.5825
46.8739 10.555
46.9226 10.4648
46.9712 10.449
47.0199 10.3965
47.0685 10.3763
47.1173 10.3222
47.1658 10.3272
47.2146 10.2868
47.2632 10.2011
47.312 10.1795
47.3606 10.1632
47.4095 10.1175
47.4581 10.091
47.5069 9.97311
47.5556 10.0444
47.6044 9.93313
47.6531 9.92033
47.702 9.86891
47.7507 9.87492
47.7996 9.85228
47.8483 9.79683
47.8972 9.73904
47.9461 9.71655
47.9948 9.65206
48.0438 9.62075
48.0925 9.63326
48.1415 9.59021
48.1902 9.54957
48.2392 9.52235
48.288 9.49685
48.337 9.43098
48.3858 9.43142
48.4348 9.37088
48.4837 9.33755
48.5327 9.35155
48.5815 9.27675
48.6306 9.25765
48.6795 9.23476
48.7285 9.18302
48.7774 9.15883
48.8265 9.15838
48.8754 9.09
48.9245 9.09172
48.9734 9.02561
49.0226 9.01664
49.0715 8.9508
49.1206 8.92067
49.1696 8.85911
49.2188 8.85507
49.2679 8.78181
49.3169 8.79828
49.3661 8.71896
49.4151 8.67714
49.4643 8.68435
49.5134 8.65711
49.5626 8.5832
49.6117 8.56576
49.6609 8.55979
49.71 8.51231
49.7592 8.5095
49.8083 8.43175
49.8576 8.44885
49.9067 8.37389
49.956 8.36868
50.0052 8.34813
50.0545 8.30941
50.1036 8.27279
50.153 8.25341
50.2022 8.20451
50.2515 8.15109
50.3007 8.14628
50.3501 8.09853
50.3993 8.08139
50.4487 8.01756
50.498 7.99511
50.5474 7.96434
50.5966 7.96624
50.6461 7.91991
50.6955 7.88672
50.7448 7.85985
50.7943 7.83564
50.8436 7.78864
50.8931 7.80353
50.9424 7.77073
50.9919 7.72435
51.0413 7.69005
51.0908 7.65755
51.1402 7.63716
51.1897 7.5839
51.2391 7.5805
51.2887 7.49567
51.3381 7.51329
51.3877 7.47051
51.4371 7.41038
51.4867 7.4115
51.5362 7.37241
51.5858 7.36313
51.6353 7.2747
51.6849 7.30073
51.7344 7.25203
51.7841 7.2319
51.8336 7.20394
51.8833 7.16887
51.9328 7.13748
51.9826 7.0803
52.0323 7.04635
52.0818 7.04719
52.1316 7.03113
52.1812 6.99657
52.231 6.95553
52.2806 6.92473
52.3304 6.922
52.38 6.89405
52.4298 6.8155
52.4794 6.77636
52.5293 6.80903
52.5789 6.77765
52.6288 6.76309
52.6785 6.70817
52.7284 6.67274
52.7781 6.63348
52.828 6.65034
52.8777 6.57466
52.9276 6.5801
52.9774 6.53078
53.0273 6.53166
53.0771 6.5054
53.1271 6.47562
53.1769 6.4406
53.2269 6.38356
53.2767 6.35588
53.3267 6.32235
53.3765 6.31744
53.4266 6.31113
53.4766 6.26175
53.5265 6.24523
53.5765 6.19521
53.6264 6.2355
53.6765 6.19365
53.7264 6.12735
53.7765 6.09201
53.8265 6.06389
53.8766 6.00384
53.9266 5.95567
53.9767 6.00548
54.0267 5.94603
54.0769 5.9412
54.1269 5.88976
54.1771 5.85018
54.2271 5.85027
54.2773 5.76705
54.3274 5.75492
54.3776 5.74358
54.4277 5.66651
54.478 5.62174
54.528 5.55746
54.5783 5.51467
54.6285 5.44845
54.6788 5.48053
54.7289 5.39725
54.7792 5.36635
54.8296 5.30984
54.8798 5.26072
54.9301 5.21083
54.9803 5.20617
55.0307 5.18746
55.0809 5.15109
55.1314 5.08031
55.1816 4.97233
55.232 5.00275
55.2823 4.96858
55.3328 4.89566
55.383 4.81861
55.4335 4.79352
55.4838 4.67421
55.5344 4.7083
55.5847 4.64356
55.6352 4.65412
55.6856 4.59609
55.7361 4.62598