File: XRD/Ni3Fe_FD0943.xy
TT I
1.27165 7.37679
1.31627 6.80217
1.36089 6.81473
1.40551 5.84195
1.45013 6.48075
1.49476 5.76496
1.53938 5.51282
1.584 6.00357
1.62863 5.0952
1.67325 4.96179
1.71787 5.41284
1.7625 4.5118
1.80712 4.73732
1.85174 4.5029
1.89636 5.37952
1.94099 5.19354
1.98562 4.82146
2.03025 4.30789
2.07487 4.70458
2.11949 4.5413
2.16411 5.19988
2.20874 7.77999
2.25338 9.7924
2.298 5.46087
2.34263 5.93382
2.38725 6.88093
2.43188 7.12698
2.4765 7.2881
2.52115 7.72531
2.56577 7.59264
2.6104 8.39407
2.65503 8.18871
2.69965 8.30103
2.7443 9.16273
2.78893 8.02012
2.83356 8.79765
2.87818 8.97411
2.92281 9.36182
2.96744 9.57511
3.01209 10.5773
3.05672 11.2839
3.10135 12.2928
3.14599 13.1507
3.19062 14.8098
3.23527 15.3554
3.2799 15.5695
3.32454 16.7581
3.36917 17.7483
3.4138 18.7135
3.45844 19.0672
3.50309 20.3739
3.54773 21.7394
3.59237 23.1761
3.637 41.4802
3.68164 32.6073
3.7263 25.0087
3.77094 25.5533
3.81558 26.3197
3.86022 27.0443
3.90486 28.8324
3.9495 29.1454
3.99416 30.5845
4.0388 31.2342
4.08344 32.743
4.12809 33.8266
4.17273 35.3996
4.21738 38.442
4.26204 96.6943
4.30669 85.5286
4.35133 43.1848
4.39598 43.0325
4.44063 47.0917
4.4853 51.5425
4.52995 59.3971
4.5746 60.5797
4.61925 53.1696
4.6639 54.9866
4.70855 57.8602
4.75322 61.3834
4.79788 69.7024
4.84253 68.3977
4.88719 76.2662
4.93184 76.1408
4.97652 80.5211
5.02118 86.6801
5.06583 93.65
5.11049 105.386
5.15515 154.786
5.19981 373.267
5.24449 2794.71
5.28916 13516.1
5.33382 2646.21
5.37848 197.48
5.42315 130.276
5.46783 121.951
5.5125 113.915
5.55716 101.569
5.60183 97.2914
5.6465 95.28
5.69117 93.3116
5.73586 91.9194
5.78053 99.9114
5.8252 100.497
5.86988 103.294
5.91455 93.6282
5.95924 102.766
6.00392 228.645
6.0486 912.098
6.09328 4685.79
6.13795 2965.08
6.18263 190.164
6.22733 87.9211
6.27201 78.4506
6.3167 80.4966
6.36138 72.5129
6.40606 70.2141
6.45075 70.4338
6.49545 64.831
6.54014 62.8029
6.58483 62.3796
6.62952 62.7195
6.67421 68.5603
6.71892 79.8793
6.76361 60.7081
6.8083 59.624
6.853 60.7573
6.89769 56.0005
6.94239 55.6764
6.98711 55.0233
7.03181 55.3976
7.07651 53.9002
7.12121 53.9083
7.16591 56.4846
7.21063 54.8671
7.25533 58.6469
7.30004 86.0636
7.34475 63.2628
7.38945 54.0517
7.43416 52.8949
7.47889 52.7422
7.5236 53.5034
7.56831 54.1043
7.61303 54.443
7.65774 55.6977
7.70247 56.511
7.74719 56.0966
7.79191 55.6486
7.83663 56.0383
7.88135 56.8963
7.92607 57.9514
7.97081 58.686
8.01553 60.4361
8.06026 62.0555
8.10498 63.5812
8.14971 70.3377
8.19446 70.6364
8.23919 68.4772
8.28392 70.6181
8.32865 73.0202
8.37339 77.2408
8.41812 82.4934
8.46288 99.2041
8.50761 171.004
8.55235 367.996
8.59709 1209.7
8.64183 2241.48
8.68658 823.849
8.73134 140.854
8.77609 95.9945
8.82083 90.9867
8.86558 92.9061
8.91033 92.458
8.9551 88.9709
8.99985 84.0751
9.04461 83.4995
9.08936 83.7935
9.13412 82.6303
9.17888 81.0781
9.22365 81.0454
9.26841 81.0251
9.31318 84.997
9.35794 87.6366
9.4027 86.3006
9.44749 85.0578
9.49226 83.9362
9.53703 84.9153
9.5818 89.4561
9.62657 94.8839
9.67134 94.2019
9.71614 92.0227
9.76091 94.0392
9.80569 100.407
9.85047 101.38
9.89525 109.416
9.94005 123.444
9.98484 184.989
10.0296 332.305
10.0744 838.532
10.1192 1846.96
10.164 1462.13
10.2088 320.347
10.2536 118.105
10.2984 107.232
10.3432 105.693
10.388 103.435
10.4328 119.753
10.4776 158.567
10.5224 292.511
10.5672 556.205
10.612 478.181
10.6568 173.837
10.7017 91.6414
10.7465 84.8641
10.7913 81.9971
10.8361 79.7412
10.8809 78.076
10.9257 77.0047
10.9706 77.5031
11.0154 75.0487
11.0602 72.2417
11.105 70.5945
11.1499 70.5291
11.1947 71.6578
11.2395 68.6242
11.2844 67.1868
11.3292 65.8251
11.374 65.295
11.4189 64.648
11.4637 63.8347
11.5086 63.8042
11.5534 63.9282
11.5983 63.043
11.6431 62.6336
11.688 62.1386
11.7328 61.9419
11.7777 61.766
11.8225 61.9353
11.8674 61.6275
11.9122 61.796
11.9571 62.3108
12.002 63.688
12.0468 67.9175
12.0917 77.2735
12.1366 102.768
12.1814 160.424
12.2263 208.851
12.2712 153.989
12.3161 84.9078
12.3609 65.0778
12.4058 62.7958
12.4507 63.2538
12.4956 64.1826
12.5405 64.3202
12.5853 64.0848
12.6302 66.4686
12.6751 68.4576
12.72 67.073
12.7649 66.9124
12.8098 67.455
12.8547 69.0534
12.8996 70.7838
12.9445 72.2242
12.9894 73.6223
13.0343 75.0209
13.0792 79.4616
13.1242 91.4278
13.1691 109.178
13.214 146.702
13.2589 248.472
13.3038 393.778
13.3487 418.261
13.3937 224.803
13.4386 113.71
13.4835 104.378
13.5285 118.032
13.5734 158.588
13.6183 260.469
13.6633 373.364
13.7082 320.24
13.7531 163.824
13.7981 91.3423
13.843 80.2934
13.888 78.3879
13.9329 76.1454
13.9779 74.6629
14.0228 73.1563
14.0678 71.9894
14.1127 71.3491
14.1577 70.7494
14.2027 70.1986
14.2476 69.3968
14.2926 68.8596
14.3376 68.805
14.3825 68.8291
14.4275 67.9947
14.4725 67.8391
14.5175 67.9286
14.5624 67.9285
14.6074 68.6931
14.6524 69.1862
14.6974 69.5482
14.7424 73.0563
14.7874 78.3056
14.8324 87.6412
14.8774 110.98
14.9224 160.56
14.9674 219.018
15.0124 211.57
15.0574 134.562
15.1024 83.8204
15.1474 70.5902
15.1924 69.0116
15.2374 68.1092
15.2824 67.2758
15.3274 66.4173
15.3725 65.7357
15.4175 65.2739
15.4625 64.8724
15.5076 64.6466
15.5526 64.8807
15.5976 65.0897
15.6426 67.001
15.6877 71.8511
15.7327 78.4372
15.7778 94.3189
15.8228 129.222
15.8679 178.807
15.9129 195.361
15.958 143.505
16.003 86.4274
16.0481 64.5332
16.0931 61.8316
16.1382 60.213
16.1833 59.0718
16.2283 57.802
16.2734 57.0998
16.3185 56.9562
16.3636 56.4928
16.4086 55.6557
16.4537 55.0202
16.4988 54.5395
16.5439 54.5217
16.589 54.2052
16.6341 53.7212
16.6792 53.6831
16.7243 53.9167
16.7694 53.7065
16.8145 53.6227
16.8596 54.1053
16.9047 54.4744
16.9498 54.8681
16.9949 54.1069
17.04 55.0145
17.0851 56.3397
17.1302 57.5926
17.1754 60.5664
17.2205 66.1094
17.2656 74.7847
17.3108 83.3601
17.3559 80.0384
17.401 67.5183
17.4462 60.3419
17.4913 58.3549
17.5365 58.1055
17.5815 58.2843
17.6268 58.7364
17.6718 59.4255
17.7171 59.5577
17.7622 60.2028
17.8074 61.4689
17.8525 64.1925
17.8977 67.3185
17.9428 72.3513
17.9881 81.9955
18.0331 101.502
18.0784 126.548
18.1237 140.388
18.1688 124.655
18.214 96.5904
18.2591 83.5004
18.3044 91.2768
18.3495 101.902
18.3948 105.285
18.4399 90.5607
18.4852 72.5252
18.5303 63.7154
18.5756 60.9307
18.6207 60.1616
18.666 59.3884
18.7112 58.5168
18.7565 58.1149
18.8016 57.728
18.8469 57.0455
18.892 56.7159
18.9374 56.4041
18.9825 56.0847
19.0278 55.8953
19.073 56.147
19.1183 56.1711
19.1635 56.7924
19.2088 58.0692
19.254 61.3331
19.2993 66.5125
19.3447 72.3428
19.3898 74.709
19.4352 69.2757
19.4804 60.1321
19.5257 54.989
19.5709 53.036
19.6163 52.9037
19.6615 52.7483
19.7068 52.4028
19.752 52.4442
19.7974 52.7884
19.8426 53.4164
19.888 53.9917
19.9332 55.3377
19.9786 58.392
20.0238 62.3968
20.0692 67.6264
20.1144 69.5673
20.1598 66.3144
20.205 61.5245
20.2504 61.4628
20.2957 64.2096
20.3411 65.1459
20.3863 62.1626
20.4318 56.1139
20.477 51.7711
20.5224 50.018
20.5677 49.7708
20.6131 49.306
20.6586 48.8242
20.7038 48.4829
20.7493 48.3718
20.7945 47.9731
20.84 48.0019
20.8853 48.0548
20.9307 47.827
20.976 47.999
21.0215 47.6726
21.0668 48.3741
21.1122 48.727
21.1575 49.2874
21.203 50.2376
21.2483 50.707
21.2938 50.5469
21.3391 48.9779
21.3846 48.1618
21.4299 47.5623
21.4754 47.6293
21.5207 47.9234
21.5662 48.1817
21.6116 48.6683
21.6571 49.0976
21.7024 50.2035
21.7479 51.9559
21.7933 55.1187
21.8388 59.0086
21.8843 62.9421
21.9297 63.9674
21.9752 61.1216
22.0206 57.4623
22.0661 55.4659
22.1115 55.339
22.157 55.0646
22.2024 52.7586
22.248 50.0357
22.2933 48.8406
22.3389 48.2393
22.3843 48.0069
22.4299 47.8395
22.4753 47.8108
22.5208 47.7846
22.5662 47.7943
22.6118 48.0491
22.6572 48.1467
22.7028 48.484
22.7483 48.95
22.7939 49.7441
22.8393 51.2123
22.8849 53.81
22.9303 55.865
22.9759 57.3903
23.0214 55.9378
23.067 52.6955
23.1126 49.6745
23.1581 48.1592
23.2037 47.7512
23.2492 48.0788
23.2948 47.9839
23.3403 48.2308
23.3859 49.0616
23.4314 50.1993
23.477 52.2582
23.5225 54.7929
23.5682 57.0418
23.6137 56.9868
23.6593 53.8259
23.7048 49.6507
23.7505 47.0803
23.796 45.5816
23.8417 45.166
23.8872 44.8034
23.9329 44.4488
23.9784 44.1509
24.0241 43.8461
24.0697 43.7373
24.1154 43.2366
24.1609 43.2316
24.2066 43.0649
24.2522 42.8375
24.2979 42.657
24.3434 42.548
24.3892 42.354
24.4349 42.5027
24.4805 42.3395
24.5262 42.3875
24.5718 42.2637
24.6175 42.1039
24.6631 42.1197
24.7089 41.8252
24.7545 41.6
24.8002 41.442
24.8458 41.4323
24.8916 41.3847
24.9372 41.5316
24.983 41.8956
25.0286 42.2432
25.0744 42.7435
25.12 43.3136
25.1658 43.6652
25.2114 43.9822
25.2572 43.977
25.3029 44.3001
25.3487 44.4161
25.3943 43.7478
25.4402 42.4168
25.4858 41.3597
25.5316 40.6932
25.5773 40.1866
25.6231 40.1791
25.669 39.8604
25.7147 39.9252
25.7605 39.7486
25.8062 39.6535
25.8521 40.0861
25.8977 39.9237
25.9436 40.212
25.9893 40.3488
26.0352 40.9328
26.0809 40.9707
26.1268 41.1619
26.1725 40.5807
26.2184 39.9814
26.2641 39.6094
26.31 39.481
26.3557 39.2812
26.4017 39.4794
26.4474 39.7805
26.4933 40.0995
26.5391 40.6357
26.585 41.2008
26.6308 41.5898
26.6767 41.4921
26.7225 41.2563
26.7684 40.5563
26.8142 40.1362
26.8601 39.7784
26.9059 39.2683
26.9519 38.8782
26.9979 38.5829
27.0437 38.1964
27.0896 38.0263
27.1354 38.1245
27.1814 38.0412
27.2272 37.9578
27.2732 37.9722
27.3191 37.6942
27.3651 37.9373
27.4109 37.7722
27.4569 38.0088
27.5027 38.0647
27.5488 38.0086
27.5946 37.7967
27.6407 37.5417
27.6865 37.3888
27.7326 37.1011
27.7784 37.2129
27.8245 37.2366
27.8703 37.4749
27.9164 37.6113
27.9623 37.9296
28.0084 38.197
28.0543 38.6922
28.1003 38.4443
28.1462 38.2559
28.1923 37.7395
28.2384 37.2048
28.2843 36.9021
28.3304 36.4731
28.3764 35.9461
28.4225 35.8847
28.4684 35.7032
28.5145 35.3613
28.5605 35.2905
28.6066 35.1649
28.6526 34.9618
28.6987 34.9072
28.7447 34.8544
28.7908 34.7753
28.8368 34.8559
28.8829 34.8243
28.9289 34.7571
28.9751 34.5502
29.0211 34.2997
29.0673 34.0475
29.1133 34.0718
29.1595 33.7764
29.2055 33.671
29.2517 33.7754
29.2977 33.8305
29.3439 33.7482
29.3899 33.7236
29.4361 33.5615
29.4824 33.2631
29.5284 33.1736
29.5746 32.8763
29.6207 32.5145
29.6669 32.5335
29.713 32.4432
29.7593 32.2764
29.8053 32.2917
29.8516 32.2293
29.8977 32.3383
29.9439 32.0712
29.99 32.0065
30.0363 31.8655
30.0824 31.9783
30.1287 31.8267
30.1748 31.9268
30.2211 31.9342
30.2673 31.8181
30.3136 31.8274
30.3597 31.7383
30.406 31.606
30.4522 31.4803
30.4985 31.4505
30.5447 31.6883
30.591 31.6822
30.6372 31.7078
30.6835 31.7196
30.7297 31.6598
30.7761 31.6882
30.8224 31.4018
30.8686 31.4208
30.915 31.0742
30.9612 31.0551
31.0076 30.7098
31.0538 30.6546
31.1002 30.6071
31.1464 30.3411
31.1928 30.4686
31.2391 30.4126
31.2855 30.318
31.3317 30.387
31.3781 30.4033
31.4244 30.4196
31.4708 30.2063
31.5171 30.3968
31.5636 30.1922
31.6098 29.9613
31.6563 29.9351
31.7026 29.8246
31.7491 29.6606
31.7953 29.6655
31.8418 29.6597
31.8881 29.7225
31.9346 29.6868
31.9809 29.6255
32.0275 29.4176
32.074 29.3114
32.1203 29.1449
32.1668 28.9917
32.2132 28.8561
32.2597 28.7486
32.306 28.7623
32.3526 28.5067
32.399 28.4805
32.4455 28.2752
32.4919 28.2117
32.5385 28.2454
32.5848 28.0553
32.6314 28.0525
32.6778 27.9904
32.7244 27.853
32.7708 27.6994
32.8174 27.772
32.8638 27.5456
32.9104 27.5338
32.9569 27.5488
33.0035 27.4159
33.0499 27.454
33.0966 27.3063
33.143 27.3302
33.1897 27.2544
33.2361 27.1426
33.2828 27.1031
33.3293 27.1006
33.3759 26.9421
33.4226 26.8069
33.4691 26.636
33.5158 26.5736
33.5623 26.5632
33.609 26.2533
33.6555 26.2799
33.7022 26.1904
33.7487 25.9992
33.7954 26.0882
33.842 25.9782
33.8887 25.9746
33.9353 25.7854
33.982 25.6955
34.0286 25.6156
34.0753 25.4942
34.1219 25.4861
34.1687 25.4518
34.2152 25.3699
34.262 25.2518
34.3086 25.2156
34.3554 25.106
34.402 24.919
34.4488 24.8544
34.4954 24.8961
34.5422 24.7288
34.5889 24.6633
34.6357 24.5509
34.6825 24.4802
34.7292 24.4118
34.776 24.3045
34.8227 24.2525
34.8695 24.2531
34.9162 24.1625
34.9631 24.0207
35.0098 24.1009
35.0566 23.9972
35.1033 23.842
35.1502 23.8445
35.1969 23.7502
35.2438 23.7515
35.2906 23.6879
35.3375 23.6182
35.3842 23.5422
35.4311 23.5568
35.4779 23.546
35.5248 23.4749
35.5716 23.4032
35.6185 23.3614
35.6653 23.2086
35.7123 23.1541
35.759 23.1241
35.806 23.0074
35.8528 22.8341
35.8998 22.7951
35.9468 22.7203
35.9936 22.7296
36.0406 22.5899
36.0874 22.6043
36.1345 22.3717
36.1813 22.4963
36.2283 22.2993
36.2752 22.2824
36.3222 22.2684
36.3691 22.1484
36.4161 22.0908
36.463 22.0879
36.5101 22.0965
36.557 21.9838
36.6041 21.8567
36.651 21.7797
36.6981 21.7319
36.745 21.6662
36.7921 21.5154
36.839 21.4424
36.8861 21.5171
36.9331 21.4208
36.9802 21.3158
37.0272 21.1657
37.0743 21.1591
37.1213 21.0878
37.1684 21.0852
37.2154 21.0312
37.2626 20.9253
37.3098 20.8376
37.3568 20.7568
37.404 20.7592
37.451 20.6015
37.4982 20.5197
37.5452 20.4357
37.5924 20.4893
37.6395 20.4904
37.6867 20.3813
37.7337 20.2442
37.781 20.1743
37.8281 20.0965
37.8753 20.0274
37.9224 19.9439
37.9697 19.9298
38.0168 19.9158
38.064 19.8009
38.1111 19.7463
38.1584 19.6252
38.2056 19.6053
38.2529 19.5498
38.3 19.4301
38.3473 19.5741
38.3945 19.3208
38.4418 19.3341
38.489 19.2449
38.5363 19.1813
38.5837 19.0665
38.6309 19.0858
38.6782 18.9719
38.7254 18.8642
38.7728 18.8501
38.82 18.8113
38.8674 18.7663
38.9146 18.7423
38.9621 18.6542
39.0093 18.6085
39.0567 18.5639
39.104 18.4362
39.1514 18.3418
39.1987 18.3978
39.2461 18.272
39.2934 18.2595
39.3409 18.1593
39.3882 18.0397
39.4356 18.0192
39.483 18.046
39.5304 17.937
39.5778 17.9077
39.6253 17.8986
39.6726 17.7535
39.7201 17.733
39.7675 17.6613
39.815 17.633
39.8624 17.5241
39.9099 17.569
39.9575 17.4477
40.0049 17.3738
40.0525 17.376
40.0999 17.3074
40.1474 17.2441
40.1949 17.1619
40.2425 17.0786
40.2899 17.1427
40.3375 17.0038
40.385 16.8945
40.4326 16.9214
40.48 16.8302
40.5277 16.8412
40.5752 16.764
40.6228 16.6498
40.6703 16.6437
40.718 16.5742
40.7655 16.4979
40.8132 16.4998
40.8607 16.4447
40.9084 16.369
40.9559 16.3027
41.0036 16.312
41.0512 16.2697
41.0989 16.2364
41.1465 16.064
41.1942 16.0745
41.242 16.0308
41.2896 15.9106
41.3373 15.8555
41.3849 15.8406
41.4327 15.801
41.4803 15.7026
41.5281 15.6964
41.5758 15.6828
41.6236 15.5325
41.6712 15.5258
41.7191 15.4337
41.7667 15.4073
41.8146 15.3801
41.8622 15.271
41.9101 15.3113
41.9578 15.1948
42.0057 15.1713
42.0534 15.1038
42.1013 15.0753
42.149 15.0169
42.1969 14.9174
42.2446 14.9537
42.2925 14.8461
42.3403 14.7668
42.3882 14.7472
42.436 14.7272
42.4839 14.6409
42.5319 14.6167
42.5797 14.5573
42.6277 14.4928
42.6755 14.512
42.7235 14.41
42.7713 14.3312
42.8193 14.3261
42.8671 14.28
42.9152 14.215
42.963 14.1584
43.0111 14.0993
43.0589 14.1032
43.107 13.9843
43.1549 14.0364
43.2029 13.9891
43.2508 13.9077
43.2989 13.7892
43.3468 13.737
43.3949 13.7169
43.4429 13.7124
43.491 13.6325
43.5389 13.5744
43.5871 13.5696
43.635 13.4644
43.6832 13.46
43.7312 13.4021
43.7793 13.3892
43.8273 13.3077
43.8755 13.2734
43.9237 13.2376
43.9717 13.1833
44.0199 13.1413
44.068 13.0979
44.1162 13.0386
44.1642 13.0325
44.2125 12.9835
44.2606 12.898
44.3088 12.8078
44.3569 12.8161
44.4052 12.7884
44.4533 12.7418
44.5016 12.6663
44.5497 12.6429
44.598 12.6354
44.6461 12.5433
44.6945 12.5218
44.7426 12.4191
44.791 12.4239
44.8391 12.38
44.8875 12.3534
44.9357 12.3008
44.984 12.2586
45.0322 12.2465
45.0806 12.1419
45.1288 12.1077
45.1773 12.0786
45.2257 11.9728
45.2739 11.9992
45.3224 11.9411
45.3706 11.9197
45.4191 11.8406
45.4673 11.8716
45.5158 11.8192
45.5641 11.7657
45.6126 11.711
45.6609 11.6591
45.7094 11.6242
45.7577 11.5486
45.8063 11.5193
45.8546 11.4906
45.9031 11.447
45.9515 11.4041
46.0001 11.4056
46.0484 11.3199
46.097 11.3033
46.1454 11.2814
46.194 11.2517
46.2424 11.1651
46.291 11.1639
46.3395 11.0831
46.3881 11.0599
46.4365 11.0525
46.4852 10.991
46.5337 10.9345
46.5823 10.9176
46.631 10.8374
46.6795 10.818
46.7282 10.787
46.7767 10.6974
46.8254 10.6377
46.8739 10.6331
46.9226 10.5672
46.9712 10.6052
47.0199 10.5022
47.0685 10.4795
47.1173 10.435
47.1658 10.4107
47.2146 10.3783
47.2632 10.3032
47.312 10.2997
47.3606 10.2141
47.4095 10.1894
47.4581 10.1922
47.5069 10.1479
47.5556 10.1268
47.6044 10.0875
47.6531 10.0077
47.702 9.99264
47.7507 9.93813
47.7996 9.87124
47.8483 9.87155
47.8972 9.84291
47.9461 9.8034
47.9948 9.76799
48.0438 9.75356
48.0925 9.71912
48.1415 9.67971
48.1902 9.65577
48.2392 9.62989
48.288 9.56758
48.337 9.5483
48.3858 9.46639
48.4348 9.42654
48.4837 9.47953
48.5327 9.41682
48.5815 9.36245
48.6306 9.32945
48.6795 9.31274
48.7285 9.29972
48.7774 9.22156
48.8265 9.20139
48.8754 9.13143
48.9245 9.12093
48.9734 9.07792
49.0226 9.07649
49.0715 9.05092
49.1206 8.97413
49.1696 8.97922
49.2188 8.91536
49.2679 8.89973
49.3169 8.81935
49.3661 8.80029
49.4151 8.7957
49.4643 8.72679
49.5134 8.704
49.5626 8.68184
49.6117 8.61493
49.6609 8.64698
49.71 8.52275
49.7592 8.54264
49.8083 8.51134
49.8576 8.46509
49.9067 8.41912
49.956 8.4217
50.0052 8.36201
50.0545 8.34011
50.1036 8.29304
50.153 8.29164
50.2022 8.24655
50.2515 8.22269
50.3007 8.17451
50.3501 8.16457
50.3993 8.1169
50.4487 8.08597
50.498 8.09434
50.5474 8.04714
50.5966 7.96712
50.6461 7.99133
50.6955 7.95862
50.7448 7.90688
50.7943 7.90611
50.8436 7.86585
50.8931 7.83899
50.9424 7.78519
50.9919 7.79182
51.0413 7.73437
51.0908 7.68971
51.1402 7.67363
51.1897 7.67386
51.2391 7.59569
51.2887 7.57692
51.3381 7.53579
51.3877 7.53946
51.4371 7.46368
51.4867 7.44068
51.5362 7.45194
51.5858 7.38258
51.6353 7.34799
51.6849 7.35513
51.7344 7.3033
51.7841 7.28737
51.8336 7.24828
51.8833 7.21262
51.9328 7.19387
51.9826 7.11903
52.0323 7.11735
52.0818 7.08693
52.1316 7.04838
52.1812 7.06849
52.231 6.99784
52.2806 6.95487
52.3304 6.93759
52.38 6.89886
52.4298 6.9173
52.4794 6.85008
52.5293 6.82853
52.5789 6.80762
52.6288 6.78859
52.6785 6.73941
52.7284 6.73436
52.7781 6.68968
52.828 6.69447
52.8777 6.62171
52.9276 6.62806
52.9774 6.60491
53.0273 6.55592
53.0771 6.49532
53.1271 6.5274
53.1769 6.43949
53.2269 6.41886
53.2767 6.4536
53.3267 6.37092
53.3765 6.39429
53.4266 6.33719
53.4766 6.28352
53.5265 6.24738
53.5765 6.26114
53.6264 6.21963
53.6765 6.17627
53.7264 6.14843
53.7765 6.16955
53.8265 6.12788
53.8766 6.09852
53.9266 6.07474
53.9767 6.03645
54.0267 6.01532
54.0769 5.98633
54.1269 5.92659
54.1771 5.94879
54.2271 5.9224
54.2773 5.89973
54.3274 5.8168
54.3776 5.81126
54.4277 5.77201
54.478 5.76369
54.528 5.7057
54.5783 5.654
54.6285 5.60936
54.6788 5.6215
54.7289 5.54892
54.7792 5.53973
54.8296 5.46617
54.8798 5.41524
54.9301 5.36709
54.9803 5.35034
55.0307 5.279
55.0809 5.32067
55.1314 5.26223
55.1816 5.21749
55.232 5.16911
55.2823 5.11517
55.3328 5.06535
55.383 5.01369
55.4335 4.97812
55.4838 4.93778
55.5344 4.8545
55.5847 4.76303
55.6352 4.81978
55.6856 4.76777
55.7361 4.73854