File: XRD/Ni3Fe_FD0585.xy
TT I
1.27165 6.90888
1.31627 6.80857
1.36089 6.87746
1.40551 5.9488
1.45013 6.07035
1.49476 5.99542
1.53938 6.34296
1.584 5.37387
1.62863 5.30859
1.67325 4.97641
1.71787 5.50171
1.7625 4.6638
1.80712 5.15257
1.85174 4.77541
1.89636 4.63907
1.94099 4.84034
1.98562 4.27399
2.03025 4.38797
2.07487 4.18142
2.11949 4.57226
2.16411 4.52819
2.20874 9.87482
2.25338 12.7488
2.298 5.4822
2.34263 5.42367
2.38725 5.59193
2.43188 6.16091
2.4765 6.39449
2.52115 6.9739
2.56577 7.7761
2.6104 8.11948
2.65503 6.69513
2.69965 8.10225
2.7443 7.88273
2.78893 7.7505
2.83356 8.20795
2.87818 8.8987
2.92281 8.99831
2.96744 9.47925
3.01209 10.0339
3.05672 11.4452
3.10135 12.7027
3.14599 12.6507
3.19062 13.9569
3.23527 14.6733
3.2799 15.6592
3.32454 17.0667
3.36917 17.6832
3.4138 18.958
3.45844 19.906
3.50309 20.4489
3.54773 21.8958
3.59237 23.0177
3.637 53.8585
3.68164 38.975
3.7263 25.2525
3.77094 25.9048
3.81558 26.7748
3.86022 27.4466
3.90486 28.4317
3.9495 29.7141
3.99416 31.0288
4.0388 31.8411
4.08344 33.245
4.12809 34.0933
4.17273 36.084
4.21738 40.1722
4.26204 135.049
4.30669 117.41
4.35133 45.3341
4.39598 43.6408
4.44063 49.6186
4.4853 55.411
4.52995 53.8505
4.5746 54.3588
4.61925 54.2015
4.6639 56.0938
4.70855 58.9294
4.75322 62.0743
4.79788 66.8693
4.84253 69.0603
4.88719 74.4982
4.93184 77.3319
4.97652 82.5096
5.02118 88.1882
5.06583 97.4314
5.11049 109.394
5.15515 162.111
5.19981 476.516
5.24449 3217.78
5.28916 12363.1
5.33382 2778.1
5.37848 200.651
5.42315 132.632
5.46783 118.768
5.5125 110.771
5.55716 103.814
5.60183 99.2246
5.6465 97.407
5.69117 95.5123
5.73586 94.0252
5.78053 96.7469
5.8252 96.549
5.86988 98.6176
5.91455 96.994
5.95924 108.739
6.00392 272.775
6.0486 1110.35
6.09328 4415.01
6.13795 3320.01
6.18263 241.07
6.22733 93.1987
6.27201 82.0254
6.3167 87.5802
6.36138 75.7414
6.40606 69.8937
6.45075 68.9485
6.49545 65.8092
6.54014 64.0559
6.58483 62.822
6.62952 62.9612
6.67421 76.1747
6.71892 98.5319
6.76361 63.3414
6.8083 59.2031
6.853 58.9726
6.89769 57.0411
6.94239 56.563
6.98711 55.6437
7.03181 56.0344
7.07651 54.5468
7.12121 55.2442
7.16591 55.9697
7.21063 55.2742
7.25533 61.8244
7.30004 110.248
7.34475 71.232
7.38945 55.5488
7.43416 54.0449
7.47889 54.0914
7.5236 54.4873
7.56831 55.0808
7.61303 55.8375
7.65774 56.4306
7.70247 56.675
7.74719 56.423
7.79191 56.5873
7.83663 57.1744
7.88135 58.1549
7.92607 59.1235
7.97081 60.2621
8.01553 61.3734
8.06026 63.1952
8.10498 64.4736
8.14971 70.9075
8.19446 70.9203
8.23919 69.7092
8.28392 72.5746
8.32865 75.0769
8.37339 79.5273
8.41812 85.7256
8.46288 107.177
8.50761 197.63
8.55235 437.653
8.59709 1259.36
8.64183 2198.91
8.68658 929.326
8.73134 158.432
8.77609 99.6936
8.82083 93.3528
8.86558 92.5288
8.91033 91.4374
8.9551 90.0312
8.99985 85.7791
9.04461 84.224
9.08936 84.3718
9.13412 83.2238
9.17888 82.3824
9.22365 83.4563
9.26841 82.8258
9.31318 84.9231
9.35794 85.547
9.4027 85.2474
9.44749 85.7528
9.49226 85.8315
9.53703 86.4194
9.5818 89.4497
9.62657 93.7131
9.67134 95.9491
9.71614 93.638
9.76091 95.2491
9.80569 99.6224
9.85047 101.618
9.89525 114.394
9.94005 132.351
9.98484 209.752
10.0296 381.437
10.0744 868.873
10.1192 1738.22
10.164 1560.57
10.2088 370.917
10.2536 125.574
10.2984 111.528
10.3432 110.755
10.388 106.966
10.4328 127.658
10.4776 171.562
10.5224 299.617
10.5672 519.602
10.612 481.838
10.6568 188.554
10.7017 95.1461
10.7465 87.103
10.7913 83.4894
10.8361 81.498
10.8809 79.2608
10.9257 78.1206
10.9706 78.336
11.0154 75.2575
11.0602 72.8607
11.105 71.6708
11.1499 73.1333
11.1947 76.0765
11.2395 71.2356
11.2844 69.1479
11.3292 67.077
11.374 66.475
11.4189 65.9298
11.4637 65.2203
11.5086 65.0912
11.5534 66.0947
11.5983 64.7938
11.6431 63.8089
11.688 63.2389
11.7328 62.988
11.7777 63.0549
11.8225 62.9816
11.8674 62.7614
11.9122 63.2646
11.9571 63.5749
12.002 65.1666
12.0468 70.644
12.0917 82.1874
12.1366 106.68
12.1814 156.309
12.2263 204.016
12.2712 162.061
12.3161 90.1757
12.3609 67.9583
12.4058 64.8452
12.4507 64.7951
12.4956 64.8799
12.5405 65.2797
12.5853 65.7286
12.6302 69.3122
12.6751 72.2285
12.72 68.8154
12.7649 68.0551
12.8098 68.8324
12.8547 70.3613
12.8996 71.7492
12.9445 72.9866
12.9894 74.9014
13.0343 76.6132
13.0792 81.0785
13.1242 95.4757
13.1691 117.693
13.214 157.864
13.2589 253.034
13.3038 377.227
13.3487 422.476
13.3937 249.155
13.4386 121.473
13.4835 110.907
13.5285 126.529
13.5734 168.419
13.6183 254.201
13.6633 349.785
13.7082 329.252
13.7531 180.267
13.7981 96.466
13.843 82.393
13.888 80.019
13.9329 77.5797
13.9779 76.2302
14.0228 74.9302
14.0678 73.5056
14.1127 72.9633
14.1577 72.3219
14.2027 71.8299
14.2476 70.9386
14.2926 70.7981
14.3376 71.0413
14.3825 70.407
14.4275 69.2877
14.4725 69.2888
14.5175 69.4173
14.5624 69.4869
14.6074 70.6122
14.6524 71.2688
14.6974 71.3731
14.7424 75.0131
14.7874 82.117
14.8324 92.5829
14.8774 116.559
14.9224 159.172
14.9674 209.699
15.0124 214.262
15.0574 143.058
15.1024 88.5009
15.1474 72.3093
15.1924 70.9206
15.2374 70.1281
15.2824 69.2816
15.3274 68.2765
15.3725 67.2969
15.4175 66.8896
15.4625 66.5612
15.5076 66.2648
15.5526 66.4342
15.5976 66.7553
15.6426 69.0187
15.6877 74.8572
15.7327 82.8464
15.7778 99.209
15.8228 131.189
15.8679 172.877
15.9129 192.408
15.958 149.619
16.003 93.0439
16.0481 67.0417
16.0931 63.5559
16.1382 61.9199
16.1833 60.5222
16.2283 59.1433
16.2734 58.551
16.3185 58.5121
16.3636 58.3627
16.4086 57.4463
16.4537 56.6023
16.4988 55.6586
16.5439 55.8131
16.589 55.5309
16.6341 55.1743
16.6792 54.9638
16.7243 55.0943
16.7694 55.1452
16.8145 54.8096
16.8596 55.3529
16.9047 56.1416
16.9498 56.446
16.9949 55.7486
17.04 56.5984
17.0851 58.033
17.1302 59.4493
17.1754 62.7299
17.2205 67.9988
17.2656 75.3306
17.3108 82.4881
17.3559 81.5903
17.401 70.6507
17.4462 62.1483
17.4913 59.809
17.5365 59.5548
17.5815 59.8299
17.6268 59.8243
17.6718 60.7317
17.7171 61.3893
17.7622 61.7764
17.8074 63.0558
17.8525 66.588
17.8977 69.7934
17.9428 75.6303
17.9881 85.2554
18.0331 103.166
18.0784 123.77
18.1237 142.049
18.1688 131.609
18.214 102.68
18.2591 87.2667
18.3044 91.8722
18.3495 101.357
18.3948 106.38
18.4399 95.381
18.4852 76.736
18.5303 65.9004
18.5756 62.6195
18.6207 61.5842
18.666 60.808
18.7112 60.0418
18.7565 59.3962
18.8016 59.0335
18.8469 58.4086
18.892 58.3153
18.9374 57.5795
18.9825 57.549
19.0278 57.2705
19.073 57.5472
19.1183 58.1177
19.1635 58.5551
19.2088 60.0563
19.254 63.0873
19.2993 67.6019
19.3447 73.0438
19.3898 76.1887
19.4352 72.0482
19.4804 62.9749
19.5257 56.6875
19.5709 54.4683
19.6163 54.0398
19.6615 54.1269
19.7068 53.6592
19.752 53.8523
19.7974 54.2714
19.8426 55.175
19.888 55.4638
19.9332 57.0773
19.9786 59.6884
20.0238 63.3018
20.0692 68.1873
20.1144 70.1123
20.1598 68.1311
20.205 63.7732
20.2504 62.5113
20.2957 64.1899
20.3411 65.9716
20.3863 63.778
20.4318 58.0792
20.477 53.6185
20.5224 51.5786
20.5677 50.9104
20.6131 50.4726
20.6586 50.0424
20.7038 49.7268
20.7493 49.3685
20.7945 49.3595
20.84 48.9367
20.8853 49.0796
20.9307 48.8031
20.976 49.1279
21.0215 48.8053
21.0668 49.3788
21.1122 50.0181
21.1575 50.3551
21.203 51.3239
21.2483 51.6872
21.2938 51.7586
21.3391 50.1417
21.3846 49.1683
21.4299 48.7966
21.4754 48.7574
21.5207 48.9911
21.5662 49.4768
21.6116 49.8964
21.6571 50.4581
21.7024 51.5532
21.7479 53.6315
21.7933 56.3851
21.8388 59.7138
21.8843 63.3934
21.9297 65.0236
21.9752 63.1783
22.0206 59.6373
22.0661 56.8179
22.1115 56.388
22.157 56.2061
22.2024 54.2724
22.248 51.5174
22.2933 50.0856
22.3389 49.3693
22.3843 49.1542
22.4299 48.943
22.4753 49.0547
22.5208 48.8075
22.5662 48.8707
22.6118 49.1951
22.6572 49.25
22.7028 49.7286
22.7483 50.1533
22.7939 51.1155
22.8393 52.5765
22.8849 54.662
22.9303 56.6199
22.9759 58.0656
23.0214 57.4541
23.067 54.4419
23.1126 51.0981
23.1581 49.3473
23.2037 49.0763
23.2492 49.2024
23.2948 49.3192
23.3403 49.6467
23.3859 50.3644
23.4314 51.5133
23.477 53.3287
23.5225 55.2503
23.5682 57.1953
23.6137 58.0045
23.6593 55.5393
23.7048 51.4448
23.7505 48.2818
23.796 46.9987
23.8417 46.3436
23.8872 45.6852
23.9329 45.3556
23.9784 45.1783
24.0241 44.832
24.0697 44.6669
24.1154 44.2986
24.1609 44.2736
24.2066 44.0546
24.2522 43.9035
24.2979 43.8494
24.3434 43.5808
24.3892 43.4297
24.4349 43.4312
24.4805 43.2048
24.5262 43.4203
24.5718 43.2802
24.6175 43.2279
24.6631 43.187
24.7089 42.741
24.7545 42.6635
24.8002 42.5621
24.8458 42.4936
24.8916 42.4564
24.9372 42.6138
24.983 42.8992
25.0286 43.1723
25.0744 43.7368
25.12 44.1538
25.1658 44.6753
25.2114 45.0477
25.2572 45.0806
25.3029 45.0559
25.3487 45.1479
25.3943 44.8962
25.4402 43.5602
25.4858 42.5741
25.5316 41.5868
25.5773 41.0816
25.6231 41.1865
25.669 40.6292
25.7147 40.6783
25.7605 40.6641
25.8062 40.7245
25.8521 40.8325
25.8977 40.8173
25.9436 41.0273
25.9893 41.3676
26.0352 41.6024
26.0809 41.7704
26.1268 41.9965
26.1725 41.4658
26.2184 40.9462
26.2641 40.5725
26.31 40.2195
26.3557 40.3894
26.4017 40.3538
26.4474 40.6813
26.4933 41.176
26.5391 41.6017
26.585 41.945
26.6308 42.2785
26.6767 42.3615
26.7225 42.1827
26.7684 41.768
26.8142 41.0971
26.8601 40.6055
26.9059 40.2702
26.9519 39.6513
26.9979 39.4759
27.0437 39.1189
27.0896 38.9308
27.1354 38.866
27.1814 38.8467
27.2272 38.6653
27.2732 38.7159
27.3191 38.6789
27.3651 38.8425
27.4109 38.8192
27.4569 38.8966
27.5027 38.8517
27.5488 38.954
27.5946 38.6488
27.6407 38.3529
27.6865 38.2547
27.7326 38.0725
27.7784 38.2086
27.8245 38.0972
27.8703 38.3063
27.9164 38.5562
27.9623 38.6852
28.0084 39.0124
28.0543 39.2967
28.1003 39.2314
28.1462 38.9423
28.1923 38.5522
28.2384 38.1786
28.2843 37.7404
28.3304 37.3984
28.3764 36.976
28.4225 36.5945
28.4684 36.4391
28.5145 36.1754
28.5605 36.0765
28.6066 35.9287
28.6526 35.9479
28.6987 35.7592
28.7447 35.7097
28.7908 35.6224
28.8368 35.6049
28.8829 35.629
28.9289 35.5414
28.9751 35.4358
29.0211 35.1551
29.0673 34.7932
29.1133 34.8302
29.1595 34.6717
29.2055 34.4852
29.2517 34.5022
29.2977 34.5618
29.3439 34.4295
29.3899 34.4265
29.4361 34.2407
29.4824 34.1517
29.5284 33.8726
29.5746 33.5788
29.6207 33.3244
29.6669 33.2736
29.713 33.2611
29.7593 33.1186
29.8053 33.0769
29.8516 33.0178
29.8977 32.9281
29.9439 32.8246
29.99 32.7665
30.0363 32.6178
30.0824 32.6697
30.1287 32.6185
30.1748 32.7158
30.2211 32.6418
30.2673 32.529
30.3136 32.5666
30.3597 32.3596
30.406 32.3739
30.4522 32.3136
30.4985 32.2865
30.5447 32.477
30.591 32.4066
30.6372 32.3509
30.6835 32.3244
30.7297 32.3848
30.7761 32.3214
30.8224 32.1277
30.8686 32.0275
30.915 31.8888
30.9612 31.7932
31.0076 31.5255
31.0538 31.298
31.1002 31.322
31.1464 31.2002
31.1928 31.219
31.2391 31.2218
31.2855 31.0138
31.3317 31.0636
31.3781 31.1918
31.4244 31.0677
31.4708 31.0457
31.5171 31.0031
31.5636 30.9199
31.6098 30.6109
31.6563 30.5343
31.7026 30.4429
31.7491 30.322
31.7953 30.3934
31.8418 30.4777
31.8881 30.2986
31.9346 30.3628
31.9809 30.2079
32.0275 30.1048
32.074 30.0493
32.1203 29.7425
32.1668 29.6291
32.2132 29.6019
32.2597 29.4606
32.306 29.3625
32.3526 29.082
32.399 29.1397
32.4455 28.9923
32.4919 28.8591
32.5385 28.8483
32.5848 28.6623
32.6314 28.655
32.6778 28.6563
32.7244 28.4441
32.7708 28.2742
32.8174 28.2966
32.8638 28.1499
32.9104 28.2251
32.9569 28.2274
33.0035 28.0521
33.0499 28.0307
33.0966 27.9693
33.143 27.9124
33.1897 27.8343
33.2361 27.7853
33.2828 27.7706
33.3293 27.5498
33.3759 27.5412
33.4226 27.413
33.4691 27.2093
33.5158 27.1604
33.5623 27.0775
33.609 26.8729
33.6555 26.7966
33.7022 26.8012
33.7487 26.6644
33.7954 26.6569
33.842 26.5102
33.8887 26.467
33.9353 26.4729
33.982 26.3174
34.0286 26.1902
34.0753 26.2049
34.1219 26.0176
34.1687 26.0739
34.2152 25.8718
34.262 25.8151
34.3086 25.6698
34.3554 25.5998
34.402 25.4943
34.4488 25.4128
34.4954 25.3609
34.5422 25.2971
34.5889 25.1518
34.6357 25.1181
34.6825 25.017
34.7292 24.9613
34.776 24.8665
34.8227 24.8434
34.8695 24.7681
34.9162 24.727
34.9631 24.7005
35.0098 24.5606
35.0566 24.4791
35.1033 24.449
35.1502 24.3581
35.1969 24.3284
35.2438 24.2895
35.2906 24.1771
35.3375 24.1791
35.3842 24.0917
35.4311 24.0986
35.4779 24.1333
35.5248 23.9708
35.5716 23.8875
35.6185 23.9001
35.6653 23.7257
35.7123 23.6477
35.759 23.5406
35.806 23.4459
35.8528 23.3547
35.8998 23.373
35.9468 23.2118
35.9936 23.1419
36.0406 23.1151
36.0874 23.1489
36.1345 23.066
36.1813 22.9582
36.2283 22.8102
36.2752 22.7365
36.3222 22.8111
36.3691 22.6416
36.4161 22.6031
36.463 22.5307
36.5101 22.543
36.557 22.467
36.6041 22.3768
36.651 22.2989
36.6981 22.2383
36.745 22.166
36.7921 22.0264
36.839 21.9713
36.8861 21.9306
36.9331 21.8905
36.9802 21.7546
37.0272 21.6882
37.0743 21.6128
37.1213 21.5962
37.1684 21.5241
37.2154 21.4624
37.2626 21.4093
37.3098 21.387
37.3568 21.2751
37.404 21.2667
37.451 21.0694
37.4982 21.0111
37.5452 20.9774
37.5924 20.8678
37.6395 20.8969
37.6867 20.8533
37.7337 20.6818
37.781 20.6625
37.8281 20.5628
37.8753 20.498
37.9224 20.4286
37.9697 20.3325
38.0168 20.3329
38.064 20.2794
38.1111 20.1737
38.1584 20.2039
38.2056 20.0492
38.2529 20.0907
38.3 19.9996
38.3473 19.8872
38.3945 19.7417
38.4418 19.7463
38.489 19.7252
38.5363 19.6408
38.5837 19.5682
38.6309 19.5463
38.6782 19.4734
38.7254 19.3134
38.7728 19.3014
38.82 19.1982
38.8674 19.2424
38.9146 19.1528
38.9621 19.0183
39.0093 19.0295
39.0567 18.9926
39.104 18.8887
39.1514 18.8496
39.1987 18.8215
39.2461 18.7792
39.2934 18.7276
39.3409 18.5404
39.3882 18.5263
39.4356 18.4688
39.483 18.4529
39.5304 18.3537
39.5778 18.3161
39.6253 18.2589
39.6726 18.1672
39.7201 18.1119
39.7675 18.1158
39.815 18.0142
39.8624 17.9957
39.9099 17.9452
39.9575 17.8463
40.0049 17.8004
40.0525 17.6913
40.0999 17.7118
40.1474 17.6392
40.1949 17.5543
40.2425 17.4774
40.2899 17.4292
40.3375 17.3641
40.385 17.3476
40.4326 17.2959
40.48 17.212
40.5277 17.1643
40.5752 17.0718
40.6228 17.039
40.6703 16.9962
40.718 16.9756
40.7655 16.9492
40.8132 16.8213
40.8607 16.792
40.9084 16.7876
40.9559 16.6833
41.0036 16.6698
41.0512 16.6359
41.0989 16.6076
41.1465 16.4545
41.1942 16.4166
41.242 16.3693
41.2896 16.3519
41.3373 16.2025
41.3849 16.198
41.4327 16.1162
41.4803 16.0344
41.5281 16.0371
41.5758 15.964
41.6236 15.9225
41.6712 15.8455
41.7191 15.776
41.7667 15.8289
41.8146 15.747
41.8622 15.6807
41.9101 15.5987
41.9578 15.5327
42.0057 15.5102
42.0534 15.4942
42.1013 15.4396
42.149 15.3454
42.1969 15.2864
42.2446 15.2883
42.2925 15.2211
42.3403 15.1933
42.3882 15.0867
42.436 15.0527
42.4839 14.9785
42.5319 14.9197
42.5797 14.8685
42.6277 14.8435
42.6755 14.7909
42.7235 14.6768
42.7713 14.723
42.8193 14.6669
42.8671 14.5855
42.9152 14.536
42.963 14.5434
43.0111 14.4267
43.0589 14.4024
43.107 14.3355
43.1549 14.3036
43.2029 14.258
43.2508 14.1946
43.2989 14.1714
43.3468 14.1217
43.3949 14.0684
43.4429 14.0422
43.491 13.9591
43.5389 13.906
43.5871 13.8886
43.635 13.8316
43.6832 13.73
43.7312 13.691
43.7793 13.7092
43.8273 13.6466
43.8755 13.5724
43.9237 13.5485
43.9717 13.4874
44.0199 13.4965
44.068 13.3615
44.1162 13.3324
44.1642 13.2984
44.2125 13.2748
44.2606 13.1902
44.3088 13.1662
44.3569 13.081
44.4052 13.0797
44.4533 12.9712
44.5016 12.993
44.5497 12.8899
44.598 12.8936
44.6461 12.8629
44.6945 12.8204
44.7426 12.7923
44.791 12.6875
44.8391 12.6992
44.8875 12.5851
44.9357 12.5888
44.984 12.5259
45.0322 12.4518
45.0806 12.4117
45.1288 12.3528
45.1773 12.3228
45.2257 12.2561
45.2739 12.261
45.3224 12.1897
45.3706 12.2216
45.4191 12.1259
45.4673 12.1032
45.5158 12.0714
45.5641 11.958
45.6126 11.9632
45.6609 11.902
45.7094 11.8626
45.7577 11.8237
45.8063 11.7649
45.8546 11.7472
45.9031 11.6888
45.9515 11.6828
46.0001 11.6104
46.0484 11.6118
46.097 11.5842
46.1454 11.5332
46.194 11.4238
46.2424 11.4216
46.291 11.3392
46.3395 11.3325
46.3881 11.2853
46.4365 11.2849
46.4852 11.2189
46.5337 11.2018
46.5823 11.1711
46.631 11.0975
46.6795 11.011
46.7282 11.0033
46.7767 10.9797
46.8254 10.8881
46.8739 10.8744
46.9226 10.8355
46.9712 10.8477
47.0199 10.7516
47.0685 10.7391
47.1173 10.6579
47.1658 10.6146
47.2146 10.6203
47.2632 10.5639
47.312 10.5484
47.3606 10.4504
47.4095 10.4242
47.4581 10.3892
47.5069 10.3794
47.5556 10.2889
47.6044 10.326
47.6531 10.2139
47.702 10.2035
47.7507 10.2352
47.7996 10.138
47.8483 10.1031
47.8972 10.0932
47.9461 10.0758
47.9948 9.99396
48.0438 9.91757
48.0925 9.91175
48.1415 9.85398
48.1902 9.82464
48.2392 9.82732
48.288 9.82344
48.337 9.76782
48.3858 9.70546
48.4348 9.70461
48.4837 9.6864
48.5327 9.56923
48.5815 9.55364
48.6306 9.55019
48.6795 9.49338
48.7285 9.42738
48.7774 9.4279
48.8265 9.38191
48.8754 9.34084
48.9245 9.26752
48.9734 9.30006
49.0226 9.25571
49.0715 9.1989
49.1206 9.16861
49.1696 9.14613
49.2188 9.13075
49.2679 9.07499
49.3169 9.06715
49.3661 9.00988
49.4151 8.99346
49.4643 8.90772
49.5134 8.91584
49.5626 8.83195
49.6117 8.90028
49.6609 8.81629
49.71 8.76635
49.7592 8.69332
49.8083 8.70227
49.8576 8.70062
49.9067 8.63858
49.956 8.60213
50.0052 8.54161
50.0545 8.56907
50.1036 8.50567
50.153 8.48773
50.2022 8.44016
50.2515 8.38214
50.3007 8.35687
50.3501 8.3233
50.3993 8.29815
50.4487 8.26917
50.498 8.22511
50.5474 8.2225
50.5966 8.18166
50.6461 8.14137
50.6955 8.11839
50.7448 8.09895
50.7943 8.07488
50.8436 7.98804
50.8931 7.99096
50.9424 7.93282
50.9919 7.93932
51.0413 7.89645
51.0908 7.83777
51.1402 7.84525
51.1897 7.78397
51.2391 7.75778
51.2887 7.69301
51.3381 7.67225
51.3877 7.71558
51.4371 7.63581
51.4867 7.60127
51.5362 7.61402
51.5858 7.56504
51.6353 7.51453
51.6849 7.51782
51.7344 7.45015
51.7841 7.46582
51.8336 7.39147
51.8833 7.38138
51.9328 7.34011
51.9826 7.31598
52.0323 7.28665
52.0818 7.2636
52.1316 7.19181
52.1812 7.19368
52.231 7.14946
52.2806 7.1121
52.3304 7.14034
52.38 7.08595
52.4298 7.05804
52.4794 6.98874
52.5293 6.98318
52.5789 6.95574
52.6288 6.92839
52.6785 6.87716
52.7284 6.87974
52.7781 6.84545
52.828 6.8136
52.8777 6.78
52.9276 6.75861
52.9774 6.72296
53.0273 6.74629
53.0771 6.69408
53.1271 6.67728
53.1769 6.58584
53.2269 6.56409
53.2767 6.55525
53.3267 6.5294
53.3765 6.50848
53.4266 6.48232
53.4766 6.43071
53.5265 6.45795
53.5765 6.45121
53.6264 6.37345
53.6765 6.30517
53.7264 6.31033
53.7765 6.26923
53.8265 6.27749
53.8766 6.24328
53.9266 6.19191
53.9767 6.15179
54.0267 6.17538
54.0769 6.11415
54.1269 6.08158
54.1771 6.08422
54.2271 6.01715
54.2773 5.93876
54.3274 5.96782
54.3776 5.92316
54.4277 5.92237
54.478 5.85541
54.528 5.85652
54.5783 5.80195
54.6285 5.77824
54.6788 5.73489
54.7289 5.6639
54.7792 5.61833
54.8296 5.56191
54.8798 5.51803
54.9301 5.52785
54.9803 5.39953
55.0307 5.4287
55.0809 5.3837
55.1314 5.37114
55.1816 5.28082
55.232 5.24468
55.2823 5.21919
55.3328 5.18938
55.383 5.1673
55.4335 5.09249
55.4838 4.9931
55.5344 4.98426
55.5847 4.95747
55.6352 4.87943
55.6856 4.84508
55.7361 4.80827