File: XRD/Ni3Fe_FD0984.xy
TT I
1.27165 7.29627
1.31627 7.30857
1.36089 6.09264
1.40551 5.6695
1.45013 6.17423
1.49476 5.77833
1.53938 5.61839
1.584 5.62674
1.62863 5.28652
1.67325 4.98677
1.71787 5.31947
1.7625 4.67654
1.80712 4.78485
1.85174 4.73012
1.89636 5.00271
1.94099 4.99769
1.98562 4.53531
2.03025 4.21473
2.07487 4.32984
2.11949 4.8654
2.16411 5.22591
2.20874 14.797
2.25338 24.9749
2.298 6.62208
2.34263 5.37162
2.38725 6.32481
2.43188 6.08422
2.4765 7.29354
2.52115 6.77756
2.56577 7.88759
2.6104 8.66925
2.65503 8.13502
2.69965 8.16075
2.7443 8.9559
2.78893 8.33038
2.83356 9.25393
2.87818 9.17944
2.92281 9.42114
2.96744 9.44176
3.01209 10.6234
3.05672 11.1856
3.10135 12.8606
3.14599 13.5988
3.19062 14.4731
3.23527 14.9407
3.2799 15.9203
3.32454 16.9257
3.36917 17.8291
3.4138 18.9879
3.45844 19.8274
3.50309 20.9131
3.54773 21.9239
3.59237 24.2559
3.637 96.6778
3.68164 61.7595
3.7263 26.4541
3.77094 26.0322
3.81558 26.5295
3.86022 27.2311
3.90486 29.0228
3.9495 29.4823
3.99416 30.7722
4.0388 32.2853
4.08344 33.2901
4.12809 34.4958
4.17273 36.4109
4.21738 42.7314
4.26204 264.371
4.30669 235.091
4.35133 48.6925
4.39598 43.8107
4.44063 54.1528
4.4853 66.8312
4.52995 49.4559
4.5746 50.0565
4.61925 52.2386
4.6639 54.1229
4.70855 56.8736
4.75322 59.6298
4.79788 62.6663
4.84253 65.7704
4.88719 69.6752
4.93184 73.582
4.97652 78.4414
5.02118 84.4599
5.06583 90.7747
5.11049 100.731
5.15515 165.636
5.19981 271.033
5.24449 2278.62
5.28916 13490.6
5.33382 2781.39
5.37848 172.831
5.42315 123.401
5.46783 109.992
5.5125 102.691
5.55716 99.3772
5.60183 95.9314
5.6465 94.599
5.69117 92.2616
5.73586 90.2024
5.78053 88.7597
5.8252 88.4983
5.86988 88.786
5.91455 90.3186
5.95924 94.7773
6.00392 165.68
6.0486 773.004
6.09328 4568.64
6.13795 3283.94
6.18263 213.52
6.22733 89.1638
6.27201 80.9423
6.3167 102.462
6.36138 79.7269
6.40606 67.6891
6.45075 66.0333
6.49545 64.2553
6.54014 62.9351
6.58483 62.1592
6.62952 61.6445
6.67421 95.0301
6.71892 149.416
6.76361 69.3929
6.8083 57.6098
6.853 56.767
6.89769 56.0697
6.94239 56.0677
6.98711 55.1673
7.03181 54.6195
7.07651 54.9893
7.12121 54.4481
7.16591 54.8892
7.21063 55.2339
7.25533 71.1837
7.30004 188.88
7.34475 93.8831
7.38945 55.8163
7.43416 53.9481
7.47889 53.5842
7.5236 54.1286
7.56831 54.5522
7.61303 56.1997
7.65774 57.083
7.70247 55.372
7.74719 55.1135
7.79191 55.8293
7.83663 55.811
7.88135 56.9744
7.92607 57.6132
7.97081 58.7925
8.01553 59.5063
8.06026 61.3739
8.10498 62.8501
8.14971 72.948
8.19446 71.2405
8.23919 68.41
8.28392 70.0625
8.32865 72.3452
8.37339 76.2904
8.41812 82.6717
8.46288 111.597
8.50761 140.348
8.55235 320.178
8.59709 1118.84
8.64183 2311.19
8.68658 918.724
8.73134 158.771
8.77609 96.0624
8.82083 90.2468
8.86558 87.5908
8.91033 88.1228
8.9551 90.2752
8.99985 83.9384
9.04461 81.8646
9.08936 81.1212
9.13412 80.2068
9.17888 80.3433
9.22365 80.8909
9.26841 80.1796
9.31318 80.6581
9.35794 81.0945
9.4027 81.0881
9.44749 81.9244
9.49226 82.667
9.53703 83.5492
9.5818 85.201
9.62657 90.2973
9.67134 97.379
9.71614 91.8512
9.76091 92.0349
9.80569 93.708
9.85047 97.1927
9.89525 122.623
9.94005 134.026
9.98484 152.311
10.0296 289.907
10.0744 743.763
10.1192 1767.72
10.164 1559.86
10.2088 368.248
10.2536 122.109
10.2984 110.659
10.3432 112.842
10.388 101.944
10.4328 109.883
10.4776 143.882
10.5224 265.208
10.5672 532.015
10.612 507.888
10.6568 197.628
10.7017 94.1683
10.7465 84.4461
10.7913 81.6131
10.8361 79.5986
10.8809 77.0643
10.9257 77.2449
10.9706 77.6476
11.0154 73.5113
11.0602 71.2865
11.105 70.6108
11.1499 75.449
11.1947 83.1469
11.2395 73.5444
11.2844 69.2024
11.3292 65.9602
11.374 64.8218
11.4189 64.2218
11.4637 63.3231
11.5086 64.4606
11.5534 67.4487
11.5983 64.5121
11.6431 62.3963
11.688 61.7021
11.7328 61.2762
11.7777 61.4848
11.8225 61.4475
11.8674 61.102
11.9122 61.4931
11.9571 61.5044
12.002 62.0796
12.0468 64.8292
12.0917 74.6913
12.1366 97.052
12.1814 150.406
12.2263 204.46
12.2712 162.643
12.3161 94.8788
12.3609 69.5871
12.4058 63.3712
12.4507 62.9973
12.4956 63.0136
12.5405 63.1438
12.5853 64.3209
12.6302 72.525
12.6751 78.5066
12.72 69.0674
12.7649 66.55
12.8098 66.7063
12.8547 68.0197
12.8996 69.3423
12.9445 70.4801
12.9894 72.0516
13.0343 73.7535
13.0792 76.696
13.1242 83.0846
13.1691 103.226
13.214 136.046
13.2589 227.675
13.3038 377.838
13.3487 428.58
13.3937 249.036
13.4386 119.522
13.4835 99.4478
13.5285 111.839
13.5734 147.304
13.6183 242.394
13.6633 358.388
13.7082 334.058
13.7531 177.131
13.7981 94.7302
13.843 80.2568
13.888 77.7171
13.9329 75.3762
13.9779 74.2635
14.0228 72.9005
14.0678 71.3303
14.1127 70.97
14.1577 70.8922
14.2027 69.99
14.2476 68.653
14.2926 69.2029
14.3376 70.4025
14.3825 68.6604
14.4275 67.1007
14.4725 67.0559
14.5175 67.1249
14.5624 67.6382
14.6074 69.7723
14.6524 70.1642
14.6974 68.7913
14.7424 69.5248
14.7874 74.2714
14.8324 83.4956
14.8774 103.955
14.9224 150.016
14.9674 213.47
15.0124 218.119
15.0574 146.963
15.1024 88.5243
15.1474 70.7954
15.1924 68.9519
15.2374 69.8801
15.2824 68.8733
15.3274 66.7458
15.3725 65.2596
15.4175 64.8237
15.4625 64.6459
15.5076 64.7078
15.5526 64.8183
15.5976 64.3782
15.6426 64.6166
15.6877 68.5854
15.7327 75.0982
15.7778 89.5039
15.8228 121.456
15.8679 172.801
15.9129 197.58
15.958 152.662
16.003 93.8585
16.0481 66.8767
16.0931 63.4767
16.1382 61.529
16.1833 59.3018
16.2283 57.6802
16.2734 57.3395
16.3185 57.6098
16.3636 58.2977
16.4086 56.8045
16.4537 54.9647
16.4988 54.568
16.5439 54.3492
16.589 53.9118
16.6341 53.599
16.6792 53.3556
16.7243 53.6887
16.7694 53.8138
16.8145 53.6008
16.8596 54.2101
16.9047 55.7922
16.9498 55.9442
16.9949 54.5471
17.04 54.5775
17.0851 55.4254
17.1302 56.7869
17.1754 59.6875
17.2205 64.7775
17.2656 73.0849
17.3108 82.5515
17.3559 80.36
17.401 68.7004
17.4462 60.5004
17.4913 57.8204
17.5365 57.6725
17.5815 58.0815
17.6268 58.2392
17.6718 59.0111
17.7171 59.47
17.7622 59.8624
17.8074 60.3775
17.8525 61.944
17.8977 65.2388
17.9428 70.2175
17.9881 78.7639
18.0331 96.6444
18.0784 121.074
18.1237 138.476
18.1688 126.085
18.214 99.355
18.2591 83.2811
18.3044 88.9076
18.3495 100.279
18.3948 106.103
18.4399 94.3124
18.4852 75.3155
18.5303 64.3542
18.5756 60.8281
18.6207 59.8127
18.666 59.2087
18.7112 58.3762
18.7565 57.6517
18.8016 57.4364
18.8469 56.904
18.892 56.4523
18.9374 56.0118
18.9825 55.89
19.0278 55.7105
19.073 55.7366
19.1183 55.8709
19.1635 56.7219
19.2088 57.8156
19.254 60.199
19.2993 65.1524
19.3447 71.8489
19.3898 75.5784
19.4352 70.41
19.4804 61.4175
19.5257 55.5013
19.5709 53.0823
19.6163 52.8134
19.6615 52.4935
19.7068 52.31
19.752 52.2095
19.7974 52.3363
19.8426 53.0014
19.888 53.6999
19.9332 54.5248
19.9786 57.0456
20.0238 61.2528
20.0692 66.3822
20.1144 68.6843
20.1598 66.2615
20.205 61.7705
20.2504 60.672
20.2957 63.2774
20.3411 65.014
20.3863 62.7785
20.4318 57.1484
20.477 52.3581
20.5224 50.6354
20.5677 50.0378
20.6131 49.1597
20.6586 48.6758
20.7038 48.4719
20.7493 48.1091
20.7945 48.0218
20.84 47.869
20.8853 47.6833
20.9307 47.276
20.976 47.5758
21.0215 47.5732
21.0668 47.9771
21.1122 48.37
21.1575 48.9159
21.203 50.0332
21.2483 50.4852
21.2938 50.1917
21.3391 48.8028
21.3846 47.9454
21.4299 47.3503
21.4754 47.369
21.5207 47.3835
21.5662 47.7823
21.6116 47.9681
21.6571 48.5583
21.7024 49.5381
21.7479 51.1891
21.7933 53.7441
21.8388 57.7319
21.8843 61.8317
21.9297 63.4597
21.9752 61.7805
22.0206 57.975
22.0661 55.6165
22.1115 55.2378
22.157 54.9846
22.2024 53.1064
22.248 50.531
22.2933 48.6216
22.3389 48.0595
22.3843 48.0866
22.4299 47.8582
22.4753 47.8962
22.5208 47.5003
22.5662 47.4745
22.6118 47.8092
22.6572 47.7094
22.7028 48.1463
22.7483 48.6119
22.7939 49.0611
22.8393 50.5826
22.8849 52.9192
22.9303 55.5733
22.9759 56.9057
23.0214 56.3968
23.067 53.3432
23.1126 49.9248
23.1581 48.2488
23.2037 47.7598
23.2492 47.7662
23.2948 47.576
23.3403 48.0023
23.3859 48.51
23.4314 49.4872
23.477 51.3676
23.5225 53.9112
23.5682 56.625
23.6137 57.1118
23.6593 54.2018
23.7048 50.433
23.7505 47.2742
23.796 45.7407
23.8417 45.0645
23.8872 44.7027
23.9329 44.254
23.9784 44.0305
24.0241 43.7775
24.0697 43.566
24.1154 43.3098
24.1609 43.165
24.2066 42.925
24.2522 42.9701
24.2979 42.487
24.3434 42.3959
24.3892 42.19
24.4349 42.3226
24.4805 42.1051
24.5262 42.2465
24.5718 42.0131
24.6175 42.1452
24.6631 42.1726
24.7089 41.6487
24.7545 41.6051
24.8002 41.327
24.8458 41.2477
24.8916 41.2453
24.9372 41.2197
24.983 41.5145
25.0286 41.8568
25.0744 42.4408
25.12 42.8628
25.1658 43.3676
25.2114 43.7091
25.2572 43.9267
25.3029 44.0023
25.3487 44.3484
25.3943 43.7331
25.4402 42.6464
25.4858 41.6541
25.5316 40.5613
25.5773 40.084
25.6231 40.0474
25.669 39.7635
25.7147 39.7541
25.7605 39.6988
25.8062 39.6646
25.8521 39.8354
25.8977 39.7715
25.9436 40.0131
25.9893 40.1433
26.0352 40.6703
26.0809 40.8125
26.1268 41.0951
26.1725 40.5716
26.2184 40.0378
26.2641 39.4859
26.31 39.341
26.3557 39.3028
26.4017 39.1815
26.4474 39.572
26.4933 39.8465
26.5391 40.467
26.585 40.9682
26.6308 41.3484
26.6767 41.309
26.7225 41.1981
26.7684 40.6082
26.8142 39.9859
26.8601 39.6605
26.9059 39.2712
26.9519 38.5944
26.9979 38.4063
27.0437 38.1928
27.0896 37.8824
27.1354 38.0228
27.1814 37.8095
27.2272 37.7269
27.2732 37.781
27.3191 37.5515
27.3651 37.7307
27.4109 37.565
27.4569 37.8136
27.5027 37.7304
27.5488 37.7502
27.5946 37.6971
27.6407 37.4086
27.6865 37.273
27.7326 37.025
27.7784 37.0065
27.8245 37.046
27.8703 37.0886
27.9164 37.4821
27.9623 37.6607
28.0084 38.0116
28.0543 38.369
28.1003 38.2245
28.1462 38.0743
28.1923 37.7823
28.2384 37.2886
28.2843 36.962
28.3304 36.3878
28.3764 35.9503
28.4225 35.6012
28.4684 35.5472
28.5145 35.2429
28.5605 35.2898
28.6066 34.9395
28.6526 34.9351
28.6987 34.9041
28.7447 34.8779
28.7908 34.8681
28.8368 34.684
28.8829 34.765
28.9289 34.6926
28.9751 34.4948
29.0211 34.1533
29.0673 33.9591
29.1133 33.8515
29.1595 33.8013
29.2055 33.6681
29.2517 33.6713
29.2977 33.621
29.3439 33.669
29.3899 33.5965
29.4361 33.5313
29.4824 33.2059
29.5284 33.0549
29.5746 32.6864
29.6207 32.3961
29.6669 32.3618
29.713 32.39
29.7593 32.1286
29.8053 32.2352
29.8516 32.1766
29.8977 32.2524
29.9439 31.9898
29.99 31.9132
30.0363 31.8333
30.0824 31.8769
30.1287 31.7552
30.1748 31.8411
30.2211 31.8278
30.2673 31.6947
30.3136 31.6708
30.3597 31.6309
30.406 31.5344
30.4522 31.3733
30.4985 31.3769
30.5447 31.6216
30.591 31.4329
30.6372 31.583
30.6835 31.5661
30.7297 31.6698
30.7761 31.4583
30.8224 31.3526
30.8686 31.2659
30.915 30.903
30.9612 30.883
31.0076 30.6549
31.0538 30.5749
31.1002 30.4928
31.1464 30.3092
31.1928 30.273
31.2391 30.3357
31.2855 30.2168
31.3317 30.2757
31.3781 30.3169
31.4244 30.2998
31.4708 30.2049
31.5171 30.2075
31.5636 30.19
31.6098 29.8768
31.6563 29.7185
31.7026 29.713
31.7491 29.5454
31.7953 29.611
31.8418 29.5844
31.8881 29.5285
31.9346 29.5388
31.9809 29.4834
32.0275 29.3735
32.074 29.31
32.1203 28.9906
32.1668 29.0056
32.2132 28.799
32.2597 28.7197
32.306 28.6012
32.3526 28.3971
32.399 28.415
32.4455 28.2447
32.4919 28.1042
32.5385 28.061
32.5848 27.8059
32.6314 27.9892
32.6778 27.9823
32.7244 27.6879
32.7708 27.6523
32.8174 27.6628
32.8638 27.5192
32.9104 27.5014
32.9569 27.4374
33.0035 27.3802
33.0499 27.2975
33.0966 27.3022
33.143 27.2442
33.1897 27.121
33.2361 27.0838
33.2828 27.0649
33.3293 26.853
33.3759 26.784
33.4226 26.6605
33.4691 26.6361
33.5158 26.604
33.5623 26.3518
33.609 26.2082
33.6555 26.1125
33.7022 26.0752
33.7487 26.0177
33.7954 25.9994
33.842 25.8364
33.8887 25.8467
33.9353 25.7325
33.982 25.5819
34.0286 25.6028
34.0753 25.4431
34.1219 25.4647
34.1687 25.3302
34.2152 25.261
34.262 25.1999
34.3086 25.0649
34.3554 25.0992
34.402 24.8674
34.4488 24.8152
34.4954 24.7956
34.5422 24.6531
34.5889 24.6164
34.6357 24.5551
34.6825 24.3971
34.7292 24.3008
34.776 24.2679
34.8227 24.2201
34.8695 24.2077
34.9162 24.1246
34.9631 24.0069
35.0098 24.0527
35.0566 23.8874
35.1033 23.7937
35.1502 23.7847
35.1969 23.7285
35.2438 23.6755
35.2906 23.6351
35.3375 23.5737
35.3842 23.4953
35.4311 23.6011
35.4779 23.4586
35.5248 23.4581
35.5716 23.249
35.6185 23.2463
35.6653 23.1344
35.7123 23.1191
35.759 22.9868
35.806 22.9572
35.8528 22.8385
35.8998 22.8065
35.9468 22.7162
35.9936 22.6761
36.0406 22.5559
36.0874 22.5635
36.1345 22.4615
36.1813 22.3115
36.2283 22.2779
36.2752 22.1707
36.3222 22.2542
36.3691 22.125
36.4161 22.0798
36.463 22.0311
36.5101 21.9665
36.557 21.939
36.6041 21.7079
36.651 21.7799
36.6981 21.705
36.745 21.6903
36.7921 21.5165
36.839 21.473
36.8861 21.4086
36.9331 21.3534
36.9802 21.2762
37.0272 21.1296
37.0743 21.1259
37.1213 21.0495
37.1684 20.9483
37.2154 20.9295
37.2626 20.8426
37.3098 20.8075
37.3568 20.7297
37.404 20.7194
37.451 20.6499
37.4982 20.5678
37.5452 20.4263
37.5924 20.4108
37.6395 20.4752
37.6867 20.3383
37.7337 20.2234
37.781 20.1597
37.8281 20.1143
37.8753 20.0271
37.9224 19.9252
37.9697 19.8952
38.0168 19.8491
38.064 19.7922
38.1111 19.6769
38.1584 19.6663
38.2056 19.5629
38.2529 19.525
38.3 19.4309
38.3473 19.4552
38.3945 19.3448
38.4418 19.3032
38.489 19.274
38.5363 19.1392
38.5837 19.066
38.6309 19.0498
38.6782 18.9307
38.7254 18.9481
38.7728 18.8329
38.82 18.8108
38.8674 18.7475
38.9146 18.6751
38.9621 18.5902
39.0093 18.6101
39.0567 18.5439
39.104 18.4018
39.1514 18.4067
39.1987 18.3389
39.2461 18.2959
39.2934 18.1978
39.3409 18.1347
39.3882 18.0445
39.4356 18.0451
39.483 17.9628
39.5304 17.8884
39.5778 17.8767
39.6253 17.8087
39.6726 17.7698
39.7201 17.745
39.7675 17.7196
39.815 17.5945
39.8624 17.5353
39.9099 17.5154
39.9575 17.4035
40.0049 17.4155
40.0525 17.2704
40.0999 17.2956
40.1474 17.2042
40.1949 17.1285
40.2425 17.0396
40.2899 17.0907
40.3375 17.0008
40.385 16.9509
40.4326 16.8822
40.48 16.794
40.5277 16.8027
40.5752 16.7451
40.6228 16.6584
40.6703 16.6412
40.718 16.5665
40.7655 16.5061
40.8132 16.4302
40.8607 16.3896
40.9084 16.3788
40.9559 16.3265
41.0036 16.2501
41.0512 16.2347
41.0989 16.2201
41.1465 16.1058
41.1942 16.0674
41.242 15.9163
41.2896 15.9317
41.3373 15.9007
41.3849 15.8308
41.4327 15.7575
41.4803 15.6453
41.5281 15.6662
41.5758 15.5972
41.6236 15.5523
41.6712 15.4887
41.7191 15.4462
41.7667 15.3715
41.8146 15.3306
41.8622 15.231
41.9101 15.303
41.9578 15.1102
42.0057 15.1837
42.0534 15.1183
42.1013 15.1331
42.149 14.9906
42.1969 14.9439
42.2446 14.9118
42.2925 14.8208
42.3403 14.8039
42.3882 14.8211
42.436 14.7258
42.4839 14.6474
42.5319 14.6051
42.5797 14.5364
42.6277 14.5253
42.6755 14.4917
42.7235 14.3954
42.7713 14.3757
42.8193 14.2821
42.8671 14.2705
42.9152 14.2161
42.963 14.1324
43.0111 14.1334
43.0589 14.0608
43.107 14.0472
43.1549 13.9562
43.2029 13.852
43.2508 13.9099
43.2989 13.8303
43.3468 13.7597
43.3949 13.7144
43.4429 13.6813
43.491 13.6154
43.5389 13.5954
43.5871 13.5307
43.635 13.4738
43.6832 13.4742
43.7312 13.3902
43.7793 13.3682
43.8273 13.2958
43.8755 13.2721
43.9237 13.2694
43.9717 13.2088
44.0199 13.1129
44.068 13.0994
44.1162 13.0032
44.1642 12.9718
44.2125 12.9164
44.2606 12.8676
44.3088 12.8692
44.3569 12.8451
44.4052 12.8115
44.4533 12.681
44.5016 12.7077
44.5497 12.6549
44.598 12.6406
44.6461 12.5402
44.6945 12.4839
44.7426 12.4391
44.791 12.4132
44.8391 12.3564
44.8875 12.3104
44.9357 12.3022
44.984 12.2963
45.0322 12.2147
45.0806 12.156
45.1288 12.1151
45.1773 12.0802
45.2257 12.0628
45.2739 12.0305
45.3224 11.9554
45.3706 11.9283
45.4191 11.8525
45.4673 11.8246
45.5158 11.8018
45.5641 11.7029
45.6126 11.7177
45.6609 11.6497
45.7094 11.5803
45.7577 11.5696
45.8063 11.512
45.8546 11.5128
45.9031 11.4166
45.9515 11.4017
46.0001 11.3381
46.0484 11.3152
46.097 11.3128
46.1454 11.2388
46.194 11.217
46.2424 11.1897
46.291 11.1069
46.3395 11.095
46.3881 10.9872
46.4365 11.0056
46.4852 10.9522
46.5337 10.9316
46.5823 10.9146
46.631 10.8358
46.6795 10.7632
46.7282 10.7956
46.7767 10.7092
46.8254 10.6787
46.8739 10.6071
46.9226 10.5989
46.9712 10.5602
47.0199 10.4949
47.0685 10.52
47.1173 10.4323
47.1658 10.3646
47.2146 10.3652
47.2632 10.3025
47.312 10.3068
47.3606 10.2613
47.4095 10.243
47.4581 10.1461
47.5069 10.1434
47.5556 10.1216
47.6044 10.0524
47.6531 10.0562
47.702 9.96998
47.7507 9.95028
47.7996 9.95755
47.8483 9.87414
47.8972 9.87741
47.9461 9.80403
47.9948 9.77599
48.0438 9.77678
48.0925 9.72817
48.1415 9.67173
48.1902 9.63172
48.2392 9.61296
48.288 9.56656
48.337 9.52054
48.3858 9.49698
48.4348 9.4807
48.4837 9.40708
48.5327 9.41379
48.5815 9.33575
48.6306 9.3493
48.6795 9.28222
48.7285 9.23244
48.7774 9.21124
48.8265 9.19253
48.8754 9.11513
48.9245 9.12375
48.9734 9.1028
49.0226 9.07788
49.0715 9.0139
49.1206 8.96629
49.1696 8.96809
49.2188 8.90614
49.2679 8.85392
49.3169 8.85387
49.3661 8.76279
49.4151 8.78417
49.4643 8.75154
49.5134 8.6806
49.5626 8.64345
49.6117 8.63397
49.6609 8.66622
49.71 8.55988
49.7592 8.54591
49.8083 8.49656
49.8576 8.50729
49.9067 8.42488
49.956 8.40158
50.0052 8.40833
50.0545 8.3418
50.1036 8.33415
50.153 8.28574
50.2022 8.25484
50.2515 8.20084
50.3007 8.16008
50.3501 8.14606
50.3993 8.1253
50.4487 8.10557
50.498 8.05988
50.5474 8.04216
50.5966 7.99665
50.6461 7.9863
50.6955 7.95327
50.7448 7.94493
50.7943 7.87018
50.8436 7.84988
50.8931 7.83506
50.9424 7.78041
50.9919 7.76226
51.0413 7.7447
51.0908 7.66542
51.1402 7.64031
51.1897 7.61239
51.2391 7.59554
51.2887 7.54748
51.3381 7.52821
51.3877 7.52076
51.4371 7.49828
51.4867 7.43521
51.5362 7.42033
51.5858 7.40042
51.6353 7.37418
51.6849 7.31014
51.7344 7.28756
51.7841 7.29069
51.8336 7.2392
51.8833 7.23323
51.9328 7.1712
51.9826 7.12018
52.0323 7.11702
52.0818 7.09838
52.1316 7.03153
52.1812 7.07571
52.231 6.97726
52.2806 6.96096
52.3304 6.94055
52.38 6.91317
52.4298 6.87706
52.4794 6.85769
52.5293 6.8506
52.5789 6.86029
52.6288 6.81627
52.6785 6.74166
52.7284 6.74002
52.7781 6.7219
52.828 6.69271
52.8777 6.62475
52.9276 6.6233
52.9774 6.58715
53.0273 6.57107
53.0771 6.49334
53.1271 6.48311
53.1769 6.50476
53.2269 6.44577
53.2767 6.40722
53.3267 6.41632
53.3765 6.35615
53.4266 6.33956
53.4766 6.30991
53.5265 6.31349
53.5765 6.25956
53.6264 6.20096
53.6765 6.19392
53.7264 6.15864
53.7765 6.17834
53.8265 6.09088
53.8766 6.08145
53.9266 6.04194
53.9767 6.02509
54.0267 6.03414
54.0769 6.01456
54.1269 6.00624
54.1771 5.96434
54.2271 5.92265
54.2773 5.83267
54.3274 5.84002
54.3776 5.75645
54.4277 5.78802
54.478 5.75663
54.528 5.70145
54.5783 5.65337
54.6285 5.62597
54.6788 5.58934
54.7289 5.56224
54.7792 5.5157
54.8296 5.43907
54.8798 5.41468
54.9301 5.36886
54.9803 5.35683
55.0307 5.33865
55.0809 5.29804
55.1314 5.30008
55.1816 5.18433
55.232 5.13055
55.2823 5.08156
55.3328 5.03495
55.383 5.00157
55.4335 4.96581
55.4838 4.93991
55.5344 4.8727
55.5847 4.84884
55.6352 4.81686
55.6856 4.76041
55.7361 4.68062