File: XRD/Ni3Fe_FD0199.xy
TT I
1.27165 7.54263
1.31627 7.55224
1.36089 7.19701
1.40551 7.4952
1.45013 6.31057
1.49476 6.55705
1.53938 6.58982
1.584 5.55862
1.62863 6.37763
1.67325 6.26197
1.71787 5.52652
1.7625 5.45454
1.80712 5.60287
1.85174 5.18088
1.89636 5.26633
1.94099 5.24703
1.98562 5.07171
2.03025 4.65839
2.07487 4.99653
2.11949 4.69101
2.16411 5.21134
2.20874 4.84112
2.25338 4.492
2.298 4.53791
2.34263 3.83638
2.38725 4.35623
2.43188 4.54603
2.4765 4.29356
2.52115 5.08665
2.56577 5.31073
2.6104 5.34246
2.65503 5.18262
2.69965 5.91864
2.7443 6.30264
2.78893 6.7792
2.83356 6.80969
2.87818 8.16454
2.92281 8.59466
2.96744 9.77058
3.01209 10.2148
3.05672 10.7534
3.10135 12.2577
3.14599 13.1794
3.19062 14.0311
3.23527 15.2041
3.2799 15.8784
3.32454 17.1381
3.36917 17.9166
3.4138 19.1573
3.45844 19.9874
3.50309 21.0505
3.54773 21.246
3.59237 22.2491
3.637 23.5498
3.68164 24.2098
3.7263 25.3815
3.77094 25.817
3.81558 26.4904
3.86022 27.9891
3.90486 29.5751
3.9495 30.25
3.99416 31.2178
4.0388 32.5941
4.08344 33.9194
4.12809 35.0858
4.17273 36.4387
4.21738 38.426
4.26204 39.4645
4.30669 40.8068
4.35133 42.7935
4.39598 44.618
4.44063 46.7596
4.4853 48.6433
4.52995 51.0633
4.5746 53.7552
4.61925 56.1342
4.6639 58.3419
4.70855 61.4117
4.75322 64.5822
4.79788 67.8309
4.84253 71.5668
4.88719 76.7116
4.93184 81.9243
4.97652 89.1994
5.02118 97.5816
5.06583 108.59
5.11049 126.014
5.15515 169.953
5.19981 874.659
5.24449 3967.8
5.28916 10336.7
5.33382 4797.19
5.37848 302.135
5.42315 158.147
5.46783 130.586
5.5125 119.047
5.55716 113.098
5.60183 108.388
5.6465 105.37
5.69117 103.666
5.73586 101.724
5.78053 101.777
5.8252 101.802
5.86988 104.675
5.91455 112.116
5.95924 135.646
6.00392 434.724
6.0486 1453.9
6.09328 3486.15
6.13795 3893.24
6.18263 416.912
6.22733 113.631
6.27201 90.6654
6.3167 82.3017
6.36138 76.6668
6.40606 72.6958
6.45075 70.9601
6.49545 68.7251
6.54014 66.9148
6.58483 65.4372
6.62952 64.4026
6.67421 62.9057
6.71892 61.7537
6.76361 60.954
6.8083 59.9799
6.853 58.9189
6.89769 58.676
6.94239 58.5952
6.98711 57.6611
7.03181 56.8833
7.07651 57.0958
7.12121 56.6924
7.16591 56.4128
7.21063 56.0022
7.25533 55.9211
7.30004 55.8793
7.34475 56.1449
7.38945 56.3042
7.43416 55.6254
7.47889 55.4026
7.5236 58.3226
7.56831 60.7983
7.61303 57.6987
7.65774 57.2509
7.70247 58.2683
7.74719 58.3188
7.79191 59.0692
7.83663 59.851
7.88135 60.4215
7.92607 61.5102
7.97081 63.0953
8.01553 63.9021
8.06026 65.4666
8.10498 66.5325
8.14971 68.7129
8.19446 70.4506
8.23919 73.3515
8.28392 76.7173
8.32865 79.3669
8.37339 84.3876
8.41812 90.9825
8.46288 109.141
8.50761 282.344
8.55235 602.551
8.59709 1014.78
8.64183 1892.84
8.68658 1289.29
8.73134 239.174
8.77609 113.041
8.82083 101.301
8.86558 96.4674
8.91033 92.7955
8.9551 90.9715
8.99985 89.5662
9.04461 88.6499
9.08936 88.3085
9.13412 87.2432
9.17888 87.1852
9.22365 90.4937
9.26841 92.8104
9.31318 89.6654
9.35794 88.1747
9.4027 88.3664
9.44749 89.2012
9.49226 89.6402
9.53703 91.1705
9.5818 92.9019
9.62657 94.1639
9.67134 95.5498
9.71614 98.0476
9.76091 100.506
9.80569 103.286
9.85047 106.968
9.89525 113.491
9.94005 132.311
9.98484 297.866
10.0296 536.801
10.0744 773.741
10.1192 1361.65
10.164 1744.7
10.2088 640.786
10.2536 159.792
10.2984 119.479
10.3432 114.176
10.388 114.081
10.4328 157.959
10.4776 217.876
10.5224 274.666
10.5672 421.712
10.612 534.221
10.6568 276.454
10.7017 112.969
10.7465 93.8
10.7913 88.8744
10.8361 85.5456
10.8809 83.2088
10.9257 81.1438
10.9706 79.7005
11.0154 77.6656
11.0602 76.4284
11.105 75.216
11.1499 73.4447
11.1947 72.4705
11.2395 71.3856
11.2844 70.9516
11.3292 70.2131
11.374 69.528
11.4189 68.9944
11.4637 68.2408
11.5086 67.6205
11.5534 67.206
11.5983 66.8775
11.6431 66.6995
11.688 66.3171
11.7328 65.8399
11.7777 65.5925
11.8225 65.7156
11.8674 65.7196
11.9122 66.6034
11.9571 68.0394
12.002 69.0961
12.0468 79.4439
12.0917 96.3104
12.1366 108.375
12.1814 135.047
12.2263 182.951
12.2712 188.871
12.3161 110.601
12.3609 71.7362
12.4058 67.6649
12.4507 67.6405
12.4956 67.4287
12.5405 67.6496
12.5853 67.6858
12.6302 68.4445
12.6751 69.102
12.72 69.9902
12.7649 71.3022
12.8098 72.005
12.8547 73.2609
12.8996 75.0336
12.9445 76.7645
12.9894 78.9888
13.0343 81.0631
13.0792 86.0257
13.1242 108.072
13.1691 151.535
13.214 177.3
13.2589 222.252
13.3038 303.472
13.3487 408.048
13.3937 323.436
13.4386 157.433
13.4835 134.691
13.5285 157.796
13.5734 174.567
13.6183 218.304
13.6633 297.98
13.7082 358.551
13.7531 243.256
13.7981 117.205
13.843 87.9007
13.888 84.813
13.9329 81.8244
13.9779 80.4224
14.0228 78.9351
14.0678 77.2233
14.1127 77.0178
14.1577 76.7853
14.2027 75.559
14.2476 74.6692
14.2926 73.8085
14.3376 73.6167
14.3825 73.0854
14.4275 72.7147
14.4725 72.4945
14.5175 72.8665
14.5624 72.8613
14.6074 73.2044
14.6524 73.9107
14.6974 74.7659
14.7424 79.7283
14.7874 95.9108
14.8324 109.187
14.8774 119.254
14.9224 141.093
14.9674 178.242
15.0124 217.124
15.0574 180.372
15.1024 107.905
15.1474 78.3
15.1924 74.3007
15.2374 73.0546
15.2824 71.9576
15.3274 70.8667
15.3725 70.4052
15.4175 70.1125
15.4625 69.8789
15.5076 69.4207
15.5526 69.6381
15.5976 70.1707
15.6426 73.8403
15.6877 86.9713
15.7327 97.1039
15.7778 103.802
15.8228 119.522
15.8679 146.506
15.9129 181.878
15.958 178.59
16.003 118.978
16.0481 75.4425
16.0931 66.8975
16.1382 64.4066
16.1833 63.5118
16.2283 61.8633
16.2734 61.2859
16.3185 60.4643
16.3636 59.8946
16.4086 59.1515
16.4537 58.6754
16.4988 58.1717
16.5439 58.4336
16.589 57.9173
16.6341 57.6808
16.6792 57.3182
16.7243 57.4087
16.7694 57.3612
16.8145 57.2229
16.8596 57.6218
16.9047 57.9381
16.9498 58.0837
16.9949 58.1648
17.04 59.1836
17.0851 62.2511
17.1302 64.4116
17.1754 65.9816
17.2205 68.8368
17.2656 73.0999
17.3108 80.6253
17.3559 84.7545
17.401 79.0507
17.4462 67.7412
17.4913 62.999
17.5365 62.4117
17.5815 62.483
17.6268 62.9589
17.6718 63.5129
17.7171 64.0064
17.7622 65.1129
17.8074 66.3438
17.8525 71.9598
17.8977 79.1241
17.9428 84.023
17.9881 87.7994
18.0331 97.57
18.0784 111.759
18.1237 135.033
18.1688 145.6
18.214 123.316
18.2591 95.8418
18.3044 89.9021
18.3495 95.4131
18.3948 105.432
18.4399 103.485
18.4852 86.4378
18.5303 71.2949
18.5756 66.1575
18.6207 64.7508
18.666 63.9745
18.7112 63.0549
18.7565 62.2181
18.8016 62.055
18.8469 61.2103
18.892 60.8707
18.9374 60.3361
18.9825 60.0461
19.0278 59.8083
19.073 60.4143
19.1183 61.9457
19.1635 62.732
19.2088 63.2051
19.254 64.5847
19.2993 66.9656
19.3447 70.5903
19.3898 75.4671
19.4352 76.3065
19.4804 69.473
19.5257 61.3329
19.5709 57.387
19.6163 56.7145
19.6615 56.6096
19.7068 56.2878
19.752 56.2626
19.7974 57.1112
19.8426 58.6566
19.888 59.1153
19.9332 59.8597
19.9786 61.1463
20.0238 63.6166
20.0692 68.107
20.1144 72.1559
20.1598 73.5938
20.205 68.8217
20.2504 64.6256
20.2957 64.1428
20.3411 66.3169
20.3863 67.6374
20.4318 63.4538
20.477 57.4612
20.5224 54.0204
20.5677 53.207
20.6131 52.7884
20.6586 52.3262
20.7038 52.1783
20.7493 51.6456
20.7945 51.5549
20.84 51.4711
20.8853 51.2365
20.9307 51.2322
20.976 51.5896
21.0215 51.507
21.0668 51.6654
21.1122 51.8206
21.1575 52.1026
21.203 52.6716
21.2483 53.435
21.2938 54.0043
21.3391 53.3032
21.3846 51.8024
21.4299 51.2507
21.4754 51.1635
21.5207 51.1829
21.5662 51.7871
21.6116 52.8747
21.6571 53.7695
21.7024 54.5617
21.7479 55.6701
21.7933 57.3513
21.8388 59.8099
21.8843 62.79
21.9297 66.2547
21.9752 67.3145
22.0206 64.0445
22.0661 59.3103
22.1115 57.8502
22.157 58.1151
22.2024 57.7872
22.248 55.1713
22.2933 52.8565
22.3389 51.6854
22.3843 51.2959
22.4299 51.0322
22.4753 51.009
22.5208 51.1852
22.5662 51.1088
22.6118 51.4105
22.6572 52.135
22.7028 52.7247
22.7483 52.961
22.7939 53.2344
22.8393 54.2284
22.8849 55.3135
22.9303 56.6894
22.9759 58.7371
23.0214 59.9103
23.067 58.654
23.1126 55.0356
23.1581 52.4615
23.2037 51.5656
23.2492 52.0337
23.2948 52.3425
23.3403 52.7175
23.3859 52.8781
23.4314 53.2358
23.477 54.113
23.5225 55.2607
23.5682 57.1269
23.6137 59.4032
23.6593 59.1361
23.7048 55.9944
23.7505 51.8182
23.796 49.2826
23.8417 48.4848
23.8872 48.013
23.9329 47.6196
23.9784 47.3115
24.0241 46.9553
24.0697 46.7049
24.1154 46.3696
24.1609 46.232
24.2066 46.0437
24.2522 46.012
24.2979 45.6223
24.3434 45.5323
24.3892 45.3284
24.4349 45.3714
24.4805 45.1625
24.5262 45.1865
24.5718 45.1243
24.6175 45.0531
24.6631 45.001
24.7089 44.8012
24.7545 44.5601
24.8002 44.5632
24.8458 44.5572
24.8916 44.287
24.9372 44.5429
24.983 44.9065
25.0286 45.2525
25.0744 45.5162
25.12 45.7069
25.1658 46.2526
25.2114 46.7014
25.2572 46.6916
25.3029 46.3459
25.3487 46.558
25.3943 46.7525
25.4402 46.1383
25.4858 45.1717
25.5316 43.8256
25.5773 43.1604
25.6231 42.9113
25.669 42.6587
25.7147 42.6794
25.7605 42.551
25.8062 42.5844
25.8521 42.7137
25.8977 42.588
25.9436 42.7476
25.9893 42.6933
26.0352 43.2963
26.0809 43.2761
26.1268 43.5857
26.1725 43.508
26.2184 43.0926
26.2641 42.7049
26.31 42.388
26.3557 42.4381
26.4017 42.2663
26.4474 42.4813
26.4933 42.7317
26.5391 42.9545
26.585 43.1776
26.6308 43.6393
26.6767 44.0665
26.7225 43.9784
26.7684 43.7786
26.8142 43.0045
26.8601 42.4494
26.9059 42.2767
26.9519 41.6889
26.9979 41.2587
27.0437 40.9226
27.0896 40.7012
27.1354 40.8161
27.1814 40.5857
27.2272 40.5264
27.2732 40.5594
27.3191 40.3237
27.3651 40.4653
27.4109 40.359
27.4569 40.2297
27.5027 40.3772
27.5488 40.4776
27.5946 40.4368
27.6407 40.1478
27.6865 40.1934
27.7326 39.8585
27.7784 40.0189
27.8245 39.8301
27.8703 39.8279
27.9164 40.0183
27.9623 40.0401
28.0084 40.2822
28.0543 40.5721
28.1003 40.6935
28.1462 40.5605
28.1923 40.2531
28.2384 39.9139
28.2843 39.5921
28.3304 39.1793
28.3764 38.6582
28.4225 38.2928
28.4684 38.1153
28.5145 37.7778
28.5605 37.6052
28.6066 37.503
28.6526 37.4157
28.6987 37.3537
28.7447 37.1478
28.7908 37.0607
28.8368 37.0813
28.8829 37.1096
28.9289 36.9831
28.9751 36.9286
29.0211 36.8146
29.0673 36.4555
29.1133 36.3845
29.1595 36.1818
29.2055 35.9632
29.2517 35.92
29.2977 35.9008
29.3439 35.8768
29.3899 35.845
29.4361 35.7349
29.4824 35.6759
29.5284 35.4485
29.5746 35.0558
29.6207 34.7837
29.6669 34.8062
29.713 34.5781
29.7593 34.4342
29.8053 34.4952
29.8516 34.4464
29.8977 34.4191
29.9439 34.282
29.99 34.1766
30.0363 34.0638
30.0824 34.1405
30.1287 33.9981
30.1748 33.9105
30.2211 34.0231
30.2673 33.8869
30.3136 34.036
30.3597 33.8751
30.406 33.783
30.4522 33.6891
30.4985 33.5439
30.5447 33.6373
30.591 33.5721
30.6372 33.6868
30.6835 33.627
30.7297 33.6714
30.7761 33.8044
30.8224 33.546
30.8686 33.5473
30.915 33.1238
30.9612 33.1592
31.0076 32.8933
31.0538 32.8058
31.1002 32.8533
31.1464 32.4903
31.1928 32.463
31.2391 32.4944
31.2855 32.4133
31.3317 32.3298
31.3781 32.3515
31.4244 32.3201
31.4708 32.2183
31.5171 32.204
31.5636 32.2197
31.6098 32.0247
31.6563 31.9054
31.7026 31.807
31.7491 31.6064
31.7953 31.6179
31.8418 31.5537
31.8881 31.5624
31.9346 31.4434
31.9809 31.3745
32.0275 31.4228
32.074 31.2718
32.1203 31.1177
32.1668 31.0996
32.2132 30.8475
32.2597 30.7592
32.306 30.5686
32.3526 30.3737
32.399 30.331
32.4455 30.2404
32.4919 30.1246
32.5385 30.0086
32.5848 29.882
32.6314 29.9556
32.6778 29.8835
32.7244 29.7895
32.7708 29.579
32.8174 29.548
32.8638 29.4139
32.9104 29.4448
32.9569 29.37
33.0035 29.3098
33.0499 29.179
33.0966 29.0778
33.143 29.1431
33.1897 28.9907
33.2361 28.9341
33.2828 28.8731
33.3293 28.7522
33.3759 28.7951
33.4226 28.7473
33.4691 28.4212
33.5158 28.4112
33.5623 28.2386
33.609 28.0661
33.6555 27.905
33.7022 27.8846
33.7487 27.8055
33.7954 27.8367
33.842 27.5959
33.8887 27.6655
33.9353 27.504
33.982 27.4804
34.0286 27.274
34.0753 27.3283
34.1219 27.1609
34.1687 27.1536
34.2152 27.0388
34.262 26.9351
34.3086 26.7933
34.3554 26.712
34.402 26.6557
34.4488 26.5188
34.4954 26.5125
34.5422 26.3675
34.5889 26.2411
34.6357 26.1869
34.6825 26.1398
34.7292 25.98
34.776 25.9065
34.8227 25.8363
34.8695 25.8771
34.9162 25.7626
34.9631 25.6962
35.0098 25.6674
35.0566 25.5311
35.1033 25.5013
35.1502 25.5741
35.1969 25.3251
35.2438 25.3075
35.2906 25.2579
35.3375 25.2204
35.3842 25.1051
35.4311 25.1061
35.4779 25.0693
35.5248 25.069
35.5716 24.9746
35.6185 24.8072
35.6653 24.7221
35.7123 24.6168
35.759 24.5797
35.806 24.445
35.8528 24.3154
35.8998 24.3818
35.9468 24.2089
35.9936 24.1976
36.0406 24.0955
36.0874 24.0681
36.1345 24.0005
36.1813 23.9312
36.2283 23.8469
36.2752 23.7101
36.3222 23.7941
36.3691 23.6537
36.4161 23.536
36.463 23.5167
36.5101 23.5046
36.557 23.4671
36.6041 23.2894
36.651 23.2479
36.6981 23.2578
36.745 23.1649
36.7921 23.0706
36.839 22.9052
36.8861 22.8303
36.9331 22.7551
36.9802 22.755
37.0272 22.6221
37.0743 22.5662
37.1213 22.5247
37.1684 22.4241
37.2154 22.3782
37.2626 22.2579
37.3098 22.238
37.3568 22.1151
37.404 22.1749
37.451 22.004
37.4982 21.9013
37.5452 21.8585
37.5924 21.7427
37.6395 21.7845
37.6867 21.7402
37.7337 21.5598
37.781 21.5869
37.8281 21.484
37.8753 21.3656
37.9224 21.3424
37.9697 21.1885
38.0168 21.1557
38.064 21.0626
38.1111 21.0399
38.1584 20.9151
38.2056 20.8922
38.2529 20.8175
38.3 20.7449
38.3473 20.7316
38.3945 20.6405
38.4418 20.5543
38.489 20.5414
38.5363 20.4636
38.5837 20.4287
38.6309 20.3179
38.6782 20.1972
38.7254 20.1904
38.7728 20.1158
38.82 20.0373
38.8674 19.9961
38.9146 19.9574
38.9621 19.8433
39.0093 19.8186
39.0567 19.7423
39.104 19.7341
39.1514 19.596
39.1987 19.5213
39.2461 19.5245
39.2934 19.4462
39.3409 19.3582
39.3882 19.1955
39.4356 19.2378
39.483 19.1693
39.5304 19.1833
39.5778 19.0618
39.6253 19.039
39.6726 18.9567
39.7201 18.9255
39.7675 18.8538
39.815 18.7391
39.8624 18.6752
39.9099 18.7324
39.9575 18.5937
40.0049 18.5979
40.0525 18.4566
40.0999 18.4562
40.1474 18.3794
40.1949 18.3056
40.2425 18.1968
40.2899 18.2174
40.3375 18.1248
40.385 18.1088
40.4326 17.9583
40.48 17.9499
40.5277 17.9519
40.5752 17.8735
40.6228 17.7209
40.6703 17.7701
40.718 17.7242
40.7655 17.5992
40.8132 17.5281
40.8607 17.5253
40.9084 17.5165
40.9559 17.3755
41.0036 17.4219
41.0512 17.2998
41.0989 17.313
41.1465 17.1698
41.1942 17.1337
41.242 17.037
41.2896 16.9678
41.3373 16.8948
41.3849 16.8934
41.4327 16.7953
41.4803 16.7379
41.5281 16.7351
41.5758 16.6593
41.6236 16.5198
41.6712 16.5204
41.7191 16.4708
41.7667 16.413
41.8146 16.3387
41.8622 16.3264
41.9101 16.264
41.9578 16.1888
42.0057 16.1535
42.0534 16.0731
42.1013 15.9965
42.149 15.9535
42.1969 15.9016
42.2446 15.8738
42.2925 15.8253
42.3403 15.7624
42.3882 15.6984
42.436 15.6944
42.4839 15.6136
42.5319 15.576
42.5797 15.531
42.6277 15.4753
42.6755 15.4123
42.7235 15.308
42.7713 15.3378
42.8193 15.1715
42.8671 15.2157
42.9152 15.1659
42.963 15.104
43.0111 14.9906
43.0589 14.9704
43.107 14.9602
43.1549 14.8478
43.2029 14.8388
43.2508 14.8032
43.2989 14.7105
43.3468 14.6612
43.3949 14.6391
43.4429 14.5894
43.491 14.5226
43.5389 14.4817
43.5871 14.4466
43.635 14.3385
43.6832 14.3101
43.7312 14.2404
43.7793 14.211
43.8273 14.1888
43.8755 14.1067
43.9237 14.0959
43.9717 14.104
44.0199 14.01
44.068 13.967
44.1162 13.9094
44.1642 13.8508
44.2125 13.799
44.2606 13.7654
44.3088 13.7051
44.3569 13.609
44.4052 13.6
44.4533 13.5312
44.5016 13.4757
44.5497 13.4542
44.598 13.4419
44.6461 13.3285
44.6945 13.3053
44.7426 13.2586
44.791 13.1772
44.8391 13.1964
44.8875 13.162
44.9357 13.0946
44.984 13.0288
45.0322 12.9587
45.0806 12.9027
45.1288 12.8567
45.1773 12.871
45.2257 12.8173
45.2739 12.7909
45.3224 12.7407
45.3706 12.6948
45.4191 12.5981
45.4673 12.6131
45.5158 12.5248
45.5641 12.4824
45.6126 12.4996
45.6609 12.4238
45.7094 12.3643
45.7577 12.3555
45.8063 12.2142
45.8546 12.2352
45.9031 12.2145
45.9515 12.1561
46.0001 12.127
46.0484 12.0722
46.097 12.027
46.1454 11.9835
46.194 11.9435
46.2424 11.8924
46.291 11.8377
46.3395 11.776
46.3881 11.7242
46.4365 11.7213
46.4852 11.6781
46.5337 11.6377
46.5823 11.599
46.631 11.5255
46.6795 11.4945
46.7282 11.4745
46.7767 11.422
46.8254 11.3377
46.8739 11.3385
46.9226 11.2828
46.9712 11.2184
47.0199 11.2216
47.0685 11.1701
47.1173 11.1026
47.1658 11.0858
47.2146 11.0338
47.2632 10.9716
47.312 10.9341
47.3606 10.8961
47.4095 10.8577
47.4581 10.8487
47.5069 10.8001
47.5556 10.7579
47.6044 10.7328
47.6531 10.6818
47.702 10.6179
47.7507 10.5793
47.7996 10.5492
47.8483 10.5407
47.8972 10.4637
47.9461 10.4552
47.9948 10.3825
48.0438 10.3304
48.0925 10.3716
48.1415 10.305
48.1902 10.2781
48.2392 10.228
48.288 10.2014
48.337 10.1383
48.3858 10.141
48.4348 10.0939
48.4837 10.0531
48.5327 10.0393
48.5815 9.97041
48.6306 9.92696
48.6795 9.9234
48.7285 9.87369
48.7774 9.81807
48.8265 9.81812
48.8754 9.74425
48.9245 9.72244
48.9734 9.68751
49.0226 9.62173
49.0715 9.63487
49.1206 9.60713
49.1696 9.51981
49.2188 9.51948
49.2679 9.43792
49.3169 9.40751
49.3661 9.37577
49.4151 9.38811
49.4643 9.32054
49.5134 9.30571
49.5626 9.24154
49.6117 9.19179
49.6609 9.16614
49.71 9.0822
49.7592 9.08746
49.8083 9.05665
49.8576 9.06146
49.9067 8.99032
49.956 8.99381
50.0052 8.94137
50.0545 8.8881
50.1036 8.84071
50.153 8.82291
50.2022 8.80474
50.2515 8.73755
50.3007 8.70331
50.3501 8.69883
50.3993 8.62013
50.4487 8.60591
50.498 8.5923
50.5474 8.54037
50.5966 8.50329
50.6461 8.53978
50.6955 8.4552
50.7448 8.423
50.7943 8.39443
50.8436 8.37023
50.8931 8.31519
50.9424 8.31605
50.9919 8.2782
51.0413 8.2705
51.0908 8.19666
51.1402 8.14078
51.1897 8.14419
51.2391 8.09597
51.2887 8.07405
51.3381 8.01477
51.3877 7.99587
51.4371 7.95234
51.4867 7.87996
51.5362 7.88045
51.5858 7.85273
51.6353 7.81419
51.6849 7.79562
51.7344 7.7671
51.7841 7.73494
51.8336 7.70874
51.8833 7.67217
51.9328 7.61471
51.9826 7.58707
52.0323 7.55372
52.0818 7.48501
52.1316 7.51378
52.1812 7.51197
52.231 7.43309
52.2806 7.3889
52.3304 7.37593
52.38 7.35675
52.4298 7.30513
52.4794 7.26914
52.5293 7.28719
52.5789 7.21567
52.6288 7.19777
52.6785 7.14834
52.7284 7.1522
52.7781 7.11569
52.828 7.0863
52.8777 7.06553
52.9276 7.00153
52.9774 7.03935
53.0273 6.96745
53.0771 6.95009
53.1271 6.94955
53.1769 6.89422
53.2269 6.84751
53.2767 6.82113
53.3267 6.81553
53.3765 6.76866
53.4266 6.74016
53.4766 6.70381
53.5265 6.66118
53.5765 6.65152
53.6264 6.60182
53.6765 6.62119
53.7264 6.61403
53.7765 6.55528
53.8265 6.53459
53.8766 6.47544
53.9266 6.43553
53.9767 6.43006
54.0267 6.39174
54.0769 6.34937
54.1269 6.30571
54.1771 6.30817
54.2271 6.29195
54.2773 6.21204
54.3274 6.15234
54.3776 6.12869
54.4277 6.0878
54.478 6.08167
54.528 6.03594
54.5783 5.99494
54.6285 5.91106
54.6788 5.89291
54.7289 5.85739
54.7792 5.83114
54.8296 5.76535
54.8798 5.67876
54.9301 5.68533
54.9803 5.6837
55.0307 5.64526
55.0809 5.58129
55.1314 5.55624
55.1816 5.41625
55.232 5.40465
55.2823 5.36461
55.3328 5.25604
55.383 5.24509
55.4335 5.20945
55.4838 5.12799
55.5344 5.0981
55.5847 5.0885
55.6352 5.03542
55.6856 5.03046
55.7361 4.96396