File: XRD/Ni3Fe_FD0834.xy
TT I
1.27165 7.10448
1.31627 6.38031
1.36089 6.63262
1.40551 5.77724
1.45013 5.72623
1.49476 6.11649
1.53938 5.63097
1.584 5.46668
1.62863 4.87345
1.67325 4.59608
1.71787 5.27867
1.7625 4.90678
1.80712 4.82012
1.85174 4.21806
1.89636 4.62508
1.94099 5.00583
1.98562 4.94873
2.03025 4.53546
2.07487 4.21145
2.11949 4.59367
2.16411 4.39022
2.20874 9.86222
2.25338 13.7361
2.298 5.69795
2.34263 5.61424
2.38725 5.73324
2.43188 6.82277
2.4765 7.00801
2.52115 7.24741
2.56577 7.10612
2.6104 8.68458
2.65503 8.12648
2.69965 8.96498
2.7443 8.67675
2.78893 7.82196
2.83356 8.67404
2.87818 8.25673
2.92281 9.08336
2.96744 9.90704
3.01209 10.3894
3.05672 11.4177
3.10135 12.6422
3.14599 12.6322
3.19062 14.6329
3.23527 15.4332
3.2799 15.5975
3.32454 16.7705
3.36917 17.5375
3.4138 18.639
3.45844 19.5642
3.50309 20.3283
3.54773 21.2915
3.59237 23.1487
3.637 57.8214
3.68164 41.2353
3.7263 25.7311
3.77094 25.561
3.81558 26.6756
3.86022 26.8275
3.90486 28.6999
3.9495 29.7656
3.99416 30.4339
4.0388 32.0021
4.08344 33.2259
4.12809 34.116
4.17273 36.1559
4.21738 40.3867
4.26204 148.398
4.30669 127.986
4.35133 45.699
4.39598 44.54
4.44063 49.6568
4.4853 55.9504
4.52995 53.7725
4.5746 55.1129
4.61925 53.3308
4.6639 55.1085
4.70855 58.0519
4.75322 61.5267
4.79788 66.6344
4.84253 67.8905
4.88719 73.2079
4.93184 75.4958
4.97652 80.5623
5.02118 87.2892
5.06583 94.927
5.11049 104.931
5.15515 154.932
5.19981 341.483
5.24449 2761.32
5.28916 12331.9
5.33382 2714.41
5.37848 189.259
5.42315 128.259
5.46783 116.101
5.5125 109.003
5.55716 101.619
5.60183 97.3775
5.6465 95.8188
5.69117 93.82
5.73586 91.919
5.78053 94.5695
5.8252 94.9853
5.86988 96.6358
5.91455 93.6088
5.95924 101.005
6.00392 210.56
6.0486 945.32
6.09328 4311.78
6.13795 3108.7
6.18263 223.833
6.22733 89.5617
6.27201 80.233
6.3167 87.2643
6.36138 75.3493
6.40606 69.2001
6.45075 68.238
6.49545 64.6671
6.54014 62.5546
6.58483 62.409
6.62952 61.8656
6.67421 77.5469
6.71892 99.9539
6.76361 63.1809
6.8083 58.4222
6.853 58.5452
6.89769 56.1212
6.94239 55.7032
6.98711 55.3174
7.03181 55.2129
7.07651 54.5886
7.12121 55.2889
7.16591 55.7571
7.21063 54.9913
7.25533 63.4395
7.30004 114.52
7.34475 71.6928
7.38945 55.1389
7.43416 53.4386
7.47889 53.6224
7.5236 54.1958
7.56831 54.3213
7.61303 55.2505
7.65774 55.8559
7.70247 55.9899
7.74719 55.9559
7.79191 56.2827
7.83663 56.5438
7.88135 57.2526
7.92607 57.8261
7.97081 59.2427
8.01553 59.9874
8.06026 62.2367
8.10498 63.3748
8.14971 70.4933
8.19446 70.3319
8.23919 68.9007
8.28392 71.2923
8.32865 73.5593
8.37339 77.7885
8.41812 83.3369
8.46288 102.072
8.50761 162.796
8.55235 378.281
8.59709 1186.18
8.64183 2142.48
8.68658 927.426
8.73134 160.591
8.77609 97.5598
8.82083 91.6135
8.86558 90.8904
8.91033 90.2691
8.9551 89.194
8.99985 84.4814
9.04461 83.0896
9.08936 83.0156
9.13412 82.1427
9.17888 81.3369
9.22365 81.4683
9.26841 81.4708
9.31318 83.2889
9.35794 84.479
9.4027 84.2229
9.44749 84.2094
9.49226 84.0422
9.53703 84.8807
9.5818 87.7695
9.62657 92.4008
9.67134 94.958
9.71614 92.1874
9.76091 93.7699
9.80569 97.5296
9.85047 99.9805
9.89525 113.305
9.94005 123.924
9.98484 175.853
10.0296 339.392
10.0744 828.398
10.1192 1746.26
10.164 1549.15
10.2088 404.237
10.2536 124.878
10.2984 109.642
10.3432 108.471
10.388 103.142
10.4328 117.806
10.4776 159.95
10.5224 291.791
10.5672 523.491
10.612 485.704
10.6568 198.366
10.7017 95.8891
10.7465 85.6731
10.7913 82.5608
10.8361 80.3359
10.8809 78.1997
10.9257 77.3958
10.9706 77.1792
11.0154 74.8439
11.0602 72.0958
11.105 70.8356
11.1499 72.5529
11.1947 75.1594
11.2395 70.5184
11.2844 68.1385
11.3292 66.6559
11.374 65.4945
11.4189 65.0873
11.4637 64.0409
11.5086 64.2709
11.5534 65.2897
11.5983 63.8293
11.6431 62.8909
11.688 62.1671
11.7328 62.0036
11.7777 62.2319
11.8225 61.8191
11.8674 61.7335
11.9122 61.935
11.9571 62.6527
12.002 63.2746
12.0468 67.3026
12.0917 77.5077
12.1366 102.671
12.1814 155.653
12.2263 208.392
12.2712 171.321
12.3161 92.0655
12.3609 67.2939
12.4058 63.5268
12.4507 63.54
12.4956 63.9948
12.5405 64.0522
12.5853 64.5245
12.6302 68.9584
12.6751 71.4815
12.72 67.6324
12.7649 67.3771
12.8098 67.5176
12.8547 68.9464
12.8996 70.4697
12.9445 71.8469
12.9894 73.574
13.0343 75.0886
13.0792 78.6213
13.1242 88.5002
13.1691 110.13
13.214 148.095
13.2589 244.878
13.3038 380.309
13.3487 410.345
13.3937 253.052
13.4386 122.848
13.4835 104.633
13.5285 119.243
13.5734 159.146
13.6183 252.237
13.6633 355.925
13.7082 333.68
13.7531 184.112
13.7981 96.8962
13.843 80.9448
13.888 78.8886
13.9329 76.5471
13.9779 75.1647
14.0228 73.6754
14.0678 72.2985
14.1127 71.9407
14.1577 71.3923
14.2027 70.4793
14.2476 69.5571
14.2926 69.357
14.3376 69.9359
14.3825 69.2417
14.4275 68.3624
14.4725 67.9929
14.5175 68.3559
14.5624 67.9937
14.6074 69.5501
14.6524 69.864
14.6974 69.7016
14.7424 71.6441
14.7874 78.1748
14.8324 88.1624
14.8774 111.02
14.9224 157.455
14.9674 211.768
15.0124 214.565
15.0574 145.618
15.1024 89.5412
15.1474 71.6153
15.1924 69.7618
15.2374 68.9747
15.2824 68.5012
15.3274 66.9768
15.3725 66.1422
15.4175 65.7638
15.4625 65.3298
15.5076 65.2158
15.5526 65.1469
15.5976 64.8216
15.6426 66.5796
15.6877 71.6823
15.7327 78.9875
15.7778 94.9785
15.8228 128.469
15.8679 172.161
15.9129 189.834
15.958 151.576
16.003 94.0673
16.0481 66.8944
16.0931 62.6697
16.1382 61.0388
16.1833 59.6562
16.2283 58.3015
16.2734 57.5818
16.3185 57.4639
16.3636 57.5674
16.4086 56.3166
16.4537 55.3714
16.4988 54.9449
16.5439 54.7731
16.589 54.4445
16.6341 54.213
16.6792 53.8476
16.7243 54.0543
16.7694 54.127
16.8145 54.1335
16.8596 54.3579
16.9047 55.2337
16.9498 55.4955
16.9949 54.8003
17.04 55.3726
17.0851 56.4336
17.1302 58.0794
17.1754 61.0204
17.2205 66.6575
17.2656 74.3114
17.3108 81.8535
17.3559 80.4801
17.401 69.8971
17.4462 61.4363
17.4913 58.7101
17.5365 58.5934
17.5815 58.6431
17.6268 59.0454
17.6718 59.6509
17.7171 60.2028
17.7622 60.7396
17.8074 61.3416
17.8525 63.9756
17.8977 67.5177
17.9428 73.089
17.9881 82.6037
18.0331 101.014
18.0784 122.715
18.1237 137.843
18.1688 128.085
18.214 102.794
18.2591 86.2909
18.3044 91.0931
18.3495 100.074
18.3948 104.119
18.4399 93.1714
18.4852 76.1255
18.5303 65.3725
18.5756 61.538
18.6207 60.7315
18.666 59.7944
18.7112 59.1015
18.7565 58.4392
18.8016 58.0234
18.8469 57.5368
18.892 57.1219
18.9374 56.6981
18.9825 56.3561
19.0278 56.1442
19.073 56.5047
19.1183 56.7189
19.1635 57.1323
19.2088 58.683
19.254 61.6784
19.2993 66.4967
19.3447 71.7898
19.3898 74.3873
19.4352 70.4279
19.4804 62.0251
19.5257 56.0163
19.5709 53.5099
19.6163 53.3726
19.6615 53.166
19.7068 52.6964
19.752 52.6586
19.7974 53.1048
19.8426 53.8578
19.888 54.3682
19.9332 55.7017
19.9786 58.3484
20.0238 62.364
20.0692 67.1454
20.1144 69.2576
20.1598 67.3895
20.205 63.0524
20.2504 61.9645
20.2957 63.6369
20.3411 64.7514
20.3863 62.9476
20.4318 57.4282
20.477 52.8623
20.5224 50.7548
20.5677 50.2381
20.6131 49.5884
20.6586 49.181
20.7038 49.1157
20.7493 48.6981
20.7945 48.4593
20.84 48.3413
20.8853 48.2341
20.9307 47.984
20.976 48.1621
21.0215 48.0476
21.0668 48.497
21.1122 48.8894
21.1575 49.724
21.203 50.2959
21.2483 50.9066
21.2938 50.7856
21.3391 49.476
21.3846 48.4172
21.4299 47.9482
21.4754 47.9529
21.5207 47.9474
21.5662 48.3709
21.6116 48.9502
21.6571 49.3748
21.7024 50.3897
21.7479 52.3217
21.7933 55.0835
21.8388 59.017
21.8843 62.3213
21.9297 63.7256
21.9752 62.3453
22.0206 58.7609
22.0661 56.1679
22.1115 55.4835
22.157 55.2068
22.2024 53.3643
22.248 50.9293
22.2933 49.348
22.3389 48.3134
22.3843 48.447
22.4299 48.1869
22.4753 48.4264
22.5208 47.9642
22.5662 48.1079
22.6118 48.1309
22.6572 48.4289
22.7028 48.6216
22.7483 49.0869
22.7939 49.9907
22.8393 51.7887
22.8849 53.9105
22.9303 55.6151
22.9759 57.1381
23.0214 56.4117
23.067 53.7388
23.1126 50.7514
23.1581 48.8351
23.2037 48.3197
23.2492 48.4072
23.2948 48.2232
23.3403 48.5744
23.3859 49.2873
23.4314 50.3919
23.477 52.3377
23.5225 54.6851
23.5682 56.4917
23.6137 57.3069
23.6593 54.8352
23.7048 50.9861
23.7505 47.8268
23.796 46.1591
23.8417 45.5012
23.8872 45.1122
23.9329 44.8767
23.9784 44.3981
24.0241 44.0933
24.0697 43.9359
24.1154 43.5638
24.1609 43.4812
24.2066 43.2875
24.2522 43.3622
24.2979 43.0075
24.3434 42.9503
24.3892 42.5856
24.4349 42.7504
24.4805 42.4485
24.5262 42.6948
24.5718 42.4491
24.6175 42.5571
24.6631 42.3937
24.7089 42.2206
24.7545 41.8882
24.8002 41.6497
24.8458 41.8368
24.8916 41.603
24.9372 41.8768
24.983 42.0128
25.0286 42.5044
25.0744 42.9105
25.12 43.37
25.1658 43.9211
25.2114 44.2698
25.2572 44.3814
25.3029 44.4201
25.3487 44.4629
25.3943 44.0667
25.4402 42.9837
25.4858 41.8358
25.5316 41.0127
25.5773 40.5872
25.6231 40.4851
25.669 40.165
25.7147 40.1072
25.7605 40.1678
25.8062 40.0071
25.8521 40.0544
25.8977 40.1248
25.9436 40.5071
25.9893 40.5205
26.0352 41.0417
26.0809 41.2021
26.1268 41.2559
26.1725 40.9217
26.2184 40.4075
26.2641 39.903
26.31 39.7228
26.3557 39.627
26.4017 39.7072
26.4474 40.0458
26.4933 40.4074
26.5391 40.8302
26.585 41.3537
26.6308 41.7057
26.6767 41.6397
26.7225 41.5377
26.7684 41.0428
26.8142 40.4223
26.8601 39.9623
26.9059 39.6273
26.9519 39.0498
26.9979 38.8623
27.0437 38.4978
27.0896 38.3415
27.1354 38.4101
27.1814 38.1663
27.2272 38.1308
27.2732 38.2156
27.3191 38.0658
27.3651 38.0968
27.4109 37.922
27.4569 38.2295
27.5027 38.1659
27.5488 38.2239
27.5946 37.9951
27.6407 37.8542
27.6865 37.7635
27.7326 37.5288
27.7784 37.4421
27.8245 37.5489
27.8703 37.684
27.9164 37.9418
27.9623 38.1033
28.0084 38.4362
28.0543 38.6656
28.1003 38.6524
28.1462 38.3555
28.1923 38.1827
28.2384 37.5841
28.2843 37.3146
28.3304 36.8923
28.3764 36.3267
28.4225 35.9827
28.4684 35.8767
28.5145 35.597
28.5605 35.4513
28.6066 35.3173
28.6526 35.2226
28.6987 35.2357
28.7447 35.0984
28.7908 34.9912
28.8368 35.026
28.8829 35.1092
28.9289 34.9938
28.9751 34.8225
29.0211 34.5388
29.0673 34.3425
29.1133 34.1228
29.1595 34.1499
29.2055 33.9664
29.2517 33.9994
29.2977 33.9963
29.3439 33.9174
29.3899 33.8953
29.4361 33.7553
29.4824 33.6093
29.5284 33.4487
29.5746 33.1966
29.6207 32.7771
29.6669 32.8404
29.713 32.5691
29.7593 32.4723
29.8053 32.5243
29.8516 32.4608
29.8977 32.3765
29.9439 32.2984
29.99 32.2427
30.0363 32.1402
30.0824 32.2164
30.1287 31.9774
30.1748 32.1425
30.2211 32.0567
30.2673 32.0385
30.3136 32.0877
30.3597 31.9135
30.406 31.8579
30.4522 31.6581
30.4985 31.7488
30.5447 31.8557
30.591 31.8875
30.6372 32.0718
30.6835 31.9072
30.7297 31.9695
30.7761 31.8516
30.8224 31.7155
30.8686 31.5425
30.915 31.1953
30.9612 31.2063
31.0076 30.9929
31.0538 30.8672
31.1002 30.8536
31.1464 30.5967
31.1928 30.631
31.2391 30.5387
31.2855 30.5301
31.3317 30.6106
31.3781 30.7004
31.4244 30.5753
31.4708 30.5016
31.5171 30.5203
31.5636 30.4351
31.6098 30.1645
31.6563 30.0515
31.7026 29.9134
31.7491 29.8353
31.7953 29.9717
31.8418 29.7565
31.8881 29.764
31.9346 29.789
31.9809 29.7502
32.0275 29.4774
32.074 29.5584
32.1203 29.2661
32.1668 29.2343
32.2132 29.0985
32.2597 28.9232
32.306 28.8123
32.3526 28.6783
32.399 28.6811
32.4455 28.5444
32.4919 28.3833
32.5385 28.4439
32.5848 28.1635
32.6314 28.2418
32.6778 28.1323
32.7244 28.0313
32.7708 27.8306
32.8174 27.8716
32.8638 27.7573
32.9104 27.7894
32.9569 27.6948
33.0035 27.5353
33.0499 27.6106
33.0966 27.4659
33.143 27.5967
33.1897 27.4088
33.2361 27.2879
33.2828 27.2901
33.3293 27.1289
33.3759 27.0446
33.4226 26.9651
33.4691 26.8564
33.5158 26.827
33.5623 26.6316
33.609 26.4436
33.6555 26.4562
33.7022 26.4052
33.7487 26.239
33.7954 26.2031
33.842 26.1182
33.8887 26.0728
33.9353 26.038
33.982 25.9284
34.0286 25.8375
34.0753 25.7612
34.1219 25.6339
34.1687 25.5972
34.2152 25.5055
34.262 25.4255
34.3086 25.3225
34.3554 25.3275
34.402 25.1026
34.4488 25.0128
34.4954 24.9307
34.5422 24.946
34.5889 24.8435
34.6357 24.7134
34.6825 24.702
34.7292 24.5825
34.776 24.5343
34.8227 24.4582
34.8695 24.4027
34.9162 24.2511
34.9631 24.2434
35.0098 24.2335
35.0566 24.1164
35.1033 24.0634
35.1502 24.0334
35.1969 24.039
35.2438 23.9215
35.2906 23.8852
35.3375 23.8382
35.3842 23.7837
35.4311 23.711
35.4779 23.6164
35.5248 23.7441
35.5716 23.5497
35.6185 23.4802
35.6653 23.4313
35.7123 23.2841
35.759 23.2436
35.806 23.147
35.8528 23.0935
35.8998 22.8847
35.9468 22.8546
35.9936 22.8792
36.0406 22.795
36.0874 22.7917
36.1345 22.7164
36.1813 22.6247
36.2283 22.4833
36.2752 22.4238
36.3222 22.4735
36.3691 22.255
36.4161 22.1821
36.463 22.2021
36.5101 22.2472
36.557 22.1445
36.6041 21.9617
36.651 22.0197
36.6981 21.8764
36.745 21.9394
36.7921 21.7695
36.839 21.6375
36.8861 21.5875
36.9331 21.5473
36.9802 21.4662
37.0272 21.2988
37.0743 21.3596
37.1213 21.3571
37.1684 21.1632
37.2154 21.166
37.2626 21.0727
37.3098 20.9904
37.3568 20.9134
37.404 20.9577
37.451 20.8274
37.4982 20.7362
37.5452 20.5885
37.5924 20.6664
37.6395 20.6201
37.6867 20.5041
37.7337 20.4655
37.781 20.3132
37.8281 20.2082
37.8753 20.12
37.9224 20.1181
37.9697 20.1509
38.0168 20.0428
38.064 19.8615
38.1111 19.9106
38.1584 19.8081
38.2056 19.7352
38.2529 19.6735
38.3 19.6452
38.3473 19.6165
38.3945 19.4758
38.4418 19.4397
38.489 19.4134
38.5363 19.32
38.5837 19.2815
38.6309 19.1887
38.6782 19.1033
38.7254 19.0641
38.7728 19.0793
38.82 18.9198
38.8674 18.8625
38.9146 18.8437
38.9621 18.7946
39.0093 18.7662
39.0567 18.6843
39.104 18.5946
39.1514 18.5247
39.1987 18.4993
39.2461 18.4404
39.2934 18.4384
39.3409 18.3376
39.3882 18.2401
39.4356 18.1408
39.483 18.0991
39.5304 18.0815
39.5778 18.0444
39.6253 17.9687
39.6726 17.8551
39.7201 17.8474
39.7675 17.8254
39.815 17.7498
39.8624 17.6599
39.9099 17.6247
39.9575 17.5633
40.0049 17.4931
40.0525 17.46
40.0999 17.4197
40.1474 17.3605
40.1949 17.3038
40.2425 17.2321
40.2899 17.1599
40.3375 17.1917
40.385 17.0284
40.4326 17.0024
40.48 16.9511
40.5277 16.9123
40.5752 16.854
40.6228 16.7521
40.6703 16.7322
40.718 16.6623
40.7655 16.6166
40.8132 16.515
40.8607 16.6047
40.9084 16.5245
40.9559 16.4482
41.0036 16.4252
41.0512 16.3809
41.0989 16.3227
41.1465 16.2132
41.1942 16.1546
41.242 16.0856
41.2896 16.0776
41.3373 15.9658
41.3849 15.9669
41.4327 15.9122
41.4803 15.8226
41.5281 15.8254
41.5758 15.7272
41.6236 15.6254
41.6712 15.6796
41.7191 15.5807
41.7667 15.5847
41.8146 15.4923
41.8622 15.4731
41.9101 15.3854
41.9578 15.2536
42.0057 15.2834
42.0534 15.2383
42.1013 15.202
42.149 15.0538
42.1969 15.069
42.2446 15.0361
42.2925 14.9393
42.3403 14.9161
42.3882 14.8423
42.436 14.8216
42.4839 14.7907
42.5319 14.7251
42.5797 14.6687
42.6277 14.6199
42.6755 14.5594
42.7235 14.4765
42.7713 14.5112
42.8193 14.4731
42.8671 14.3337
42.9152 14.3418
42.963 14.2316
43.0111 14.1821
43.0589 14.1701
43.107 14.1454
43.1549 14.1177
43.2029 13.9998
43.2508 14.0124
43.2989 13.9245
43.3468 13.8565
43.3949 13.8227
43.4429 13.8622
43.491 13.7096
43.5389 13.691
43.5871 13.6542
43.635 13.6033
43.6832 13.5928
43.7312 13.5274
43.7793 13.4478
43.8273 13.4087
43.8755 13.3077
43.9237 13.3321
43.9717 13.2688
44.0199 13.2363
44.068 13.1482
44.1162 13.1384
44.1642 13.1224
44.2125 13.07
44.2606 12.9868
44.3088 12.9288
44.3569 12.8673
44.4052 12.8734
44.4533 12.8249
44.5016 12.7537
44.5497 12.7209
44.598 12.682
44.6461 12.6231
44.6945 12.5829
44.7426 12.5362
44.791 12.4816
44.8391 12.4664
44.8875 12.4191
44.9357 12.3549
44.984 12.3295
45.0322 12.2785
45.0806 12.2531
45.1288 12.2536
45.1773 12.1211
45.2257 12.0975
45.2739 12.0668
45.3224 12.0475
45.3706 12.002
45.4191 11.9107
45.4673 11.8924
45.5158 11.8364
45.5641 11.8295
45.6126 11.7734
45.6609 11.7466
45.7094 11.715
45.7577 11.6178
45.8063 11.6136
45.8546 11.5679
45.9031 11.5532
45.9515 11.478
46.0001 11.4841
46.0484 11.4274
46.097 11.3595
46.1454 11.3613
46.194 11.3253
46.2424 11.2392
46.291 11.1737
46.3395 11.1378
46.3881 11.0872
46.4365 11.0754
46.4852 11.0556
46.5337 10.9714
46.5823 10.9654
46.631 10.9058
46.6795 10.8968
46.7282 10.8578
46.7767 10.8101
46.8254 10.7658
46.8739 10.6989
46.9226 10.6795
46.9712 10.6182
47.0199 10.6134
47.0685 10.5563
47.1173 10.5038
47.1658 10.4839
47.2146 10.4374
47.2632 10.4104
47.312 10.3563
47.3606 10.3104
47.4095 10.2768
47.4581 10.2516
47.5069 10.2345
47.5556 10.1477
47.6044 10.1082
47.6531 10.1031
47.702 10.0521
47.7507 9.98515
47.7996 9.96667
47.8483 9.9962
47.8972 9.91903
47.9461 9.91476
47.9948 9.79343
48.0438 9.83347
48.0925 9.80772
48.1415 9.73785
48.1902 9.75483
48.2392 9.71515
48.288 9.64188
48.337 9.58962
48.3858 9.55793
48.4348 9.55388
48.4837 9.51046
48.5327 9.44032
48.5815 9.41553
48.6306 9.39459
48.6795 9.38937
48.7285 9.29941
48.7774 9.28094
48.8265 9.30807
48.8754 9.23519
48.9245 9.23317
48.9734 9.11399
49.0226 9.12567
49.0715 9.08376
49.1206 9.06271
49.1696 9.01673
49.2188 9.00405
49.2679 8.92485
49.3169 8.89196
49.3661 8.86451
49.4151 8.82442
49.4643 8.84123
49.5134 8.77051
49.5626 8.71726
49.6117 8.69195
49.6609 8.69353
49.71 8.63312
49.7592 8.62394
49.8083 8.6025
49.8576 8.55881
49.9067 8.46183
49.956 8.49117
50.0052 8.46641
50.0545 8.42001
50.1036 8.35202
50.153 8.33567
50.2022 8.34376
50.2515 8.26906
50.3007 8.237
50.3501 8.22858
50.3993 8.19044
50.4487 8.15678
50.498 8.13639
50.5474 8.08706
50.5966 8.08815
50.6461 8.05479
50.6955 8.00926
50.7448 7.95464
50.7943 7.92835
50.8436 7.92248
50.8931 7.87973
50.9424 7.82807
50.9919 7.80739
51.0413 7.79837
51.0908 7.74061
51.1402 7.73442
51.1897 7.66722
51.2391 7.6522
51.2887 7.64603
51.3381 7.57142
51.3877 7.5598
51.4371 7.53746
51.4867 7.48476
51.5362 7.4951
51.5858 7.4434
51.6353 7.40264
51.6849 7.39486
51.7344 7.34454
51.7841 7.36036
51.8336 7.26865
51.8833 7.27321
51.9328 7.23187
51.9826 7.173
52.0323 7.13357
52.0818 7.12809
52.1316 7.08896
52.1812 7.14986
52.231 7.03106
52.2806 7.02015
52.3304 6.97715
52.38 6.94422
52.4298 6.92132
52.4794 6.90817
52.5293 6.87017
52.5789 6.84171
52.6288 6.79144
52.6785 6.79953
52.7284 6.72963
52.7781 6.73422
52.828 6.69067
52.8777 6.67884
52.9276 6.67398
52.9774 6.63909
53.0273 6.60448
53.0771 6.58001
53.1271 6.52822
53.1769 6.51633
53.2269 6.5014
53.2767 6.46574
53.3267 6.41568
53.3765 6.40698
53.4266 6.37694
53.4766 6.3839
53.5265 6.36513
53.5765 6.27325
53.6264 6.30177
53.6765 6.24105
53.7264 6.22585
53.7765 6.13718
53.8265 6.13386
53.8766 6.12626
53.9266 6.1182
53.9767 6.08216
54.0267 6.06191
54.0769 6.02606
54.1269 5.9413
54.1771 5.99247
54.2271 5.93095
54.2773 5.91182
54.3274 5.85955
54.3776 5.81706
54.4277 5.7937
54.478 5.7803
54.528 5.70385
54.5783 5.74389
54.6285 5.63203
54.6788 5.59302
54.7289 5.55621
54.7792 5.53624
54.8296 5.50532
54.8798 5.47365
54.9301 5.37082
54.9803 5.42333
55.0307 5.39655
55.0809 5.32023
55.1314 5.30844
55.1816 5.27971
55.232 5.16542
55.2823 5.14996
55.3328 5.0861
55.383 5.03551
55.4335 5.02185
55.4838 4.94201
55.5344 4.89803
55.5847 4.84317
55.6352 4.84792
55.6856 4.80379
55.7361 4.75241