File: XRD/Ni3Fe_FD0360.xy
TT I
1.27165 8.01358
1.31627 7.0376
1.36089 7.21372
1.40551 6.27018
1.45013 6.68695
1.49476 6.52451
1.53938 6.04348
1.584 5.49657
1.62863 4.84172
1.67325 5.84327
1.71787 4.90152
1.7625 4.83927
1.80712 4.91273
1.85174 4.58636
1.89636 5.03771
1.94099 4.59648
1.98562 4.99471
2.03025 5.0883
2.07487 4.72302
2.11949 4.19941
2.16411 4.88688
2.20874 8.87616
2.25338 12.3414
2.298 4.79853
2.34263 4.4583
2.38725 5.21011
2.43188 5.43493
2.4765 6.3155
2.52115 6.14576
2.56577 6.71453
2.6104 6.87056
2.65503 7.04513
2.69965 7.20135
2.7443 7.32045
2.78893 7.74561
2.83356 8.05909
2.87818 8.69069
2.92281 8.84992
2.96744 8.71723
3.01209 9.92293
3.05672 10.9462
3.10135 12.0675
3.14599 12.9009
3.19062 14.3694
3.23527 14.397
3.2799 15.5694
3.32454 17.0024
3.36917 17.8927
3.4138 18.8756
3.45844 19.629
3.50309 21.0998
3.54773 21.6354
3.59237 23.4273
3.637 53.595
3.68164 38.9062
3.7263 25.6701
3.77094 25.5815
3.81558 26.8765
3.86022 27.8329
3.90486 29.0469
3.9495 30.2947
3.99416 30.9867
4.0388 32.6236
4.08344 34.2547
4.12809 35.3119
4.17273 36.4953
4.21738 40.6231
4.26204 129.847
4.30669 116.928
4.35133 45.7347
4.39598 44.4862
4.44063 49.6933
4.4853 55.5576
4.52995 53.2386
4.5746 53.593
4.61925 54.6125
4.6639 56.8953
4.70855 59.6068
4.75322 63.0615
4.79788 66.5879
4.84253 69.9735
4.88719 75.2228
4.93184 78.7854
4.97652 84.8975
5.02118 91.8287
5.06583 101.245
5.11049 115.969
5.15515 170.021
5.19981 617.454
5.24449 3698.77
5.28916 11359.6
5.33382 3318.88
5.37848 219.963
5.42315 139.118
5.46783 121.674
5.5125 112.184
5.55716 106.958
5.60183 102.363
5.6465 100.031
5.69117 98.738
5.73586 96.5678
5.78053 97.5452
5.8252 97.6048
5.86988 99.5149
5.91455 102.262
5.95924 117.293
6.00392 330.625
6.0486 1281.91
6.09328 4014.99
6.13795 3384.53
6.18263 283.211
6.22733 99.5985
6.27201 85.2174
6.3167 89.4381
6.36138 77.6699
6.40606 71.451
6.45075 69.5847
6.49545 66.8446
6.54014 65.173
6.58483 64.2346
6.62952 63.9036
6.67421 75.6029
6.71892 96.5645
6.76361 64.393
6.8083 59.5632
6.853 58.7189
6.89769 57.6335
6.94239 57.2039
6.98711 57.0099
7.03181 56.4424
7.07651 55.7465
7.12121 55.9019
7.16591 56.6389
7.21063 55.8776
7.25533 62.7772
7.30004 108.043
7.34475 71.9611
7.38945 56.4889
7.43416 55.1181
7.47889 55.3377
7.5236 55.5244
7.56831 56.3443
7.61303 57.3924
7.65774 57.506
7.70247 57.321
7.74719 57.3803
7.79191 57.9591
7.83663 58.0457
7.88135 59.1581
7.92607 60.2365
7.97081 61.2283
8.01553 62.542
8.06026 63.8694
8.10498 65.4974
8.14971 71.2914
8.19446 71.6904
8.23919 71.4788
8.28392 74.6821
8.32865 76.9353
8.37339 81.5877
8.41812 87.921
8.46288 111.386
8.50761 228.449
8.55235 507.979
8.59709 1191.01
8.64183 2086.98
8.68658 1033.62
8.73134 177.746
8.77609 104.286
8.82083 96.3901
8.86558 93.422
8.91033 92.4025
8.9551 91.3731
8.99985 87.2649
9.04461 86.2208
9.08936 86.0559
9.13412 84.8935
9.17888 84.4716
9.22365 84.6542
9.26841 84.2584
9.31318 86.2022
9.35794 86.0072
9.4027 86.0313
9.44749 86.5904
9.49226 87.6057
9.53703 88.0584
9.5818 90.4854
9.62657 94.0907
9.67134 96.9089
9.71614 96.0326
9.76091 97.7019
9.80569 100.34
9.85047 104.067
9.89525 116.838
9.94005 137.385
9.98484 239.605
10.0296 445.268
10.0744 873.649
10.1192 1597.21
10.164 1610.88
10.2088 451.888
10.2536 134.757
10.2984 114.889
10.3432 113.17
10.388 110.511
10.4328 138.147
10.4776 189.0
10.5224 300.378
10.5672 488.377
10.612 521.413
10.6568 215.039
10.7017 99.9774
10.7465 89.4093
10.7913 85.8245
10.8361 83.4183
10.8809 80.9819
10.9257 79.7782
10.9706 79.708
11.0154 76.6286
11.0602 74.3759
11.105 73.5539
11.1499 74.2235
11.1947 77.1909
11.2395 72.5286
11.2844 70.5855
11.3292 68.8374
11.374 67.9136
11.4189 66.9485
11.4637 66.4905
11.5086 66.4411
11.5534 67.3188
11.5983 66.191
11.6431 65.1289
11.688 64.5529
11.7328 64.3516
11.7777 64.3834
11.8225 64.2611
11.8674 64.0207
11.9122 64.681
11.9571 65.031
12.002 66.464
12.0468 74.2452
12.0917 86.8704
12.1366 110.061
12.1814 151.345
12.2263 201.983
12.2712 170.457
12.3161 95.5221
12.3609 69.6834
12.4058 65.8732
12.4507 65.9511
12.4956 66.2817
12.5405 66.2307
12.5853 66.7873
12.6302 69.9762
12.6751 73.5343
12.72 70.1006
12.7649 69.558
12.8098 70.3757
12.8547 71.7938
12.8996 73.2307
12.9445 74.7179
12.9894 76.65
13.0343 78.6583
13.0792 83.5886
13.1242 100.556
13.1691 128.63
13.214 169.553
13.2589 247.444
13.3038 351.615
13.3487 418.642
13.3937 276.712
13.4386 132.9
13.4835 119.071
13.5285 137.766
13.5734 175.532
13.6183 245.197
13.6633 330.953
13.7082 343.041
13.7531 198.322
13.7981 101.628
13.843 84.2912
13.888 81.9325
13.9329 79.5228
13.9779 78.2258
14.0228 76.8101
14.0678 75.1792
14.1127 74.2483
14.1577 74.06
14.2027 73.4447
14.2476 72.3832
14.2926 72.1904
14.3376 72.5334
14.3825 71.7651
14.4275 70.8783
14.4725 70.84
14.5175 70.9343
14.5624 70.9387
14.6074 72.1824
14.6524 72.683
14.6974 72.9305
14.7424 77.2016
14.7874 86.6812
14.8324 98.7968
14.8774 120.465
14.9224 155.425
14.9674 199.889
15.0124 217.181
15.0574 151.937
15.1024 93.446
15.1474 74.3073
15.1924 72.17
15.2374 71.8743
15.2824 70.9005
15.3274 69.6872
15.3725 68.7174
15.4175 68.3122
15.4625 67.7721
15.5076 67.9009
15.5526 67.9446
15.5976 68.0818
15.6426 71.6141
15.6877 79.072
15.7327 87.8162
15.7778 103.455
15.8228 129.474
15.8679 165.028
15.9129 192.581
15.958 161.398
16.003 101.041
16.0481 69.6308
16.0931 65.1332
16.1382 63.4087
16.1833 61.9009
16.2283 60.6849
16.2734 59.9686
16.3185 59.5653
16.3636 59.6594
16.4086 58.6091
16.4537 57.4345
16.4988 57.0542
16.5439 57.0832
16.589 56.7155
16.6341 56.2869
16.6792 55.991
16.7243 56.27
16.7694 56.0985
16.8145 56.4249
16.8596 56.5241
16.9047 56.9811
16.9498 57.381
16.9949 57.1964
17.04 58.044
17.0851 59.555
17.1302 61.2969
17.1754 64.4378
17.2205 69.3032
17.2656 75.281
17.3108 82.615
17.3559 83.6594
17.401 73.041
17.4462 64.2703
17.4913 61.1322
17.5365 60.716
17.5815 60.9178
17.6268 61.451
17.6718 62.0435
17.7171 62.4633
17.7622 63.1663
17.8074 64.4154
17.8525 68.8387
17.8977 72.9473
17.9428 79.2244
17.9881 88.1531
18.0331 102.708
18.0784 120.292
18.1237 139.622
18.1688 136.391
18.214 110.681
18.2591 90.5791
18.3044 91.8327
18.3495 99.6294
18.3948 106.022
18.4399 97.8061
18.4852 79.0961
18.5303 67.6468
18.5756 63.8738
18.6207 63.0059
18.666 62.1571
18.7112 61.4211
18.7565 60.7061
18.8016 60.3824
18.8469 59.7111
18.892 59.4906
18.9374 59.0123
18.9825 58.6896
19.0278 58.5325
19.073 58.8277
19.1183 59.5125
19.1635 60.2481
19.2088 61.7736
19.254 64.4611
19.2993 67.776
19.3447 72.5254
19.3898 76.7892
19.4352 74.3011
19.4804 65.5564
19.5257 58.4585
19.5709 55.7759
19.6163 55.5436
19.6615 55.3448
19.7068 54.9481
19.752 54.9689
19.7974 55.6059
19.8426 56.622
19.888 57.2864
19.9332 58.6202
19.9786 61.0296
20.0238 64.1534
20.0692 68.2933
20.1144 71.4183
20.1598 70.9288
20.205 65.8966
20.2504 63.7147
20.2957 64.4458
20.3411 66.5654
20.3863 65.8449
20.4318 60.0872
20.477 55.0748
20.5224 52.6808
20.5677 52.2106
20.6131 51.6002
20.6586 51.1371
20.7038 50.9919
20.7493 50.5057
20.7945 50.3032
20.84 50.2348
20.8853 50.0901
20.9307 50.2114
20.976 50.193
21.0215 50.1773
21.0668 50.5133
21.1122 50.893
21.1575 51.451
21.203 51.9177
21.2483 52.7559
21.2938 53.022
21.3391 51.6403
21.3846 50.6148
21.4299 49.728
21.4754 49.9121
21.5207 50.0068
21.5662 50.6332
21.6116 51.276
21.6571 51.7561
21.7024 52.9951
21.7479 54.7796
21.7933 57.4294
21.8388 60.1366
21.8843 63.3797
21.9297 66.2762
21.9752 65.4223
22.0206 61.3463
22.0661 57.8717
22.1115 57.1367
22.157 57.2753
22.2024 55.9823
22.248 52.8905
22.2933 51.3389
22.3389 50.4237
22.3843 50.25
22.4299 50.0536
22.4753 50.0985
22.5208 49.9796
22.5662 49.8279
22.6118 50.291
22.6572 50.5692
22.7028 51.0627
22.7483 51.5971
22.7939 52.3234
22.8393 53.5338
22.8849 55.4855
22.9303 57.0513
22.9759 58.8514
23.0214 58.809
23.067 56.1909
23.1126 52.6849
23.1581 50.8022
23.2037 50.2799
23.2492 50.6124
23.2948 50.4514
23.3403 50.8679
23.3859 51.5631
23.4314 52.713
23.477 54.0998
23.5225 55.7354
23.5682 57.6156
23.6137 59.229
23.6593 57.1458
23.7048 53.2215
23.7505 49.7434
23.796 47.7555
23.8417 47.3494
23.8872 46.8283
23.9329 46.5489
23.9784 46.1184
24.0241 45.9274
24.0697 45.6319
24.1154 45.5275
24.1609 45.2016
24.2066 45.1628
24.2522 45.0591
24.2979 44.6353
24.3434 44.4499
24.3892 44.4427
24.4349 44.3083
24.4805 44.0659
24.5262 44.3957
24.5718 44.0622
24.6175 44.1721
24.6631 43.9517
24.7089 43.6406
24.7545 43.4879
24.8002 43.6249
24.8458 43.5206
24.8916 43.3853
24.9372 43.4943
24.983 43.9135
25.0286 44.244
25.0744 44.6825
25.12 44.9283
25.1658 45.4982
25.2114 45.8669
25.2572 45.8374
25.3029 45.7254
25.3487 45.8091
25.3943 45.8344
25.4402 45.0262
25.4858 43.6301
25.5316 42.6272
25.5773 42.1549
25.6231 42.01
25.669 41.6128
25.7147 41.7158
25.7605 41.6083
25.8062 41.6014
25.8521 41.7857
25.8977 41.9114
25.9436 41.9235
25.9893 41.9892
26.0352 42.5145
26.0809 42.5743
26.1268 42.8384
26.1725 42.6269
26.2184 42.0892
26.2641 41.6217
26.31 41.2933
26.3557 41.3123
26.4017 41.26
26.4474 41.591
26.4933 41.814
26.5391 42.3039
26.585 42.7385
26.6308 43.088
26.6767 43.2314
26.7225 43.237
26.7684 42.643
26.8142 41.9242
26.8601 41.6281
26.9059 41.1035
26.9519 40.6834
26.9979 40.2961
27.0437 40.0124
27.0896 39.7956
27.1354 39.9054
27.1814 39.7256
27.2272 39.6511
27.2732 39.6138
27.3191 39.4169
27.3651 39.5512
27.4109 39.4386
27.4569 39.5005
27.5027 39.6366
27.5488 39.6859
27.5946 39.524
27.6407 39.1784
27.6865 39.2592
27.7326 38.9762
27.7784 38.9881
27.8245 38.8609
27.8703 39.0469
27.9164 39.4498
27.9623 39.4442
28.0084 39.7143
28.0543 40.1274
28.1003 40.0662
28.1462 39.8901
28.1923 39.4174
28.2384 38.8628
28.2843 38.6461
28.3304 38.1425
28.3764 37.6832
28.4225 37.4185
28.4684 37.3029
28.5145 36.9407
28.5605 36.831
28.6066 36.6484
28.6526 36.7249
28.6987 36.5312
28.7447 36.4315
28.7908 36.3786
28.8368 36.2927
28.8829 36.4652
28.9289 36.3558
28.9751 36.05
29.0211 35.9236
29.0673 35.4918
29.1133 35.4581
29.1595 35.347
29.2055 35.2642
29.2517 35.2905
29.2977 35.0948
29.3439 35.1069
29.3899 35.0857
29.4361 35.076
29.4824 34.9097
29.5284 34.6331
29.5746 34.2228
29.6207 33.9967
29.6669 34.0574
29.713 33.7303
29.7593 33.7428
29.8053 33.5897
29.8516 33.6416
29.8977 33.6077
29.9439 33.4396
29.99 33.5619
30.0363 33.4139
30.0824 33.2846
30.1287 33.3595
30.1748 33.2837
30.2211 33.4286
30.2673 33.1518
30.3136 33.2655
30.3597 33.207
30.406 33.0491
30.4522 32.9662
30.4985 32.8867
30.5447 33.1085
30.591 32.9922
30.6372 33.0843
30.6835 32.9953
30.7297 33.083
30.7761 32.9927
30.8224 32.8989
30.8686 32.6602
30.915 32.4368
30.9612 32.4535
31.0076 32.1589
31.0538 32.1125
31.1002 31.9427
31.1464 31.8176
31.1928 31.8564
31.2391 31.7942
31.2855 31.7026
31.3317 31.7154
31.3781 31.7152
31.4244 31.7891
31.4708 31.6879
31.5171 31.6106
31.5636 31.6398
31.6098 31.3622
31.6563 31.1914
31.7026 31.1039
31.7491 31.0206
31.7953 30.9519
31.8418 30.8957
31.8881 30.9558
31.9346 30.8852
31.9809 30.8912
32.0275 30.7034
32.074 30.6387
32.1203 30.4369
32.1668 30.4139
32.2132 30.1921
32.2597 29.9991
32.306 30.026
32.3526 29.7512
32.399 29.7743
32.4455 29.5839
32.4919 29.5079
32.5385 29.4417
32.5848 29.2759
32.6314 29.1876
32.6778 29.2905
32.7244 29.1006
32.7708 29.002
32.8174 28.9797
32.8638 28.7643
32.9104 28.9764
32.9569 28.8214
33.0035 28.5781
33.0499 28.5923
33.0966 28.524
33.143 28.5267
33.1897 28.4599
33.2361 28.3462
33.2828 28.3631
33.3293 28.0428
33.3759 28.1233
33.4226 27.9589
33.4691 27.8778
33.5158 27.8055
33.5623 27.6482
33.609 27.4116
33.6555 27.4543
33.7022 27.3323
33.7487 27.2838
33.7954 27.1775
33.842 27.1132
33.8887 26.9199
33.9353 27.0148
33.982 26.7792
34.0286 26.8105
34.0753 26.7218
34.1219 26.5997
34.1687 26.4352
34.2152 26.423
34.262 26.2869
34.3086 26.1953
34.3554 26.3071
34.402 26.0696
34.4488 25.9644
34.4954 25.9305
34.5422 25.8359
34.5889 25.7168
34.6357 25.6712
34.6825 25.6331
34.7292 25.4497
34.776 25.3602
34.8227 25.396
34.8695 25.3296
34.9162 25.2466
34.9631 25.177
35.0098 25.07
35.0566 25.0639
35.1033 24.9326
35.1502 24.9783
35.1969 24.9091
35.2438 24.8511
35.2906 24.7022
35.3375 24.7417
35.3842 24.5812
35.4311 24.5795
35.4779 24.64
35.5248 24.5164
35.5716 24.3541
35.6185 24.3136
35.6653 24.1809
35.7123 24.1945
35.759 24.1052
35.806 23.9437
35.8528 23.8849
35.8998 23.8446
35.9468 23.6598
35.9936 23.7229
36.0406 23.6286
36.0874 23.5767
36.1345 23.4875
36.1813 23.4046
36.2283 23.3568
36.2752 23.2031
36.3222 23.2598
36.3691 23.133
36.4161 23.0711
36.463 23.0355
36.5101 23.0756
36.557 22.9024
36.6041 22.7649
36.651 22.7836
36.6981 22.7163
36.745 22.7128
36.7921 22.6353
36.839 22.4817
36.8861 22.3729
36.9331 22.2653
36.9802 22.1698
37.0272 22.1104
37.0743 22.1164
37.1213 22.0283
37.1684 21.9526
37.2154 21.9365
37.2626 21.8283
37.3098 21.7535
37.3568 21.7429
37.404 21.614
37.451 21.5274
37.4982 21.5603
37.5452 21.3659
37.5924 21.359
37.6395 21.4667
37.6867 21.2591
37.7337 21.1862
37.781 21.0939
37.8281 21.0782
37.8753 20.8779
37.9224 20.8544
37.9697 20.8563
38.0168 20.7031
38.064 20.6433
38.1111 20.6307
38.1584 20.5668
38.2056 20.4642
38.2529 20.4224
38.3 20.3804
38.3473 20.3267
38.3945 20.2664
38.4418 20.2247
38.489 20.1364
38.5363 20.0053
38.5837 19.9511
38.6309 19.9459
38.6782 19.834
38.7254 19.767
38.7728 19.7049
38.82 19.6507
38.8674 19.6319
38.9146 19.5405
38.9621 19.4595
39.0093 19.3556
39.0567 19.3553
39.104 19.2973
39.1514 19.2222
39.1987 19.2217
39.2461 19.1309
39.2934 19.0822
39.3409 18.9808
39.3882 18.9602
39.4356 18.8737
39.483 18.8246
39.5304 18.7476
39.5778 18.683
39.6253 18.6646
39.6726 18.5838
39.7201 18.5073
39.7675 18.4881
39.815 18.3862
39.8624 18.3461
39.9099 18.3033
39.9575 18.2211
40.0049 18.204
40.0525 18.12
40.0999 18.0771
40.1474 17.9916
40.1949 17.9328
40.2425 17.8574
40.2899 17.8867
40.3375 17.8167
40.385 17.7457
40.4326 17.5998
40.48 17.6196
40.5277 17.6246
40.5752 17.4535
40.6228 17.4105
40.6703 17.4013
40.718 17.2741
40.7655 17.2571
40.8132 17.219
40.8607 17.1834
40.9084 17.1657
40.9559 17.0275
41.0036 16.9874
41.0512 16.9211
41.0989 16.9205
41.1465 16.8251
41.1942 16.7655
41.242 16.6947
41.2896 16.6784
41.3373 16.5551
41.3849 16.5778
41.4327 16.473
41.4803 16.3776
41.5281 16.3454
41.5758 16.2683
41.6236 16.2378
41.6712 16.1251
41.7191 16.1183
41.7667 16.1107
41.8146 16.0578
41.8622 16.0325
41.9101 15.9186
41.9578 15.8562
42.0057 15.8349
42.0534 15.7899
42.1013 15.7416
42.149 15.6451
42.1969 15.6145
42.2446 15.5722
42.2925 15.5367
42.3403 15.4485
42.3882 15.4748
42.436 15.3678
42.4839 15.3008
42.5319 15.259
42.5797 15.2072
42.6277 15.1652
42.6755 15.0667
42.7235 15.0458
42.7713 14.975
42.8193 14.9489
42.8671 14.8451
42.9152 14.879
42.963 14.8005
43.0111 14.6852
43.0589 14.6949
43.107 14.6341
43.1549 14.6097
43.2029 14.5406
43.2508 14.4757
43.2989 14.4162
43.3468 14.3503
43.3949 14.3189
43.4429 14.3207
43.491 14.2322
43.5389 14.2229
43.5871 14.1557
43.635 14.0828
43.6832 14.0497
43.7312 14.0081
43.7793 13.9238
43.8273 13.9535
43.8755 13.8183
43.9237 13.8127
43.9717 13.7526
44.0199 13.7038
44.068 13.7212
44.1162 13.617
44.1642 13.5941
44.2125 13.5104
44.2606 13.4966
44.3088 13.3957
44.3569 13.394
44.4052 13.3658
44.4533 13.2686
44.5016 13.1878
44.5497 13.2247
44.598 13.1474
44.6461 13.0832
44.6945 12.9864
44.7426 13.022
44.791 12.9658
44.8391 12.8991
44.8875 12.8828
44.9357 12.8201
44.984 12.7193
45.0322 12.7249
45.0806 12.7437
45.1288 12.648
45.1773 12.5882
45.2257 12.5864
45.2739 12.4648
45.3224 12.4471
45.3706 12.4476
45.4191 12.3001
45.4673 12.3609
45.5158 12.3389
45.5641 12.2691
45.6126 12.2347
45.6609 12.1885
45.7094 12.1027
45.7577 12.0585
45.8063 11.9835
45.8546 12.0312
45.9031 11.9505
45.9515 11.87
46.0001 11.8406
46.0484 11.8691
46.097 11.7782
46.1454 11.7547
46.194 11.7106
46.2424 11.6292
46.291 11.5885
46.3395 11.5887
46.3881 11.5547
46.4365 11.4514
46.4852 11.4263
46.5337 11.3923
46.5823 11.3563
46.631 11.306
46.6795 11.2816
46.7282 11.2241
46.7767 11.1954
46.8254 11.1346
46.8739 11.1379
46.9226 11.0476
46.9712 10.9758
47.0199 10.9847
47.0685 10.9034
47.1173 10.8617
47.1658 10.8424
47.2146 10.8537
47.2632 10.7829
47.312 10.719
47.3606 10.6793
47.4095 10.6292
47.4581 10.6146
47.5069 10.6011
47.5556 10.5266
47.6044 10.4967
47.6531 10.4376
47.702 10.3795
47.7507 10.3651
47.7996 10.3243
47.8483 10.314
47.8972 10.2941
47.9461 10.2489
47.9948 10.1788
48.0438 10.1375
48.0925 10.1665
48.1415 10.0765
48.1902 10.0701
48.2392 10.0201
48.288 9.981
48.337 9.94157
48.3858 9.92808
48.4348 9.89058
48.4837 9.8802
48.5327 9.82489
48.5815 9.76356
48.6306 9.74937
48.6795 9.69175
48.7285 9.64174
48.7774 9.60741
48.8265 9.60739
48.8754 9.54548
48.9245 9.54693
48.9734 9.49387
49.0226 9.44053
49.0715 9.43088
49.1206 9.36712
49.1696 9.33395
49.2188 9.29001
49.2679 9.28066
49.3169 9.21518
49.3661 9.18653
49.4151 9.18333
49.4643 9.12662
49.5134 9.10169
49.5626 9.01278
49.6117 9.0079
49.6609 8.96803
49.71 8.94003
49.7592 8.89808
49.8083 8.87136
49.8576 8.85506
49.9067 8.80346
49.956 8.80213
50.0052 8.71442
50.0545 8.77403
50.1036 8.65788
50.153 8.62439
50.2022 8.62697
50.2515 8.60401
50.3007 8.53114
50.3501 8.52168
50.3993 8.48325
50.4487 8.43478
50.498 8.39582
50.5474 8.41842
50.5966 8.32422
50.6461 8.31937
50.6955 8.30772
50.7448 8.26588
50.7943 8.22191
50.8436 8.18736
50.8931 8.15882
50.9424 8.08919
50.9919 8.09653
51.0413 8.06131
51.0908 8.01495
51.1402 7.97837
51.1897 7.97555
51.2391 7.96194
51.2887 7.92359
51.3381 7.83521
51.3877 7.82632
51.4371 7.79311
51.4867 7.75721
51.5362 7.74157
51.5858 7.7168
51.6353 7.65793
51.6849 7.65973
51.7344 7.60951
51.7841 7.59096
51.8336 7.53279
51.8833 7.51567
51.9328 7.49876
51.9826 7.44747
52.0323 7.41669
52.0818 7.40401
52.1316 7.33863
52.1812 7.35689
52.231 7.28705
52.2806 7.26408
52.3304 7.23078
52.38 7.22706
52.4298 7.16289
52.4794 7.15702
52.5293 7.09599
52.5789 7.0877
52.6288 7.07574
52.6785 7.00159
52.7284 6.99728
52.7781 7.00357
52.828 6.97134
52.8777 6.8945
52.9276 6.91257
52.9774 6.82718
53.0273 6.86252
53.0771 6.78959
53.1271 6.7951
53.1769 6.74586
53.2269 6.67917
53.2767 6.65412
53.3267 6.64458
53.3765 6.6282
53.4266 6.6019
53.4766 6.5611
53.5265 6.5009
53.5765 6.48845
53.6264 6.47541
53.6765 6.49697
53.7264 6.42497
53.7765 6.40043
53.8265 6.32158
53.8766 6.37869
53.9266 6.34308
53.9767 6.28938
54.0267 6.28932
54.0769 6.20517
54.1269 6.19017
54.1771 6.14754
54.2271 6.18181
54.2773 6.12019
54.3274 6.09312
54.3776 6.01147
54.4277 5.98339
54.478 6.00568
54.528 5.92612
54.5783 5.93507
54.6285 5.83471
54.6788 5.82049
54.7289 5.81052
54.7792 5.69395
54.8296 5.67673
54.8798 5.62642
54.9301 5.64398
54.9803 5.57855
55.0307 5.54817
55.0809 5.49027
55.1314 5.52238
55.1816 5.3643
55.232 5.31912
55.2823 5.30519
55.3328 5.31012
55.383 5.27168
55.4335 5.1999
55.4838 5.07642
55.5344 5.08573
55.5847 5.05226
55.6352 4.95494
55.6856 4.96174
55.7361 4.92709