File: XRD/Ni3Fe_FD0684.xy
TT I
1.27165 7.3743
1.31627 6.74519
1.36089 7.00674
1.40551 6.56703
1.45013 6.27306
1.49476 5.70358
1.53938 6.03398
1.584 5.67123
1.62863 5.12005
1.67325 5.11891
1.71787 5.55343
1.7625 4.9267
1.80712 4.69986
1.85174 4.77262
1.89636 5.28769
1.94099 4.53331
1.98562 4.55099
2.03025 4.65278
2.07487 4.45979
2.11949 4.89424
2.16411 4.89134
2.20874 10.5254
2.25338 13.9185
2.298 5.25476
2.34263 5.56775
2.38725 5.30773
2.43188 5.94395
2.4765 6.98388
2.52115 6.57308
2.56577 7.00111
2.6104 8.26758
2.65503 7.71233
2.69965 7.4338
2.7443 7.62433
2.78893 7.86095
2.83356 8.26977
2.87818 8.91335
2.92281 8.64226
2.96744 9.26758
3.01209 9.8775
3.05672 11.0102
3.10135 11.677
3.14599 13.0165
3.19062 13.8351
3.23527 14.5959
3.2799 15.639
3.32454 16.8744
3.36917 17.5705
3.4138 18.6622
3.45844 19.6675
3.50309 20.4636
3.54773 21.5
3.59237 23.6556
3.637 63.8552
3.68164 43.2581
3.7263 25.2041
3.77094 25.9378
3.81558 26.9432
3.86022 27.6295
3.90486 28.6401
3.9495 29.4816
3.99416 30.8761
4.0388 32.2411
4.08344 33.0313
4.12809 34.579
4.17273 35.8533
4.21738 39.8558
4.26204 158.373
4.30669 135.799
4.35133 45.4571
4.39598 43.9756
4.44063 50.3435
4.4853 56.539
4.52995 52.6241
4.5746 53.7743
4.61925 53.2314
4.6639 55.3182
4.70855 58.4982
4.75322 61.5371
4.79788 66.0525
4.84253 68.5238
4.88719 73.2671
4.93184 75.7685
4.97652 81.0393
5.02118 87.5797
5.06583 95.6628
5.11049 107.254
5.15515 161.326
5.19981 414.502
5.24449 3030.81
5.28916 12676.4
5.33382 2667.68
5.37848 188.546
5.42315 129.224
5.46783 115.441
5.5125 108.749
5.55716 102.226
5.60183 98.5147
5.6465 96.6702
5.69117 94.7427
5.73586 92.7746
5.78053 94.3949
5.8252 93.6567
5.86988 95.8848
5.91455 95.4355
5.95924 105.411
6.00392 242.74
6.0486 1023.29
6.09328 4582.52
6.13795 3091.28
6.18263 213.521
6.22733 91.5044
6.27201 80.8126
6.3167 89.9141
6.36138 76.1562
6.40606 69.128
6.45075 67.9319
6.49545 64.9793
6.54014 63.3231
6.58483 62.5711
6.62952 62.587
6.67421 79.8243
6.71892 106.226
6.76361 63.5829
6.8083 58.4208
6.853 58.057
6.89769 56.2939
6.94239 56.2435
6.98711 55.6978
7.03181 55.4921
7.07651 54.8297
7.12121 54.2818
7.16591 55.6372
7.21063 55.0373
7.25533 63.7811
7.30004 123.211
7.34475 74.37
7.38945 55.4534
7.43416 53.6714
7.47889 54.4006
7.5236 54.2873
7.56831 55.1465
7.61303 55.7328
7.65774 56.3554
7.70247 56.0496
7.74719 56.0584
7.79191 56.5511
7.83663 56.7143
7.88135 57.5932
7.92607 58.6031
7.97081 59.7407
8.01553 60.6675
8.06026 62.2884
8.10498 63.607
8.14971 70.7577
8.19446 70.7506
8.23919 69.4572
8.28392 71.9594
8.32865 74.0942
8.37339 78.8707
8.41812 84.5056
8.46288 107.197
8.50761 183.096
8.55235 411.277
8.59709 1238.29
8.64183 2256.85
8.68658 865.338
8.73134 152.675
8.77609 98.4213
8.82083 92.6363
8.86558 90.7026
8.91033 90.2907
8.9551 89.3039
8.99985 85.2167
9.04461 83.9796
9.08936 83.5849
9.13412 82.45
9.17888 82.1322
9.22365 82.3987
9.26841 82.2728
9.31318 83.5374
9.35794 84.2993
9.4027 84.3951
9.44749 84.6147
9.49226 84.6231
9.53703 85.7585
9.5818 87.9966
9.62657 92.4133
9.67134 95.7463
9.71614 93.1812
9.76091 94.4839
9.80569 98.2186
9.85047 100.164
9.89525 115.602
9.94005 131.4
9.98484 196.456
10.0296 366.512
10.0744 850.912
10.1192 1797.19
10.164 1555.93
10.2088 359.001
10.2536 122.849
10.2984 110.733
10.3432 110.151
10.388 105.386
10.4328 123.495
10.4776 165.396
10.5224 292.987
10.5672 512.91
10.612 493.723
10.6568 190.991
10.7017 94.4207
10.7465 86.2009
10.7913 82.9059
10.8361 81.0828
10.8809 78.5416
10.9257 77.6152
10.9706 77.9404
11.0154 74.7036
11.0602 72.7681
11.105 71.5753
11.1499 73.2732
11.1947 76.7577
11.2395 71.5401
11.2844 69.0921
11.3292 67.003
11.374 66.0842
11.4189 65.6726
11.4637 64.8256
11.5086 64.6654
11.5534 66.036
11.5983 64.5913
11.6431 63.4879
11.688 62.7837
11.7328 62.5348
11.7777 62.4484
11.8225 62.4207
11.8674 62.0302
11.9122 62.8149
11.9571 62.7655
12.002 63.8701
12.0468 69.1377
12.0917 80.0273
12.1366 105.373
12.1814 156.474
12.2263 204.689
12.2712 156.419
12.3161 88.7471
12.3609 67.6963
12.4058 64.2447
12.4507 64.0118
12.4956 64.1985
12.5405 64.4946
12.5853 65.2103
12.6302 69.552
12.6751 73.0745
12.72 68.5796
12.7649 67.7241
12.8098 68.5255
12.8547 69.6707
12.8996 71.1528
12.9445 72.5534
12.9894 74.2085
13.0343 76.4835
13.0792 80.1996
13.1242 92.3783
13.1691 114.576
13.214 153.235
13.2589 248.687
13.3038 379.766
13.3487 417.22
13.3937 249.949
13.4386 119.963
13.4835 107.928
13.5285 123.158
13.5734 163.715
13.6183 257.003
13.6633 352.493
13.7082 322.289
13.7531 169.877
13.7981 93.3762
13.843 81.435
13.888 79.4517
13.9329 77.1388
13.9779 75.6826
14.0228 74.1784
14.0678 72.8372
14.1127 72.4588
14.1577 72.0713
14.2027 71.3771
14.2476 70.2233
14.2926 70.2555
14.3376 70.5532
14.3825 69.6834
14.4275 68.8421
14.4725 68.7878
14.5175 68.974
14.5624 68.9706
14.6074 70.5628
14.6524 70.6271
14.6974 70.6621
14.7424 73.5267
14.7874 80.2793
14.8324 90.3908
14.8774 113.671
14.9224 158.881
14.9674 212.247
15.0124 215.019
15.0574 140.053
15.1024 86.9329
15.1474 71.7706
15.1924 70.1259
15.2374 69.9717
15.2824 69.0338
15.3274 67.7675
15.3725 66.8024
15.4175 66.2875
15.4625 65.7977
15.5076 65.8553
15.5526 65.9283
15.5976 65.8643
15.6426 67.9089
15.6877 73.6034
15.7327 80.878
15.7778 96.6602
15.8228 130.142
15.8679 175.107
15.9129 194.732
15.958 149.47
16.003 91.2843
16.0481 66.4792
16.0931 63.2982
16.1382 61.8031
16.1833 60.0569
16.2283 58.732
16.2734 58.1821
16.3185 57.8722
16.3636 57.9665
16.4086 56.8869
16.4537 56.0051
16.4988 55.3516
16.5439 55.3457
16.589 54.9907
16.6341 54.8176
16.6792 54.3158
16.7243 54.7793
16.7694 54.7575
16.8145 54.6314
16.8596 55.0819
16.9047 55.7508
16.9498 56.1247
16.9949 55.4001
17.04 55.8921
17.0851 57.3003
17.1302 58.7999
17.1754 61.9464
17.2205 67.0747
17.2656 75.193
17.3108 83.2922
17.3559 81.1062
17.401 69.6821
17.4462 61.4683
17.4913 58.9209
17.5365 59.0477
17.5815 59.0152
17.6268 59.5914
17.6718 60.1159
17.7171 60.6792
17.7622 61.3786
17.8074 62.3141
17.8525 65.2894
17.8977 69.0176
17.9428 74.3616
17.9881 83.9372
18.0331 102.187
18.0784 124.674
18.1237 142.436
18.1688 130.139
18.214 100.129
18.2591 85.8216
18.3044 91.472
18.3495 101.146
18.3948 105.702
18.4399 94.1835
18.4852 75.0087
18.5303 64.9776
18.5756 61.8915
18.6207 61.0452
18.666 60.4291
18.7112 59.6912
18.7565 58.9251
18.8016 58.4371
18.8469 57.8839
18.892 57.6091
18.9374 57.0347
18.9825 56.8145
19.0278 56.8196
19.073 56.9422
19.1183 57.2946
19.1635 57.9943
19.2088 59.3615
19.254 62.4368
19.2993 67.0505
19.3447 73.3002
19.3898 76.0036
19.4352 71.129
19.4804 62.0475
19.5257 56.1654
19.5709 54.0332
19.6163 53.6251
19.6615 53.5692
19.7068 53.2825
19.752 53.2628
19.7974 53.7104
19.8426 54.4685
19.888 55.0521
19.9332 56.3321
19.9786 59.1965
20.0238 63.119
20.0692 67.7322
20.1144 69.821
20.1598 67.6178
20.205 62.9975
20.2504 62.1388
20.2957 64.0552
20.3411 65.4557
20.3863 63.0374
20.4318 57.4317
20.477 52.9599
20.5224 51.2103
20.5677 50.5605
20.6131 49.9988
20.6586 49.5558
20.7038 49.4403
20.7493 48.9921
20.7945 48.9257
20.84 48.7636
20.8853 48.6856
20.9307 48.5291
20.976 48.7084
21.0215 48.5905
21.0668 48.7468
21.1122 49.3238
21.1575 50.0497
21.203 50.9394
21.2483 51.275
21.2938 51.3817
21.3391 49.766
21.3846 48.7429
21.4299 48.1158
21.4754 48.4973
21.5207 48.4628
21.5662 48.8296
21.6116 49.3997
21.6571 49.9027
21.7024 50.9925
21.7479 52.8787
21.7933 55.8154
21.8388 59.4225
21.8843 63.2116
21.9297 64.674
21.9752 62.7148
22.0206 58.8856
22.0661 56.1169
22.1115 55.975
22.157 55.8476
22.2024 53.8021
22.248 50.9484
22.2933 49.6385
22.3389 48.8615
22.3843 48.6918
22.4299 48.6846
22.4753 48.6672
22.5208 48.5254
22.5662 48.5308
22.6118 48.7857
22.6572 48.9619
22.7028 49.2497
22.7483 49.7546
22.7939 50.4658
22.8393 52.2244
22.8849 54.2839
22.9303 56.3997
22.9759 57.8974
23.0214 56.9773
23.067 53.933
23.1126 50.6161
23.1581 48.8888
23.2037 48.753
23.2492 48.9722
23.2948 49.0537
23.3403 48.9514
23.3859 49.8965
23.4314 50.8674
23.477 52.9084
23.5225 55.1403
23.5682 57.1541
23.6137 57.7154
23.6593 54.9576
23.7048 50.9818
23.7505 47.7692
23.796 46.4761
23.8417 45.8554
23.8872 45.4691
23.9329 45.0662
23.9784 44.6982
24.0241 44.5028
24.0697 44.2991
24.1154 44.1011
24.1609 43.8106
24.2066 43.7105
24.2522 43.5259
24.2979 43.4217
24.3434 43.1825
24.3892 43.015
24.4349 43.0565
24.4805 42.7488
24.5262 43.0784
24.5718 42.7927
24.6175 42.9067
24.6631 42.769
24.7089 42.2434
24.7545 42.3403
24.8002 42.1397
24.8458 42.2743
24.8916 41.8724
24.9372 41.9915
24.983 42.6032
25.0286 42.8225
25.0744 43.3681
25.12 43.8071
25.1658 44.22
25.2114 44.6332
25.2572 44.7213
25.3029 44.7898
25.3487 44.8784
25.3943 44.4202
25.4402 43.1687
25.4858 42.1642
25.5316 41.3163
25.5773 40.7305
25.6231 40.7957
25.669 40.4796
25.7147 40.4668
25.7605 40.3624
25.8062 40.4624
25.8521 40.5868
25.8977 40.6469
25.9436 40.6998
25.9893 40.9491
26.0352 41.4566
26.0809 41.5351
26.1268 41.6739
26.1725 41.2416
26.2184 40.6933
26.2641 40.0581
26.31 39.9829
26.3557 40.0757
26.4017 40.0554
26.4474 40.3853
26.4933 40.6774
26.5391 41.299
26.585 41.7133
26.6308 42.0534
26.6767 42.0727
26.7225 41.8116
26.7684 41.2602
26.8142 40.732
26.8601 40.4664
26.9059 39.9434
26.9519 39.3354
26.9979 39.1437
27.0437 38.7885
27.0896 38.61
27.1354 38.586
27.1814 38.4892
27.2272 38.3737
27.2732 38.4714
27.3191 38.3041
27.3651 38.239
27.4109 38.3051
27.4569 38.4624
27.5027 38.5388
27.5488 38.4679
27.5946 38.2733
27.6407 38.1275
27.6865 38.0672
27.7326 37.8383
27.7784 37.778
27.8245 37.7898
27.8703 38.0439
27.9164 38.2767
27.9623 38.4177
28.0084 38.8666
28.0543 39.2285
28.1003 38.9016
28.1462 38.6303
28.1923 38.295
28.2384 37.8344
28.2843 37.5902
28.3304 37.1315
28.3764 36.5582
28.4225 36.3659
28.4684 36.2204
28.5145 35.8494
28.5605 35.7792
28.6066 35.5718
28.6526 35.5777
28.6987 35.4484
28.7447 35.4268
28.7908 35.438
28.8368 35.3931
28.8829 35.3459
28.9289 35.2709
28.9751 35.0884
29.0211 34.8795
29.0673 34.5475
29.1133 34.3844
29.1595 34.3085
29.2055 34.2586
29.2517 34.2496
29.2977 34.1761
29.3439 34.2261
29.3899 34.1959
29.4361 34.0534
29.4824 33.9213
29.5284 33.7449
29.5746 33.3004
29.6207 33.0215
29.6669 32.9726
29.713 32.9307
29.7593 32.7888
29.8053 32.8348
29.8516 32.7265
29.8977 32.7303
29.9439 32.51
29.99 32.5524
30.0363 32.3908
30.0824 32.5468
30.1287 32.3493
30.1748 32.4557
30.2211 32.4484
30.2673 32.2053
30.3136 32.3542
30.3597 32.1518
30.406 32.0439
30.4522 32.1138
30.4985 31.9656
30.5447 32.112
30.591 32.0878
30.6372 32.2456
30.6835 32.1535
30.7297 32.0496
30.7761 32.0752
30.8224 31.9914
30.8686 31.7651
30.915 31.5802
30.9612 31.4682
31.0076 31.2083
31.0538 31.1941
31.1002 31.0595
31.1464 30.8684
31.1928 30.8821
31.2391 30.9875
31.2855 30.8533
31.3317 30.7739
31.3781 30.8547
31.4244 30.8154
31.4708 30.7775
31.5171 30.7366
31.5636 30.6938
31.6098 30.4104
31.6563 30.3091
31.7026 30.1889
31.7491 30.0857
31.7953 30.0873
31.8418 30.0433
31.8881 30.1338
31.9346 30.0209
31.9809 29.9967
32.0275 29.8892
32.074 29.7112
32.1203 29.5875
32.1668 29.4995
32.2132 29.2873
32.2597 29.1849
32.306 29.1277
32.3526 28.9277
32.399 28.8915
32.4455 28.872
32.4919 28.6518
32.5385 28.5414
32.5848 28.5323
32.6314 28.4021
32.6778 28.3273
32.7244 28.3829
32.7708 28.0822
32.8174 28.1463
32.8638 28.0281
32.9104 28.0134
32.9569 28.0112
33.0035 27.7921
33.0499 27.8443
33.0966 27.779
33.143 27.6759
33.1897 27.6659
33.2361 27.5304
33.2828 27.4852
33.3293 27.3289
33.3759 27.2992
33.4226 27.2226
33.4691 27.0679
33.5158 26.9191
33.5623 26.8333
33.609 26.6459
33.6555 26.6531
33.7022 26.5436
33.7487 26.5093
33.7954 26.3897
33.842 26.348
33.8887 26.1476
33.9353 26.2277
33.982 26.0384
34.0286 26.0039
34.0753 25.946
34.1219 25.8173
34.1687 25.811
34.2152 25.7827
34.262 25.5811
34.3086 25.5285
34.3554 25.4829
34.402 25.3457
34.4488 25.2541
34.4954 25.2281
34.5422 25.1681
34.5889 25.0127
34.6357 25.0237
34.6825 24.8679
34.7292 24.7353
34.776 24.6394
34.8227 24.6193
34.8695 24.5667
34.9162 24.5362
34.9631 24.4499
35.0098 24.4433
35.0566 24.3261
35.1033 24.199
35.1502 24.2507
35.1969 24.1926
35.2438 24.091
35.2906 24.1129
35.3375 23.9888
35.3842 23.9154
35.4311 23.991
35.4779 23.9038
35.5248 23.7119
35.5716 23.7505
35.6185 23.6229
35.6653 23.5792
35.7123 23.4646
35.759 23.3285
35.806 23.3167
35.8528 23.2854
35.8998 23.1716
35.9468 23.0455
35.9936 23.0132
36.0406 23.0542
36.0874 22.908
36.1345 22.8831
36.1813 22.7616
36.2283 22.6512
36.2752 22.54
36.3222 22.6609
36.3691 22.5322
36.4161 22.4348
36.463 22.4366
36.5101 22.3654
36.557 22.3378
36.6041 22.1412
36.651 22.1422
36.6981 22.0967
36.745 21.9782
36.7921 21.8945
36.839 21.8173
36.8861 21.7741
36.9331 21.6746
36.9802 21.6266
37.0272 21.5278
37.0743 21.4437
37.1213 21.4374
37.1684 21.3902
37.2154 21.2568
37.2626 21.1736
37.3098 21.1548
37.3568 21.0623
37.404 21.1051
37.451 20.8889
37.4982 20.891
37.5452 20.8025
37.5924 20.7739
37.6395 20.7673
37.6867 20.6641
37.7337 20.6097
37.781 20.5432
37.8281 20.4871
37.8753 20.358
37.9224 20.3126
37.9697 20.242
38.0168 20.1294
38.064 20.0663
38.1111 20.0777
38.1584 19.9724
38.2056 19.9371
38.2529 19.8881
38.3 19.8192
38.3473 19.8284
38.3945 19.642
38.4418 19.694
38.489 19.5427
38.5363 19.5072
38.5837 19.4244
38.6309 19.3594
38.6782 19.2469
38.7254 19.2388
38.7728 19.1655
38.82 19.1038
38.8674 19.0528
38.9146 18.9954
38.9621 18.9782
39.0093 18.9041
39.0567 18.8422
39.104 18.7926
39.1514 18.6726
39.1987 18.6666
39.2461 18.5837
39.2934 18.5367
39.3409 18.4283
39.3882 18.3389
39.4356 18.3383
39.483 18.2204
39.5304 18.1424
39.5778 18.2322
39.6253 18.0732
39.6726 18.0595
39.7201 17.987
39.7675 17.9751
39.815 17.9731
39.8624 17.8202
39.9099 17.8017
39.9575 17.6743
40.0049 17.6201
40.0525 17.5751
40.0999 17.5893
40.1474 17.5105
40.1949 17.4547
40.2425 17.3553
40.2899 17.3537
40.3375 17.2822
40.385 17.2016
40.4326 17.1502
40.48 17.121
40.5277 17.0545
40.5752 17.0009
40.6228 16.9339
40.6703 16.9257
40.718 16.9121
40.7655 16.8013
40.8132 16.737
40.8607 16.7085
40.9084 16.6181
40.9559 16.5508
41.0036 16.5677
41.0512 16.471
41.0989 16.4237
41.1465 16.3716
41.1942 16.3563
41.242 16.219
41.2896 16.2072
41.3373 16.1092
41.3849 16.1
41.4327 16.0267
41.4803 15.938
41.5281 15.9433
41.5758 15.8732
41.6236 15.7694
41.6712 15.7279
41.7191 15.6585
41.7667 15.6612
41.8146 15.6302
41.8622 15.5526
41.9101 15.5123
41.9578 15.4091
42.0057 15.3988
42.0534 15.3454
42.1013 15.3182
42.149 15.2337
42.1969 15.2275
42.2446 15.1637
42.2925 15.0911
42.3403 15.046
42.3882 15.0851
42.436 14.9523
42.4839 14.8652
42.5319 14.8155
42.5797 14.7552
42.6277 14.7819
42.6755 14.6771
42.7235 14.5597
42.7713 14.6004
42.8193 14.5838
42.8671 14.4775
42.9152 14.4679
42.963 14.3931
43.0111 14.3427
43.0589 14.2868
43.107 14.2417
43.1549 14.1802
43.2029 14.1304
43.2508 14.1133
43.2989 14.0238
43.3468 13.988
43.3949 13.9757
43.4429 13.938
43.491 13.845
43.5389 13.8178
43.5871 13.7753
43.635 13.6981
43.6832 13.7065
43.7312 13.6253
43.7793 13.5851
43.8273 13.5419
43.8755 13.4493
43.9237 13.4329
43.9717 13.3974
44.0199 13.3349
44.068 13.3456
44.1162 13.2244
44.1642 13.2421
44.2125 13.2056
44.2606 13.1223
44.3088 13.0426
44.3569 13.0139
44.4052 12.9897
44.4533 12.9369
44.5016 12.8948
44.5497 12.8607
44.598 12.7849
44.6461 12.7927
44.6945 12.6993
44.7426 12.6478
44.791 12.621
44.8391 12.5993
44.8875 12.5489
44.9357 12.4901
44.984 12.4349
45.0322 12.3634
45.0806 12.3417
45.1288 12.3149
45.1773 12.2598
45.2257 12.1964
45.2739 12.193
45.3224 12.1351
45.3706 12.0876
45.4191 12.01
45.4673 11.997
45.5158 12.0279
45.5641 11.917
45.6126 11.8567
45.6609 11.8559
45.7094 11.7876
45.7577 11.7188
45.8063 11.6754
45.8546 11.7003
45.9031 11.6398
45.9515 11.5693
46.0001 11.5307
46.0484 11.4806
46.097 11.5046
46.1454 11.4257
46.194 11.3985
46.2424 11.3403
46.291 11.2951
46.3395 11.2909
46.3881 11.217
46.4365 11.1963
46.4852 11.1275
46.5337 11.1051
46.5823 11.0669
46.631 11.0327
46.6795 10.9877
46.7282 10.9333
46.7767 10.8917
46.8254 10.8381
46.8739 10.7907
46.9226 10.8008
46.9712 10.7033
47.0199 10.6621
47.0685 10.6965
47.1173 10.6382
47.1658 10.5563
47.2146 10.4843
47.2632 10.4936
47.312 10.4883
47.3606 10.4125
47.4095 10.3698
47.4581 10.3692
47.5069 10.3018
47.5556 10.2581
47.6044 10.2391
47.6531 10.1965
47.702 10.1272
47.7507 10.0846
47.7996 10.09
47.8483 10.055
47.8972 10.0471
47.9461 9.96444
47.9948 9.91225
48.0438 9.8983
48.0925 9.90257
48.1415 9.83748
48.1902 9.76128
48.2392 9.74821
48.288 9.75156
48.337 9.67155
48.3858 9.61696
48.4348 9.64388
48.4837 9.59088
48.5327 9.54154
48.5815 9.52789
48.6306 9.49009
48.6795 9.44446
48.7285 9.38949
48.7774 9.34227
48.8265 9.34062
48.8754 9.25639
48.9245 9.28671
48.9734 9.23248
49.0226 9.18554
49.0715 9.19455
49.1206 9.10204
49.1696 9.10084
49.2188 9.05354
49.2679 9.0166
49.3169 8.99649
49.3661 8.93275
49.4151 8.91229
49.4643 8.89041
49.5134 8.82671
49.5626 8.81282
49.6117 8.76697
49.6609 8.74932
49.71 8.67024
49.7592 8.68524
49.8083 8.62703
49.8576 8.62793
49.9067 8.5551
49.956 8.51435
50.0052 8.51838
50.0545 8.50207
50.1036 8.43793
50.153 8.40462
50.2022 8.37178
50.2515 8.34367
50.3007 8.29495
50.3501 8.26913
50.3993 8.26636
50.4487 8.2255
50.498 8.18055
50.5474 8.16663
50.5966 8.12948
50.6461 8.09709
50.6955 8.0657
50.7448 8.04834
50.7943 7.9852
50.8436 7.99102
50.8931 7.92126
50.9424 7.93263
50.9919 7.87333
51.0413 7.87981
51.0908 7.84315
51.1402 7.79512
51.1897 7.76399
51.2391 7.73382
51.2887 7.72682
51.3381 7.66538
51.3877 7.6378
51.4371 7.57824
51.4867 7.55536
51.5362 7.53737
51.5858 7.53377
51.6353 7.46984
51.6849 7.41618
51.7344 7.42291
51.7841 7.38054
51.8336 7.41915
51.8833 7.31211
51.9328 7.25683
51.9826 7.22956
52.0323 7.2206
52.0818 7.17567
52.1316 7.13099
52.1812 7.18279
52.231 7.11324
52.2806 7.08444
52.3304 7.05973
52.38 7.05005
52.4298 6.98972
52.4794 6.97901
52.5293 6.93143
52.5789 6.90689
52.6288 6.87408
52.6785 6.85384
52.7284 6.83438
52.7781 6.80126
52.828 6.76391
52.8777 6.7409
52.9276 6.77349
52.9774 6.67549
53.0273 6.66174
53.0771 6.64629
53.1271 6.61699
53.1769 6.54009
53.2269 6.52135
53.2767 6.52733
53.3267 6.47894
53.3765 6.45178
53.4266 6.44854
53.4766 6.41599
53.5265 6.36053
53.5765 6.35619
53.6264 6.33707
53.6765 6.28985
53.7264 6.26631
53.7765 6.24155
53.8265 6.16124
53.8766 6.16598
53.9266 6.15765
53.9767 6.14626
54.0267 6.11696
54.0769 6.06761
54.1269 6.04881
54.1771 6.03179
54.2271 5.99166
54.2773 5.93514
54.3274 5.93599
54.3776 5.90052
54.4277 5.87464
54.478 5.81214
54.528 5.83748
54.5783 5.77588
54.6285 5.69709
54.6788 5.70014
54.7289 5.68938
54.7792 5.55471
54.8296 5.50406
54.8798 5.46947
54.9301 5.45147
54.9803 5.49815
55.0307 5.43761
55.0809 5.40819
55.1314 5.35636
55.1816 5.32206
55.232 5.30112
55.2823 5.22157
55.3328 5.12595
55.383 5.10958
55.4335 5.05484
55.4838 4.9563
55.5344 4.98439
55.5847 4.88796
55.6352 4.8562
55.6856 4.84874
55.7361 4.76069