File: XRD/Ni3Fe_FD0152.xy
TT I
1.27165 7.74169
1.31627 7.30885
1.36089 6.93444
1.40551 7.03403
1.45013 6.7811
1.49476 6.5745
1.53938 6.03011
1.584 5.61268
1.62863 6.12423
1.67325 5.52408
1.71787 5.06048
1.7625 5.16789
1.80712 5.62706
1.85174 5.17358
1.89636 5.09897
1.94099 5.51805
1.98562 4.24701
2.03025 4.64323
2.07487 4.72302
2.11949 6.28601
2.16411 5.27879
2.20874 5.11001
2.25338 4.69286
2.298 4.33805
2.34263 4.22784
2.38725 4.68353
2.43188 4.42936
2.4765 4.45119
2.52115 4.98951
2.56577 4.98133
2.6104 5.828
2.65503 5.25166
2.69965 5.84234
2.7443 6.31314
2.78893 7.17893
2.83356 6.96329
2.87818 8.02823
2.92281 8.42567
2.96744 9.43346
3.01209 10.3023
3.05672 11.5852
3.10135 12.5347
3.14599 12.847
3.19062 14.1241
3.23527 15.0584
3.2799 15.799
3.32454 16.4867
3.36917 17.5643
3.4138 19.0052
3.45844 19.3107
3.50309 20.4694
3.54773 21.1414
3.59237 21.622
3.637 22.4563
3.68164 23.3411
3.7263 24.1906
3.77094 25.1855
3.81558 25.5831
3.86022 25.9833
3.90486 27.5088
3.9495 28.652
3.99416 29.3269
4.0388 30.4053
4.08344 31.707
4.12809 32.2209
4.17273 33.8544
4.21738 35.5936
4.26204 36.3667
4.30669 37.616
4.35133 39.7694
4.39598 40.8389
4.44063 43.0952
4.4853 44.8593
4.52995 46.9881
4.5746 49.3002
4.61925 51.4877
4.6639 53.4983
4.70855 56.4907
4.75322 59.4035
4.79788 62.2718
4.84253 65.8995
4.88719 70.3313
4.93184 75.03
4.97652 82.019
5.02118 90.3077
5.06583 100.968
5.11049 117.095
5.15515 154.274
5.19981 543.012
5.24449 3757.35
5.28916 8202.45
5.33382 6364.32
5.37848 455.797
5.42315 162.298
5.46783 127.593
5.5125 113.516
5.55716 107.438
5.60183 101.079
5.6465 98.7123
5.69117 97.0072
5.73586 94.7734
5.78053 94.9007
5.8252 95.0344
5.86988 98.017
5.91455 104.892
5.95924 123.071
6.00392 285.674
6.0486 1381.69
6.09328 2705.93
6.13795 4000.7
6.18263 737.925
6.22733 122.404
6.27201 88.9966
6.3167 78.0009
6.36138 72.2638
6.40606 68.2645
6.45075 66.6183
6.49545 64.2538
6.54014 62.3465
6.58483 60.9732
6.62952 59.8128
6.67421 57.7596
6.71892 56.9904
6.76361 56.4914
6.8083 55.3763
6.853 54.8463
6.89769 54.374
6.94239 54.3098
6.98711 53.6122
7.03181 52.9922
7.07651 52.9536
7.12121 52.5088
7.16591 52.2072
7.21063 51.6843
7.25533 52.0808
7.30004 51.8631
7.34475 52.0565
7.38945 52.3341
7.43416 51.563
7.47889 52.1498
7.5236 55.9015
7.56831 63.379
7.61303 55.218
7.65774 53.2419
7.70247 53.9626
7.74719 54.0556
7.79191 54.7898
7.83663 54.9326
7.88135 55.9047
7.92607 56.8871
7.97081 57.8228
8.01553 58.9059
8.06026 60.0865
8.10498 61.4808
8.14971 63.3427
8.19446 65.0567
8.23919 67.8784
8.28392 70.4803
8.32865 73.6127
8.37339 77.7406
8.41812 83.2294
8.46288 94.9595
8.50761 171.137
8.55235 600.471
8.59709 888.941
8.64183 1487.56
8.68658 1646.62
8.73134 403.797
8.77609 116.294
8.82083 96.7488
8.86558 91.0349
8.91033 87.2674
8.9551 85.0003
8.99985 83.7661
9.04461 82.8835
9.08936 81.6635
9.13412 81.0207
9.17888 81.1434
9.22365 86.8901
9.26841 96.6532
9.31318 86.3665
9.35794 81.874
9.4027 81.776
9.44749 82.8495
9.49226 83.3559
9.53703 83.8981
9.5818 85.9896
9.62657 86.5337
9.67134 88.2855
9.71614 90.3
9.76091 92.6361
9.80569 94.9992
9.85047 98.4198
9.89525 103.802
9.94005 113.513
9.98484 184.1
10.0296 542.939
10.0744 735.023
10.1192 1030.54
10.164 1656.47
10.2088 996.047
10.2536 216.169
10.2984 116.381
10.3432 107.237
10.388 104.288
10.4328 120.654
10.4776 213.975
10.5224 262.398
10.5672 328.976
10.612 483.22
10.6568 369.97
10.7017 135.15
10.7465 90.6089
10.7913 83.3453
10.8361 80.2929
10.8809 78.0325
10.9257 75.6275
10.9706 74.0157
11.0154 72.718
11.0602 71.0619
11.105 70.0018
11.1499 68.3833
11.1947 67.3129
11.2395 66.555
11.2844 65.7872
11.3292 65.5101
11.374 64.5763
11.4189 64.3317
11.4637 63.4075
11.5086 62.4701
11.5534 62.3059
11.5983 61.7085
11.6431 61.64
11.688 61.2599
11.7328 61.1899
11.7777 60.8546
11.8225 61.0388
11.8674 61.0967
11.9122 62.2954
11.9571 65.6933
12.002 64.9687
12.0468 67.3095
12.0917 90.1042
12.1366 107.778
12.1814 117.927
12.2263 149.459
12.2712 190.581
12.3161 138.175
12.3609 74.9862
12.4058 64.077
12.4507 63.1284
12.4956 62.8531
12.5405 62.9202
12.5853 63.5072
12.6302 63.6426
12.6751 64.2162
12.72 64.8635
12.7649 65.7689
12.8098 66.5836
12.8547 68.0794
12.8996 69.5506
12.9445 71.0163
12.9894 72.9825
13.0343 74.7538
13.0792 78.7736
13.1242 85.9747
13.1691 131.936
13.214 186.197
13.2589 203.94
13.3038 244.763
13.3487 347.997
13.3937 381.781
13.4386 212.483
13.4835 119.393
13.5285 153.818
13.5734 182.037
13.6183 191.899
13.6633 237.277
13.7082 331.593
13.7531 309.473
13.7981 154.085
13.843 88.1615
13.888 80.4803
13.9329 77.1776
13.9779 75.7393
14.0228 74.1391
14.0678 72.7127
14.1127 72.8323
14.1577 74.2347
14.2027 72.6312
14.2476 70.169
14.2926 69.265
14.3376 68.6384
14.3825 68.5321
14.4275 68.0572
14.4725 68.0671
14.5175 68.0776
14.5624 67.9731
14.6074 68.4358
14.6524 68.9952
14.6974 69.4909
14.7424 71.1705
14.7874 80.1365
14.8324 106.89
14.8774 120.993
14.9224 126.456
14.9674 148.45
15.0124 191.708
15.0574 205.233
15.1024 140.026
15.1474 82.176
15.1924 71.2546
15.2374 68.8942
15.2824 67.5924
15.3274 66.8494
15.3725 66.2429
15.4175 65.9782
15.4625 65.3487
15.5076 65.2084
15.5526 65.1754
15.5976 65.5212
15.6426 66.3169
15.6877 73.2621
15.7327 94.3789
15.7778 107.423
15.8228 110.592
15.8679 124.66
15.9129 154.063
15.958 184.638
16.003 152.071
16.0481 88.8157
16.0931 65.8818
16.1382 61.6851
16.1833 60.3073
16.2283 58.5533
16.2734 58.0064
16.3185 57.0708
16.3636 56.3626
16.4086 55.914
16.4537 55.4389
16.4988 54.9261
16.5439 54.7815
16.589 54.5624
16.6341 54.3202
16.6792 53.842
16.7243 54.1051
16.7694 54.0067
16.8145 53.8613
16.8596 54.291
16.9047 54.4885
16.9498 54.8655
16.9949 54.733
17.04 55.1684
17.0851 56.4795
17.1302 60.8324
17.1754 64.2879
17.2205 65.2836
17.2656 67.1226
17.3108 71.975
17.3559 79.1009
17.401 81.209
17.4462 70.9984
17.4913 61.5106
17.5365 59.2459
17.5815 58.6006
17.6268 59.1145
17.6718 59.5214
17.7171 60.03
17.7622 61.1364
17.8074 61.9661
17.8525 63.7005
17.8977 71.6032
17.9428 83.4728
17.9881 88.7387
18.0331 90.8042
18.0784 98.0221
18.1237 114.752
18.1688 140.642
18.214 142.272
18.2591 111.018
18.3044 88.446
18.3495 86.4767
18.3948 94.8452
18.4399 103.632
18.4852 95.1633
18.5303 76.5228
18.5756 64.9509
18.6207 62.206
18.666 60.871
18.7112 59.743
18.7565 59.0998
18.8016 58.7468
18.8469 58.2843
18.892 57.7156
18.9374 57.1312
18.9825 56.9486
19.0278 56.6255
19.073 56.534
19.1183 57.1439
19.1635 59.2722
19.2088 61.6567
19.254 62.3789
19.2993 63.1647
19.3447 65.1354
19.3898 69.0126
19.4352 73.4435
19.4804 72.4679
19.5257 63.7443
19.5709 56.1424
19.6163 54.3587
19.6615 53.6753
19.7068 53.3489
19.752 53.2746
19.7974 53.427
19.8426 54.426
19.888 56.558
19.9332 58.0782
19.9786 58.5471
20.0238 59.2994
20.0692 62.0063
20.1144 66.8082
20.1598 72.306
20.205 71.064
20.2504 65.2568
20.2957 61.077
20.3411 61.5159
20.3863 64.542
20.4318 64.3382
20.477 59.133
20.5224 53.0802
20.5677 50.8918
20.6131 50.2347
20.6586 49.7537
20.7038 49.6206
20.7493 48.9846
20.7945 49.1156
20.84 48.9769
20.8853 48.8266
20.9307 48.5016
20.976 48.7348
21.0215 48.8506
21.0668 49.2871
21.1122 49.4136
21.1575 49.3111
21.203 49.4984
21.2483 50.1926
21.2938 51.3004
21.3391 51.4201
21.3846 50.3793
21.4299 49.1356
21.4754 48.801
21.5207 48.5087
21.5662 48.7277
21.6116 49.2022
21.6571 51.1716
21.7024 53.1869
21.7479 53.9753
21.7933 54.4526
21.8388 55.6761
21.8843 58.4661
21.9297 61.999
21.9752 65.7516
22.0206 65.6981
22.0661 60.7002
22.1115 56.1789
22.157 55.6385
22.2024 56.385
22.248 55.0623
22.2933 52.5055
22.3389 50.0511
22.3843 49.3315
22.4299 48.7136
22.4753 48.9037
22.5208 48.711
22.5662 48.6498
22.6118 48.9443
22.6572 48.9784
22.7028 50.1214
22.7483 51.2657
22.7939 51.9471
22.8393 52.0618
22.8849 52.5499
22.9303 53.4451
22.9759 55.0434
23.0214 57.0318
23.067 58.3546
23.1126 55.8732
23.1581 52.1745
23.2037 49.8838
23.2492 49.1866
23.2948 49.8178
23.3403 50.9256
23.3859 51.7317
23.4314 51.6878
23.477 51.8016
23.5225 52.3985
23.5682 53.6211
23.6137 55.7883
23.6593 57.6868
23.7048 57.0131
23.7505 53.3996
23.796 49.1866
23.8417 46.8529
23.8872 46.0548
23.9329 45.5781
23.9784 45.2267
24.0241 44.9861
24.0697 44.582
24.1154 44.2464
24.1609 44.1623
24.2066 43.9642
24.2522 43.773
24.2979 43.5652
24.3434 43.5628
24.3892 43.2763
24.4349 43.2785
24.4805 42.9949
24.5262 43.0503
24.5718 42.8156
24.6175 43.0433
24.6631 42.9672
24.7089 42.8105
24.7545 42.6288
24.8002 42.3148
24.8458 42.4861
24.8916 42.4876
24.9372 42.6386
24.983 42.7033
25.0286 43.092
25.0744 43.4667
25.12 43.8655
25.1658 44.214
25.2114 44.6802
25.2572 44.9078
25.3029 44.8837
25.3487 44.6871
25.3943 44.9862
25.4402 44.857
25.4858 44.4768
25.5316 43.235
25.5773 41.8725
25.6231 41.3853
25.669 40.747
25.7147 40.7966
25.7605 40.6104
25.8062 40.7424
25.8521 40.9466
25.8977 40.898
25.9436 40.9927
25.9893 40.9284
26.0352 41.1097
26.0809 41.1869
26.1268 41.5767
26.1725 41.9045
26.2184 42.0419
26.2641 41.4465
26.31 40.9802
26.3557 40.708
26.4017 40.6968
26.4474 40.7767
26.4933 41.0093
26.5391 41.2032
26.585 41.3354
26.6308 41.5968
26.6767 41.9486
26.7225 42.6763
26.7684 42.7413
26.8142 42.1523
26.8601 41.3039
26.9059 40.8059
26.9519 40.4684
26.9979 39.9602
27.0437 39.419
27.0896 39.1279
27.1354 39.1267
27.1814 39.0588
27.2272 38.9349
27.2732 38.8785
27.3191 38.7415
27.3651 38.7437
27.4109 38.6666
27.4569 38.592
27.5027 38.6019
27.5488 38.7381
27.5946 38.7259
27.6407 38.6041
27.6865 38.6957
27.7326 38.5099
27.7784 38.443
27.8245 38.2948
27.8703 38.4301
27.9164 38.389
27.9623 38.5065
28.0084 38.6138
28.0543 38.9258
28.1003 39.0755
28.1462 39.5483
28.1923 39.3447
28.2384 38.6963
28.2843 38.4807
28.3304 37.9713
28.3764 37.5524
28.4225 37.1736
28.4684 36.7667
28.5145 36.3602
28.5605 36.1266
28.6066 36.0507
28.6526 35.9835
28.6987 35.8774
28.7447 35.5984
28.7908 35.6594
28.8368 35.4811
28.8829 35.5919
28.9289 35.5229
28.9751 35.4731
29.0211 35.3645
29.0673 35.104
29.1133 35.0804
29.1595 34.7198
29.2055 34.6122
29.2517 34.5394
29.2977 34.482
29.3439 34.4106
29.3899 34.3081
29.4361 34.1946
29.4824 34.224
29.5284 34.2874
29.5746 33.8617
29.6207 33.6113
29.6669 33.312
29.713 33.1183
29.7593 33.1172
29.8053 33.0737
29.8516 32.9225
29.8977 32.9788
29.9439 32.7046
29.99 32.7519
30.0363 32.652
30.0824 32.5552
30.1287 32.5265
30.1748 32.5914
30.2211 32.6043
30.2673 32.4826
30.3136 32.5864
30.3597 32.6663
30.406 32.577
30.4522 32.4282
30.4985 32.2752
30.5447 32.4008
30.591 32.2483
30.6372 32.2946
30.6835 32.132
30.7297 32.3087
30.7761 32.4525
30.8224 32.4675
30.8686 32.4367
30.915 32.0748
30.9612 31.9915
31.0076 31.7434
31.0538 31.5536
31.1002 31.4549
31.1464 31.2111
31.1928 31.2816
31.2391 31.263
31.2855 31.2439
31.3317 31.056
31.3781 31.1285
31.4244 31.0197
31.4708 30.985
31.5171 31.0635
31.5636 31.0649
31.6098 30.9914
31.6563 30.8789
31.7026 30.6176
31.7491 30.4135
31.7953 30.4478
31.8418 30.3371
31.8881 30.2695
31.9346 30.3083
31.9809 30.1553
32.0275 30.2245
32.074 30.1851
32.1203 29.9068
32.1668 29.876
32.2132 29.8298
32.2597 29.6326
32.306 29.4957
32.3526 29.2362
32.399 29.2074
32.4455 29.0128
32.4919 28.9402
32.5385 28.8758
32.5848 28.6769
32.6314 28.69
32.6778 28.6584
32.7244 28.558
32.7708 28.3531
32.8174 28.3965
32.8638 28.2044
32.9104 28.4004
32.9569 28.2682
33.0035 28.0682
33.0499 28.0129
33.0966 27.919
33.143 27.945
33.1897 27.8611
33.2361 27.8669
33.2828 27.8108
33.3293 27.6713
33.3759 27.5994
33.4226 27.5777
33.4691 27.4409
33.5158 27.3541
33.5623 27.1727
33.609 26.9344
33.6555 26.9464
33.7022 26.8162
33.7487 26.6487
33.7954 26.5833
33.842 26.5111
33.8887 26.5401
33.9353 26.4469
33.982 26.4435
34.0286 26.3298
34.0753 26.1545
34.1219 26.1816
34.1687 26.0419
34.2152 25.9958
34.262 25.7426
34.3086 25.7055
34.3554 25.7175
34.402 25.6244
34.4488 25.4111
34.4954 25.451
34.5422 25.2958
34.5889 25.2566
34.6357 25.1735
34.6825 25.156
34.7292 25.0435
34.776 24.9014
34.8227 24.911
34.8695 24.8071
34.9162 24.6657
34.9631 24.6153
35.0098 24.5593
35.0566 24.4912
35.1033 24.4626
35.1502 24.3945
35.1969 24.3869
35.2438 24.3477
35.2906 24.1965
35.3375 24.2079
35.3842 24.124
35.4311 24.1592
35.4779 24.199
35.5248 24.0907
35.5716 23.9926
35.6185 23.9065
35.6653 23.8051
35.7123 23.7212
35.759 23.6964
35.806 23.5735
35.8528 23.4254
35.8998 23.3701
35.9468 23.3123
35.9936 23.3051
36.0406 23.1057
36.0874 23.2033
36.1345 23.0965
36.1813 22.9898
36.2283 22.8869
36.2752 22.8607
36.3222 22.8634
36.3691 22.7854
36.4161 22.6386
36.463 22.6164
36.5101 22.5303
36.557 22.4962
36.6041 22.3323
36.651 22.322
36.6981 22.2697
36.745 22.2339
36.7921 22.2332
36.839 21.9927
36.8861 22.064
36.9331 21.8588
36.9802 21.8354
37.0272 21.7202
37.0743 21.6273
37.1213 21.6132
37.1684 21.5145
37.2154 21.4913
37.2626 21.4282
37.3098 21.3394
37.3568 21.3176
37.404 21.2997
37.451 21.1085
37.4982 21.1099
37.5452 20.9673
37.5924 20.9694
37.6395 20.8992
37.6867 20.8448
37.7337 20.7112
37.781 20.6554
37.8281 20.6136
37.8753 20.5075
37.9224 20.4983
37.9697 20.4164
38.0168 20.4182
38.064 20.2454
38.1111 20.1556
38.1584 20.1451
38.2056 20.1279
38.2529 20.016
38.3 19.9745
38.3473 19.9351
38.3945 19.7988
38.4418 19.8026
38.489 19.7784
38.5363 19.6377
38.5837 19.5357
38.6309 19.5317
38.6782 19.4638
38.7254 19.4349
38.7728 19.3382
38.82 19.2478
38.8674 19.3203
38.9146 19.1942
38.9621 19.0512
39.0093 19.0442
39.0567 19.0387
39.104 18.9112
39.1514 18.8111
39.1987 18.8387
39.2461 18.7227
39.2934 18.6602
39.3409 18.5788
39.3882 18.4882
39.4356 18.4979
39.483 18.407
39.5304 18.3412
39.5778 18.3432
39.6253 18.2974
39.6726 18.1857
39.7201 18.1881
39.7675 18.0688
39.815 18.1437
39.8624 18.0194
39.9099 17.9344
39.9575 17.8987
40.0049 17.9162
40.0525 17.7177
40.0999 17.6576
40.1474 17.6329
40.1949 17.5655
40.2425 17.5134
40.2899 17.4515
40.3375 17.4239
40.385 17.3823
40.4326 17.2851
40.48 17.2623
40.5277 17.2022
40.5752 17.1293
40.6228 17.0919
40.6703 17.0281
40.718 16.992
40.7655 16.9153
40.8132 16.8776
40.8607 16.8624
40.9084 16.8149
40.9559 16.7285
41.0036 16.6943
41.0512 16.6017
41.0989 16.6059
41.1465 16.4853
41.1942 16.4168
41.242 16.3758
41.2896 16.3546
41.3373 16.2959
41.3849 16.2508
41.4327 16.1823
41.4803 16.1079
41.5281 16.0366
41.5758 16.0366
41.6236 15.9657
41.6712 15.8892
41.7191 15.8733
41.7667 15.7327
41.8146 15.8478
41.8622 15.6581
41.9101 15.6857
41.9578 15.5344
42.0057 15.5209
42.0534 15.4864
42.1013 15.4785
42.149 15.388
42.1969 15.3014
42.2446 15.2117
42.2925 15.2467
42.3403 15.1097
42.3882 15.1341
42.436 15.079
42.4839 14.9781
42.5319 14.9445
42.5797 14.8999
42.6277 14.9147
42.6755 14.8059
42.7235 14.7742
42.7713 14.6866
42.8193 14.6754
42.8671 14.5633
42.9152 14.5425
42.963 14.4969
43.0111 14.4655
43.0589 14.4328
43.107 14.3764
43.1549 14.3522
43.2029 14.2418
43.2508 14.2359
43.2989 14.1486
43.3468 14.1054
43.3949 14.0669
43.4429 14.0501
43.491 13.9235
43.5389 13.9155
43.5871 13.9021
43.635 13.8153
43.6832 13.8514
43.7312 13.749
43.7793 13.6766
43.8273 13.6147
43.8755 13.5867
43.9237 13.5832
43.9717 13.5203
44.0199 13.4237
44.068 13.3982
44.1162 13.3477
44.1642 13.2929
44.2125 13.293
44.2606 13.255
44.3088 13.1728
44.3569 13.1575
44.4052 13.0621
44.4533 13.0116
44.5016 12.9574
44.5497 12.9534
44.598 12.8417
44.6461 12.8731
44.6945 12.7433
44.7426 12.7849
44.791 12.6998
44.8391 12.6985
44.8875 12.6055
44.9357 12.6193
44.984 12.4975
45.0322 12.4521
45.0806 12.4626
45.1288 12.4188
45.1773 12.3908
45.2257 12.3531
45.2739 12.2698
45.3224 12.2493
45.3706 12.1726
45.4191 12.1083
45.4673 12.083
45.5158 12.1071
45.5641 12.0061
45.6126 11.91
45.6609 11.9066
45.7094 11.851
45.7577 11.8042
45.8063 11.7573
45.8546 11.7816
45.9031 11.704
45.9515 11.6643
46.0001 11.6364
46.0484 11.6129
46.097 11.5449
46.1454 11.5283
46.194 11.4647
46.2424 11.4445
46.291 11.379
46.3395 11.361
46.3881 11.269
46.4365 11.3015
46.4852 11.2272
46.5337 11.147
46.5823 11.2004
46.631 11.096
46.6795 11.0672
46.7282 11.0101
46.7767 10.9544
46.8254 10.9196
46.8739 10.9195
46.9226 10.8828
46.9712 10.8137
47.0199 10.7676
47.0685 10.7214
47.1173 10.6663
47.1658 10.6374
47.2146 10.6285
47.2632 10.5886
47.312 10.556
47.3606 10.5143
47.4095 10.4859
47.4581 10.4392
47.5069 10.3619
47.5556 10.3468
47.6044 10.3134
47.6531 10.2471
47.702 10.2254
47.7507 10.1819
47.7996 10.156
47.8483 10.0874
47.8972 10.1038
47.9461 10.0511
47.9948 9.99523
48.0438 10.003
48.0925 9.9665
48.1415 9.8712
48.1902 9.87377
48.2392 9.84441
48.288 9.81763
48.337 9.75483
48.3858 9.70069
48.4348 9.70612
48.4837 9.69174
48.5327 9.6003
48.5815 9.60661
48.6306 9.54478
48.6795 9.50667
48.7285 9.4929
48.7774 9.42882
48.8265 9.39843
48.8754 9.36658
48.9245 9.34403
48.9734 9.28557
49.0226 9.30696
49.0715 9.24457
49.1206 9.19047
49.1696 9.20045
49.2188 9.1719
49.2679 9.08629
49.3169 9.09908
49.3661 9.03204
49.4151 8.9823
49.4643 8.96881
49.5134 8.94951
49.5626 8.87559
49.6117 8.84786
49.6609 8.84351
49.71 8.76758
49.7592 8.7733
49.8083 8.74462
49.8576 8.69899
49.9067 8.64171
49.956 8.64707
50.0052 8.60766
50.0545 8.57665
50.1036 8.49367
50.153 8.48406
50.2022 8.46698
50.2515 8.44909
50.3007 8.4137
50.3501 8.36652
50.3993 8.35217
50.4487 8.31539
50.498 8.2585
50.5474 8.26207
50.5966 8.21433
50.6461 8.17256
50.6955 8.14747
50.7448 8.12124
50.7943 8.08271
50.8436 8.0355
50.8931 8.00382
50.9424 7.96311
50.9919 7.94825
51.0413 7.92741
51.0908 7.89802
51.1402 7.88442
51.1897 7.80207
51.2391 7.78908
51.2887 7.74952
51.3381 7.72443
51.3877 7.7208
51.4371 7.68156
51.4867 7.65537
51.5362 7.59926
51.5858 7.59262
51.6353 7.51554
51.6849 7.51397
51.7344 7.50044
51.7841 7.45809
51.8336 7.41513
51.8833 7.39189
51.9328 7.33317
51.9826 7.32308
52.0323 7.29695
52.0818 7.26386
52.1316 7.22617
52.1812 7.20608
52.231 7.17958
52.2806 7.17138
52.3304 7.13916
52.38 7.10276
52.4298 7.05974
52.4794 7.0265
52.5293 6.9963
52.5789 6.98076
52.6288 6.96125
52.6785 6.89998
52.7284 6.92529
52.7781 6.86668
52.828 6.84052
52.8777 6.79557
52.9276 6.81153
52.9774 6.73855
53.0273 6.72552
53.0771 6.68282
53.1271 6.69727
53.1769 6.62699
53.2269 6.64795
53.2767 6.58523
53.3267 6.58421
53.3765 6.56225
53.4266 6.48309
53.4766 6.46911
53.5265 6.41596
53.5765 6.40305
53.6264 6.38573
53.6765 6.3354
53.7264 6.34123
53.7765 6.30501
53.8265 6.27035
53.8766 6.22452
53.9266 6.22194
53.9767 6.18008
54.0267 6.11782
54.0769 6.11041
54.1269 6.10721
54.1771 6.06864
54.2271 6.06103
54.2773 5.99956
54.3274 5.92073
54.3776 5.91968
54.4277 5.87705
54.478 5.81823
54.528 5.81571
54.5783 5.77389
54.6285 5.72298
54.6788 5.6806
54.7289 5.64418
54.7792 5.63685
54.8296 5.56104
54.8798 5.49228
54.9301 5.45961
54.9803 5.44991
55.0307 5.40304
55.0809 5.34595
55.1314 5.34061
55.1816 5.22417
55.232 5.1729
55.2823 5.15553
55.3328 5.07646
55.383 5.04972
55.4335 5.00133
55.4838 4.95455
55.5344 4.85335
55.5847 4.85731
55.6352 4.8689
55.6856 4.79431
55.7361 4.78017