File: XRD/Ni3Fe_FD0991.xy
TT I
1.27165 7.44787
1.31627 6.69199
1.36089 7.18646
1.40551 5.9596
1.45013 6.10679
1.49476 6.47795
1.53938 5.70848
1.584 5.55323
1.62863 5.27065
1.67325 4.87244
1.71787 5.54123
1.7625 5.36252
1.80712 5.18309
1.85174 4.66671
1.89636 4.60436
1.94099 5.11475
1.98562 5.13103
2.03025 4.94144
2.07487 4.67252
2.11949 5.20317
2.16411 5.21771
2.20874 15.2636
2.25338 26.3377
2.298 6.38125
2.34263 5.24996
2.38725 5.94645
2.43188 6.96282
2.4765 7.65638
2.52115 6.95816
2.56577 8.49154
2.6104 9.0038
2.65503 8.78392
2.69965 8.58342
2.7443 8.88589
2.78893 8.42402
2.83356 9.31684
2.87818 9.1654
2.92281 8.91585
2.96744 10.3071
3.01209 10.7254
3.05672 11.8024
3.10135 12.7486
3.14599 13.6734
3.19062 14.7425
3.23527 14.9358
3.2799 16.174
3.32454 17.0469
3.36917 18.0221
3.4138 19.3345
3.45844 19.7224
3.50309 21.2434
3.54773 21.6866
3.59237 24.3741
3.637 100.628
3.68164 64.6521
3.7263 26.4792
3.77094 25.788
3.81558 26.7931
3.86022 27.4915
3.90486 28.8549
3.9495 29.4612
3.99416 30.7418
4.0388 31.9413
4.08344 33.1703
4.12809 34.5972
4.17273 37.3802
4.21738 43.1431
4.26204 276.501
4.30669 247.545
4.35133 49.0864
4.39598 44.1875
4.44063 55.04
4.4853 68.1509
4.52995 49.8044
4.5746 49.8402
4.61925 52.2879
4.6639 54.1583
4.70855 56.9987
4.75322 59.655
4.79788 62.4034
4.84253 65.5624
4.88719 69.43
4.93184 73.1415
4.97652 78.0836
5.02118 84.0251
5.06583 90.1457
5.11049 100.423
5.15515 167.825
5.19981 268.002
5.24449 2196.1
5.28916 13375.5
5.33382 2757.23
5.37848 172.354
5.42315 123.242
5.46783 109.695
5.5125 102.607
5.55716 99.7534
5.60183 96.2442
5.6465 94.2725
5.69117 91.6947
5.73586 89.7631
5.78053 88.6657
5.8252 88.2018
5.86988 88.4902
5.91455 90.0638
5.95924 94.8424
6.00392 161.956
6.0486 751.872
6.09328 4534.55
6.13795 3277.98
6.18263 215.968
6.22733 89.4505
6.27201 80.7679
6.3167 104.087
6.36138 80.628
6.40606 67.6174
6.45075 66.2082
6.49545 64.2131
6.54014 62.9376
6.58483 62.214
6.62952 62.1251
6.67421 97.3615
6.71892 155.392
6.76361 69.5942
6.8083 57.8112
6.853 56.8968
6.89769 56.1966
6.94239 55.8279
6.98711 54.9263
7.03181 54.7468
7.07651 54.8765
7.12121 54.2832
7.16591 54.4869
7.21063 54.8539
7.25533 71.8567
7.30004 195.863
7.34475 98.221
7.38945 55.9969
7.43416 53.9277
7.47889 53.6471
7.5236 53.9593
7.56831 54.5519
7.61303 56.6602
7.65774 56.9519
7.70247 55.4917
7.74719 55.2587
7.79191 55.5592
7.83663 55.8979
7.88135 56.7104
7.92607 57.4975
7.97081 58.9225
8.01553 59.7424
8.06026 60.8046
8.10498 62.7643
8.14971 73.1567
8.19446 71.7784
8.23919 68.293
8.28392 70.3974
8.32865 72.3341
8.37339 75.8729
8.41812 82.9214
8.46288 112.902
8.50761 138.969
8.55235 312.852
8.59709 1110.49
8.64183 2338.1
8.68658 949.299
8.73134 162.511
8.77609 96.6597
8.82083 90.1166
8.86558 87.4333
8.91033 88.191
8.9551 90.7687
8.99985 84.058
9.04461 81.6924
9.08936 80.7621
9.13412 79.7741
9.17888 79.9957
9.22365 81.3705
9.26841 80.5413
9.31318 80.2932
9.35794 80.9706
9.4027 81.2534
9.44749 82.1748
9.49226 82.3865
9.53703 83.3247
9.5818 85.3198
9.62657 90.4231
9.67134 97.9928
9.71614 91.6534
9.76091 91.6075
9.80569 93.845
9.85047 97.0927
9.89525 123.345
9.94005 135.285
9.98484 151.175
10.0296 284.943
10.0744 731.109
10.1192 1767.91
10.164 1583.83
10.2088 373.372
10.2536 122.961
10.2984 111.412
10.3432 113.492
10.388 101.848
10.4328 109.429
10.4776 143.075
10.5224 261.951
10.5672 529.603
10.612 517.646
10.6568 197.526
10.7017 94.4819
10.7465 84.2715
10.7913 81.1971
10.8361 79.5192
10.8809 77.2352
10.9257 76.9963
10.9706 78.0552
11.0154 73.8226
11.0602 71.3399
11.105 70.6808
11.1499 75.2903
11.1947 83.8833
11.2395 74.0205
11.2844 69.6478
11.3292 66.1575
11.374 64.6741
11.4189 64.1124
11.4637 63.6558
11.5086 64.3996
11.5534 67.6319
11.5983 64.5947
11.6431 62.5119
11.688 61.7585
11.7328 61.7372
11.7777 61.644
11.8225 61.2611
11.8674 61.0665
11.9122 61.5201
11.9571 61.6022
12.002 62.0843
12.0468 64.697
12.0917 74.0015
12.1366 97.0572
12.1814 149.888
12.2263 205.682
12.2712 163.154
12.3161 94.4792
12.3609 69.7135
12.4058 63.5934
12.4507 62.8889
12.4956 63.0612
12.5405 62.9972
12.5853 64.6254
12.6302 73.0629
12.6751 79.3955
12.72 69.3637
12.7649 66.5391
12.8098 66.7804
12.8547 68.1375
12.8996 69.2786
12.9445 70.4754
12.9894 72.1286
13.0343 73.4571
13.0792 76.5881
13.1242 82.639
13.1691 102.396
13.214 134.651
13.2589 223.975
13.3038 375.485
13.3487 434.396
13.3937 255.282
13.4386 121.095
13.4835 99.0447
13.5285 110.824
13.5734 145.613
13.6183 238.787
13.6633 359.017
13.7082 339.612
13.7531 179.69
13.7981 94.5484
13.843 79.8266
13.888 77.8446
13.9329 75.4647
13.9779 74.2278
14.0228 72.8114
14.0678 71.5529
14.1127 70.9572
14.1577 71.1477
14.2027 70.1486
14.2476 68.8799
14.2926 69.0415
14.3376 70.4591
14.3825 69.0826
14.4275 67.4222
14.4725 66.9875
14.5175 67.1482
14.5624 67.4981
14.6074 69.7415
14.6524 70.3491
14.6974 68.586
14.7424 69.5162
14.7874 74.0515
14.8324 82.8995
14.8774 102.639
14.9224 146.764
14.9674 211.28
15.0124 219.62
15.0574 150.513
15.1024 89.1166
15.1474 70.7169
15.1924 68.8617
15.2374 69.947
15.2824 68.8783
15.3274 66.6802
15.3725 65.2877
15.4175 64.9499
15.4625 64.6293
15.5076 64.7436
15.5526 64.6898
15.5976 64.2601
15.6426 64.3722
15.6877 68.3245
15.7327 74.672
15.7778 88.5193
15.8228 119.572
15.8679 170.187
15.9129 197.325
15.958 153.83
16.003 94.8414
16.0481 66.9241
16.0931 63.4417
16.1382 61.6771
16.1833 59.619
16.2283 57.8923
16.2734 57.3111
16.3185 57.5294
16.3636 58.3942
16.4086 56.7561
16.4537 55.1027
16.4988 54.3916
16.5439 54.2788
16.589 54.0123
16.6341 53.5373
16.6792 53.4451
16.7243 53.6605
16.7694 53.7566
16.8145 53.62
16.8596 54.0852
16.9047 55.792
16.9498 56.0256
16.9949 54.4308
17.04 54.4094
17.0851 55.2936
17.1302 56.6618
17.1754 59.6923
17.2205 64.556
17.2656 72.9816
17.3108 81.8853
17.3559 80.3928
17.401 68.7819
17.4462 60.5006
17.4913 57.7271
17.5365 57.7354
17.5815 57.7911
17.6268 58.1736
17.6718 58.918
17.7171 59.4786
17.7622 59.8114
17.8074 60.2294
17.8525 61.7299
17.8977 65.0363
17.9428 69.9026
17.9881 78.4281
18.0331 95.7775
18.0784 119.951
18.1237 138.663
18.1688 127.471
18.214 99.3778
18.2591 83.0685
18.3044 87.9719
18.3495 99.5377
18.3948 106.25
18.4399 94.8209
18.4852 75.789
18.5303 64.4422
18.5756 60.8538
18.6207 59.8568
18.666 59.0826
18.7112 58.4263
18.7565 57.5966
18.8016 57.3647
18.8469 56.6103
18.892 56.4969
18.9374 55.9504
18.9825 55.6328
19.0278 55.8223
19.073 55.6647
19.1183 56.0694
19.1635 56.6101
19.2088 57.854
19.254 60.1577
19.2993 64.9223
19.3447 71.6062
19.3898 75.3487
19.4352 70.6812
19.4804 61.7574
19.5257 55.1361
19.5709 53.0737
19.6163 52.6775
19.6615 52.5762
19.7068 52.2576
19.752 52.1559
19.7974 52.3636
19.8426 53.0337
19.888 53.6448
19.9332 54.6871
19.9786 57.0066
20.0238 61.0381
20.0692 66.3147
20.1144 68.8095
20.1598 66.5267
20.205 61.8048
20.2504 60.745
20.2957 63.0844
20.3411 64.9864
20.3863 63.0755
20.4318 57.0523
20.477 52.6544
20.5224 50.6979
20.5677 49.9851
20.6131 49.2983
20.6586 48.6641
20.7038 48.5857
20.7493 48.0537
20.7945 47.9878
20.84 47.8117
20.8853 47.6844
20.9307 47.4238
20.976 47.6759
21.0215 47.5957
21.0668 47.946
21.1122 48.1844
21.1575 48.9564
21.203 49.9606
21.2483 50.5533
21.2938 50.2845
21.3391 48.7781
21.3846 47.9828
21.4299 47.3547
21.4754 47.2755
21.5207 47.2367
21.5662 47.5625
21.6116 47.8105
21.6571 48.4401
21.7024 49.3437
21.7479 51.0314
21.7933 53.6197
21.8388 57.7228
21.8843 61.7971
21.9297 63.6799
21.9752 61.6297
22.0206 58.0895
22.0661 55.5167
22.1115 55.2169
22.157 54.9709
22.2024 53.1372
22.248 50.3299
22.2933 48.9608
22.3389 48.1741
22.3843 47.9589
22.4299 47.9812
22.4753 47.9391
22.5208 47.6011
22.5662 47.4331
22.6118 47.5824
22.6572 47.6183
22.7028 48.0884
22.7483 48.39
22.7939 48.9888
22.8393 50.5958
22.8849 52.9083
22.9303 55.3855
22.9759 57.0797
23.0214 56.4531
23.067 53.3714
23.1126 49.9641
23.1581 48.3291
23.2037 47.8778
23.2492 47.6197
23.2948 47.5636
23.3403 47.8858
23.3859 48.2578
23.4314 49.2725
23.477 51.3348
23.5225 53.8793
23.5682 56.5072
23.6137 56.9624
23.6593 54.4732
23.7048 50.553
23.7505 47.1968
23.796 45.8438
23.8417 45.156
23.8872 44.606
23.9329 44.2587
23.9784 43.9089
24.0241 43.8603
24.0697 43.4037
24.1154 43.3751
24.1609 43.2059
24.2066 42.9471
24.2522 42.9055
24.2979 42.5183
24.3434 42.2769
24.3892 42.2938
24.4349 42.1349
24.4805 42.0192
24.5262 42.3074
24.5718 42.1192
24.6175 42.0974
24.6631 41.9903
24.7089 41.6877
24.7545 41.4653
24.8002 41.2659
24.8458 41.2336
24.8916 41.0956
24.9372 41.332
24.983 41.5781
25.0286 41.7595
25.0744 42.4142
25.12 42.7581
25.1658 43.4785
25.2114 43.7949
25.2572 43.8464
25.3029 44.1461
25.3487 44.2401
25.3943 43.8729
25.4402 42.5539
25.4858 41.635
25.5316 40.6528
25.5773 40.099
25.6231 40.0296
25.669 39.5777
25.7147 39.7791
25.7605 39.5518
25.8062 39.4557
25.8521 39.7384
25.8977 39.7436
25.9436 40.0132
25.9893 40.1882
26.0352 40.622
26.0809 40.8609
26.1268 41.0751
26.1725 40.5218
26.2184 39.9885
26.2641 39.4595
26.31 39.2502
26.3557 39.1817
26.4017 39.2158
26.4474 39.4958
26.4933 39.8056
26.5391 40.4731
26.585 40.8881
26.6308 41.3474
26.6767 41.3998
26.7225 41.1112
26.7684 40.6403
26.8142 40.0444
26.8601 39.6307
26.9059 39.2306
26.9519 38.6758
26.9979 38.4811
27.0437 38.0178
27.0896 37.8225
27.1354 37.9054
27.1814 37.8368
27.2272 37.6175
27.2732 37.7088
27.3191 37.6477
27.3651 37.7134
27.4109 37.6302
27.4569 37.7904
27.5027 37.6657
27.5488 37.7725
27.5946 37.5874
27.6407 37.4601
27.6865 37.187
27.7326 36.9565
27.7784 37.212
27.8245 37.0144
27.8703 37.1591
27.9164 37.4938
27.9623 37.7054
28.0084 38.0071
28.0543 38.453
28.1003 38.1146
28.1462 38.0163
28.1923 37.7916
28.2384 37.3094
28.2843 37.0301
28.3304 36.2957
28.3764 35.947
28.4225 35.758
28.4684 35.4946
28.5145 35.2603
28.5605 35.1829
28.6066 35.0331
28.6526 34.9788
28.6987 34.9734
28.7447 34.7233
28.7908 34.645
28.8368 34.8677
28.8829 34.7785
28.9289 34.6609
28.9751 34.3938
29.0211 34.2979
29.0673 33.9458
29.1133 33.7747
29.1595 33.6788
29.2055 33.6707
29.2517 33.6946
29.2977 33.6042
29.3439 33.6179
29.3899 33.6614
29.4361 33.4756
29.4824 33.3324
29.5284 33.0792
29.5746 32.6986
29.6207 32.4652
29.6669 32.3947
29.713 32.3397
29.7593 32.2509
29.8053 32.2043
29.8516 32.1398
29.8977 32.12
29.9439 31.9042
29.99 31.8861
30.0363 31.7627
30.0824 31.808
30.1287 31.8795
30.1748 31.8193
30.2211 31.8302
30.2673 31.6233
30.3136 31.6791
30.3597 31.6183
30.406 31.4477
30.4522 31.4263
30.4985 31.3197
30.5447 31.3915
30.591 31.5396
30.6372 31.6813
30.6835 31.6042
30.7297 31.5545
30.7761 31.5933
30.8224 31.3503
30.8686 31.2506
30.915 30.8762
30.9612 30.7675
31.0076 30.6128
31.0538 30.4803
31.1002 30.5136
31.1464 30.3141
31.1928 30.3673
31.2391 30.3832
31.2855 30.3145
31.3317 30.1851
31.3781 30.2352
31.4244 30.2132
31.4708 30.2291
31.5171 30.2173
31.5636 30.1582
31.6098 29.896
31.6563 29.7969
31.7026 29.6682
31.7491 29.5367
31.7953 29.5842
31.8418 29.6411
31.8881 29.5098
31.9346 29.5129
31.9809 29.4194
32.0275 29.3871
32.074 29.3273
32.1203 29.0212
32.1668 28.972
32.2132 28.7822
32.2597 28.6772
32.306 28.573
32.3526 28.3109
32.399 28.3275
32.4455 28.1813
32.4919 28.1606
32.5385 28.1085
32.5848 27.9787
32.6314 27.973
32.6778 27.8304
32.7244 27.7128
32.7708 27.6436
32.8174 27.5541
32.8638 27.4806
32.9104 27.512
32.9569 27.4811
33.0035 27.3447
33.0499 27.2655
33.0966 27.2638
33.143 27.2366
33.1897 27.0849
33.2361 27.1211
33.2828 27.0869
33.3293 26.8929
33.3759 26.9016
33.4226 26.6715
33.4691 26.5324
33.5158 26.5538
33.5623 26.3495
33.609 26.2276
33.6555 26.1212
33.7022 25.9891
33.7487 25.9924
33.7954 25.9653
33.842 25.8379
33.8887 25.774
33.9353 25.7421
33.982 25.585
34.0286 25.4881
34.0753 25.4862
34.1219 25.3986
34.1687 25.2296
34.2152 25.3726
34.262 25.2523
34.3086 25.0325
34.3554 24.995
34.402 24.8727
34.4488 24.757
34.4954 24.7745
34.5422 24.6811
34.5889 24.6538
34.6357 24.5096
34.6825 24.4067
34.7292 24.3002
34.776 24.2656
34.8227 24.2761
34.8695 24.1239
34.9162 24.0871
34.9631 24.0307
35.0098 23.9736
35.0566 23.9021
35.1033 23.7781
35.1502 23.798
35.1969 23.7368
35.2438 23.6795
35.2906 23.6731
35.3375 23.5874
35.3842 23.5111
35.4311 23.5342
35.4779 23.4766
35.5248 23.3986
35.5716 23.3629
35.6185 23.266
35.6653 23.1397
35.7123 23.0167
35.759 23.0208
35.806 22.8327
35.8528 22.7893
35.8998 22.8659
35.9468 22.6446
35.9936 22.6554
36.0406 22.5253
36.0874 22.5545
36.1345 22.4748
36.1813 22.4273
36.2283 22.2401
36.2752 22.1472
36.3222 22.1833
36.3691 22.1514
36.4161 22.0046
36.463 22.0211
36.5101 21.9561
36.557 21.9226
36.6041 21.8113
36.651 21.676
36.6981 21.6752
36.745 21.6558
36.7921 21.5446
36.839 21.4523
36.8861 21.4406
36.9331 21.3328
36.9802 21.3288
37.0272 21.1991
37.0743 21.1005
37.1213 21.0579
37.1684 21.0016
37.2154 20.9503
37.2626 20.8453
37.3098 20.8242
37.3568 20.8195
37.404 20.6893
37.451 20.582
37.4982 20.5358
37.5452 20.3872
37.5924 20.3915
37.6395 20.4196
37.6867 20.2972
37.7337 20.211
37.781 20.1491
37.8281 20.0824
37.8753 20.0833
37.9224 19.914
37.9697 19.9099
38.0168 19.7943
38.064 19.7106
38.1111 19.7125
38.1584 19.5576
38.2056 19.5376
38.2529 19.5683
38.3 19.4068
38.3473 19.4671
38.3945 19.3271
38.4418 19.2715
38.489 19.2055
38.5363 19.1061
38.5837 19.0786
38.6309 19.0521
38.6782 18.9824
38.7254 18.9786
38.7728 18.8477
38.82 18.7777
38.8674 18.7312
38.9146 18.6122
38.9621 18.5421
39.0093 18.5847
39.0567 18.5005
39.104 18.4249
39.1514 18.3392
39.1987 18.3974
39.2461 18.2729
39.2934 18.2075
39.3409 18.0503
39.3882 18.1024
39.4356 18.0027
39.483 17.9908
39.5304 17.9676
39.5778 17.8699
39.6253 17.8398
39.6726 17.7404
39.7201 17.7028
39.7675 17.6614
39.815 17.5861
39.8624 17.5526
39.9099 17.5645
39.9575 17.4099
40.0049 17.3667
40.0525 17.3248
40.0999 17.2212
40.1474 17.1983
40.1949 17.1211
40.2425 17.0386
40.2899 16.958
40.3375 16.9211
40.385 16.8964
40.4326 16.8426
40.48 16.8289
40.5277 16.7809
40.5752 16.7115
40.6228 16.6694
40.6703 16.6185
40.718 16.5505
40.7655 16.5306
40.8132 16.4785
40.8607 16.4582
40.9084 16.357
40.9559 16.2568
41.0036 16.2387
41.0512 16.1968
41.0989 16.1546
41.1465 16.1098
41.1942 16.0735
41.242 15.9579
41.2896 15.8894
41.3373 15.8576
41.3849 15.8069
41.4327 15.7254
41.4803 15.6987
41.5281 15.6709
41.5758 15.6407
41.6236 15.5579
41.6712 15.446
41.7191 15.4522
41.7667 15.4197
41.8146 15.341
41.8622 15.3083
41.9101 15.2056
41.9578 15.1847
42.0057 15.1495
42.0534 15.0955
42.1013 15.0378
42.149 15.0191
42.1969 14.9474
42.2446 14.8829
42.2925 14.8572
42.3403 14.7947
42.3882 14.7912
42.436 14.6936
42.4839 14.623
42.5319 14.606
42.5797 14.5175
42.6277 14.5195
42.6755 14.4474
42.7235 14.3946
42.7713 14.3113
42.8193 14.3284
42.8671 14.2669
42.9152 14.2152
42.963 14.178
43.0111 14.1348
43.0589 14.0788
43.107 14.0265
43.1549 13.9578
43.2029 13.9168
43.2508 13.8846
43.2989 13.81
43.3468 13.7749
43.3949 13.7482
43.4429 13.7582
43.491 13.6605
43.5389 13.6164
43.5871 13.5443
43.635 13.4943
43.6832 13.459
43.7312 13.3591
43.7793 13.3406
43.8273 13.3069
43.8755 13.258
43.9237 13.1759
43.9717 13.2086
44.0199 13.1102
44.068 13.1098
44.1162 13.0681
44.1642 12.9884
44.2125 12.9416
44.2606 12.8967
44.3088 12.8324
44.3569 12.8153
44.4052 12.8155
44.4533 12.6999
44.5016 12.6169
44.5497 12.661
44.598 12.5983
44.6461 12.5541
44.6945 12.5042
44.7426 12.4523
44.791 12.3848
44.8391 12.3578
44.8875 12.2935
44.9357 12.3136
44.984 12.2152
45.0322 12.1766
45.0806 12.1355
45.1288 12.0887
45.1773 12.0118
45.2257 12.026
45.2739 11.9761
45.3224 11.9553
45.3706 11.9065
45.4191 11.819
45.4673 11.8061
45.5158 11.7577
45.5641 11.7481
45.6126 11.6606
45.6609 11.6124
45.7094 11.602
45.7577 11.5404
45.8063 11.4686
45.8546 11.5211
45.9031 11.4334
45.9515 11.3466
46.0001 11.3797
46.0484 11.2931
46.097 11.2715
46.1454 11.2904
46.194 11.2183
46.2424 11.1253
46.291 11.1048
46.3395 11.085
46.3881 11.0224
46.4365 11.0439
46.4852 10.9342
46.5337 10.9308
46.5823 10.9328
46.631 10.8466
46.6795 10.7856
46.7282 10.7814
46.7767 10.7274
46.8254 10.6582
46.8739 10.6265
46.9226 10.5821
46.9712 10.5563
47.0199 10.5505
47.0685 10.4281
47.1173 10.3958
47.1658 10.3944
47.2146 10.3692
47.2632 10.3422
47.312 10.2436
47.3606 10.2317
47.4095 10.2007
47.4581 10.1924
47.5069 10.1172
47.5556 10.1057
47.6044 10.1013
47.6531 10.0334
47.702 9.95
47.7507 9.95431
47.7996 9.88756
47.8483 9.89707
47.8972 9.82883
47.9461 9.79606
47.9948 9.7518
48.0438 9.75426
48.0925 9.67799
48.1415 9.62217
48.1902 9.65568
48.2392 9.63301
48.288 9.57013
48.337 9.52861
48.3858 9.48358
48.4348 9.45953
48.4837 9.45821
48.5327 9.38651
48.5815 9.3299
48.6306 9.32921
48.6795 9.29911
48.7285 9.23999
48.7774 9.21876
48.8265 9.20443
48.8754 9.14165
48.9245 9.13405
48.9734 9.10656
49.0226 9.05533
49.0715 8.99751
49.1206 8.9481
49.1696 8.94889
49.2188 8.91378
49.2679 8.85123
49.3169 8.82591
49.3661 8.79505
49.4151 8.78041
49.4643 8.72972
49.5134 8.72332
49.5626 8.65494
49.6117 8.62414
49.6609 8.60532
49.71 8.54738
49.7592 8.55191
49.8083 8.51395
49.8576 8.47555
49.9067 8.43436
49.956 8.4076
50.0052 8.37284
50.0545 8.34195
50.1036 8.33475
50.153 8.32808
50.2022 8.22986
50.2515 8.21385
50.3007 8.18044
50.3501 8.15029
50.3993 8.1143
50.4487 8.11589
50.498 8.08875
50.5474 8.04667
50.5966 7.99243
50.6461 7.97269
50.6955 7.96217
50.7448 7.92798
50.7943 7.88286
50.8436 7.84825
50.8931 7.82778
50.9424 7.78299
50.9919 7.75764
51.0413 7.75963
51.0908 7.72223
51.1402 7.67853
51.1897 7.64883
51.2391 7.59799
51.2887 7.56916
51.3381 7.54988
51.3877 7.51873
51.4371 7.44182
51.4867 7.42948
51.5362 7.41414
51.5858 7.38499
51.6353 7.35789
51.6849 7.30757
51.7344 7.28657
51.7841 7.32448
51.8336 7.23269
51.8833 7.22888
51.9328 7.16348
51.9826 7.11784
52.0323 7.08986
52.0818 7.11334
52.1316 7.01529
52.1812 7.0852
52.231 6.9991
52.2806 7.00557
52.3304 6.96014
52.38 6.94042
52.4298 6.91902
52.4794 6.84171
52.5293 6.85319
52.5789 6.80725
52.6288 6.81843
52.6785 6.72601
52.7284 6.72166
52.7781 6.67782
52.828 6.67518
52.8777 6.60379
52.9276 6.60073
52.9774 6.62009
53.0273 6.56368
53.0771 6.51068
53.1271 6.53292
53.1769 6.49604
53.2269 6.45395
53.2767 6.42337
53.3267 6.40335
53.3765 6.30283
53.4266 6.34035
53.4766 6.28971
53.5265 6.30448
53.5765 6.26431
53.6264 6.24234
53.6765 6.20567
53.7264 6.17671
53.7765 6.18768
53.8265 6.1454
53.8766 6.08163
53.9266 6.08352
53.9767 6.0297
54.0267 6.0404
54.0769 5.98259
54.1269 5.98516
54.1771 5.97804
54.2271 5.91439
54.2773 5.90037
54.3274 5.87988
54.3776 5.81534
54.4277 5.80116
54.478 5.75467
54.528 5.71613
54.5783 5.69384
54.6285 5.6152
54.6788 5.56819
54.7289 5.55082
54.7792 5.55911
54.8296 5.4097
54.8798 5.42367
54.9301 5.37548
54.9803 5.37211
55.0307 5.33886
55.0809 5.26965
55.1314 5.24951
55.1816 5.16617
55.232 5.12508
55.2823 5.11004
55.3328 5.0368
55.383 4.97097
55.4335 4.99492
55.4838 4.88111
55.5344 4.82377
55.5847 4.87106
55.6352 4.85911
55.6856 4.74044
55.7361 4.73525