File: XRD/Ni3Fe_FD0974.xy
TT I
1.27165 7.52772
1.31627 6.51008
1.36089 6.64836
1.40551 6.4189
1.45013 5.67233
1.49476 5.73307
1.53938 5.8824
1.584 5.35904
1.62863 5.07146
1.67325 4.657
1.71787 4.87489
1.7625 4.82097
1.80712 4.82784
1.85174 4.26459
1.89636 4.81476
1.94099 5.24825
1.98562 4.79459
2.03025 4.65751
2.07487 4.21909
2.11949 5.08084
2.16411 5.18158
2.20874 14.6103
2.25338 22.7595
2.298 6.26338
2.34263 5.99975
2.38725 6.11278
2.43188 6.25377
2.4765 8.08779
2.52115 7.5327
2.56577 8.51753
2.6104 9.0607
2.65503 8.63333
2.69965 9.02375
2.7443 8.48275
2.78893 8.30882
2.83356 8.56506
2.87818 8.99898
2.92281 9.24499
2.96744 10.0156
3.01209 10.8068
3.05672 11.5606
3.10135 12.6479
3.14599 13.5179
3.19062 14.7786
3.23527 15.1641
3.2799 15.9148
3.32454 16.8276
3.36917 17.5768
3.4138 18.9349
3.45844 19.6515
3.50309 21.2029
3.54773 21.867
3.59237 24.2501
3.637 89.5316
3.68164 58.3354
3.7263 26.399
3.77094 25.7535
3.81558 26.7424
3.86022 27.5579
3.90486 29.1616
3.9495 29.8234
3.99416 30.6368
4.0388 31.9607
4.08344 33.1527
4.12809 34.3537
4.17273 37.0209
4.21738 42.5507
4.26204 243.92
4.30669 216.075
4.35133 48.0557
4.39598 43.9737
4.44063 53.529
4.4853 64.8012
4.52995 49.5657
4.5746 50.7386
4.61925 52.4884
4.6639 54.5097
4.70855 57.252
4.75322 59.8596
4.79788 62.5104
4.84253 65.9551
4.88719 69.8442
4.93184 73.2905
4.97652 78.7329
5.02118 84.3008
5.06583 91.148
5.11049 101.575
5.15515 163.092
5.19981 275.315
5.24449 2340.2
5.28916 13517.3
5.33382 2824.63
5.37848 172.621
5.42315 123.628
5.46783 109.932
5.5125 103.197
5.55716 99.4312
5.60183 96.0797
5.6465 94.0986
5.69117 91.9996
5.73586 89.8505
5.78053 89.6605
5.8252 88.6538
5.86988 88.9274
5.91455 90.5009
5.95924 96.4412
6.00392 169.519
6.0486 792.624
6.09328 4601.32
6.13795 3182.11
6.18263 216.114
6.22733 89.0818
6.27201 80.7981
6.3167 99.734
6.36138 78.8542
6.40606 67.6091
6.45075 66.2136
6.49545 64.5667
6.54014 62.8644
6.58483 62.0432
6.62952 61.8011
6.67421 92.5603
6.71892 140.372
6.76361 67.903
6.8083 57.7448
6.853 56.9447
6.89769 56.0738
6.94239 55.8799
6.98711 54.9082
7.03181 54.7757
7.07651 54.685
7.12121 54.2786
7.16591 54.3998
7.21063 54.6993
7.25533 69.9326
7.30004 175.053
7.34475 89.8717
7.38945 55.6595
7.43416 53.875
7.47889 53.7678
7.5236 54.0727
7.56831 54.6141
7.61303 56.0822
7.65774 56.7611
7.70247 55.348
7.74719 55.5785
7.79191 55.5195
7.83663 55.9803
7.88135 56.7839
7.92607 57.8522
7.97081 58.6395
8.01553 60.0611
8.06026 60.87
8.10498 62.6551
8.14971 71.9462
8.19446 71.1004
8.23919 68.0516
8.28392 70.1716
8.32865 72.5919
8.37339 76.5512
8.41812 82.9147
8.46288 109.678
8.50761 142.117
8.55235 328.117
8.59709 1130.48
8.64183 2291.6
8.68658 930.705
8.73134 159.481
8.77609 96.3373
8.82083 90.7087
8.86558 87.3652
8.91033 88.1344
8.9551 90.0029
8.99985 83.7558
9.04461 81.8436
9.08936 81.106
9.13412 80.2714
9.17888 80.7115
9.22365 81.4082
9.26841 80.6558
9.31318 81.1091
9.35794 80.8278
9.4027 81.3725
9.44749 82.3983
9.49226 83.0206
9.53703 83.9822
9.5818 85.6453
9.62657 89.6549
9.67134 96.5974
9.71614 91.8474
9.76091 92.0711
9.80569 94.2069
9.85047 97.6754
9.89525 120.524
9.94005 131.333
9.98484 154.448
10.0296 295.019
10.0744 763.979
10.1192 1773.8
10.164 1525.0
10.2088 358.945
10.2536 122.07
10.2984 110.171
10.3432 111.946
10.388 101.996
10.4328 110.27
10.4776 146.728
10.5224 270.922
10.5672 527.515
10.612 501.737
10.6568 196.649
10.7017 94.1432
10.7465 84.6349
10.7913 81.4637
10.8361 79.4161
10.8809 77.2997
10.9257 76.9329
10.9706 77.5801
11.0154 73.5034
11.0602 71.5333
11.105 70.5899
11.1499 75.0409
11.1947 81.4516
11.2395 72.9113
11.2844 69.1248
11.3292 65.6907
11.374 65.1725
11.4189 64.5063
11.4637 63.7786
11.5086 64.3355
11.5534 67.1363
11.5983 64.4478
11.6431 62.5224
11.688 61.8995
11.7328 61.6825
11.7777 61.7141
11.8225 61.4756
11.8674 61.2265
11.9122 61.5054
11.9571 61.4983
12.002 62.1412
12.0468 64.9699
12.0917 74.8987
12.1366 98.4583
12.1814 153.302
12.2263 205.879
12.2712 162.452
12.3161 96.4569
12.3609 69.4265
12.4058 63.5162
12.4507 63.3743
12.4956 63.0265
12.5405 63.3268
12.5853 64.3908
12.6302 71.9226
12.6751 76.9359
12.72 68.7469
12.7649 66.3459
12.8098 66.7836
12.8547 68.181
12.8996 69.5784
12.9445 70.6434
12.9894 72.3584
13.0343 74.0258
13.0792 76.7306
13.1242 83.6524
13.1691 103.431
13.214 137.924
13.2589 232.594
13.3038 380.005
13.3487 427.437
13.3937 247.189
13.4386 119.192
13.4835 99.6797
13.5285 112.287
13.5734 149.285
13.6183 247.124
13.6633 361.064
13.7082 329.709
13.7531 177.202
13.7981 94.7718
13.843 79.8739
13.888 77.9749
13.9329 75.6831
13.9779 74.2877
14.0228 72.7157
14.0678 71.7229
14.1127 70.854
14.1577 71.0398
14.2027 70.2413
14.2476 68.835
14.2926 69.1894
14.3376 69.9725
14.3825 68.7265
14.4275 67.3318
14.4725 67.2604
14.5175 67.2234
14.5624 67.3114
14.6074 69.6757
14.6524 69.8921
14.6974 69.1305
14.7424 69.6196
14.7874 74.8941
14.8324 83.9262
14.8774 105.484
14.9224 151.492
14.9674 213.602
15.0124 218.408
15.0574 146.556
15.1024 87.7642
15.1474 70.7628
15.1924 68.9308
15.2374 69.5688
15.2824 68.71
15.3274 66.7808
15.3725 65.6739
15.4175 65.1847
15.4625 64.8161
15.5076 64.8897
15.5526 64.8289
15.5976 64.3486
15.6426 65.1273
15.6877 68.9748
15.7327 75.7499
15.7778 90.2329
15.8228 123.824
15.8679 174.593
15.9129 198.147
15.958 150.849
16.003 94.1479
16.0481 66.7433
16.0931 63.3184
16.1382 61.325
16.1833 59.6176
16.2283 57.8225
16.2734 57.1614
16.3185 57.52
16.3636 58.1345
16.4086 56.6934
16.4537 55.2776
16.4988 54.556
16.5439 54.2294
16.589 53.9868
16.6341 53.7377
16.6792 53.5521
16.7243 53.8105
16.7694 53.788
16.8145 53.8667
16.8596 54.1858
16.9047 55.6787
16.9498 55.8296
16.9949 54.6625
17.04 54.5109
17.0851 55.3154
17.1302 57.0082
17.1754 59.8089
17.2205 65.0827
17.2656 73.5865
17.3108 82.1956
17.3559 80.2204
17.401 69.0758
17.4462 60.6528
17.4913 57.9261
17.5365 57.693
17.5815 58.0324
17.6268 58.3721
17.6718 59.069
17.7171 59.6028
17.7622 59.912
17.8074 60.6789
17.8525 62.1428
17.8977 65.6491
17.9428 70.683
17.9881 79.3971
18.0331 97.8138
18.0784 122.615
18.1237 137.718
18.1688 124.622
18.214 98.769
18.2591 83.5363
18.3044 89.1417
18.3495 100.265
18.3948 105.496
18.4399 93.8544
18.4852 75.4321
18.5303 64.5086
18.5756 60.8492
18.6207 60.0455
18.666 59.0916
18.7112 58.5506
18.7565 57.8048
18.8016 57.4939
18.8469 57.0569
18.892 56.4357
18.9374 56.1245
18.9825 55.9358
19.0278 55.7351
19.073 55.9322
19.1183 55.9592
19.1635 56.7303
19.2088 58.0772
19.254 60.6349
19.2993 65.6498
19.3447 71.9733
19.3898 75.2573
19.4352 70.1233
19.4804 61.4747
19.5257 55.294
19.5709 52.9628
19.6163 53.0008
19.6615 52.661
19.7068 52.1538
19.752 52.2594
19.7974 52.3254
19.8426 53.322
19.888 53.727
19.9332 54.8415
19.9786 57.253
20.0238 61.3996
20.0692 66.9399
20.1144 68.6569
20.1598 66.4801
20.205 62.0008
20.2504 61.1384
20.2957 63.3397
20.3411 64.9717
20.3863 62.7287
20.4318 57.028
20.477 52.3945
20.5224 50.5844
20.5677 50.0319
20.6131 49.2951
20.6586 48.7453
20.7038 48.5313
20.7493 48.1634
20.7945 48.0528
20.84 47.7537
20.8853 47.6797
20.9307 47.5017
20.976 47.5519
21.0215 47.5135
21.0668 47.8004
21.1122 48.417
21.1575 49.1018
21.203 50.1833
21.2483 50.6999
21.2938 50.1695
21.3391 48.9959
21.3846 47.9418
21.4299 47.4191
21.4754 47.2707
21.5207 47.6043
21.5662 47.7832
21.6116 48.147
21.6571 48.7405
21.7024 49.5811
21.7479 51.2648
21.7933 54.2036
21.8388 58.422
21.8843 62.2085
21.9297 63.4994
21.9752 61.6905
22.0206 58.0658
22.0661 55.6429
22.1115 55.3169
22.157 54.833
22.2024 53.1648
22.248 50.5725
22.2933 48.8408
22.3389 48.2089
22.3843 48.0823
22.4299 48.0569
22.4753 47.8829
22.5208 47.7055
22.5662 47.4786
22.6118 47.7289
22.6572 47.7931
22.7028 48.1083
22.7483 48.6958
22.7939 49.2477
22.8393 50.8349
22.8849 53.1299
22.9303 55.6753
22.9759 57.0754
23.0214 56.1168
23.067 53.2183
23.1126 49.8962
23.1581 48.2723
23.2037 47.7143
23.2492 47.6886
23.2948 47.6083
23.3403 48.0032
23.3859 48.3959
23.4314 49.6624
23.477 51.6603
23.5225 54.1748
23.5682 56.5061
23.6137 56.9763
23.6593 54.4461
23.7048 50.4575
23.7505 47.3233
23.796 45.6649
23.8417 45.1515
23.8872 44.6525
23.9329 44.2467
23.9784 43.956
24.0241 43.8402
24.0697 43.6335
24.1154 43.2656
24.1609 43.3226
24.2066 42.945
24.2522 42.7493
24.2979 42.4957
24.3434 42.4784
24.3892 42.3977
24.4349 42.3535
24.4805 42.0607
24.5262 42.2005
24.5718 42.241
24.6175 42.0453
24.6631 42.0367
24.7089 41.8374
24.7545 41.5086
24.8002 41.3299
24.8458 41.4828
24.8916 41.1207
24.9372 41.3421
24.983 41.583
25.0286 41.9621
25.0744 42.4455
25.12 42.9182
25.1658 43.5165
25.2114 43.693
25.2572 44.0044
25.3029 44.1571
25.3487 44.2074
25.3943 43.6699
25.4402 42.6107
25.4858 41.5163
25.5316 40.5822
25.5773 40.1148
25.6231 40.1146
25.669 39.887
25.7147 39.8583
25.7605 39.7126
25.8062 39.6944
25.8521 39.8822
25.8977 39.7824
25.9436 39.9994
25.9893 40.1776
26.0352 40.7568
26.0809 40.8246
26.1268 40.9407
26.1725 40.5259
26.2184 39.8937
26.2641 39.5503
26.31 39.3176
26.3557 39.3034
26.4017 39.3078
26.4474 39.4509
26.4933 39.9048
26.5391 40.3638
26.585 41.0581
26.6308 41.4072
26.6767 41.3272
26.7225 41.0629
26.7684 40.6357
26.8142 40.0656
26.8601 39.7009
26.9059 39.1612
26.9519 38.664
26.9979 38.4014
27.0437 38.0207
27.0896 37.9777
27.1354 37.9337
27.1814 37.8576
27.2272 37.8233
27.2732 37.7919
27.3191 37.6703
27.3651 37.6808
27.4109 37.6485
27.4569 37.8521
27.5027 37.7865
27.5488 37.8883
27.5946 37.4956
27.6407 37.4303
27.6865 37.3075
27.7326 37.025
27.7784 36.9855
27.8245 36.9737
27.8703 37.2258
27.9164 37.5778
27.9623 37.9005
28.0084 38.0131
28.0543 38.2216
28.1003 38.2085
28.1462 38.0476
28.1923 37.7659
28.2384 37.1732
28.2843 36.8532
28.3304 36.5209
28.3764 35.991
28.4225 35.7537
28.4684 35.5145
28.5145 35.3251
28.5605 35.2757
28.6066 35.0164
28.6526 34.8664
28.6987 34.9354
28.7447 34.787
28.7908 34.7619
28.8368 34.814
28.8829 34.6928
28.9289 34.7488
28.9751 34.4709
29.0211 34.2526
29.0673 34.0224
29.1133 33.8749
29.1595 33.7099
29.2055 33.7011
29.2517 33.6865
29.2977 33.785
29.3439 33.5547
29.3899 33.6905
29.4361 33.6581
29.4824 33.3177
29.5284 33.1086
29.5746 32.7682
29.6207 32.5211
29.6669 32.4346
29.713 32.3894
29.7593 32.2319
29.8053 32.247
29.8516 32.1695
29.8977 32.0771
29.9439 31.9521
29.99 31.9756
30.0363 31.8243
30.0824 31.9128
30.1287 31.8909
30.1748 31.8639
30.2211 31.8272
30.2673 31.6961
30.3136 31.7257
30.3597 31.692
30.406 31.6221
30.4522 31.5438
30.4985 31.325
30.5447 31.4946
30.591 31.5218
30.6372 31.6425
30.6835 31.6274
30.7297 31.6791
30.7761 31.4316
30.8224 31.3785
30.8686 31.2363
30.915 30.9949
30.9612 30.8149
31.0076 30.7014
31.0538 30.6243
31.1002 30.5481
31.1464 30.3259
31.1928 30.4027
31.2391 30.4292
31.2855 30.3382
31.3317 30.2572
31.3781 30.4068
31.4244 30.2844
31.4708 30.2664
31.5171 30.2017
31.5636 30.2572
31.6098 30.0344
31.6563 29.8056
31.7026 29.706
31.7491 29.6209
31.7953 29.5811
31.8418 29.5846
31.8881 29.6
31.9346 29.6291
31.9809 29.4707
32.0275 29.3438
32.074 29.2705
32.1203 29.0617
32.1668 28.9916
32.2132 28.7802
32.2597 28.6533
32.306 28.7172
32.3526 28.3874
32.399 28.3677
32.4455 28.2886
32.4919 28.1924
32.5385 28.0891
32.5848 27.879
32.6314 27.9828
32.6778 27.8445
32.7244 27.7378
32.7708 27.6484
32.8174 27.7197
32.8638 27.5253
32.9104 27.5562
32.9569 27.5139
33.0035 27.3393
33.0499 27.3319
33.0966 27.303
33.143 27.31
33.1897 27.1584
33.2361 27.123
33.2828 27.0171
33.3293 26.8675
33.3759 26.9453
33.4226 26.8386
33.4691 26.6401
33.5158 26.4969
33.5623 26.4047
33.609 26.2954
33.6555 26.1029
33.7022 26.1354
33.7487 25.9768
33.7954 25.9362
33.842 25.9199
33.8887 25.8012
33.9353 25.8205
33.982 25.6148
34.0286 25.5817
34.0753 25.4834
34.1219 25.4828
34.1687 25.3836
34.2152 25.2581
34.262 25.1924
34.3086 25.0894
34.3554 25.0065
34.402 24.9619
34.4488 24.8181
34.4954 24.7803
34.5422 24.6951
34.5889 24.6214
34.6357 24.4355
34.6825 24.5313
34.7292 24.374
34.776 24.3098
34.8227 24.2299
34.8695 24.1558
34.9162 24.1882
34.9631 24.0306
35.0098 24.0074
35.0566 23.9607
35.1033 23.825
35.1502 23.7419
35.1969 23.7649
35.2438 23.6585
35.2906 23.6633
35.3375 23.6248
35.3842 23.631
35.4311 23.5758
35.4779 23.5554
35.5248 23.4233
35.5716 23.393
35.6185 23.3132
35.6653 23.23
35.7123 23.1075
35.759 23.0423
35.806 22.995
35.8528 22.8083
35.8998 22.6827
35.9468 22.7769
35.9936 22.7586
36.0406 22.6042
36.0874 22.5159
36.1345 22.49
36.1813 22.4435
36.2283 22.3614
36.2752 22.2449
36.3222 22.2499
36.3691 22.1746
36.4161 22.0095
36.463 22.0507
36.5101 22.0445
36.557 21.9539
36.6041 21.7783
36.651 21.7538
36.6981 21.7111
36.745 21.6433
36.7921 21.588
36.839 21.4479
36.8861 21.4497
36.9331 21.308
36.9802 21.2413
37.0272 21.194
37.0743 21.1281
37.1213 21.1171
37.1684 21.0744
37.2154 21.0169
37.2626 20.8949
37.3098 20.7684
37.3568 20.7699
37.404 20.7123
37.451 20.627
37.4982 20.4573
37.5452 20.4864
37.5924 20.3754
37.6395 20.4748
37.6867 20.3025
37.7337 20.3125
37.781 20.1719
37.8281 20.0514
37.8753 20.0702
37.9224 19.9759
37.9697 19.8158
38.0168 19.8353
38.064 19.8137
38.1111 19.7174
38.1584 19.5839
38.2056 19.6198
38.2529 19.5546
38.3 19.4569
38.3473 19.4771
38.3945 19.3714
38.4418 19.265
38.489 19.3069
38.5363 19.1616
38.5837 19.1072
38.6309 19.1226
38.6782 19.0149
38.7254 18.8889
38.7728 18.9201
38.82 18.7963
38.8674 18.7466
38.9146 18.6913
38.9621 18.6326
39.0093 18.581
39.0567 18.4785
39.104 18.452
39.1514 18.2891
39.1987 18.3239
39.2461 18.37
39.2934 18.2199
39.3409 18.1269
39.3882 18.0841
39.4356 18.0143
39.483 17.9926
39.5304 17.9406
39.5778 17.9104
39.6253 17.8528
39.6726 17.7693
39.7201 17.722
39.7675 17.6658
39.815 17.6461
39.8624 17.5351
39.9099 17.5522
39.9575 17.4419
40.0049 17.3861
40.0525 17.3126
40.0999 17.2904
40.1474 17.2864
40.1949 17.1373
40.2425 17.1247
40.2899 17.0794
40.3375 17.0493
40.385 16.9711
40.4326 16.8972
40.48 16.8044
40.5277 16.8121
40.5752 16.6933
40.6228 16.7103
40.6703 16.6143
40.718 16.5581
40.7655 16.5625
40.8132 16.4742
40.8607 16.486
40.9084 16.3576
40.9559 16.3039
41.0036 16.2558
41.0512 16.239
41.0989 16.1553
41.1465 16.1149
41.1942 16.0762
41.242 16.0228
41.2896 15.9704
41.3373 15.9091
41.3849 15.8475
41.4327 15.7924
41.4803 15.688
41.5281 15.6143
41.5758 15.5527
41.6236 15.516
41.6712 15.4626
41.7191 15.4794
41.7667 15.4212
41.8146 15.3856
41.8622 15.2938
41.9101 15.3331
41.9578 15.2022
42.0057 15.1477
42.0534 15.1451
42.1013 15.0702
42.149 14.9357
42.1969 14.9836
42.2446 14.9172
42.2925 14.8243
42.3403 14.8101
42.3882 14.7658
42.436 14.6727
42.4839 14.7022
42.5319 14.6044
42.5797 14.5494
42.6277 14.5044
42.6755 14.4587
42.7235 14.4214
42.7713 14.4217
42.8193 14.3535
42.8671 14.319
42.9152 14.218
42.963 14.1942
43.0111 14.1153
43.0589 14.043
43.107 14.0473
43.1549 14.0026
43.2029 13.9073
43.2508 13.8747
43.2989 13.7901
43.3468 13.7537
43.3949 13.7027
43.4429 13.7102
43.491 13.621
43.5389 13.5384
43.5871 13.545
43.635 13.5329
43.6832 13.4699
43.7312 13.3748
43.7793 13.3651
43.8273 13.3419
43.8755 13.2882
43.9237 13.2131
43.9717 13.1875
44.0199 13.105
44.068 13.0858
44.1162 13.088
44.1642 13.0157
44.2125 12.9846
44.2606 12.9219
44.3088 12.853
44.3569 12.831
44.4052 12.7758
44.4533 12.723
44.5016 12.6679
44.5497 12.6422
44.598 12.6222
44.6461 12.5217
44.6945 12.5142
44.7426 12.48
44.791 12.4042
44.8391 12.3701
44.8875 12.3614
44.9357 12.2524
44.984 12.2215
45.0322 12.1858
45.0806 12.172
45.1288 12.1135
45.1773 12.0585
45.2257 12.0246
45.2739 12.0196
45.3224 11.9331
45.3706 11.9007
45.4191 11.8632
45.4673 11.7917
45.5158 11.7763
45.5641 11.7511
45.6126 11.7029
45.6609 11.6392
45.7094 11.6305
45.7577 11.5158
45.8063 11.4483
45.8546 11.4808
45.9031 11.4526
45.9515 11.4261
46.0001 11.3785
46.0484 11.3434
46.097 11.3183
46.1454 11.2724
46.194 11.2129
46.2424 11.1912
46.291 11.1668
46.3395 11.1031
46.3881 11.0299
46.4365 11.0311
46.4852 10.9643
46.5337 10.8835
46.5823 10.8845
46.631 10.8444
46.6795 10.7829
46.7282 10.7805
46.7767 10.7654
46.8254 10.6638
46.8739 10.6052
46.9226 10.6041
46.9712 10.5745
47.0199 10.5154
47.0685 10.4991
47.1173 10.4806
47.1658 10.4004
47.2146 10.3632
47.2632 10.358
47.312 10.3317
47.3606 10.2627
47.4095 10.2175
47.4581 10.18
47.5069 10.1687
47.5556 10.1101
47.6044 10.0557
47.6531 9.98725
47.702 9.95617
47.7507 9.94254
47.7996 9.91301
47.8483 9.93364
47.8972 9.8249
47.9461 9.84398
47.9948 9.7677
48.0438 9.74667
48.0925 9.72225
48.1415 9.67389
48.1902 9.60671
48.2392 9.64004
48.288 9.57189
48.337 9.57264
48.3858 9.49262
48.4348 9.46933
48.4837 9.45125
48.5327 9.40456
48.5815 9.39175
48.6306 9.33312
48.6795 9.34905
48.7285 9.24643
48.7774 9.20259
48.8265 9.19836
48.8754 9.18074
48.9245 9.14563
48.9734 9.09592
49.0226 9.09248
49.0715 8.98659
49.1206 8.98831
49.1696 8.93546
49.2188 8.92777
49.2679 8.90524
49.3169 8.81216
49.3661 8.79539
49.4151 8.80363
49.4643 8.76093
49.5134 8.71296
49.5626 8.63922
49.6117 8.66203
49.6609 8.60774
49.71 8.546
49.7592 8.54162
49.8083 8.5096
49.8576 8.51349
49.9067 8.44882
49.956 8.43431
50.0052 8.39398
50.0545 8.33461
50.1036 8.32187
50.153 8.291
50.2022 8.26263
50.2515 8.21507
50.3007 8.16496
50.3501 8.16463
50.3993 8.11811
50.4487 8.09059
50.498 8.04781
50.5474 8.02503
50.5966 7.98268
50.6461 8.01479
50.6955 7.95132
50.7448 7.90733
50.7943 7.86471
50.8436 7.85919
50.8931 7.79548
50.9424 7.82243
50.9919 7.78624
51.0413 7.71797
51.0908 7.71359
51.1402 7.69658
51.1897 7.63537
51.2391 7.62327
51.2887 7.5722
51.3381 7.51842
51.3877 7.50477
51.4371 7.49128
51.4867 7.43566
51.5362 7.40809
51.5858 7.37398
51.6353 7.36728
51.6849 7.32687
51.7344 7.31033
51.7841 7.27658
51.8336 7.24656
51.8833 7.22819
51.9328 7.16651
51.9826 7.13308
52.0323 7.11148
52.0818 7.09699
52.1316 7.0138
52.1812 7.00041
52.231 6.99335
52.2806 6.93699
52.3304 6.96494
52.38 6.93094
52.4298 6.88179
52.4794 6.85384
52.5293 6.8508
52.5789 6.82641
52.6288 6.77195
52.6785 6.74046
52.7284 6.72027
52.7781 6.71618
52.828 6.66045
52.8777 6.63169
52.9276 6.59767
52.9774 6.5639
53.0273 6.6005
53.0771 6.5406
53.1271 6.53897
53.1769 6.49329
53.2269 6.45019
53.2767 6.39355
53.3267 6.39511
53.3765 6.37093
53.4266 6.34357
53.4766 6.30143
53.5265 6.24962
53.5765 6.26784
53.6264 6.22071
53.6765 6.21881
53.7264 6.18382
53.7765 6.16343
53.8265 6.1229
53.8766 6.09017
53.9266 6.08983
53.9767 6.0717
54.0267 6.04088
54.0769 5.99909
54.1269 5.96166
54.1771 5.88353
54.2271 5.90973
54.2773 5.83273
54.3274 5.83146
54.3776 5.80796
54.4277 5.75683
54.478 5.72136
54.528 5.73171
54.5783 5.72282
54.6285 5.61391
54.6788 5.5963
54.7289 5.53823
54.7792 5.50636
54.8296 5.45412
54.8798 5.4442
54.9301 5.38383
54.9803 5.35526
55.0307 5.31005
55.0809 5.28153
55.1314 5.17834
55.1816 5.21078
55.232 5.12994
55.2823 5.11066
55.3328 5.04618
55.383 4.99068
55.4335 5.01985
55.4838 4.92363
55.5344 4.88722
55.5847 4.87006
55.6352 4.79634
55.6856 4.80831
55.7361 4.76953