File: XRD/Ni3Fe_FD0723.xy
TT I
1.27165 7.72323
1.31627 6.97878
1.36089 6.5856
1.40551 5.31544
1.45013 5.90759
1.49476 5.86586
1.53938 6.04995
1.584 5.19695
1.62863 4.88186
1.67325 5.23707
1.71787 4.40847
1.7625 4.98357
1.80712 4.69537
1.85174 4.49892
1.89636 4.46492
1.94099 5.04855
1.98562 4.65653
2.03025 4.58486
2.07487 4.7063
2.11949 5.11536
2.16411 4.95741
2.20874 12.0883
2.25338 18.0781
2.298 6.11531
2.34263 5.18032
2.38725 5.638
2.43188 5.62799
2.4765 7.26542
2.52115 6.94427
2.56577 7.64419
2.6104 8.17158
2.65503 8.25404
2.69965 7.74593
2.7443 8.34408
2.78893 8.0561
2.83356 8.40867
2.87818 8.44411
2.92281 8.87279
2.96744 9.81369
3.01209 10.2847
3.05672 10.9133
3.10135 12.4536
3.14599 13.4028
3.19062 14.2257
3.23527 14.8851
3.2799 15.9311
3.32454 16.7429
3.36917 17.5969
3.4138 19.0036
3.45844 19.641
3.50309 21.0439
3.54773 21.6669
3.59237 23.5497
3.637 76.0306
3.68164 49.6539
3.7263 26.1683
3.77094 25.6873
3.81558 26.8429
3.86022 27.1681
3.90486 28.777
3.9495 29.7602
3.99416 30.711
4.0388 31.9891
4.08344 33.7435
4.12809 34.6972
4.17273 36.8311
4.21738 42.3245
4.26204 199.729
4.30669 172.718
4.35133 47.0617
4.39598 44.213
4.44063 51.6321
4.4853 60.9605
4.52995 50.6915
4.5746 51.6665
4.61925 52.8736
4.6639 55.0305
4.70855 58.3036
4.75322 60.8055
4.79788 64.064
4.84253 67.0043
4.88719 71.6209
4.93184 74.9955
4.97652 80.5623
5.02118 87.0188
5.06583 94.3615
5.11049 105.158
5.15515 161.525
5.19981 346.258
5.24449 2888.07
5.28916 12656.2
5.33382 2885.45
5.37848 187.337
5.42315 128.634
5.46783 113.825
5.5125 106.417
5.55716 101.793
5.60183 97.8542
5.6465 96.3217
5.69117 94.2643
5.73586 92.2544
5.78053 92.4001
5.8252 91.4146
5.86988 92.5484
5.91455 93.7051
5.95924 101.751
6.00392 206.751
6.0486 957.327
6.09328 4418.06
6.13795 3159.21
6.18263 236.788
6.22733 91.8221
6.27201 81.3911
6.3167 95.188
6.36138 78.0399
6.40606 68.7308
6.45075 67.563
6.49545 65.5064
6.54014 63.456
6.58483 62.863
6.62952 62.3563
6.67421 86.4577
6.71892 121.475
6.76361 66.1403
6.8083 58.3105
6.853 57.532
6.89769 56.4463
6.94239 56.4233
6.98711 55.7008
7.03181 55.2725
7.07651 55.2066
7.12121 54.9611
7.16591 55.3597
7.21063 55.0325
7.25533 67.0247
7.30004 145.739
7.34475 81.8472
7.38945 56.0553
7.43416 54.29
7.47889 54.007
7.5236 54.3492
7.56831 55.116
7.61303 56.24
7.65774 56.912
7.70247 55.7397
7.74719 55.7395
7.79191 56.6274
7.83663 56.5585
7.88135 57.6098
7.92607 58.3349
7.97081 59.7469
8.01553 60.5628
8.06026 62.1914
8.10498 63.6525
8.14971 71.5814
8.19446 70.693
8.23919 69.3613
8.28392 71.4503
8.32865 73.7596
8.37339 78.0382
8.41812 84.4747
8.46288 108.283
8.50761 163.059
8.55235 385.462
8.59709 1220.79
8.64183 2132.62
8.68658 966.622
8.73134 167.18
8.77609 98.76
8.82083 92.269
8.86558 89.7532
8.91033 89.3112
8.9551 90.0526
8.99985 85.1656
9.04461 83.2941
9.08936 83.3323
9.13412 82.1868
9.17888 81.5969
9.22365 82.5491
9.26841 81.8285
9.31318 82.5532
9.35794 82.6507
9.4027 83.6346
9.44749 83.9263
9.49226 84.2656
9.53703 85.5187
9.5818 87.1685
9.62657 91.5661
9.67134 96.6171
9.71614 92.9973
9.76091 94.0041
9.80569 96.5921
9.85047 99.9012
9.89525 118.613
9.94005 129.533
9.98484 175.879
10.0296 344.636
10.0744 829.314
10.1192 1757.66
10.164 1583.82
10.2088 405.952
10.2536 126.357
10.2984 111.64
10.3432 111.523
10.388 104.096
10.4328 117.804
10.4776 160.127
10.5224 287.918
10.5672 505.209
10.612 505.344
10.6568 205.144
10.7017 96.5885
10.7465 85.8923
10.7913 83.1687
10.8361 80.6096
10.8809 78.922
10.9257 77.8548
10.9706 78.0041
11.0154 74.3683
11.0602 72.4858
11.105 71.5145
11.1499 74.3216
11.1947 79.2814
11.2395 72.5681
11.2844 69.2918
11.3292 66.9003
11.374 66.1244
11.4189 65.5206
11.4637 64.6755
11.5086 65.1049
11.5534 66.9118
11.5983 64.7425
11.6431 63.5309
11.688 62.9914
11.7328 62.6363
11.7777 62.5126
11.8225 62.3647
11.8674 62.3178
11.9122 62.3569
11.9571 62.7402
12.002 63.3186
12.0468 67.747
12.0917 77.9408
12.1366 103.5
12.1814 153.513
12.2263 200.544
12.2712 160.833
12.3161 94.8938
12.3609 69.3826
12.4058 64.2811
12.4507 64.0564
12.4956 64.0534
12.5405 64.2689
12.5853 65.5473
12.6302 71.3564
12.6751 75.0423
12.72 68.7205
12.7649 67.7501
12.8098 68.4279
12.8547 69.3981
12.8996 70.7374
12.9445 72.1845
12.9894 73.9175
13.0343 75.8438
13.0792 78.7823
13.1242 87.8906
13.1691 110.637
13.214 148.788
13.2589 243.716
13.3038 372.101
13.3487 412.548
13.3937 265.928
13.4386 126.427
13.4835 105.311
13.5285 119.971
13.5734 160.799
13.6183 255.449
13.6633 346.916
13.7082 332.745
13.7531 185.204
13.7981 97.3586
13.843 81.44
13.888 79.1384
13.9329 77.0632
13.9779 75.6268
14.0228 74.3839
14.0678 72.8826
14.1127 72.2367
14.1577 72.2121
14.2027 71.2177
14.2476 70.1666
14.2926 70.1019
14.3376 70.8496
14.3825 69.6706
14.4275 68.8062
14.4725 68.5216
14.5175 68.6046
14.5624 68.8767
14.6074 70.6427
14.6524 71.0323
14.6974 70.458
14.7424 71.7826
14.7874 78.6243
14.8324 88.9235
14.8774 111.767
14.9224 156.126
14.9674 207.826
15.0124 214.812
15.0574 147.406
15.1024 90.7677
15.1474 71.8681
15.1924 70.126
15.2374 70.169
15.2824 69.5211
15.3274 67.8851
15.3725 66.6111
15.4175 66.1318
15.4625 65.815
15.5076 66.0195
15.5526 66.1121
15.5976 65.4573
15.6426 66.6587
15.6877 71.8833
15.7327 79.6403
15.7778 95.4658
15.8228 128.357
15.8679 171.454
15.9129 189.09
15.958 153.892
16.003 97.2761
16.0481 68.0562
16.0931 63.7948
16.1382 62.2196
16.1833 60.309
16.2283 58.7056
16.2734 58.0758
16.3185 58.3048
16.3636 58.5072
16.4086 57.2656
16.4537 56.1094
16.4988 55.3172
16.5439 55.163
16.589 54.9095
16.6341 54.5125
16.6792 54.3367
16.7243 54.5926
16.7694 54.7284
16.8145 54.3155
16.8596 54.9737
16.9047 56.3149
16.9498 56.2586
16.9949 55.4156
17.04 55.6716
17.0851 56.8285
17.1302 58.5666
17.1754 61.4995
17.2205 66.7632
17.2656 74.8256
17.3108 82.0119
17.3559 81.221
17.401 70.7008
17.4462 62.0771
17.4913 58.9877
17.5365 58.9326
17.5815 59.1852
17.6268 59.4195
17.6718 60.146
17.7171 60.4604
17.7622 61.1839
17.8074 61.8658
17.8525 63.8878
17.8977 68.0899
17.9428 73.2566
17.9881 83.131
18.0331 101.129
18.0784 122.795
18.1237 137.968
18.1688 130.663
18.214 103.917
18.2591 87.2075
18.3044 91.2166
18.3495 99.9934
18.3948 105.655
18.4399 95.9319
18.4852 77.2778
18.5303 65.8864
18.5756 62.0896
18.6207 61.0254
18.666 60.2836
18.7112 59.6451
18.7565 58.8664
18.8016 58.4213
18.8469 57.9564
18.892 57.7094
18.9374 57.045
18.9825 56.792
19.0278 56.6528
19.073 56.6463
19.1183 57.1649
19.1635 57.7194
19.2088 59.6513
19.254 62.391
19.2993 66.9569
19.3447 72.8164
19.3898 75.6709
19.4352 71.4805
19.4804 63.2992
19.5257 56.568
19.5709 54.1843
19.6163 53.6896
19.6615 53.635
19.7068 53.2308
19.752 52.9356
19.7974 53.5244
19.8426 54.221
19.888 55.0243
19.9332 56.0915
19.9786 58.9752
20.0238 62.8983
20.0692 67.2392
20.1144 69.352
20.1598 67.7633
20.205 63.6334
20.2504 62.4273
20.2957 64.0135
20.3411 65.1907
20.3863 63.5173
20.4318 58.3451
20.477 53.6332
20.5224 51.3066
20.5677 50.6294
20.6131 50.1677
20.6586 49.5273
20.7038 49.5558
20.7493 49.0194
20.7945 48.7605
20.84 48.7549
20.8853 48.7732
20.9307 48.3689
20.976 48.4109
21.0215 48.344
21.0668 48.8386
21.1122 49.412
21.1575 50.1406
21.203 50.792
21.2483 51.2296
21.2938 51.1619
21.3391 49.7409
21.3846 48.806
21.4299 48.433
21.4754 48.2907
21.5207 48.3417
21.5662 48.5899
21.6116 49.1519
21.6571 49.689
21.7024 50.814
21.7479 52.5569
21.7933 55.5077
21.8388 59.1145
21.8843 62.6255
21.9297 64.3279
21.9752 63.0955
22.0206 59.4674
22.0661 56.6142
22.1115 55.8312
22.157 55.5287
22.2024 53.9923
22.248 51.4218
22.2933 49.7369
22.3389 48.9557
22.3843 48.8301
22.4299 48.7108
22.4753 48.577
22.5208 48.4005
22.5662 48.4647
22.6118 48.5047
22.6572 48.7432
22.7028 49.0275
22.7483 49.8325
22.7939 50.3723
22.8393 52.0031
22.8849 54.1276
22.9303 56.2797
22.9759 57.4468
23.0214 57.0974
23.067 54.5063
23.1126 51.1677
23.1581 49.2429
23.2037 48.6226
23.2492 48.698
23.2948 48.7403
23.3403 48.9181
23.3859 49.6015
23.4314 50.774
23.477 52.8224
23.5225 54.8894
23.5682 56.8593
23.6137 57.4801
23.6593 55.1997
23.7048 51.5128
23.7505 48.396
23.796 46.5255
23.8417 45.9283
23.8872 45.381
23.9329 45.0443
23.9784 44.8592
24.0241 44.566
24.0697 44.4153
24.1154 44.1278
24.1609 43.924
24.2066 43.7093
24.2522 43.6499
24.2979 43.3796
24.3434 43.2765
24.3892 43.0989
24.4349 43.0831
24.4805 42.8469
24.5262 42.9653
24.5718 42.8441
24.6175 42.916
24.6631 42.6906
24.7089 42.4565
24.7545 42.3515
24.8002 42.1173
24.8458 42.0588
24.8916 41.902
24.9372 42.101
24.983 42.4133
25.0286 42.7195
25.0744 43.3367
25.12 43.6119
25.1658 44.2678
25.2114 44.5693
25.2572 44.5926
25.3029 44.7715
25.3487 44.7551
25.3943 44.4186
25.4402 43.5254
25.4858 42.4582
25.5316 41.3957
25.5773 40.8693
25.6231 40.904
25.669 40.4424
25.7147 40.4902
25.7605 40.3187
25.8062 40.3636
25.8521 40.5344
25.8977 40.5948
25.9436 40.8182
25.9893 40.9854
26.0352 41.319
26.0809 41.3186
26.1268 41.5138
26.1725 41.2736
26.2184 40.8326
26.2641 40.1279
26.31 39.9631
26.3557 40.0366
26.4017 40.0184
26.4474 40.346
26.4933 40.6845
26.5391 41.3308
26.585 41.6104
26.6308 41.9499
26.6767 41.9765
26.7225 41.8099
26.7684 41.3682
26.8142 40.8625
26.8601 40.3719
26.9059 39.8036
26.9519 39.2917
26.9979 39.1632
27.0437 38.9053
27.0896 38.636
27.1354 38.6378
27.1814 38.5246
27.2272 38.5249
27.2732 38.4071
27.3191 38.2102
27.3651 38.3818
27.4109 38.2408
27.4569 38.3552
27.5027 38.4882
27.5488 38.4688
27.5946 38.2298
27.6407 38.0078
27.6865 37.9958
27.7326 37.8145
27.7784 37.7285
27.8245 37.7419
27.8703 38.024
27.9164 38.1605
27.9623 38.3606
28.0084 38.6073
28.0543 38.9524
28.1003 38.8556
28.1462 38.7987
28.1923 38.3878
28.2384 37.9278
28.2843 37.5831
28.3304 37.091
28.3764 36.7236
28.4225 36.3605
28.4684 36.1723
28.5145 35.8576
28.5605 35.7376
28.6066 35.651
28.6526 35.5779
28.6987 35.6085
28.7447 35.4824
28.7908 35.3632
28.8368 35.3768
28.8829 35.3434
28.9289 35.1944
28.9751 35.1268
29.0211 34.9114
29.0673 34.601
29.1133 34.5222
29.1595 34.3744
29.2055 34.2243
29.2517 34.3159
29.2977 34.1307
29.3439 34.1873
29.3899 34.0965
29.4361 34.0912
29.4824 33.9308
29.5284 33.6485
29.5746 33.4618
29.6207 33.128
29.6669 33.0504
29.713 32.9326
29.7593 32.797
29.8053 32.8032
29.8516 32.7206
29.8977 32.6437
29.9439 32.5275
29.99 32.5196
30.0363 32.4156
30.0824 32.3529
30.1287 32.325
30.1748 32.3186
30.2211 32.2956
30.2673 32.2067
30.3136 32.2918
30.3597 32.2154
30.406 32.1493
30.4522 32.0133
30.4985 32.0067
30.5447 32.1618
30.591 32.0952
30.6372 32.2053
30.6835 31.9751
30.7297 32.187
30.7761 31.9942
30.8224 31.9599
30.8686 31.7522
30.915 31.5434
30.9612 31.4657
31.0076 31.2702
31.0538 31.1967
31.1002 31.0714
31.1464 30.9413
31.1928 30.8657
31.2391 30.8972
31.2855 30.851
31.3317 30.7714
31.3781 30.8775
31.4244 30.7888
31.4708 30.7737
31.5171 30.7671
31.5636 30.578
31.6098 30.438
31.6563 30.2009
31.7026 30.1129
31.7491 30.1522
31.7953 30.0971
31.8418 30.0508
31.8881 30.0891
31.9346 30.0501
31.9809 29.8862
32.0275 29.7732
32.074 29.7717
32.1203 29.5755
32.1668 29.4844
32.2132 29.2952
32.2597 29.142
32.306 29.1242
32.3526 28.895
32.399 28.886
32.4455 28.7372
32.4919 28.6377
32.5385 28.5932
32.5848 28.3921
32.6314 28.4116
32.6778 28.3244
32.7244 28.3058
32.7708 28.1316
32.8174 28.1471
32.8638 27.9423
32.9104 28.0682
32.9569 27.9017
33.0035 27.8382
33.0499 27.7997
33.0966 27.6339
33.143 27.7846
33.1897 27.6338
33.2361 27.502
33.2828 27.4814
33.3293 27.2973
33.3759 27.3124
33.4226 27.2084
33.4691 27.0386
33.5158 26.9904
33.5623 26.911
33.609 26.6865
33.6555 26.6247
33.7022 26.4995
33.7487 26.4724
33.7954 26.3663
33.842 26.3428
33.8887 26.3219
33.9353 26.1665
33.982 26.1053
34.0286 26.0094
34.0753 25.9204
34.1219 25.8677
34.1687 25.8256
34.2152 25.7549
34.262 25.6102
34.3086 25.5338
34.3554 25.5046
34.402 25.3488
34.4488 25.1878
34.4954 25.258
34.5422 25.0597
34.5889 24.999
34.6357 24.8742
34.6825 24.8063
34.7292 24.7792
34.776 24.7212
34.8227 24.6004
34.8695 24.565
34.9162 24.5984
34.9631 24.3998
35.0098 24.4319
35.0566 24.26
35.1033 24.3151
35.1502 24.1155
35.1969 24.1474
35.2438 24.0732
35.2906 23.9845
35.3375 23.8911
35.3842 23.9661
35.4311 23.9111
35.4779 23.9388
35.5248 23.8042
35.5716 23.7566
35.6185 23.5594
35.6653 23.5783
35.7123 23.4753
35.759 23.4127
35.806 23.2794
35.8528 23.1413
35.8998 23.1496
35.9468 23.0415
35.9936 23.1017
36.0406 22.9755
36.0874 22.9181
36.1345 22.8162
36.1813 22.8417
36.2283 22.6853
36.2752 22.5842
36.3222 22.5592
36.3691 22.5391
36.4161 22.3228
36.463 22.3904
36.5101 22.3705
36.557 22.3285
36.6041 22.1516
36.651 22.1965
36.6981 22.069
36.745 22.0218
36.7921 21.8861
36.839 21.8386
36.8861 21.7738
36.9331 21.633
36.9802 21.6481
37.0272 21.5045
37.0743 21.4034
37.1213 21.4282
37.1684 21.4086
37.2154 21.3026
37.2626 21.1446
37.3098 21.1751
37.3568 21.0911
37.404 21.0104
37.451 20.9236
37.4982 20.926
37.5452 20.8083
37.5924 20.7571
37.6395 20.8008
37.6867 20.6177
37.7337 20.5141
37.781 20.4501
37.8281 20.4544
37.8753 20.3517
37.9224 20.2886
37.9697 20.1905
38.0168 20.1398
38.064 20.1077
38.1111 20.0665
38.1584 19.9869
38.2056 19.8983
38.2529 19.8738
38.3 19.7925
38.3473 19.7759
38.3945 19.6965
38.4418 19.6074
38.489 19.5878
38.5363 19.4115
38.5837 19.4396
38.6309 19.3642
38.6782 19.283
38.7254 19.2389
38.7728 19.2336
38.82 19.074
38.8674 19.0411
38.9146 18.9798
38.9621 18.9402
39.0093 18.8787
39.0567 18.8037
39.104 18.7452
39.1514 18.6777
39.1987 18.6607
39.2461 18.6167
39.2934 18.5084
39.3409 18.4118
39.3882 18.4089
39.4356 18.3596
39.483 18.29
39.5304 18.2413
39.5778 18.1905
39.6253 18.0705
39.6726 18.0402
39.7201 17.9896
39.7675 17.9248
39.815 17.8579
39.8624 17.8617
39.9099 17.7321
39.9575 17.7137
40.0049 17.6414
40.0525 17.6175
40.0999 17.5172
40.1474 17.4608
40.1949 17.4033
40.2425 17.3425
40.2899 17.3284
40.3375 17.281
40.385 17.2354
40.4326 17.1408
40.48 17.0519
40.5277 17.0091
40.5752 16.9994
40.6228 16.915
40.6703 16.891
40.718 16.7839
40.7655 16.8102
40.8132 16.7045
40.8607 16.7414
40.9084 16.6055
40.9559 16.5061
41.0036 16.5056
41.0512 16.4583
41.0989 16.4302
41.1465 16.3677
41.1942 16.3119
41.242 16.2332
41.2896 16.1768
41.3373 16.1068
41.3849 16.1138
41.4327 16.024
41.4803 15.9287
41.5281 15.8532
41.5758 15.8249
41.6236 15.8121
41.6712 15.6863
41.7191 15.7232
41.7667 15.6464
41.8146 15.6357
41.8622 15.5773
41.9101 15.5019
41.9578 15.3599
42.0057 15.4097
42.0534 15.3308
42.1013 15.3179
42.149 15.2337
42.1969 15.1279
42.2446 15.1823
42.2925 15.1111
42.3403 15.1121
42.3882 15.0348
42.436 14.9708
42.4839 14.9048
42.5319 14.8452
42.5797 14.7809
42.6277 14.7866
42.6755 14.7075
42.7235 14.6348
42.7713 14.5629
42.8193 14.5504
42.8671 14.4955
42.9152 14.4164
42.963 14.4074
43.0111 14.2931
43.0589 14.3151
43.107 14.2243
43.1549 14.2082
43.2029 14.1304
43.2508 14.0787
43.2989 14.0573
43.3468 13.9957
43.3949 13.9409
43.4429 13.9046
43.491 13.8309
43.5389 13.7744
43.5871 13.7978
43.635 13.685
43.6832 13.6507
43.7312 13.6053
43.7793 13.5234
43.8273 13.5462
43.8755 13.4729
43.9237 13.4043
43.9717 13.429
44.0199 13.3563
44.068 13.3097
44.1162 13.2913
44.1642 13.163
44.2125 13.1521
44.2606 13.1359
44.3088 13.0574
44.3569 13.0551
44.4052 12.9852
44.4533 12.9381
44.5016 12.8393
44.5497 12.8562
44.598 12.804
44.6461 12.6996
44.6945 12.7266
44.7426 12.6687
44.791 12.6016
44.8391 12.5584
44.8875 12.5553
44.9357 12.4537
44.984 12.4531
45.0322 12.4211
45.0806 12.3601
45.1288 12.312
45.1773 12.2479
45.2257 12.2514
45.2739 12.2091
45.3224 12.198
45.3706 12.0979
45.4191 12.0441
45.4673 12.0131
45.5158 11.97
45.5641 11.8846
45.6126 11.8335
45.6609 11.8224
45.7094 11.7986
45.7577 11.7624
45.8063 11.6721
45.8546 11.7052
45.9031 11.5901
45.9515 11.6141
46.0001 11.5322
46.0484 11.5192
46.097 11.478
46.1454 11.3917
46.194 11.398
46.2424 11.3458
46.291 11.3104
46.3395 11.262
46.3881 11.22
46.4365 11.2015
46.4852 11.1611
46.5337 11.0939
46.5823 11.0653
46.631 11.0145
46.6795 10.979
46.7282 10.9204
46.7767 10.8674
46.8254 10.8378
46.8739 10.8203
46.9226 10.782
46.9712 10.7336
47.0199 10.6814
47.0685 10.6784
47.1173 10.6062
47.1658 10.5539
47.2146 10.564
47.2632 10.459
47.312 10.4624
47.3606 10.4355
47.4095 10.3887
47.4581 10.3359
47.5069 10.3388
47.5556 10.2529
47.6044 10.2172
47.6531 10.2112
47.702 10.1509
47.7507 10.1192
47.7996 10.0604
47.8483 10.0544
47.8972 9.99568
47.9461 9.9821
47.9948 9.94272
48.0438 9.91264
48.0925 9.8621
48.1415 9.82014
48.1902 9.7769
48.2392 9.75995
48.288 9.727
48.337 9.70102
48.3858 9.58797
48.4348 9.6281
48.4837 9.60185
48.5327 9.5781
48.5815 9.49806
48.6306 9.50027
48.6795 9.44597
48.7285 9.39541
48.7774 9.37654
48.8265 9.36726
48.8754 9.31664
48.9245 9.26413
48.9734 9.24873
49.0226 9.20194
49.0715 9.1396
49.1206 9.12163
49.1696 9.09453
49.2188 9.0475
49.2679 8.99191
49.3169 9.02415
49.3661 8.96539
49.4151 8.93788
49.4643 8.90809
49.5134 8.85812
49.5626 8.7991
49.6117 8.78939
49.6609 8.72842
49.71 8.67275
49.7592 8.70047
49.8083 8.60666
49.8576 8.6296
49.9067 8.57092
49.956 8.55361
50.0052 8.50944
50.0545 8.48975
50.1036 8.43846
50.153 8.45313
50.2022 8.39832
50.2515 8.34837
50.3007 8.30993
50.3501 8.28016
50.3993 8.26759
50.4487 8.24142
50.498 8.19398
50.5474 8.14698
50.5966 8.15458
50.6461 8.07648
50.6955 8.06122
50.7448 8.06978
50.7943 7.98504
50.8436 7.94231
50.8931 7.97997
50.9424 7.90154
50.9919 7.89145
51.0413 7.86324
51.0908 7.84516
51.1402 7.77717
51.1897 7.76454
51.2391 7.68572
51.2887 7.7019
51.3381 7.67083
51.3877 7.63363
51.4371 7.59179
51.4867 7.54507
51.5362 7.52218
51.5858 7.52983
51.6353 7.4694
51.6849 7.42716
51.7344 7.36727
51.7841 7.41651
51.8336 7.37357
51.8833 7.32708
51.9328 7.29349
51.9826 7.17245
52.0323 7.23276
52.0818 7.18263
52.1316 7.14261
52.1812 7.17012
52.231 7.10782
52.2806 7.09067
52.3304 7.06632
52.38 7.05398
52.4298 6.97332
52.4794 6.9603
52.5293 6.9326
52.5789 6.93313
52.6288 6.87471
52.6785 6.85394
52.7284 6.84402
52.7781 6.77739
52.828 6.77999
52.8777 6.74605
52.9276 6.73614
52.9774 6.66613
53.0273 6.63479
53.0771 6.66299
53.1271 6.61747
53.1769 6.56593
53.2269 6.56523
53.2767 6.51287
53.3267 6.48697
53.3765 6.46622
53.4266 6.43008
53.4766 6.41309
53.5265 6.37871
53.5765 6.36498
53.6264 6.31477
53.6765 6.30639
53.7264 6.24544
53.7765 6.24339
53.8265 6.22692
53.8766 6.16169
53.9266 6.16549
53.9767 6.13982
54.0267 6.13507
54.0769 6.10033
54.1269 6.06913
54.1771 6.00089
54.2271 6.00896
54.2773 5.91077
54.3274 5.99783
54.3776 5.91506
54.4277 5.87976
54.478 5.79578
54.528 5.78201
54.5783 5.76424
54.6285 5.70712
54.6788 5.7014
54.7289 5.6491
54.7792 5.60205
54.8296 5.55848
54.8798 5.52731
54.9301 5.47643
54.9803 5.47198
55.0307 5.44047
55.0809 5.32917
55.1314 5.29581
55.1816 5.27904
55.232 5.21217
55.2823 5.17169
55.3328 5.18093
55.383 5.06912
55.4335 5.02381
55.4838 5.03696
55.5344 4.95642
55.5847 4.95485
55.6352 4.89992
55.6856 4.82286
55.7361 4.805