File: XRD/Ni3Fe_FD0242.xy
TT I
1.27165 7.78963
1.31627 7.36287
1.36089 7.66124
1.40551 6.71219
1.45013 6.23248
1.49476 6.02523
1.53938 6.61835
1.584 5.65525
1.62863 5.33155
1.67325 5.59649
1.71787 5.51953
1.7625 5.62591
1.80712 5.23262
1.85174 5.00633
1.89636 4.81412
1.94099 4.73486
1.98562 5.32383
2.03025 4.83079
2.07487 4.67931
2.11949 4.78668
2.16411 4.65366
2.20874 4.59976
2.25338 5.09566
2.298 4.88352
2.34263 4.57491
2.38725 4.26851
2.43188 4.60671
2.4765 4.52308
2.52115 4.78084
2.56577 5.59688
2.6104 6.07446
2.65503 6.05413
2.69965 6.42691
2.7443 6.86868
2.78893 6.769
2.83356 7.01467
2.87818 8.02311
2.92281 9.38898
2.96744 9.52147
3.01209 10.4102
3.05672 10.9768
3.10135 12.6599
3.14599 12.5351
3.19062 13.8406
3.23527 15.1588
3.2799 15.5901
3.32454 16.8832
3.36917 17.8667
3.4138 18.5421
3.45844 19.9672
3.50309 20.745
3.54773 21.3291
3.59237 22.2326
3.637 23.1662
3.68164 24.1493
3.7263 25.072
3.77094 25.7375
3.81558 26.7897
3.86022 27.4437
3.90486 29.2801
3.9495 29.8682
3.99416 31.4082
4.0388 32.5836
4.08344 33.969
4.12809 34.7818
4.17273 36.3889
4.21738 37.8874
4.26204 39.2187
4.30669 40.6004
4.35133 42.9461
4.39598 44.0629
4.44063 46.7856
4.4853 48.4151
4.52995 52.4226
4.5746 54.3703
4.61925 55.5789
4.6639 58.0486
4.70855 60.8024
4.75322 64.5791
4.79788 68.1691
4.84253 71.7484
4.88719 77.2746
4.93184 80.6352
4.97652 87.8053
5.02118 96.5026
5.06583 106.319
5.11049 123.489
5.15515 168.447
5.19981 888.181
5.24449 3952.87
5.28916 10528.0
5.33382 4084.86
5.37848 268.519
5.42315 152.184
5.46783 129.051
5.5125 117.371
5.55716 111.87
5.60183 106.336
5.6465 103.788
5.69117 102.48
5.73586 100.656
5.78053 101.674
5.8252 102.157
5.86988 104.042
5.91455 109.516
5.95924 132.235
6.00392 445.631
6.0486 1429.6
6.09328 3697.4
6.13795 3647.02
6.18263 354.302
6.22733 108.551
6.27201 88.5328
6.3167 80.7318
6.36138 76.0298
6.40606 72.8173
6.45075 71.0123
6.49545 68.0753
6.54014 66.0758
6.58483 64.8458
6.62952 64.0597
6.67421 62.6265
6.71892 61.2848
6.76361 60.4603
6.8083 59.959
6.853 59.1127
6.89769 58.3092
6.94239 57.7606
6.98711 57.181
7.03181 57.3179
7.07651 56.6649
7.12121 56.146
7.16591 56.2889
7.21063 56.2207
7.25533 55.6414
7.30004 55.4394
7.34475 55.7411
7.38945 55.9121
7.43416 55.2799
7.47889 55.4515
7.5236 55.9066
7.56831 57.1558
7.61303 56.7487
7.65774 57.3448
7.70247 58.1222
7.74719 58.2005
7.79191 58.6371
7.83663 59.0866
7.88135 60.3049
7.92607 61.2719
7.97081 62.1211
8.01553 63.347
8.06026 65.1904
8.10498 66.3528
8.14971 68.8284
8.19446 70.3116
8.23919 72.8272
8.28392 75.894
8.32865 78.4487
8.37339 84.0554
8.41812 90.035
8.46288 110.819
8.50761 290.932
8.55235 579.734
8.59709 1076.91
8.64183 1990.61
8.68658 1169.8
8.73134 213.485
8.77609 110.251
8.82083 99.8389
8.86558 95.7596
8.91033 93.5807
8.9551 90.3162
8.99985 89.2535
9.04461 88.1679
9.08936 87.645
9.13412 86.2943
9.17888 86.2123
9.22365 86.0476
9.26841 86.5318
9.31318 87.9463
9.35794 88.3542
9.4027 88.3088
9.44749 89.0094
9.49226 89.2625
9.53703 90.4537
9.5818 92.9076
9.62657 94.3809
9.67134 95.3344
9.71614 97.2361
9.76091 100.068
9.80569 103.075
9.85047 106.615
9.89525 112.099
9.94005 137.551
9.98484 302.666
10.0296 512.046
10.0744 805.126
10.1192 1466.44
10.164 1701.05
10.2088 531.908
10.2536 146.949
10.2984 117.021
10.3432 112.345
10.388 115.2
10.4328 158.75
10.4776 210.352
10.5224 283.413
10.5672 446.385
10.612 540.017
10.6568 252.449
10.7017 107.028
10.7465 92.2375
10.7913 87.7405
10.8361 85.2243
10.8809 82.8319
10.9257 80.6196
10.9706 79.4082
11.0154 77.5304
11.0602 76.265
11.105 74.2204
11.1499 73.0924
11.1947 72.3469
11.2395 70.9954
11.2844 70.7158
11.3292 69.595
11.374 68.7672
11.4189 68.3934
11.4637 67.7709
11.5086 66.8745
11.5534 66.6747
11.5983 66.0604
11.6431 66.1679
11.688 65.4172
11.7328 65.6411
11.7777 65.2661
11.8225 65.0747
11.8674 65.2714
11.9122 65.6952
11.9571 66.1736
12.002 68.4008
12.0468 79.8799
12.0917 93.9506
12.1366 109.201
12.1814 141.117
12.2263 193.506
12.2712 182.462
12.3161 101.981
12.3609 69.9181
12.4058 67.1025
12.4507 66.8933
12.4956 67.2676
12.5405 67.2666
12.5853 67.6764
12.6302 68.0067
12.6751 68.9589
12.72 69.8009
12.7649 70.8966
12.8098 71.4732
12.8547 73.1311
12.8996 74.6458
12.9445 76.1571
12.9894 78.2749
13.0343 80.5593
13.0792 86.4424
13.1242 111.03
13.1691 146.263
13.214 174.788
13.2589 231.087
13.3038 325.631
13.3487 422.01
13.3937 304.463
13.4386 149.346
13.4835 133.386
13.5285 152.05
13.5734 175.153
13.6183 228.026
13.6633 315.85
13.7082 359.134
13.7531 225.899
13.7981 109.76
13.843 86.6647
13.888 84.0691
13.9329 81.2706
13.9779 79.6417
14.0228 78.2756
14.0678 76.8565
14.1127 75.7935
14.1577 75.2
14.2027 74.7221
14.2476 73.9563
14.2926 73.2831
14.3376 72.901
14.3825 72.6383
14.4275 72.2269
14.4725 72.2247
14.5175 72.3366
14.5624 72.233
14.6074 72.7463
14.6524 73.2067
14.6974 74.326
14.7424 81.0496
14.7874 94.6641
14.8324 106.079
14.8774 119.963
14.9224 146.283
14.9674 189.592
15.0124 222.766
15.0574 169.97
15.1024 101.662
15.1474 76.9721
15.1924 73.3991
15.2374 72.2119
15.2824 71.039
15.3274 70.4166
15.3725 69.9064
15.4175 69.7705
15.4625 69.158
15.5076 68.7342
15.5526 69.1005
15.5976 69.7347
15.6426 75.0596
15.6877 85.984
15.7327 94.4997
15.7778 103.871
15.8228 122.818
15.8679 153.272
15.9129 190.141
15.958 173.749
16.003 111.176
16.0481 72.3997
16.0931 65.5655
16.1382 63.8515
16.1833 62.8485
16.2283 61.5068
16.2734 60.9018
16.3185 60.1451
16.3636 59.612
16.4086 58.685
16.4537 58.3087
16.4988 57.9771
16.5439 57.7224
16.589 57.459
16.6341 57.1262
16.6792 57.0839
16.7243 56.9801
16.7694 57.1574
16.8145 57.041
16.8596 57.2696
16.9047 57.4178
16.9498 57.6278
16.9949 57.8218
17.04 59.2877
17.0851 61.6632
17.1302 63.7236
17.1754 65.5671
17.2205 68.9506
17.2656 74.222
17.3108 82.3454
17.3559 85.643
17.401 76.974
17.4462 66.7763
17.4913 62.3654
17.5365 61.8842
17.5815 62.1624
17.6268 62.356
17.6718 63.1661
17.7171 63.5615
17.7622 64.3193
17.8074 66.4986
17.8525 72.1463
17.8977 77.843
17.9428 82.5713
17.9881 88.3585
18.0331 99.2343
18.0784 116.121
18.1237 139.516
18.1688 143.993
18.214 116.994
18.2591 93.5011
18.3044 90.2649
18.3495 96.9665
18.3948 106.743
18.4399 101.523
18.4852 83.3073
18.5303 69.7077
18.5756 65.3978
18.6207 64.2438
18.666 63.2153
18.7112 62.5673
18.7565 61.8755
18.8016 61.4201
18.8469 60.903
18.892 60.5847
18.9374 60.2017
18.9825 59.6602
19.0278 59.4612
19.073 60.264
19.1183 61.3414
19.1635 61.9295
19.2088 62.7397
19.254 64.6521
19.2993 67.1619
19.3447 71.4444
19.3898 76.9004
19.4352 75.8996
19.4804 68.1658
19.5257 60.0403
19.5709 56.8679
19.6163 56.4847
19.6615 56.1368
19.7068 55.7864
19.752 55.9922
19.7974 57.1162
19.8426 58.072
19.888 58.6593
19.9332 59.3189
19.9786 61.4376
20.0238 64.0054
20.0692 68.5525
20.1144 72.5902
20.1598 72.9737
20.205 67.7419
20.2504 64.1593
20.2957 64.7394
20.3411 66.7027
20.3863 67.313
20.4318 62.1693
20.477 56.4221
20.5224 53.7113
20.5677 52.777
20.6131 52.4076
20.6586 51.8989
20.7038 51.7449
20.7493 51.2168
20.7945 51.4222
20.84 51.1617
20.8853 51.0957
20.9307 51.0
20.976 51.2602
21.0215 51.1127
21.0668 51.3859
21.1122 51.7407
21.1575 51.838
21.203 52.6018
21.2483 53.3293
21.2938 53.8547
21.3391 52.6452
21.3846 51.4591
21.4299 51.0062
21.4754 50.8489
21.5207 51.0375
21.5662 51.6559
21.6116 52.5985
21.6571 53.4064
21.7024 53.9456
21.7479 55.5388
21.7933 57.4812
21.8388 60.2669
21.8843 63.6706
21.9297 66.8845
21.9752 66.9178
22.0206 63.3258
22.0661 58.7626
22.1115 57.8751
22.157 58.2098
22.2024 57.4223
22.248 54.6523
22.2933 52.3083
22.3389 51.3635
22.3843 51.1794
22.4299 50.7788
22.4753 50.8131
22.5208 50.7863
22.5662 50.8464
22.6118 51.4582
22.6572 51.8756
22.7028 52.3488
22.7483 52.5917
22.7939 53.0912
22.8393 54.0611
22.8849 55.541
22.9303 57.314
22.9759 59.3093
23.0214 59.8958
23.067 57.9354
23.1126 54.1889
23.1581 51.877
23.2037 51.2217
23.2492 51.7635
23.2948 52.0352
23.3403 52.0777
23.3859 52.713
23.4314 53.2964
23.477 54.3186
23.5225 55.8398
23.5682 57.7133
23.6137 59.6394
23.6593 58.856
23.7048 54.8948
23.7505 50.9791
23.796 48.9811
23.8417 48.1668
23.8872 47.6779
23.9329 47.2839
23.9784 46.9944
24.0241 46.581
24.0697 46.4573
24.1154 46.0553
24.1609 45.9052
24.2066 45.7731
24.2522 45.7564
24.2979 45.3618
24.3434 45.2896
24.3892 45.0768
24.4349 45.0215
24.4805 44.7685
24.5262 44.9454
24.5718 44.9722
24.6175 44.8806
24.6631 44.8519
24.7089 44.3791
24.7545 44.2253
24.8002 44.2265
24.8458 44.3114
24.8916 44.2668
24.9372 44.3166
24.983 44.6055
25.0286 44.9629
25.0744 45.2939
25.12 45.5161
25.1658 46.1968
25.2114 46.5539
25.2572 46.4659
25.3029 46.359
25.3487 46.5485
25.3943 46.7017
25.4402 45.7657
25.4858 44.686
25.5316 43.3983
25.5773 42.8564
25.6231 42.7908
25.669 42.339
25.7147 42.4446
25.7605 42.3194
25.8062 42.4932
25.8521 42.5152
25.8977 42.4609
25.9436 42.5604
25.9893 42.6204
26.0352 42.9724
26.0809 43.1215
26.1268 43.4504
26.1725 43.3489
26.2184 42.9158
26.2641 42.4458
26.31 42.1141
26.3557 42.1726
26.4017 42.0978
26.4474 42.4092
26.4933 42.5506
26.5391 42.7841
26.585 43.1327
26.6308 43.6738
26.6767 44.0045
26.7225 43.9673
26.7684 43.5003
26.8142 42.6414
26.8601 42.2799
26.9059 41.8763
26.9519 41.4754
26.9979 41.2064
27.0437 40.5665
27.0896 40.5724
27.1354 40.6985
27.1814 40.3899
27.2272 40.266
27.2732 40.4074
27.3191 40.1035
27.3651 40.2192
27.4109 40.1505
27.4569 40.2406
27.5027 40.2659
27.5488 40.3869
27.5946 40.1066
27.6407 40.0496
27.6865 40.0496
27.7326 39.7772
27.7784 39.6592
27.8245 39.6904
27.8703 39.709
27.9164 39.948
27.9623 39.9808
28.0084 40.2608
28.0543 40.7501
28.1003 40.7541
28.1462 40.3955
28.1923 40.1403
28.2384 39.6647
28.2843 39.4104
28.3304 38.9579
28.3764 38.4154
28.4225 38.0357
28.4684 37.8659
28.5145 37.6218
28.5605 37.4707
28.6066 37.3391
28.6526 37.2321
28.6987 37.1625
28.7447 37.1947
28.7908 36.9225
28.8368 36.9071
28.8829 36.9427
28.9289 36.7978
28.9751 36.7291
29.0211 36.5877
29.0673 36.393
29.1133 36.0572
29.1595 35.9619
29.2055 35.805
29.2517 35.809
29.2977 35.8678
29.3439 35.6818
29.3899 35.6555
29.4361 35.6219
29.4824 35.4663
29.5284 35.154
29.5746 34.939
29.6207 34.6154
29.6669 34.5499
29.713 34.3654
29.7593 34.3962
29.8053 34.3134
29.8516 34.2621
29.8977 34.286
29.9439 33.9815
29.99 34.0701
30.0363 33.8687
30.0824 33.8949
30.1287 33.9109
30.1748 33.9171
30.2211 33.8226
30.2673 33.749
30.3136 33.7885
30.3597 33.7282
30.406 33.6493
30.4522 33.4946
30.4985 33.4968
30.5447 33.6169
30.591 33.3856
30.6372 33.5249
30.6835 33.5742
30.7297 33.5671
30.7761 33.644
30.8224 33.4628
30.8686 33.2741
30.915 32.9766
30.9612 32.9503
31.0076 32.7042
31.0538 32.6061
31.1002 32.5255
31.1464 32.3926
31.1928 32.3721
31.2391 32.398
31.2855 32.2927
31.3317 32.2145
31.3781 32.2466
31.4244 32.2465
31.4708 32.0575
31.5171 32.1198
31.5636 32.2429
31.6098 31.9721
31.6563 31.7539
31.7026 31.5128
31.7491 31.451
31.7953 31.4967
31.8418 31.4571
31.8881 31.4606
31.9346 31.441
31.9809 31.4478
32.0275 31.2881
32.074 31.1282
32.1203 30.9465
32.1668 30.8729
32.2132 30.7561
32.2597 30.5429
32.306 30.4765
32.3526 30.2442
32.399 30.1636
32.4455 30.1067
32.4919 30.0139
32.5385 29.9623
32.5848 29.7677
32.6314 29.7673
32.6778 29.7321
32.7244 29.4581
32.7708 29.4578
32.8174 29.4656
32.8638 29.2509
32.9104 29.3659
32.9569 29.2172
33.0035 29.0861
33.0499 29.0768
33.0966 29.0011
33.143 29.0053
33.1897 28.9445
33.2361 28.8049
33.2828 28.8372
33.3293 28.5836
33.3759 28.6905
33.4226 28.4887
33.4691 28.3379
33.5158 28.257
33.5623 28.1575
33.609 28.0054
33.6555 27.916
33.7022 27.8457
33.7487 27.6859
33.7954 27.6962
33.842 27.5536
33.8887 27.4949
33.9353 27.4147
33.982 27.3226
34.0286 27.2845
34.0753 27.1124
34.1219 27.0742
34.1687 26.9545
34.2152 26.8492
34.262 26.7046
34.3086 26.7454
34.3554 26.6329
34.402 26.5102
34.4488 26.4804
34.4954 26.3582
34.5422 26.3062
34.5889 26.2044
34.6357 26.1565
34.6825 25.983
34.7292 25.9761
34.776 25.8601
34.8227 25.8567
34.8695 25.7215
34.9162 25.6998
34.9631 25.5788
35.0098 25.5816
35.0566 25.4409
35.1033 25.3581
35.1502 25.3611
35.1969 25.3353
35.2438 25.2224
35.2906 25.1565
35.3375 25.0653
35.3842 24.9751
35.4311 25.0123
35.4779 24.9781
35.5248 24.9559
35.5716 24.7897
35.6185 24.7463
35.6653 24.7382
35.7123 24.5714
35.759 24.5055
35.806 24.3397
35.8528 24.2697
35.8998 24.2824
35.9468 24.2236
35.9936 24.0445
36.0406 24.0123
36.0874 23.9981
36.1345 23.9034
36.1813 23.8098
36.2283 23.802
36.2752 23.5732
36.3222 23.6612
36.3691 23.6169
36.4161 23.4018
36.463 23.4609
36.5101 23.3994
36.557 23.3211
36.6041 23.241
36.651 23.1754
36.6981 23.079
36.745 23.0433
36.7921 22.977
36.839 22.837
36.8861 22.7495
36.9331 22.7196
36.9802 22.6091
37.0272 22.5473
37.0743 22.4151
37.1213 22.4094
37.1684 22.2837
37.2154 22.3245
37.2626 22.1721
37.3098 22.1706
37.3568 22.0721
37.404 22.0584
37.451 21.9298
37.4982 21.8617
37.5452 21.7402
37.5924 21.6637
37.6395 21.6979
37.6867 21.632
37.7337 21.5076
37.781 21.4314
37.8281 21.4513
37.8753 21.3451
37.9224 21.2526
37.9697 21.211
38.0168 21.1503
38.064 21.0005
38.1111 21.0051
38.1584 20.9333
38.2056 20.8296
38.2529 20.7382
38.3 20.7171
38.3473 20.6181
38.3945 20.5253
38.4418 20.5822
38.489 20.5266
38.5363 20.3422
38.5837 20.2634
38.6309 20.2979
38.6782 20.2007
38.7254 20.1017
38.7728 19.9943
38.82 19.9864
38.8674 19.9363
38.9146 19.8731
38.9621 19.8121
39.0093 19.7564
39.0567 19.6772
39.104 19.6022
39.1514 19.5426
39.1987 19.4956
39.2461 19.4432
39.2934 19.3882
39.3409 19.3167
39.3882 19.2201
39.4356 19.1502
39.483 19.1111
39.5304 19.0319
39.5778 19.0375
39.6253 18.9395
39.6726 18.8726
39.7201 18.8646
39.7675 18.803
39.815 18.7231
39.8624 18.6195
39.9099 18.5769
39.9575 18.5289
40.0049 18.4554
40.0525 18.3461
40.0999 18.3461
40.1474 18.3132
40.1949 18.2023
40.2425 18.1446
40.2899 18.139
40.3375 18.0055
40.385 18.0251
40.4326 17.961
40.48 17.8814
40.5277 17.8896
40.5752 17.7576
40.6228 17.6699
40.6703 17.6613
40.718 17.6485
40.7655 17.5665
40.8132 17.49
40.8607 17.4334
40.9084 17.416
40.9559 17.3452
41.0036 17.3137
41.0512 17.2795
41.0989 17.213
41.1465 17.0699
41.1942 17.0542
41.242 16.9517
41.2896 16.9054
41.3373 16.9237
41.3849 16.7782
41.4327 16.7938
41.4803 16.6947
41.5281 16.6725
41.5758 16.5526
41.6236 16.5545
41.6712 16.4025
41.7191 16.4166
41.7667 16.3417
41.8146 16.3198
41.8622 16.2989
41.9101 16.2298
41.9578 16.1027
42.0057 16.1026
42.0534 16.1259
42.1013 16.0196
42.149 15.8624
42.1969 15.8811
42.2446 15.8326
42.2925 15.8343
42.3403 15.7281
42.3882 15.6646
42.436 15.6585
42.4839 15.5067
42.5319 15.5354
42.5797 15.4634
42.6277 15.4133
42.6755 15.3894
42.7235 15.265
42.7713 15.2665
42.8193 15.2297
42.8671 15.1061
42.9152 15.1581
42.963 15.0985
43.0111 14.9791
43.0589 14.9681
43.107 14.8897
43.1549 14.8413
43.2029 14.7688
43.2508 14.7369
43.2989 14.6767
43.3468 14.5754
43.3949 14.6054
43.4429 14.5505
43.491 14.4425
43.5389 14.44
43.5871 14.3658
43.635 14.3325
43.6832 14.2773
43.7312 14.249
43.7793 14.1797
43.8273 14.1172
43.8755 14.0757
43.9237 14.0436
43.9717 14.021
44.0199 13.9461
44.068 13.8925
44.1162 13.8411
44.1642 13.814
44.2125 13.7558
44.2606 13.687
44.3088 13.6467
44.3569 13.6001
44.4052 13.5603
44.4533 13.5017
44.5016 13.4672
44.5497 13.4779
44.598 13.3923
44.6461 13.2982
44.6945 13.2781
44.7426 13.2
44.791 13.1834
44.8391 13.1197
44.8875 13.0779
44.9357 13.0322
44.984 12.9818
45.0322 12.9409
45.0806 12.8664
45.1288 12.7926
45.1773 12.7952
45.2257 12.7591
45.2739 12.6767
45.3224 12.6729
45.3706 12.6512
45.4191 12.5592
45.4673 12.5329
45.5158 12.4552
45.5641 12.436
45.6126 12.4178
45.6609 12.3429
45.7094 12.3189
45.7577 12.2566
45.8063 12.1853
45.8546 12.1695
45.9031 12.1224
45.9515 12.0818
46.0001 12.0395
46.0484 12.0223
46.097 11.9829
46.1454 11.9185
46.194 11.8759
46.2424 11.8289
46.291 11.7624
46.3395 11.7267
46.3881 11.6924
46.4365 11.697
46.4852 11.6217
46.5337 11.5518
46.5823 11.5588
46.631 11.4665
46.6795 11.4196
46.7282 11.4409
46.7767 11.3654
46.8254 11.2745
46.8739 11.2825
46.9226 11.2504
46.9712 11.2136
47.0199 11.1525
47.0685 11.1355
47.1173 11.0259
47.1658 11.0194
47.2146 10.9875
47.2632 10.9009
47.312 10.8913
47.3606 10.8312
47.4095 10.8037
47.4581 10.7817
47.5069 10.7562
47.5556 10.6957
47.6044 10.6391
47.6531 10.6029
47.702 10.5603
47.7507 10.5788
47.7996 10.4867
47.8483 10.5163
47.8972 10.4674
47.9461 10.3605
47.9948 10.3709
48.0438 10.3121
48.0925 10.3021
48.1415 10.2456
48.1902 10.229
48.2392 10.2308
48.288 10.1596
48.337 10.0682
48.3858 10.0575
48.4348 10.0328
48.4837 10.0041
48.5327 9.96825
48.5815 9.88852
48.6306 9.93672
48.6795 9.82843
48.7285 9.75546
48.7774 9.79976
48.8265 9.73844
48.8754 9.66349
48.9245 9.64731
48.9734 9.59563
49.0226 9.63047
49.0715 9.56319
49.1206 9.55178
49.1696 9.48129
49.2188 9.48347
49.2679 9.41466
49.3169 9.36255
49.3661 9.32103
49.4151 9.30393
49.4643 9.2602
49.5134 9.26131
49.5626 9.16226
49.6117 9.13622
49.6609 9.13641
49.71 9.09984
49.7592 9.0977
49.8083 9.01027
49.8576 9.02211
49.9067 8.89928
49.956 8.93105
50.0052 8.87731
50.0545 8.85612
50.1036 8.80028
50.153 8.7942
50.2022 8.72855
50.2515 8.74117
50.3007 8.68192
50.3501 8.63437
50.3993 8.6288
50.4487 8.60389
50.498 8.55619
50.5474 8.47103
50.5966 8.46774
50.6461 8.47063
50.6955 8.40652
50.7448 8.37121
50.7943 8.32735
50.8436 8.31208
50.8931 8.29271
50.9424 8.22959
50.9919 8.22338
51.0413 8.17544
51.0908 8.17953
51.1402 8.11694
51.1897 8.07319
51.2391 8.06434
51.2887 8.00029
51.3381 7.98317
51.3877 7.96504
51.4371 7.89076
51.4867 7.89719
51.5362 7.85583
51.5858 7.83459
51.6353 7.76173
51.6849 7.76735
51.7344 7.77016
51.7841 7.6982
51.8336 7.64721
51.8833 7.63032
51.9328 7.55218
51.9826 7.55266
52.0323 7.53236
52.0818 7.54087
52.1316 7.46144
52.1812 7.46764
52.231 7.43926
52.2806 7.39344
52.3304 7.35342
52.38 7.32298
52.4298 7.32748
52.4794 7.28512
52.5293 7.22772
52.5789 7.24461
52.6288 7.18093
52.6785 7.11201
52.7284 7.10563
52.7781 7.06793
52.828 7.06993
52.8777 7.0204
52.9276 6.98691
52.9774 6.97787
53.0273 6.90798
53.0771 6.8896
53.1271 6.9016
53.1769 6.84524
53.2269 6.8548
53.2767 6.7982
53.3267 6.7656
53.3765 6.75803
53.4266 6.68048
53.4766 6.65341
53.5265 6.67239
53.5765 6.62338
53.6264 6.56474
53.6765 6.53496
53.7264 6.52173
53.7765 6.46518
53.8265 6.46208
53.8766 6.4031
53.9266 6.42327
53.9767 6.37719
54.0267 6.37057
54.0769 6.30464
54.1269 6.29536
54.1771 6.27929
54.2271 6.24553
54.2773 6.15406
54.3274 6.18213
54.3776 6.13638
54.4277 6.1136
54.478 6.06989
54.528 5.99816
54.5783 5.97134
54.6285 5.89924
54.6788 5.88094
54.7289 5.8699
54.7792 5.85303
54.8296 5.76823
54.8798 5.66434
54.9301 5.65639
54.9803 5.62403
55.0307 5.63295
55.0809 5.55659
55.1314 5.52871
55.1816 5.46823
55.232 5.40602
55.2823 5.38323
55.3328 5.28581
55.383 5.30158
55.4335 5.24269
55.4838 5.16398
55.5344 5.10422
55.5847 5.07306
55.6352 5.08818
55.6856 5.00577
55.7361 4.98868