File: XRD/Ni3Fe_FD0200.xy
TT I
1.27165 8.40498
1.31627 7.03191
1.36089 8.53066
1.40551 6.51996
1.45013 6.7026
1.49476 6.41798
1.53938 7.02222
1.584 6.54569
1.62863 5.50855
1.67325 6.23464
1.71787 5.74902
1.7625 5.81477
1.80712 5.83886
1.85174 5.60615
1.89636 4.83334
1.94099 6.21099
1.98562 5.34982
2.03025 4.72722
2.07487 4.86431
2.11949 5.05162
2.16411 4.99605
2.20874 5.19479
2.25338 4.42409
2.298 4.60397
2.34263 4.32479
2.38725 4.78298
2.43188 4.41857
2.4765 4.98526
2.52115 4.82527
2.56577 4.60777
2.6104 5.30514
2.65503 4.40151
2.69965 5.93573
2.7443 6.58931
2.78893 7.13985
2.83356 7.02256
2.87818 8.04979
2.92281 8.45255
2.96744 9.55797
3.01209 10.578
3.05672 10.9852
3.10135 12.5966
3.14599 13.0966
3.19062 13.5482
3.23527 15.6125
3.2799 15.4365
3.32454 16.8224
3.36917 18.1604
3.4138 19.1301
3.45844 19.6823
3.50309 21.2092
3.54773 21.4637
3.59237 22.8328
3.637 23.272
3.68164 24.3257
3.7263 25.6059
3.77094 25.8813
3.81558 27.4422
3.86022 27.935
3.90486 29.179
3.9495 30.3244
3.99416 31.4045
4.0388 32.9102
4.08344 33.8636
4.12809 35.5796
4.17273 36.8597
4.21738 38.1125
4.26204 39.4393
4.30669 40.607
4.35133 42.9007
4.39598 44.2714
4.44063 46.9912
4.4853 48.9381
4.52995 51.0848
4.5746 53.0353
4.61925 56.3758
4.6639 58.4745
4.70855 61.5793
4.75322 64.6278
4.79788 68.3679
4.84253 71.7246
4.88719 76.3997
4.93184 82.0698
4.97652 88.9291
5.02118 97.8305
5.06583 108.144
5.11049 126.097
5.15515 170.705
5.19981 882.201
5.24449 3973.04
5.28916 10198.0
5.33382 4725.07
5.37848 298.501
5.42315 157.873
5.46783 130.546
5.5125 119.033
5.55716 113.287
5.60183 108.304
5.6465 105.618
5.69117 104.073
5.73586 101.684
5.78053 101.59
5.8252 101.7
5.86988 105.172
5.91455 112.317
5.95924 135.878
6.00392 439.947
6.0486 1448.0
6.09328 3490.56
6.13795 3815.27
6.18263 413.27
6.22733 113.389
6.27201 90.8556
6.3167 81.8024
6.36138 77.1555
6.40606 72.9644
6.45075 71.1986
6.49545 68.8837
6.54014 66.8002
6.58483 65.6203
6.62952 64.1728
6.67421 62.4321
6.71892 61.8027
6.76361 60.8929
6.8083 59.7651
6.853 59.4522
6.89769 59.1062
6.94239 58.3999
6.98711 57.4635
7.03181 57.2795
7.07651 57.2838
7.12121 56.8886
7.16591 56.4684
7.21063 55.8576
7.25533 56.0242
7.30004 55.9619
7.34475 56.2876
7.38945 56.5771
7.43416 55.8004
7.47889 55.915
7.5236 58.2553
7.56831 60.6213
7.61303 57.8704
7.65774 57.5587
7.70247 58.1503
7.74719 58.3844
7.79191 59.321
7.83663 59.5692
7.88135 60.6781
7.92607 61.5273
7.97081 62.7783
8.01553 63.7284
8.06026 65.4475
8.10498 66.6618
8.14971 68.6166
8.19446 70.8116
8.23919 73.3345
8.28392 76.5226
8.32865 79.5555
8.37339 84.9556
8.41812 91.3163
8.46288 109.265
8.50761 284.893
8.55235 602.307
8.59709 1021.8
8.64183 1906.02
8.68658 1296.16
8.73134 242.278
8.77609 112.757
8.82083 101.075
8.86558 96.1959
8.91033 93.3669
8.9551 90.8701
8.99985 90.2201
9.04461 88.748
9.08936 88.6462
9.13412 87.7674
9.17888 86.8524
9.22365 90.3642
9.26841 92.3015
9.31318 89.2731
9.35794 88.1695
9.4027 88.2683
9.44749 89.7695
9.49226 90.2763
9.53703 91.5868
9.5818 93.0713
9.62657 94.1072
9.67134 95.9065
9.71614 98.1215
9.76091 100.205
9.80569 103.344
9.85047 106.945
9.89525 113.335
9.94005 133.38
9.98484 299.777
10.0296 534.765
10.0744 773.096
10.1192 1373.29
10.164 1742.4
10.2088 631.93
10.2536 159.287
10.2984 119.3
10.3432 113.898
10.388 114.694
10.4328 159.102
10.4776 217.54
10.5224 274.522
10.5672 421.906
10.612 533.363
10.6568 277.339
10.7017 112.286
10.7465 93.6183
10.7913 88.7197
10.8361 85.8999
10.8809 83.6489
10.9257 81.1374
10.9706 79.5177
11.0154 77.9022
11.0602 76.6086
11.105 75.2542
11.1499 73.6114
11.1947 72.6458
11.2395 71.4917
11.2844 71.0284
11.3292 70.4449
11.374 69.5437
11.4189 69.0006
11.4637 67.9447
11.5086 67.4178
11.5534 67.0593
11.5983 66.8281
11.6431 66.5427
11.688 66.3239
11.7328 66.0504
11.7777 65.6935
11.8225 65.3446
11.8674 65.3928
11.9122 66.8443
11.9571 68.0938
12.002 69.101
12.0468 80.0878
12.0917 96.1324
12.1366 107.966
12.1814 135.691
12.2263 183.104
12.2712 187.836
12.3161 108.535
12.3609 71.4343
12.4058 67.8627
12.4507 67.6737
12.4956 67.5245
12.5405 67.6277
12.5853 68.1049
12.6302 68.3492
12.6751 69.1525
12.72 69.9505
12.7649 71.016
12.8098 72.036
12.8547 73.4353
12.8996 74.8625
12.9445 76.5927
12.9894 78.8373
13.0343 81.2196
13.0792 86.3617
13.1242 108.863
13.1691 150.952
13.214 176.741
13.2589 222.625
13.3038 306.613
13.3487 409.722
13.3937 323.919
13.4386 156.942
13.4835 135.104
13.5285 157.411
13.5734 174.076
13.6183 219.079
13.6633 299.547
13.7082 358.019
13.7531 243.617
13.7981 116.703
13.843 87.9542
13.888 84.5348
13.9329 82.0046
13.9779 80.469
14.0228 78.9505
14.0678 77.4104
14.1127 77.0187
14.1577 76.5436
14.2027 75.702
14.2476 74.6115
14.2926 73.7882
14.3376 73.6266
14.3825 72.9555
14.4275 72.5019
14.4725 72.8293
14.5175 72.9803
14.5624 72.7335
14.6074 73.2856
14.6524 73.8871
14.6974 74.7221
14.7424 80.289
14.7874 96.2574
14.8324 108.668
14.8774 119.197
14.9224 141.871
14.9674 179.715
15.0124 218.927
15.0574 179.196
15.1024 107.506
15.1474 78.3365
15.1924 74.3727
15.2374 72.7212
15.2824 71.8354
15.3274 71.0178
15.3725 70.3019
15.4175 70.2563
15.4625 69.5732
15.5076 69.4608
15.5526 69.7178
15.5976 70.058
15.6426 74.1329
15.6877 87.0709
15.7327 96.5987
15.7778 103.513
15.8228 119.788
15.8679 146.95
15.9129 182.929
15.958 178.434
16.003 118.535
16.0481 75.3766
16.0931 66.5266
16.1382 64.1328
16.1833 63.5806
16.2283 62.0594
16.2734 61.2839
16.3185 60.5971
16.3636 59.9489
16.4086 59.2684
16.4537 58.7123
16.4988 58.3709
16.5439 58.2756
16.589 57.9459
16.6341 57.462
16.6792 57.3769
16.7243 57.4564
16.7694 57.5555
16.8145 57.5021
16.8596 57.4443
16.9047 57.9875
16.9498 58.1208
16.9949 58.093
17.04 59.1721
17.0851 62.0605
17.1302 64.2716
17.1754 66.0075
17.2205 68.6109
17.2656 73.1188
17.3108 80.8963
17.3559 85.5554
17.401 78.609
17.4462 67.7428
17.4913 62.943
17.5365 62.3518
17.5815 62.3049
17.6268 62.8689
17.6718 63.5706
17.7171 63.8032
17.7622 64.7467
17.8074 66.2777
17.8525 71.9563
17.8977 79.3258
17.9428 83.9786
17.9881 88.126
18.0331 97.7145
18.0784 111.872
18.1237 135.54
18.1688 145.502
18.214 122.261
18.2591 95.7313
18.3044 89.8293
18.3495 95.3692
18.3948 105.369
18.4399 103.041
18.4852 85.7672
18.5303 71.4209
18.5756 66.0065
18.6207 64.7567
18.666 63.6977
18.7112 62.7582
18.7565 62.2614
18.8016 61.6691
18.8469 61.2154
18.892 61.0781
18.9374 60.444
18.9825 60.0038
19.0278 59.7821
19.073 60.3821
19.1183 61.742
19.1635 62.6237
19.2088 63.1755
19.254 64.437
19.2993 66.9812
19.3447 70.6956
19.3898 75.26
19.4352 76.358
19.4804 69.2551
19.5257 61.3253
19.5709 57.4888
19.6163 56.8141
19.6615 56.8005
19.7068 56.1299
19.752 56.2036
19.7974 56.9347
19.8426 58.5267
19.888 59.1767
19.9332 59.7915
19.9786 61.4266
20.0238 63.7099
20.0692 67.8904
20.1144 72.2067
20.1598 73.2456
20.205 68.7555
20.2504 64.6451
20.2957 64.0747
20.3411 66.5061
20.3863 67.4502
20.4318 63.2502
20.477 57.4971
20.5224 53.9992
20.5677 53.2578
20.6131 52.675
20.6586 52.2505
20.7038 52.2488
20.7493 51.6877
20.7945 51.7239
20.84 51.5444
20.8853 51.3616
20.9307 51.2748
20.976 51.6066
21.0215 51.5391
21.0668 51.6586
21.1122 51.9246
21.1575 52.3107
21.203 52.7045
21.2483 53.4328
21.2938 54.2893
21.3391 53.129
21.3846 51.9598
21.4299 51.244
21.4754 51.1497
21.5207 51.3391
21.5662 52.0085
21.6116 52.9091
21.6571 53.9851
21.7024 54.6058
21.7479 55.3833
21.7933 57.3872
21.8388 59.6896
21.8843 62.8331
21.9297 66.1603
21.9752 67.2723
22.0206 63.8687
22.0661 59.3175
22.1115 57.7983
22.157 58.205
22.2024 57.895
22.248 55.0437
22.2933 52.9172
22.3389 51.6742
22.3843 51.2967
22.4299 51.1275
22.4753 50.9318
22.5208 51.0293
22.5662 51.2381
22.6118 51.3394
22.6572 52.2271
22.7028 52.8253
22.7483 53.0991
22.7939 53.234
22.8393 54.219
22.8849 55.436
22.9303 56.9319
22.9759 58.8923
23.0214 59.9108
23.067 58.4786
23.1126 55.092
23.1581 52.2498
23.2037 51.5726
23.2492 51.9573
23.2948 52.3902
23.3403 52.7223
23.3859 52.8589
23.4314 53.1997
23.477 54.2567
23.5225 55.385
23.5682 57.1602
23.6137 59.436
23.6593 59.0371
23.7048 55.7372
23.7505 51.7288
23.796 49.3056
23.8417 48.4726
23.8872 47.9555
23.9329 47.7805
23.9784 47.2069
24.0241 46.8961
24.0697 46.7197
24.1154 46.3426
24.1609 46.199
24.2066 46.0665
24.2522 45.9351
24.2979 45.8355
24.3434 45.5786
24.3892 45.2852
24.4349 45.1984
24.4805 45.0092
24.5262 45.2083
24.5718 45.048
24.6175 45.0822
24.6631 45.1037
24.7089 44.8701
24.7545 44.6549
24.8002 44.503
24.8458 44.5655
24.8916 44.4177
24.9372 44.5189
24.983 44.9654
25.0286 45.2069
25.0744 45.5054
25.12 45.6962
25.1658 46.1605
25.2114 46.5752
25.2572 46.7319
25.3029 46.5478
25.3487 46.4633
25.3943 46.7445
25.4402 46.2144
25.4858 45.1653
25.5316 43.7764
25.5773 43.01
25.6231 42.9762
25.669 42.562
25.7147 42.6811
25.7605 42.511
25.8062 42.6011
25.8521 42.6952
25.8977 42.6928
25.9436 42.7771
25.9893 42.7798
26.0352 43.2987
26.0809 43.1876
26.1268 43.6136
26.1725 43.5691
26.2184 43.0125
26.2641 42.7356
26.31 42.378
26.3557 42.4279
26.4017 42.243
26.4474 42.6099
26.4933 42.8196
26.5391 42.9247
26.585 43.2874
26.6308 43.6698
26.6767 43.9842
26.7225 44.0454
26.7684 43.6784
26.8142 43.0285
26.8601 42.4973
26.9059 42.1207
26.9519 41.6312
26.9979 41.18
27.0437 40.9368
27.0896 40.876
27.1354 40.7803
27.1814 40.5925
27.2272 40.633
27.2732 40.5604
27.3191 40.179
27.3651 40.3651
27.4109 40.2167
27.4569 40.2101
27.5027 40.4034
27.5488 40.3782
27.5946 40.2748
27.6407 40.3008
27.6865 40.1516
27.7326 39.9056
27.7784 39.9652
27.8245 39.779
27.8703 39.9813
27.9164 40.0194
27.9623 40.0681
28.0084 40.1277
28.0543 40.6501
28.1003 40.8443
28.1462 40.7285
28.1923 40.2617
28.2384 39.8622
28.2843 39.5436
28.3304 39.1016
28.3764 38.7258
28.4225 38.2035
28.4684 38.1286
28.5145 37.7391
28.5605 37.6241
28.6066 37.4735
28.6526 37.4045
28.6987 37.4341
28.7447 37.1338
28.7908 37.1433
28.8368 37.0419
28.8829 37.0281
28.9289 37.0463
28.9751 36.7201
29.0211 36.8073
29.0673 36.4123
29.1133 36.2709
29.1595 36.223
29.2055 35.9443
29.2517 35.8732
29.2977 35.9242
29.3439 35.7146
29.3899 35.8542
29.4361 35.7763
29.4824 35.7262
29.5284 35.5045
29.5746 35.1965
29.6207 34.8091
29.6669 34.7001
29.713 34.6594
29.7593 34.5004
29.8053 34.434
29.8516 34.5512
29.8977 34.4252
29.9439 34.1352
29.99 34.1506
30.0363 34.1233
30.0824 34.1322
30.1287 33.9281
30.1748 34.0536
30.2211 33.9934
30.2673 33.874
30.3136 33.9942
30.3597 33.9402
30.406 33.8529
30.4522 33.6712
30.4985 33.6669
30.5447 33.6501
30.591 33.6329
30.6372 33.6232
30.6835 33.5903
30.7297 33.7559
30.7761 33.7181
30.8224 33.5118
30.8686 33.4669
30.915 33.2024
30.9612 33.133
31.0076 32.8611
31.0538 32.6964
31.1002 32.6685
31.1464 32.6119
31.1928 32.4505
31.2391 32.5402
31.2855 32.4156
31.3317 32.3219
31.3781 32.4656
31.4244 32.3377
31.4708 32.3001
31.5171 32.2141
31.5636 32.3056
31.6098 32.1663
31.6563 31.915
31.7026 31.7473
31.7491 31.5889
31.7953 31.6321
31.8418 31.6137
31.8881 31.6088
31.9346 31.502
31.9809 31.4999
32.0275 31.3468
32.074 31.3093
32.1203 31.1233
32.1668 30.9404
32.2132 30.9305
32.2597 30.6735
32.306 30.6877
32.3526 30.4548
32.399 30.3759
32.4455 30.1741
32.4919 30.195
32.5385 30.077
32.5848 29.8638
32.6314 29.8521
32.6778 29.8463
32.7244 29.6997
32.7708 29.4982
32.8174 29.5439
32.8638 29.3862
32.9104 29.4941
32.9569 29.3351
33.0035 29.2834
33.0499 29.2396
33.0966 29.107
33.143 29.0593
33.1897 29.0473
33.2361 28.904
33.2828 28.9096
33.3293 28.7307
33.3759 28.7156
33.4226 28.6181
33.4691 28.4803
33.5158 28.4199
33.5623 28.2212
33.609 28.0984
33.6555 27.9663
33.7022 27.8804
33.7487 27.8204
33.7954 27.7584
33.842 27.6691
33.8887 27.6056
33.9353 27.5833
33.982 27.453
34.0286 27.4591
34.0753 27.2586
34.1219 27.2132
34.1687 27.0843
34.2152 27.1136
34.262 26.9142
34.3086 26.8593
34.3554 26.7651
34.402 26.555
34.4488 26.5631
34.4954 26.4937
34.5422 26.3869
34.5889 26.2168
34.6357 26.1529
34.6825 26.17
34.7292 26.0577
34.776 25.9897
34.8227 25.9208
34.8695 25.8123
34.9162 25.7178
34.9631 25.725
35.0098 25.6997
35.0566 25.5284
35.1033 25.4758
35.1502 25.5068
35.1969 25.3843
35.2438 25.3475
35.2906 25.2399
35.3375 25.1817
35.3842 25.0968
35.4311 25.1119
35.4779 25.0664
35.5248 25.0918
35.5716 24.8446
35.6185 24.8555
35.6653 24.7117
35.7123 24.7213
35.759 24.5707
35.806 24.4577
35.8528 24.3962
35.8998 24.268
35.9468 24.2012
35.9936 24.2088
36.0406 24.1029
36.0874 24.109
36.1345 24.0265
36.1813 23.938
36.2283 23.844
36.2752 23.7256
36.3222 23.7667
36.3691 23.695
36.4161 23.5142
36.463 23.4869
36.5101 23.5265
36.557 23.4572
36.6041 23.2619
36.651 23.3098
36.6981 23.1315
36.745 23.0972
36.7921 23.0717
36.839 22.9022
36.8861 22.8583
36.9331 22.7768
36.9802 22.7709
37.0272 22.6625
37.0743 22.5621
37.1213 22.5331
37.1684 22.4269
37.2154 22.3869
37.2626 22.2679
37.3098 22.2636
37.3568 22.1011
37.404 22.1738
37.451 21.9848
37.4982 21.9711
37.5452 21.7897
37.5924 21.7564
37.6395 21.8574
37.6867 21.6936
37.7337 21.5532
37.781 21.6168
37.8281 21.4726
37.8753 21.4445
37.9224 21.2995
37.9697 21.3107
38.0168 21.1793
38.064 21.1102
38.1111 21.039
38.1584 20.9474
38.2056 20.9662
38.2529 20.9184
38.3 20.7967
38.3473 20.7739
38.3945 20.5833
38.4418 20.5971
38.489 20.5307
38.5363 20.4652
38.5837 20.3573
38.6309 20.3643
38.6782 20.2669
38.7254 20.1793
38.7728 20.1
38.82 20.0644
38.8674 20.0694
38.9146 19.9997
38.9621 19.8512
39.0093 19.8488
39.0567 19.7363
39.104 19.6882
39.1514 19.6283
39.1987 19.5766
39.2461 19.5104
39.2934 19.4756
39.3409 19.3582
39.3882 19.2609
39.4356 19.204
39.483 19.2042
39.5304 19.1298
39.5778 19.0748
39.6253 18.9965
39.6726 18.9505
39.7201 18.9177
39.7675 18.8206
39.815 18.8358
39.8624 18.6865
39.9099 18.724
39.9575 18.6112
40.0049 18.597
40.0525 18.419
40.0999 18.4202
40.1474 18.3703
40.1949 18.2359
40.2425 18.2194
40.2899 18.1986
40.3375 18.1598
40.385 17.9951
40.4326 18.022
40.48 17.9829
40.5277 17.9543
40.5752 17.8464
40.6228 17.7336
40.6703 17.7121
40.718 17.6646
40.7655 17.6359
40.8132 17.5651
40.8607 17.5935
40.9084 17.4608
40.9559 17.4434
41.0036 17.3521
41.0512 17.3048
41.0989 17.2407
41.1465 17.2075
41.1942 17.2114
41.242 17.0425
41.2896 17.0034
41.3373 16.923
41.3849 16.8791
41.4327 16.828
41.4803 16.7223
41.5281 16.7376
41.5758 16.6584
41.6236 16.597
41.6712 16.5318
41.7191 16.4671
41.7667 16.3997
41.8146 16.4056
41.8622 16.3522
41.9101 16.2817
41.9578 16.1298
42.0057 16.153
42.0534 16.1362
42.1013 16.0836
42.149 15.985
42.1969 15.9277
42.2446 15.8554
42.2925 15.8608
42.3403 15.8102
42.3882 15.7752
42.436 15.6982
42.4839 15.5929
42.5319 15.5614
42.5797 15.4561
42.6277 15.4759
42.6755 15.4091
42.7235 15.3554
42.7713 15.3211
42.8193 15.2727
42.8671 15.1515
42.9152 15.1517
42.963 15.1356
43.0111 15.0374
43.0589 14.9693
43.107 14.9471
43.1549 14.9242
43.2029 14.8644
43.2508 14.8223
43.2989 14.7368
43.3468 14.7257
43.3949 14.6627
43.4429 14.6046
43.491 14.5466
43.5389 14.5087
43.5871 14.4246
43.635 14.4039
43.6832 14.354
43.7312 14.288
43.7793 14.1819
43.8273 14.1841
43.8755 14.1098
43.9237 14.0755
43.9717 14.061
44.0199 13.964
44.068 13.9588
44.1162 13.9048
44.1642 13.8749
44.2125 13.8235
44.2606 13.7294
44.3088 13.723
44.3569 13.6792
44.4052 13.6403
44.4533 13.5812
44.5016 13.5001
44.5497 13.4465
44.598 13.4088
44.6461 13.3673
44.6945 13.3369
44.7426 13.3118
44.791 13.1396
44.8391 13.1902
44.8875 13.1107
44.9357 13.1453
44.984 13.0566
45.0322 12.9744
45.0806 12.9414
45.1288 12.9058
45.1773 12.8428
45.2257 12.7597
45.2739 12.7675
45.3224 12.7365
45.3706 12.7097
45.4191 12.6146
45.4673 12.6051
45.5158 12.5051
45.5641 12.4266
45.6126 12.4618
45.6609 12.4192
45.7094 12.3079
45.7577 12.3091
45.8063 12.2549
45.8546 12.2314
45.9031 12.1892
45.9515 12.1228
46.0001 12.1509
46.0484 12.0405
46.097 12.0396
46.1454 11.9731
46.194 11.933
46.2424 11.8976
46.291 11.8256
46.3395 11.7968
46.3881 11.7613
46.4365 11.7511
46.4852 11.668
46.5337 11.6115
46.5823 11.6066
46.631 11.4978
46.6795 11.5212
46.7282 11.4551
46.7767 11.4271
46.8254 11.3806
46.8739 11.325
46.9226 11.2921
46.9712 11.2481
47.0199 11.2282
47.0685 11.1716
47.1173 11.1032
47.1658 11.0885
47.2146 11.0821
47.2632 10.9938
47.312 10.9882
47.3606 10.9076
47.4095 10.8509
47.4581 10.8045
47.5069 10.8161
47.5556 10.7586
47.6044 10.6875
47.6531 10.6442
47.702 10.6126
47.7507 10.5973
47.7996 10.5694
47.8483 10.5506
47.8972 10.526
47.9461 10.4441
47.9948 10.3865
48.0438 10.3131
48.0925 10.3043
48.1415 10.2862
48.1902 10.2422
48.2392 10.2046
48.288 10.1948
48.337 10.1256
48.3858 10.0997
48.4348 10.1042
48.4837 10.0786
48.5327 10.0074
48.5815 9.95819
48.6306 9.93269
48.6795 9.87293
48.7285 9.85333
48.7774 9.81482
48.8265 9.85955
48.8754 9.73992
48.9245 9.70095
48.9734 9.69636
49.0226 9.64157
49.0715 9.58209
49.1206 9.57489
49.1696 9.5435
49.2188 9.49712
49.2679 9.44672
49.3169 9.42754
49.3661 9.39645
49.4151 9.32926
49.4643 9.34763
49.5134 9.29864
49.5626 9.22739
49.6117 9.18044
49.6609 9.19931
49.71 9.13837
49.7592 9.09146
49.8083 9.03458
49.8576 9.07551
49.9067 9.0
49.956 8.9584
50.0052 8.91242
50.0545 8.90084
50.1036 8.88082
50.153 8.83089
50.2022 8.78323
50.2515 8.7531
50.3007 8.6712
50.3501 8.66597
50.3993 8.68
50.4487 8.61364
50.498 8.56868
50.5474 8.60418
50.5966 8.52457
50.6461 8.46508
50.6955 8.46522
50.7448 8.41666
50.7943 8.41371
50.8436 8.34239
50.8931 8.35313
50.9424 8.30093
50.9919 8.28114
51.0413 8.23527
51.0908 8.20374
51.1402 8.18311
51.1897 8.11584
51.2391 8.0927
51.2887 8.03733
51.3381 8.06051
51.3877 8.01841
51.4371 7.9621
51.4867 7.89879
51.5362 7.90863
51.5858 7.91171
51.6353 7.83871
51.6849 7.7858
51.7344 7.76388
51.7841 7.73257
51.8336 7.74294
51.8833 7.66602
51.9328 7.58827
51.9826 7.59395
52.0323 7.57914
52.0818 7.53992
52.1316 7.46368
52.1812 7.47657
52.231 7.45339
52.2806 7.42327
52.3304 7.41672
52.38 7.3469
52.4298 7.3435
52.4794 7.29343
52.5293 7.26583
52.5789 7.27543
52.6288 7.19999
52.6785 7.19749
52.7284 7.17077
52.7781 7.12025
52.828 7.0684
52.8777 7.04222
52.9276 6.96657
52.9774 7.00943
53.0273 6.97096
53.0771 6.94522
53.1271 6.91633
53.1769 6.87
53.2269 6.84572
53.2767 6.77657
53.3267 6.79083
53.3765 6.7539
53.4266 6.71024
53.4766 6.73579
53.5265 6.68859
53.5765 6.64122
53.6264 6.62645
53.6765 6.61138
53.7264 6.56194
53.7765 6.52494
53.8265 6.52452
53.8766 6.44507
53.9266 6.43553
53.9767 6.4126
54.0267 6.40792
54.0769 6.35664
54.1269 6.34566
54.1771 6.32021
54.2271 6.20968
54.2773 6.1953
54.3274 6.18772
54.3776 6.13594
54.4277 6.1676
54.478 6.05222
54.528 6.05014
54.5783 5.99023
54.6285 5.95249
54.6788 5.87829
54.7289 5.88404
54.7792 5.84851
54.8296 5.73776
54.8798 5.70026
54.9301 5.70546
54.9803 5.64404
55.0307 5.63471
55.0809 5.55326
55.1314 5.52419
55.1816 5.49914
55.232 5.38754
55.2823 5.37931
55.3328 5.29337
55.383 5.2229
55.4335 5.17884
55.4838 5.15477
55.5344 5.08083
55.5847 5.09135
55.6352 4.97479
55.6856 5.02425
55.7361 4.98347