File: XRD/Ni3Fe_FD1034.xy
TT I
1.27165 6.74399
1.31627 6.84407
1.36089 5.95972
1.40551 5.4075
1.45013 5.85485
1.49476 5.56778
1.53938 5.20901
1.584 4.8221
1.62863 4.58898
1.67325 4.58804
1.71787 4.85954
1.7625 4.76142
1.80712 5.32149
1.85174 4.43421
1.89636 4.41052
1.94099 4.97853
1.98562 4.35608
2.03025 3.96939
2.07487 4.28032
2.11949 4.46791
2.16411 4.4108
2.20874 5.47594
2.25338 6.65438
2.298 5.30879
2.34263 5.68132
2.38725 5.58729
2.43188 5.60612
2.4765 7.02065
2.52115 7.39614
2.56577 8.34317
2.6104 8.51027
2.65503 8.58542
2.69965 8.63095
2.7443 8.60496
2.78893 7.98762
2.83356 8.58114
2.87818 8.77803
2.92281 9.08142
2.96744 9.00976
3.01209 10.2831
3.05672 10.9003
3.10135 11.8449
3.14599 12.7908
3.19062 13.9765
3.23527 14.7847
3.2799 15.2237
3.32454 16.1071
3.36917 16.9862
3.4138 18.1763
3.45844 19.2742
3.50309 19.8872
3.54773 20.718
3.59237 20.8934
3.637 28.1576
3.68164 26.8713
3.7263 24.142
3.77094 24.6067
3.81558 25.267
3.86022 26.2776
3.90486 27.4721
3.9495 28.3279
3.99416 29.1698
4.0388 30.0972
4.08344 31.4105
4.12809 31.8669
4.17273 33.3017
4.21738 35.8239
4.26204 52.0693
4.30669 57.1359
4.35133 40.2804
4.39598 41.2357
4.44063 43.0914
4.4853 46.2522
4.52995 46.7963
4.5746 48.571
4.61925 50.3983
4.6639 52.4176
4.70855 55.208
4.75322 57.4996
4.79788 60.5212
4.84253 64.1923
4.88719 67.6124
4.93184 71.3536
4.97652 76.4509
5.02118 83.015
5.06583 89.3456
5.11049 97.394
5.15515 117.569
5.19981 228.279
5.24449 2430.72
5.28916 13431.1
5.33382 3357.7
5.37848 220.975
5.42315 124.294
5.46783 107.968
5.5125 100.778
5.55716 97.1353
5.60183 92.7814
5.6465 91.3932
5.69117 89.4244
5.73586 87.5188
5.78053 87.0424
5.8252 85.7622
5.86988 86.6798
5.91455 88.1278
5.95924 94.675
6.00392 160.169
6.0486 865.248
6.09328 4534.77
6.13795 3566.74
6.18263 241.19
6.22733 87.332
6.27201 75.5318
6.3167 72.8881
6.36138 68.7562
6.40606 64.5791
6.45075 63.1457
6.49545 61.7659
6.54014 60.1414
6.58483 58.6679
6.62952 57.608
6.67421 58.4904
6.71892 64.0543
6.76361 56.1712
6.8083 54.0472
6.853 53.8432
6.89769 53.2527
6.94239 53.2213
6.98711 52.5952
7.03181 52.1435
7.07651 51.9894
7.12121 51.5973
7.16591 51.3999
7.21063 51.2216
7.25533 51.5795
7.30004 61.5303
7.34475 56.1079
7.38945 51.4713
7.43416 51.082
7.47889 51.712
7.5236 60.0637
7.56831 77.3406
7.61303 57.6453
7.65774 52.685
7.70247 52.6953
7.74719 53.3256
7.79191 53.8215
7.83663 53.5523
7.88135 54.5906
7.92607 55.5056
7.97081 56.8236
8.01553 57.1924
8.06026 58.575
8.10498 59.9865
8.14971 62.2789
8.19446 63.7662
8.23919 65.6045
8.28392 67.9219
8.32865 70.119
8.37339 73.7442
8.41812 77.8066
8.46288 86.3255
8.50761 126.045
8.55235 359.568
8.59709 1066.84
8.64183 2249.67
8.68658 1126.49
8.73134 177.173
8.77609 94.8782
8.82083 87.9166
8.86558 85.3558
8.91033 83.45
8.9551 82.0202
8.99985 80.9592
9.04461 79.6763
9.08936 79.1931
9.13412 78.7412
9.17888 79.5785
9.22365 93.1884
9.26841 120.464
9.31318 90.8903
9.35794 79.7087
9.4027 79.3434
9.44749 80.2983
9.49226 81.0805
9.53703 81.0714
9.5818 82.7211
9.62657 83.7678
9.67134 86.1031
9.71614 86.9897
9.76091 89.2715
9.80569 91.0029
9.85047 93.011
9.89525 98.4304
9.94005 105.347
9.98484 145.336
10.0296 338.228
10.0744 757.216
10.1192 1747.41
10.164 1688.44
10.2088 446.013
10.2536 125.572
10.2984 102.824
10.3432 100.466
10.388 97.0798
10.4328 106.629
10.4776 157.491
10.5224 264.194
10.5672 504.519
10.612 538.645
10.6568 227.492
10.7017 105.215
10.7465 86.9004
10.7913 79.5642
10.8361 77.5288
10.8809 75.487
10.9257 73.2166
10.9706 72.2618
11.0154 70.3705
11.0602 68.9443
11.105 68.0536
11.1499 66.8065
11.1947 67.3006
11.2395 65.3886
11.2844 64.5824
11.3292 63.3264
11.374 62.5861
11.4189 62.2381
11.4637 61.5826
11.5086 60.8655
11.5534 60.9254
11.5983 60.8743
11.6431 60.5271
11.688 59.7931
11.7328 59.9616
11.7777 59.6996
11.8225 59.6476
11.8674 59.6211
11.9122 62.1321
11.9571 69.4731
12.002 67.341
12.0468 64.0676
12.0917 75.8826
12.1366 97.9939
12.1814 145.774
12.2263 206.7
12.2712 176.377
12.3161 95.7879
12.3609 64.2101
12.4058 60.9969
12.4507 60.7582
12.4956 60.8764
12.5405 61.0735
12.5853 61.6563
12.6302 62.2532
12.6751 63.849
12.72 63.7002
12.7649 64.1271
12.8098 64.9955
12.8547 66.0876
12.8996 67.4548
12.9445 68.7544
12.9894 70.5178
13.0343 72.5265
13.0792 76.3785
13.1242 81.9752
13.1691 106.288
13.214 144.288
13.2589 223.785
13.3038 362.35
13.3487 440.554
13.3937 281.146
13.4386 127.934
13.4835 98.5388
13.5285 117.867
13.5734 153.375
13.6183 234.203
13.6633 353.279
13.7082 362.451
13.7531 209.663
13.7981 100.936
13.843 79.2504
13.888 76.5847
13.9329 74.3697
13.9779 73.388
14.0228 71.5453
14.0678 70.4993
14.1127 71.7256
14.1577 76.4644
14.2027 74.2715
14.2476 68.698
14.2926 67.2138
14.3376 66.9368
14.3825 66.6497
14.4275 65.9451
14.4725 66.0932
14.5175 66.1005
14.5624 66.2863
14.6074 66.3356
14.6524 66.9222
14.6974 67.1721
14.7424 68.3774
14.7874 73.9655
14.8324 87.3345
14.8774 108.123
14.9224 145.999
14.9674 206.244
15.0124 228.669
15.0574 161.369
15.1024 93.9
15.1474 70.6527
15.1924 67.7645
15.2374 66.2381
15.2824 65.7333
15.3274 64.783
15.3725 64.2327
15.4175 63.9617
15.4625 63.3662
15.5076 63.2928
15.5526 63.0979
15.5976 63.149
15.6426 63.5755
15.6877 68.1897
15.7327 78.6441
15.7778 92.8648
15.8228 120.859
15.8679 167.735
15.9129 201.774
15.958 168.056
16.003 103.29
16.0481 69.6416
16.0931 63.0786
16.1382 60.0116
16.1833 58.0165
16.2283 56.5837
16.2734 55.9775
16.3185 55.4442
16.3636 55.005
16.4086 54.3274
16.4537 53.6885
16.4988 53.2276
16.5439 53.2423
16.589 53.0655
16.6341 52.6872
16.6792 52.4031
16.7243 52.5213
16.7694 52.3876
16.8145 52.5127
16.8596 52.7392
16.9047 53.4081
16.9498 53.9553
16.9949 53.8769
17.04 53.6068
17.0851 54.5177
17.1302 56.8044
17.1754 59.8531
17.2205 64.3715
17.2656 72.0114
17.3108 81.5221
17.3559 82.7335
17.401 71.6763
17.4462 61.0766
17.4913 57.501
17.5365 56.9202
17.5815 57.0731
17.6268 57.3144
17.6718 57.6955
17.7171 58.5858
17.7622 59.9062
17.8074 60.6607
17.8525 61.5657
17.8977 65.9164
17.9428 72.5223
17.9881 80.7173
18.0331 96.6693
18.0784 120.5
18.1237 142.11
18.1688 137.16
18.214 109.031
18.2591 87.6893
18.3044 88.3455
18.3495 98.7048
18.3948 106.833
18.4399 98.2008
18.4852 79.3515
18.5303 65.5299
18.5756 61.3141
18.6207 59.9184
18.666 58.7014
18.7112 57.8173
18.7565 57.1015
18.8016 56.7043
18.8469 56.07
18.892 55.888
18.9374 55.3477
18.9825 55.1388
19.0278 54.7667
19.073 54.9118
19.1183 54.9652
19.1635 56.0177
19.2088 57.5382
19.254 60.1101
19.2993 65.5514
19.3447 71.6653
19.3898 76.1854
19.4352 72.4706
19.4804 63.2696
19.5257 55.9376
19.5709 52.7267
19.6163 52.3564
19.6615 52.0387
19.7068 51.5733
19.752 51.6343
19.7974 51.6803
19.8426 52.3845
19.888 53.3656
19.9332 54.5819
19.9786 57.097
20.0238 60.3465
20.0692 66.4313
20.1144 70.1011
20.1598 69.064
20.205 64.0052
20.2504 61.4561
20.2957 63.0703
20.3411 65.3887
20.3863 64.2425
20.4318 58.0134
20.477 52.7723
20.5224 49.6783
20.5677 49.166
20.6131 48.5208
20.6586 48.1186
20.7038 47.9957
20.7493 47.8618
20.7945 47.947
20.84 47.7063
20.8853 47.2897
20.9307 47.0506
20.976 47.2832
21.0215 46.9769
21.0668 47.5034
21.1122 48.0718
21.1575 48.3257
21.203 49.368
21.2483 50.0941
21.2938 50.4411
21.3391 48.9993
21.3846 47.7379
21.4299 47.1606
21.4754 47.0422
21.5207 47.2397
21.5662 47.3851
21.6116 47.534
21.6571 48.6912
21.7024 49.9005
21.7479 51.594
21.7933 53.9487
21.8388 57.5697
21.8843 62.3826
21.9297 65.2606
21.9752 63.8195
22.0206 59.7924
22.0661 56.2883
22.1115 55.8055
22.157 55.9275
22.2024 54.2127
22.248 51.0073
22.2933 48.9619
22.3389 47.8921
22.3843 47.6227
22.4299 47.3176
22.4753 47.2303
22.5208 47.2565
22.5662 47.2327
22.6118 47.3459
22.6572 47.4278
22.7028 48.1194
22.7483 48.7354
22.7939 49.4639
22.8393 50.9311
22.8849 52.9881
22.9303 55.4205
22.9759 57.6546
23.0214 57.3042
23.067 54.5623
23.1126 50.9193
23.1581 48.3978
23.2037 47.7011
23.2492 47.5054
23.2948 47.7002
23.3403 48.1611
23.3859 49.1237
23.4314 50.1643
23.477 51.903
23.5225 54.3537
23.5682 57.0289
23.6137 58.4664
23.6593 56.5043
23.7048 52.0019
23.7505 47.9205
23.796 45.8245
23.8417 44.8965
23.8872 44.534
23.9329 44.106
23.9784 43.8143
24.0241 43.5073
24.0697 43.4393
24.1154 42.926
24.1609 42.7029
24.2066 42.5945
24.2522 42.6879
24.2979 42.1054
24.3434 42.1397
24.3892 41.9248
24.4349 41.9221
24.4805 41.7042
24.5262 42.0761
24.5718 41.874
24.6175 42.0283
24.6631 41.9258
24.7089 41.4671
24.7545 41.4123
24.8002 41.2101
24.8458 41.1691
24.8916 40.9795
24.9372 41.2176
24.983 41.518
25.0286 41.8183
25.0744 42.4525
25.12 43.132
25.1658 43.6095
25.2114 44.1491
25.2572 44.1215
25.3029 44.3817
25.3487 44.5739
25.3943 44.2803
25.4402 43.1051
25.4858 41.9294
25.5316 40.6983
25.5773 40.0623
25.6231 40.0181
25.669 39.4933
25.7147 39.6255
25.7605 39.3433
25.8062 39.5164
25.8521 39.702
25.8977 39.7888
25.9436 39.8912
25.9893 40.0913
26.0352 40.5356
26.0809 40.9115
26.1268 41.1548
26.1725 40.9937
26.2184 40.2172
26.2641 39.6341
26.31 39.313
26.3557 39.2754
26.4017 39.3945
26.4474 39.6412
26.4933 39.8667
26.5391 40.3402
26.585 41.0821
26.6308 41.6813
26.6767 41.8724
26.7225 41.7698
26.7684 41.0945
26.8142 40.4905
26.8601 39.9549
26.9059 39.4623
26.9519 38.9827
26.9979 38.6627
27.0437 38.0875
27.0896 37.9842
27.1354 37.9846
27.1814 37.797
27.2272 37.8191
27.2732 37.7549
27.3191 37.5532
27.3651 37.6933
27.4109 37.6242
27.4569 37.7689
27.5027 37.8466
27.5488 37.8795
27.5946 37.6882
27.6407 37.5592
27.6865 37.3402
27.7326 37.2083
27.7784 37.2157
27.8245 37.0346
27.8703 37.3199
27.9164 37.5065
27.9623 37.8213
28.0084 38.2428
28.0543 38.799
28.1003 38.7396
28.1462 38.5687
28.1923 38.2433
28.2384 37.6754
28.2843 37.1901
28.3304 36.6743
28.3764 36.1185
28.4225 35.6588
28.4684 35.5964
28.5145 35.2157
28.5605 35.1713
28.6066 34.9937
28.6526 34.8937
28.6987 34.9186
28.7447 34.7668
28.7908 34.6777
28.8368 34.7325
28.8829 34.6329
28.9289 34.6823
28.9751 34.4709
29.0211 34.2558
29.0673 33.9192
29.1133 33.8607
29.1595 33.6857
29.2055 33.5173
29.2517 33.6008
29.2977 33.5089
29.3439 33.6248
29.3899 33.6028
29.4361 33.5169
29.4824 33.3696
29.5284 33.1482
29.5746 32.7906
29.6207 32.4554
29.6669 32.3706
29.713 32.2489
29.7593 32.1919
29.8053 32.1172
29.8516 32.0244
29.8977 32.0722
29.9439 31.9843
29.99 31.8097
30.0363 31.7555
30.0824 31.8021
30.1287 31.6834
30.1748 31.7948
30.2211 31.8242
30.2673 31.6314
30.3136 31.79
30.3597 31.7254
30.406 31.5497
30.4522 31.4114
30.4985 31.384
30.5447 31.4854
30.591 31.6042
30.6372 31.6559
30.6835 31.6884
30.7297 31.7474
30.7761 31.6711
30.8224 31.5519
30.8686 31.3776
30.915 31.0242
30.9612 30.9555
31.0076 30.7801
31.0538 30.5144
31.1002 30.5472
31.1464 30.357
31.1928 30.3909
31.2391 30.382
31.2855 30.3163
31.3317 30.3016
31.3781 30.3605
31.4244 30.3261
31.4708 30.29
31.5171 30.3304
31.5636 30.2976
31.6098 29.9314
31.6563 29.918
31.7026 29.7727
31.7491 29.6025
31.7953 29.6817
31.8418 29.6408
31.8881 29.6855
31.9346 29.6618
31.9809 29.5518
32.0275 29.4173
32.074 29.3038
32.1203 29.2155
32.1668 29.0287
32.2132 28.9262
32.2597 28.6931
32.306 28.6236
32.3526 28.3387
32.399 28.3165
32.4455 28.2634
32.4919 28.2108
32.5385 28.1573
32.5848 27.8965
32.6314 27.9816
32.6778 27.8415
32.7244 27.7628
32.7708 27.5797
32.8174 27.7065
32.8638 27.5742
32.9104 27.4836
32.9569 27.4366
33.0035 27.2639
33.0499 27.3238
33.0966 27.2869
33.143 27.3123
33.1897 27.2196
33.2361 27.2356
33.2828 27.1685
33.3293 26.9814
33.3759 26.9894
33.4226 26.667
33.4691 26.6074
33.5158 26.6169
33.5623 26.4254
33.609 26.2794
33.6555 26.1636
33.7022 26.0879
33.7487 25.9714
33.7954 25.9293
33.842 25.9531
33.8887 25.8788
33.9353 25.7938
33.982 25.6339
34.0286 25.5351
34.0753 25.5519
34.1219 25.3393
34.1687 25.4155
34.2152 25.2573
34.262 25.1027
34.3086 25.1549
34.3554 24.9911
34.402 24.8753
34.4488 24.7969
34.4954 24.7721
34.5422 24.6838
34.5889 24.6011
34.6357 24.5268
34.6825 24.4414
34.7292 24.3376
34.776 24.2733
34.8227 24.2655
34.8695 24.1548
34.9162 24.1292
34.9631 24.0846
35.0098 24.052
35.0566 23.9535
35.1033 23.8199
35.1502 23.7434
35.1969 23.7715
35.2438 23.71
35.2906 23.6647
35.3375 23.5636
35.3842 23.6239
35.4311 23.5411
35.4779 23.5625
35.5248 23.4646
35.5716 23.3564
35.6185 23.3305
35.6653 23.2293
35.7123 23.1389
35.759 23.0657
35.806 23.002
35.8528 22.8449
35.8998 22.8658
35.9468 22.7085
35.9936 22.6864
36.0406 22.6526
36.0874 22.5052
36.1345 22.5039
36.1813 22.4222
36.2283 22.3291
36.2752 22.2324
36.3222 22.2646
36.3691 22.2225
36.4161 22.0127
36.463 22.0266
36.5101 22.0294
36.557 21.9343
36.6041 21.7972
36.651 21.7768
36.6981 21.7281
36.745 21.6651
36.7921 21.5478
36.839 21.4285
36.8861 21.4324
36.9331 21.3936
36.9802 21.2255
37.0272 21.1792
37.0743 21.1505
37.1213 21.0494
37.1684 21.02
37.2154 21.0069
37.2626 20.8602
37.3098 20.8618
37.3568 20.7755
37.404 20.6558
37.451 20.5064
37.4982 20.5606
37.5452 20.5023
37.5924 20.4461
37.6395 20.3858
37.6867 20.3225
37.7337 20.215
37.781 20.1839
37.8281 20.0637
37.8753 20.0503
37.9224 20.0137
37.9697 19.9045
38.0168 19.8717
38.064 19.7331
38.1111 19.7334
38.1584 19.6515
38.2056 19.6102
38.2529 19.527
38.3 19.4642
38.3473 19.4894
38.3945 19.339
38.4418 19.3011
38.489 19.2661
38.5363 19.098
38.5837 19.0785
38.6309 19.0258
38.6782 18.9583
38.7254 18.8539
38.7728 18.8013
38.82 18.7911
38.8674 18.7595
38.9146 18.6447
38.9621 18.5866
39.0093 18.624
39.0567 18.528
39.104 18.421
39.1514 18.3349
39.1987 18.3439
39.2461 18.2843
39.2934 18.2054
39.3409 18.0518
39.3882 18.0092
39.4356 18.0205
39.483 18.0232
39.5304 17.8926
39.5778 17.9216
39.6253 17.8457
39.6726 17.7752
39.7201 17.7374
39.7675 17.6863
39.815 17.6454
39.8624 17.5074
39.9099 17.5122
39.9575 17.3704
40.0049 17.3531
40.0525 17.3234
40.0999 17.2739
40.1474 17.2272
40.1949 17.0788
40.2425 17.119
40.2899 17.0465
40.3375 16.991
40.385 16.9753
40.4326 16.8891
40.48 16.8425
40.5277 16.7649
40.5752 16.6701
40.6228 16.6106
40.6703 16.5758
40.718 16.5583
40.7655 16.5486
40.8132 16.4031
40.8607 16.4232
40.9084 16.341
40.9559 16.3294
41.0036 16.2556
41.0512 16.1907
41.0989 16.2718
41.1465 16.0781
41.1942 16.0668
41.242 15.9167
41.2896 15.8817
41.3373 15.8942
41.3849 15.8448
41.4327 15.7354
41.4803 15.6795
41.5281 15.658
41.5758 15.6317
41.6236 15.4844
41.6712 15.5884
41.7191 15.4699
41.7667 15.4214
41.8146 15.3693
41.8622 15.2531
41.9101 15.2619
41.9578 15.136
42.0057 15.1848
42.0534 15.1108
42.1013 15.0502
42.149 14.9838
42.1969 14.9174
42.2446 14.9715
42.2925 14.9072
42.3403 14.8152
42.3882 14.7814
42.436 14.6514
42.4839 14.6483
42.5319 14.576
42.5797 14.5236
42.6277 14.5335
42.6755 14.4334
42.7235 14.3705
42.7713 14.3621
42.8193 14.268
42.8671 14.1955
42.9152 14.2082
42.963 14.1708
43.0111 14.0488
43.0589 14.0339
43.107 14.0036
43.1549 13.9516
43.2029 13.9322
43.2508 13.8809
43.2989 13.7988
43.3468 13.7732
43.3949 13.7568
43.4429 13.706
43.491 13.6503
43.5389 13.5831
43.5871 13.5685
43.635 13.4812
43.6832 13.445
43.7312 13.3761
43.7793 13.3546
43.8273 13.2898
43.8755 13.2564
43.9237 13.2152
43.9717 13.1834
44.0199 13.1438
44.068 13.0922
44.1162 13.0556
44.1642 13.0045
44.2125 12.9702
44.2606 12.9002
44.3088 12.8716
44.3569 12.8198
44.4052 12.7384
44.4533 12.678
44.5016 12.6666
44.5497 12.6438
44.598 12.5643
44.6461 12.5141
44.6945 12.4773
44.7426 12.4929
44.791 12.4467
44.8391 12.4027
44.8875 12.3549
44.9357 12.3058
44.984 12.2411
45.0322 12.1953
45.0806 12.1592
45.1288 12.0952
45.1773 12.0741
45.2257 12.0422
45.2739 11.9602
45.3224 11.894
45.3706 11.9179
45.4191 11.8454
45.4673 11.8099
45.5158 11.7704
45.5641 11.6758
45.6126 11.618
45.6609 11.6173
45.7094 11.5982
45.7577 11.5139
45.8063 11.4624
45.8546 11.4915
45.9031 11.435
45.9515 11.4064
46.0001 11.3876
46.0484 11.2952
46.097 11.2904
46.1454 11.2102
46.194 11.2452
46.2424 11.1598
46.291 11.1201
46.3395 11.0586
46.3881 11.043
46.4365 10.9396
46.4852 10.9536
46.5337 10.8893
46.5823 10.8836
46.631 10.8528
46.6795 10.8085
46.7282 10.7676
46.7767 10.7257
46.8254 10.6299
46.8739 10.677
46.9226 10.5839
46.9712 10.5244
47.0199 10.5143
47.0685 10.4741
47.1173 10.3675
47.1658 10.3801
47.2146 10.3862
47.2632 10.3065
47.312 10.3072
47.3606 10.2202
47.4095 10.1956
47.4581 10.1861
47.5069 10.1456
47.5556 10.1236
47.6044 10.0853
47.6531 10.0146
47.702 9.97675
47.7507 9.92764
47.7996 9.90778
47.8483 9.85756
47.8972 9.83229
47.9461 9.77916
47.9948 9.74324
48.0438 9.70965
48.0925 9.70251
48.1415 9.65835
48.1902 9.62458
48.2392 9.63997
48.288 9.59068
48.337 9.53384
48.3858 9.46774
48.4348 9.40892
48.4837 9.45085
48.5327 9.41397
48.5815 9.35214
48.6306 9.30769
48.6795 9.29081
48.7285 9.25774
48.7774 9.20031
48.8265 9.22323
48.8754 9.14587
48.9245 9.06777
48.9734 9.0432
49.0226 9.06042
49.0715 9.02615
49.1206 8.96825
49.1696 8.91496
49.2188 8.89861
49.2679 8.89084
49.3169 8.85669
49.3661 8.78408
49.4151 8.78003
49.4643 8.72456
49.5134 8.70192
49.5626 8.67526
49.6117 8.62941
49.6609 8.59299
49.71 8.52585
49.7592 8.52512
49.8083 8.48243
49.8576 8.49189
49.9067 8.40981
49.956 8.41891
50.0052 8.36519
50.0545 8.39152
50.1036 8.30785
50.153 8.28871
50.2022 8.26608
50.2515 8.24176
50.3007 8.18976
50.3501 8.09822
50.3993 8.12061
50.4487 8.09751
50.498 8.04318
50.5474 8.0308
50.5966 7.99568
50.6461 7.94274
50.6955 7.90053
50.7448 7.92381
50.7943 7.89701
50.8436 7.84039
50.8931 7.78607
50.9424 7.76391
50.9919 7.75092
51.0413 7.74446
51.0908 7.67642
51.1402 7.64972
51.1897 7.61014
51.2391 7.5837
51.2887 7.56095
51.3381 7.51894
51.3877 7.53396
51.4371 7.46706
51.4867 7.41528
51.5362 7.39723
51.5858 7.36839
51.6353 7.32727
51.6849 7.31623
51.7344 7.27722
51.7841 7.23699
51.8336 7.21477
51.8833 7.19553
51.9328 7.16823
51.9826 7.14995
52.0323 7.12378
52.0818 7.07497
52.1316 7.02713
52.1812 7.01587
52.231 6.98783
52.2806 6.95421
52.3304 6.96862
52.38 6.94037
52.4298 6.86578
52.4794 6.839
52.5293 6.79665
52.5789 6.77641
52.6288 6.77365
52.6785 6.73977
52.7284 6.69872
52.7781 6.67137
52.828 6.67611
52.8777 6.62103
52.9276 6.56205
52.9774 6.5751
53.0273 6.53744
53.0771 6.52351
53.1271 6.51866
53.1769 6.45311
53.2269 6.41988
53.2767 6.40297
53.3267 6.39413
53.3765 6.36818
53.4266 6.33668
53.4766 6.3159
53.5265 6.26289
53.5765 6.25167
53.6264 6.20598
53.6765 6.1819
53.7264 6.16164
53.7765 6.13877
53.8265 6.09525
53.8766 6.07668
53.9266 6.0722
53.9767 6.01703
54.0267 6.00602
54.0769 5.97282
54.1269 5.96256
54.1771 5.9014
54.2271 5.89966
54.2773 5.80521
54.3274 5.81804
54.3776 5.77383
54.4277 5.74218
54.478 5.74446
54.528 5.70738
54.5783 5.66146
54.6285 5.6336
54.6788 5.53922
54.7289 5.56685
54.7792 5.48848
54.8296 5.45397
54.8798 5.43455
54.9301 5.38892
54.9803 5.36237
55.0307 5.33876
55.0809 5.26462
55.1314 5.25078
55.1816 5.16586
55.232 5.13516
55.2823 5.09221
55.3328 5.06419
55.383 4.97428
55.4335 4.95357
55.4838 4.93185
55.5344 4.89742
55.5847 4.84572
55.6352 4.82297
55.6856 4.82333
55.7361 4.806