File: XRD/Ni3Fe_FD0992.xy
TT I
1.27165 7.12498
1.31627 6.63281
1.36089 6.50511
1.40551 5.53532
1.45013 6.56086
1.49476 5.58285
1.53938 5.9975
1.584 5.19693
1.62863 5.04778
1.67325 4.87114
1.71787 5.43963
1.7625 4.83806
1.80712 4.31377
1.85174 4.7008
1.89636 4.44792
1.94099 4.90558
1.98562 4.65251
2.03025 4.64144
2.07487 4.55472
2.11949 5.21026
2.16411 5.33619
2.20874 15.4092
2.25338 26.245
2.298 6.2478
2.34263 5.72599
2.38725 6.27243
2.43188 6.63654
2.4765 7.17194
2.52115 7.70425
2.56577 8.34741
2.6104 9.299
2.65503 8.43762
2.69965 8.9697
2.7443 8.75508
2.78893 8.08942
2.83356 8.82116
2.87818 8.78437
2.92281 9.64308
2.96744 9.48863
3.01209 10.2751
3.05672 11.4202
3.10135 12.4376
3.14599 12.7538
3.19062 14.7269
3.23527 15.4256
3.2799 16.0436
3.32454 17.1165
3.36917 18.3695
3.4138 19.1603
3.45844 19.9296
3.50309 20.4976
3.54773 21.962
3.59237 24.0872
3.637 102.059
3.68164 65.1429
3.7263 26.4907
3.77094 26.0299
3.81558 26.5111
3.86022 27.1537
3.90486 29.0848
3.9495 29.5525
3.99416 30.7334
4.0388 31.5767
4.08344 33.4227
4.12809 34.4675
4.17273 37.1203
4.21738 42.8377
4.26204 278.198
4.30669 249.119
4.35133 48.964
4.39598 44.3285
4.44063 54.4031
4.4853 68.3571
4.52995 49.854
4.5746 49.9888
4.61925 52.5244
4.6639 54.6283
4.70855 56.7667
4.75322 59.9191
4.79788 62.1815
4.84253 65.9516
4.88719 69.4789
4.93184 72.6826
4.97652 78.1527
5.02118 83.8963
5.06583 90.311
5.11049 100.108
5.15515 168.081
5.19981 267.976
5.24449 2193.63
5.28916 13370.0
5.33382 2753.62
5.37848 173.092
5.42315 123.695
5.46783 109.591
5.5125 103.057
5.55716 99.4689
5.60183 95.8561
5.6465 94.2261
5.69117 91.8823
5.73586 89.6424
5.78053 88.6053
5.8252 88.1001
5.86988 88.5069
5.91455 89.7258
5.95924 94.9406
6.00392 161.756
6.0486 751.369
6.09328 4558.54
6.13795 3249.7
6.18263 214.101
6.22733 89.0551
6.27201 81.3684
6.3167 104.801
6.36138 80.7385
6.40606 67.6584
6.45075 66.1784
6.49545 64.4477
6.54014 62.9588
6.58483 62.0929
6.62952 62.1169
6.67421 97.1109
6.71892 156.35
6.76361 70.2021
6.8083 57.742
6.853 56.8006
6.89769 56.1667
6.94239 56.0795
6.98711 55.0167
7.03181 55.0344
7.07651 54.5457
7.12121 54.2738
7.16591 54.6307
7.21063 54.5815
7.25533 71.9135
7.30004 196.139
7.34475 98.0779
7.38945 55.9612
7.43416 54.118
7.47889 54.1241
7.5236 54.3118
7.56831 54.8812
7.61303 56.7348
7.65774 56.8023
7.70247 55.3444
7.74719 55.5273
7.79191 55.7538
7.83663 56.1425
7.88135 56.883
7.92607 57.7312
7.97081 58.7613
8.01553 59.815
8.06026 61.1011
8.10498 62.5089
8.14971 72.9315
8.19446 72.2034
8.23919 68.1628
8.28392 70.2439
8.32865 72.2716
8.37339 75.9738
8.41812 83.1421
8.46288 113.352
8.50761 138.746
8.55235 312.938
8.59709 1109.7
8.64183 2339.16
8.68658 953.979
8.73134 163.203
8.77609 96.6531
8.82083 90.3895
8.86558 87.5978
8.91033 88.2307
8.9551 91.0858
8.99985 83.8542
9.04461 81.693
9.08936 80.8681
9.13412 80.3948
9.17888 80.2547
9.22365 81.3576
9.26841 80.5521
9.31318 80.7814
9.35794 80.8094
9.4027 81.6354
9.44749 82.0404
9.49226 82.5577
9.53703 83.6616
9.5818 85.4361
9.62657 90.1474
9.67134 97.6448
9.71614 92.2873
9.76091 91.3025
9.80569 93.5505
9.85047 97.3063
9.89525 123.55
9.94005 135.898
9.98484 150.86
10.0296 283.788
10.0744 731.619
10.1192 1760.64
10.164 1582.56
10.2088 373.44
10.2536 122.999
10.2984 110.834
10.3432 113.676
10.388 102.249
10.4328 108.93
10.4776 143.215
10.5224 262.364
10.5672 530.04
10.612 517.94
10.6568 197.493
10.7017 94.7238
10.7465 84.9036
10.7913 81.4715
10.8361 79.3643
10.8809 77.4804
10.9257 77.212
10.9706 77.9956
11.0154 73.6655
11.0602 71.436
11.105 70.5317
11.1499 76.0202
11.1947 84.4907
11.2395 74.2685
11.2844 69.5494
11.3292 66.0746
11.374 64.8751
11.4189 64.2085
11.4637 63.7761
11.5086 64.4626
11.5534 67.8311
11.5983 64.7626
11.6431 62.5044
11.688 61.3547
11.7328 61.7378
11.7777 61.8326
11.8225 61.2503
11.8674 61.0835
11.9122 61.3872
11.9571 61.4667
12.002 62.0868
12.0468 64.549
12.0917 74.1361
12.1366 97.1949
12.1814 149.523
12.2263 205.391
12.2712 162.969
12.3161 94.7948
12.3609 69.8841
12.4058 63.4562
12.4507 62.9757
12.4956 63.1146
12.5405 63.2832
12.5853 64.2619
12.6302 73.2759
12.6751 79.5923
12.72 69.5258
12.7649 66.4322
12.8098 66.7799
12.8547 68.0436
12.8996 69.4171
12.9445 70.4399
12.9894 72.0247
13.0343 73.8473
13.0792 76.7171
13.1242 83.2162
13.1691 101.817
13.214 134.486
13.2589 223.684
13.3038 375.183
13.3487 435.196
13.3937 255.062
13.4386 121.171
13.4835 98.8993
13.5285 111.058
13.5734 145.578
13.6183 238.481
13.6633 358.054
13.7082 338.169
13.7531 179.405
13.7981 94.4727
13.843 80.0262
13.888 77.8538
13.9329 75.3394
13.9779 74.2988
14.0228 72.7365
14.0678 71.5057
14.1127 71.1538
14.1577 71.028
14.2027 69.9142
14.2476 68.5932
14.2926 69.1729
14.3376 70.6201
14.3825 69.1169
14.4275 67.441
14.4725 67.1857
14.5175 67.0734
14.5624 67.434
14.6074 69.8361
14.6524 70.439
14.6974 68.705
14.7424 69.4546
14.7874 74.2822
14.8324 82.9788
14.8774 102.681
14.9224 146.76
14.9674 210.786
15.0124 219.836
15.0574 150.082
15.1024 88.754
15.1474 70.6662
15.1924 68.9758
15.2374 69.9467
15.2824 69.2018
15.3274 66.9382
15.3725 65.4927
15.4175 64.8677
15.4625 64.6623
15.5076 64.8244
15.5526 64.6733
15.5976 64.1606
15.6426 64.5297
15.6877 68.5372
15.7327 74.7913
15.7778 88.6351
15.8228 119.327
15.8679 170.223
15.9129 196.77
15.958 153.793
16.003 94.4851
16.0481 67.1687
16.0931 63.7155
16.1382 61.774
16.1833 59.4592
16.2283 57.9005
16.2734 57.1928
16.3185 57.7415
16.3636 58.7143
16.4086 56.7629
16.4537 55.0427
16.4988 54.395
16.5439 54.3758
16.589 53.939
16.6341 53.5665
16.6792 53.504
16.7243 53.8299
16.7694 53.903
16.8145 53.562
16.8596 54.2111
16.9047 55.736
16.9498 55.8266
16.9949 54.6634
17.04 54.5265
17.0851 55.2537
17.1302 56.6638
17.1754 59.4515
17.2205 64.5215
17.2656 72.6945
17.3108 81.6198
17.3559 80.3124
17.401 68.9877
17.4462 60.2769
17.4913 57.7315
17.5365 57.7256
17.5815 58.1018
17.6268 58.3395
17.6718 59.0705
17.7171 59.5282
17.7622 59.8515
17.8074 60.1089
17.8525 61.8877
17.8977 65.0688
17.9428 69.9043
17.9881 78.3043
18.0331 95.7788
18.0784 120.077
18.1237 137.968
18.1688 127.387
18.214 99.684
18.2591 83.0933
18.3044 87.9133
18.3495 99.6416
18.3948 106.245
18.4399 94.6239
18.4852 75.8148
18.5303 64.6255
18.5756 60.8607
18.6207 60.0212
18.666 59.1592
18.7112 58.4623
18.7565 57.5836
18.8016 57.3334
18.8469 56.7515
18.892 56.5738
18.9374 55.9701
18.9825 55.9074
19.0278 55.6875
19.073 55.6778
19.1183 56.0138
19.1635 56.5717
19.2088 57.8385
19.254 60.1395
19.2993 64.9206
19.3447 71.7332
19.3898 75.3194
19.4352 70.6898
19.4804 61.6553
19.5257 55.3383
19.5709 53.0451
19.6163 52.7629
19.6615 52.7253
19.7068 52.1608
19.752 52.1767
19.7974 52.3068
19.8426 53.0438
19.888 53.5512
19.9332 54.648
19.9786 56.926
20.0238 60.7175
20.0692 66.2175
20.1144 69.0172
20.1598 66.4307
20.205 61.7409
20.2504 60.6682
20.2957 62.8538
20.3411 65.0583
20.3863 62.963
20.4318 57.1227
20.477 52.7037
20.5224 50.6756
20.5677 49.9338
20.6131 49.3164
20.6586 48.6132
20.7038 48.4824
20.7493 48.0877
20.7945 47.9924
20.84 47.8833
20.8853 47.5601
20.9307 47.4734
20.976 47.7114
21.0215 47.4647
21.0668 47.9299
21.1122 48.2389
21.1575 48.8632
21.203 50.0215
21.2483 50.4656
21.2938 50.336
21.3391 48.8531
21.3846 47.8103
21.4299 47.2878
21.4754 47.4456
21.5207 47.3783
21.5662 47.6922
21.6116 47.8554
21.6571 48.3942
21.7024 49.3108
21.7479 50.9269
21.7933 53.5212
21.8388 57.8544
21.8843 61.7792
21.9297 63.5607
21.9752 61.8595
22.0206 58.1534
22.0661 55.5576
22.1115 55.2876
22.157 55.1683
22.2024 53.143
22.248 50.2804
22.2933 48.8786
22.3389 48.0564
22.3843 47.9591
22.4299 48.0251
22.4753 47.7884
22.5208 47.6552
22.5662 47.3111
22.6118 47.6683
22.6572 47.6108
22.7028 47.8904
22.7483 48.4105
22.7939 49.118
22.8393 50.5861
22.8849 52.7461
22.9303 55.2366
22.9759 57.3057
23.0214 56.5745
23.067 53.457
23.1126 49.9619
23.1581 48.0251
23.2037 47.7609
23.2492 47.7549
23.2948 47.5168
23.3403 47.7903
23.3859 48.4632
23.4314 49.4416
23.477 51.1251
23.5225 54.005
23.5682 56.1631
23.6137 57.1055
23.6593 54.621
23.7048 50.4389
23.7505 47.3522
23.796 45.7886
23.8417 45.0478
23.8872 44.572
23.9329 44.1561
23.9784 43.7686
24.0241 43.6363
24.0697 43.5618
24.1154 43.3977
24.1609 43.2018
24.2066 42.9294
24.2522 42.6964
24.2979 42.5886
24.3434 42.46
24.3892 42.1557
24.4349 42.2387
24.4805 42.0425
24.5262 42.3321
24.5718 42.0718
24.6175 42.134
24.6631 41.8856
24.7089 41.6751
24.7545 41.4963
24.8002 41.3977
24.8458 41.2247
24.8916 41.2206
24.9372 41.2515
24.983 41.5265
25.0286 41.881
25.0744 42.3344
25.12 42.8116
25.1658 43.4039
25.2114 43.7174
25.2572 43.7619
25.3029 44.1395
25.3487 44.1388
25.3943 43.8464
25.4402 42.6364
25.4858 41.5288
25.5316 40.5781
25.5773 40.04
25.6231 40.0087
25.669 39.7706
25.7147 39.6454
25.7605 39.5407
25.8062 39.6088
25.8521 39.729
25.8977 39.7162
25.9436 39.9345
25.9893 40.2217
26.0352 40.6518
26.0809 40.669
26.1268 40.9709
26.1725 40.5378
26.2184 39.9462
26.2641 39.4781
26.31 39.2105
26.3557 39.1535
26.4017 39.2357
26.4474 39.5584
26.4933 39.9125
26.5391 40.3061
26.585 40.877
26.6308 41.4103
26.6767 41.2697
26.7225 41.0424
26.7684 40.5922
26.8142 39.9233
26.8601 39.6766
26.9059 39.0584
26.9519 38.634
26.9979 38.3206
27.0437 38.0303
27.0896 37.9082
27.1354 37.8888
27.1814 37.7996
27.2272 37.7605
27.2732 37.695
27.3191 37.5514
27.3651 37.5984
27.4109 37.5792
27.4569 37.7065
27.5027 37.7702
27.5488 37.737
27.5946 37.6243
27.6407 37.319
27.6865 37.2625
27.7326 36.9456
27.7784 37.0539
27.8245 36.9282
27.8703 37.0886
27.9164 37.392
27.9623 37.7165
28.0084 37.972
28.0543 38.371
28.1003 38.2735
28.1462 38.0823
28.1923 37.6896
28.2384 37.1918
28.2843 36.8258
28.3304 36.3359
28.3764 36.0048
28.4225 35.7437
28.4684 35.5978
28.5145 35.2522
28.5605 35.1733
28.6066 34.9993
28.6526 34.9755
28.6987 34.9046
28.7447 34.7925
28.7908 34.7374
28.8368 34.7785
28.8829 34.7499
28.9289 34.6069
28.9751 34.4809
29.0211 34.1878
29.0673 33.8191
29.1133 33.9417
29.1595 33.767
29.2055 33.584
29.2517 33.6652
29.2977 33.5872
29.3439 33.5746
29.3899 33.5639
29.4361 33.5658
29.4824 33.3334
29.5284 33.0294
29.5746 32.6807
29.6207 32.4774
29.6669 32.5265
29.713 32.3054
29.7593 32.332
29.8053 32.0934
29.8516 32.1215
29.8977 32.0804
29.9439 31.9979
29.99 32.0006
30.0363 31.7228
30.0824 31.8154
30.1287 31.8153
30.1748 31.8578
30.2211 31.8024
30.2673 31.6478
30.3136 31.7103
30.3597 31.6091
30.406 31.4981
30.4522 31.4387
30.4985 31.3665
30.5447 31.5049
30.591 31.429
30.6372 31.6251
30.6835 31.5105
30.7297 31.5625
30.7761 31.439
30.8224 31.4182
30.8686 31.1205
30.915 30.9821
30.9612 30.8512
31.0076 30.7248
31.0538 30.5401
31.1002 30.4426
31.1464 30.2891
31.1928 30.2981
31.2391 30.3485
31.2855 30.2388
31.3317 30.213
31.3781 30.3185
31.4244 30.1795
31.4708 30.291
31.5171 30.2535
31.5636 30.1209
31.6098 29.9292
31.6563 29.6976
31.7026 29.5593
31.7491 29.4664
31.7953 29.5526
31.8418 29.6001
31.8881 29.5642
31.9346 29.568
31.9809 29.4647
32.0275 29.354
32.074 29.2707
32.1203 29.0349
32.1668 29.0166
32.2132 28.8004
32.2597 28.7582
32.306 28.6418
32.3526 28.3666
32.399 28.4002
32.4455 28.3049
32.4919 28.0785
32.5385 28.1501
32.5848 27.8535
32.6314 27.9731
32.6778 27.8336
32.7244 27.7414
32.7708 27.5589
32.8174 27.6105
32.8638 27.5254
32.9104 27.6176
32.9569 27.5063
33.0035 27.3672
33.0499 27.3355
33.0966 27.2676
33.143 27.1725
33.1897 27.1181
33.2361 27.0497
33.2828 27.0387
33.3293 26.8499
33.3759 26.8239
33.4226 26.7493
33.4691 26.6001
33.5158 26.463
33.5623 26.2943
33.609 26.3137
33.6555 26.3086
33.7022 26.1159
33.7487 25.945
33.7954 25.9537
33.842 25.9136
33.8887 25.8422
33.9353 25.7569
33.982 25.5667
34.0286 25.5155
34.0753 25.507
34.1219 25.3772
34.1687 25.3299
34.2152 25.3067
34.262 25.152
34.3086 25.0954
34.3554 25.019
34.402 24.9003
34.4488 24.7746
34.4954 24.736
34.5422 24.6095
34.5889 24.5974
34.6357 24.5437
34.6825 24.3584
34.7292 24.3848
34.776 24.234
34.8227 24.2301
34.8695 24.1276
34.9162 24.0976
34.9631 24.0182
35.0098 23.958
35.0566 23.933
35.1033 23.8455
35.1502 23.785
35.1969 23.7581
35.2438 23.7107
35.2906 23.6165
35.3375 23.6191
35.3842 23.5295
35.4311 23.553
35.4779 23.4662
35.5248 23.4785
35.5716 23.3583
35.6185 23.2477
35.6653 23.1551
35.7123 23.0803
35.759 23.0457
35.806 22.918
35.8528 22.788
35.8998 22.7034
35.9468 22.5982
35.9936 22.5955
36.0406 22.5716
36.0874 22.5548
36.1345 22.4515
36.1813 22.3513
36.2283 22.3323
36.2752 22.1876
36.3222 22.2114
36.3691 22.1031
36.4161 21.9866
36.463 21.951
36.5101 21.9837
36.557 21.913
36.6041 21.7204
36.651 21.7243
36.6981 21.6797
36.745 21.5996
36.7921 21.5253
36.839 21.4387
36.8861 21.3851
36.9331 21.2959
36.9802 21.3005
37.0272 21.103
37.0743 21.1016
37.1213 21.0887
37.1684 21.0436
37.2154 20.9008
37.2626 20.8419
37.3098 20.8199
37.3568 20.7901
37.404 20.6282
37.451 20.6087
37.4982 20.5663
37.5452 20.4648
37.5924 20.3984
37.6395 20.4369
37.6867 20.3266
37.7337 20.1898
37.781 20.0679
37.8281 20.0696
37.8753 19.9864
37.9224 19.9372
37.9697 19.8416
38.0168 19.7481
38.064 19.7482
38.1111 19.7085
38.1584 19.575
38.2056 19.5264
38.2529 19.5728
38.3 19.4648
38.3473 19.4234
38.3945 19.2805
38.4418 19.2689
38.489 19.1968
38.5363 19.0918
38.5837 19.0598
38.6309 19.0428
38.6782 18.9736
38.7254 19.0019
38.7728 18.8634
38.82 18.7948
38.8674 18.7554
38.9146 18.6646
38.9621 18.6532
39.0093 18.5093
39.0567 18.5025
39.104 18.4398
39.1514 18.3337
39.1987 18.3643
39.2461 18.3015
39.2934 18.2586
39.3409 18.1349
39.3882 18.0709
39.4356 18.0362
39.483 17.969
39.5304 17.8473
39.5778 17.9327
39.6253 17.7708
39.6726 17.7671
39.7201 17.6962
39.7675 17.6555
39.815 17.5765
39.8624 17.5968
39.9099 17.4894
39.9575 17.408
40.0049 17.3496
40.0525 17.2707
40.0999 17.2248
40.1474 17.2212
40.1949 17.1217
40.2425 17.0704
40.2899 17.0727
40.3375 16.9576
40.385 17.0247
40.4326 16.8985
40.48 16.778
40.5277 16.7841
40.5752 16.7099
40.6228 16.6519
40.6703 16.5615
40.718 16.5231
40.7655 16.5584
40.8132 16.4217
40.8607 16.4629
40.9084 16.3387
40.9559 16.2903
41.0036 16.2809
41.0512 16.252
41.0989 16.1692
41.1465 16.1473
41.1942 16.0846
41.242 15.9299
41.2896 15.9426
41.3373 15.8683
41.3849 15.8274
41.4327 15.7676
41.4803 15.7676
41.5281 15.6476
41.5758 15.576
41.6236 15.5192
41.6712 15.4868
41.7191 15.3761
41.7667 15.3433
41.8146 15.388
41.8622 15.3077
41.9101 15.2047
41.9578 15.1366
42.0057 15.1515
42.0534 15.1405
42.1013 15.0183
42.149 14.9649
42.1969 14.9473
42.2446 14.9041
42.2925 14.8717
42.3403 14.8146
42.3882 14.7263
42.436 14.7495
42.4839 14.6362
42.5319 14.6196
42.5797 14.5532
42.6277 14.5067
42.6755 14.4251
42.7235 14.4306
42.7713 14.3424
42.8193 14.272
42.8671 14.2595
42.9152 14.2082
42.963 14.1696
43.0111 14.0666
43.0589 14.0468
43.107 14.0205
43.1549 13.9542
43.2029 13.9402
43.2508 13.9163
43.2989 13.8269
43.3468 13.75
43.3949 13.7196
43.4429 13.6756
43.491 13.6312
43.5389 13.6207
43.5871 13.4953
43.635 13.4527
43.6832 13.4654
43.7312 13.3772
43.7793 13.3148
43.8273 13.2981
43.8755 13.2565
43.9237 13.1731
43.9717 13.1755
44.0199 13.1134
44.068 13.102
44.1162 13.0074
44.1642 12.9767
44.2125 12.9705
44.2606 12.9028
44.3088 12.8618
44.3569 12.8407
44.4052 12.7592
44.4533 12.6866
44.5016 12.6622
44.5497 12.6184
44.598 12.6181
44.6461 12.5331
44.6945 12.4906
44.7426 12.4709
44.791 12.4245
44.8391 12.3944
44.8875 12.3571
44.9357 12.2889
44.984 12.2261
45.0322 12.1891
45.0806 12.1647
45.1288 12.123
45.1773 12.0536
45.2257 12.0227
45.2739 11.9683
45.3224 11.9505
45.3706 11.9195
45.4191 11.8525
45.4673 11.8633
45.5158 11.784
45.5641 11.7157
45.6126 11.7009
45.6609 11.6544
45.7094 11.5909
45.7577 11.5706
45.8063 11.4842
45.8546 11.469
45.9031 11.4219
45.9515 11.4147
46.0001 11.3776
46.0484 11.2892
46.097 11.252
46.1454 11.2282
46.194 11.2158
46.2424 11.1663
46.291 11.1069
46.3395 11.0721
46.3881 10.995
46.4365 10.9881
46.4852 10.9755
46.5337 10.8866
46.5823 10.8251
46.631 10.8299
46.6795 10.8414
46.7282 10.7617
46.7767 10.7465
46.8254 10.6407
46.8739 10.6234
46.9226 10.5898
46.9712 10.5478
47.0199 10.5573
47.0685 10.4732
47.1173 10.4336
47.1658 10.3958
47.2146 10.3723
47.2632 10.3267
47.312 10.2746
47.3606 10.2559
47.4095 10.1732
47.4581 10.157
47.5069 10.1347
47.5556 10.0827
47.6044 10.0451
47.6531 10.0509
47.702 9.96546
47.7507 9.97428
47.7996 9.88814
47.8483 9.86897
47.8972 9.85704
47.9461 9.82888
47.9948 9.71237
48.0438 9.73324
48.0925 9.70834
48.1415 9.69524
48.1902 9.62492
48.2392 9.57537
48.288 9.5747
48.337 9.52741
48.3858 9.53503
48.4348 9.42331
48.4837 9.41646
48.5327 9.39722
48.5815 9.35595
48.6306 9.33317
48.6795 9.28755
48.7285 9.26305
48.7774 9.25715
48.8265 9.21433
48.8754 9.13998
48.9245 9.10043
48.9734 9.06923
49.0226 9.0744
49.0715 8.99547
49.1206 8.94815
49.1696 8.95959
49.2188 8.91889
49.2679 8.86341
49.3169 8.85418
49.3661 8.77797
49.4151 8.78812
49.4643 8.7361
49.5134 8.69652
49.5626 8.64588
49.6117 8.67224
49.6609 8.60508
49.71 8.5658
49.7592 8.54222
49.8083 8.47518
49.8576 8.45683
49.9067 8.44434
49.956 8.41688
50.0052 8.38078
50.0545 8.33933
50.1036 8.30987
50.153 8.27991
50.2022 8.25285
50.2515 8.20022
50.3007 8.18606
50.3501 8.17886
50.3993 8.10736
50.4487 8.10906
50.498 8.07366
50.5474 8.00461
50.5966 7.98769
50.6461 7.94611
50.6955 7.93317
50.7448 7.93637
50.7943 7.85695
50.8436 7.84908
50.8931 7.8115
50.9424 7.7867
50.9919 7.74134
51.0413 7.73596
51.0908 7.70628
51.1402 7.65917
51.1897 7.63378
51.2391 7.63155
51.2887 7.55634
51.3381 7.53192
51.3877 7.52347
51.4371 7.45231
51.4867 7.45322
51.5362 7.39699
51.5858 7.3707
51.6353 7.3207
51.6849 7.33704
51.7344 7.29409
51.7841 7.24926
51.8336 7.23704
51.8833 7.18339
51.9328 7.18196
51.9826 7.13816
52.0323 7.12122
52.0818 7.07494
52.1316 7.0254
52.1812 7.03259
52.231 6.9935
52.2806 6.94899
52.3304 6.91736
52.38 6.93616
52.4298 6.87897
52.4794 6.88436
52.5293 6.84214
52.5789 6.78132
52.6288 6.80057
52.6785 6.73585
52.7284 6.75039
52.7781 6.69542
52.828 6.68685
52.8777 6.62959
52.9276 6.59367
52.9774 6.57992
53.0273 6.5451
53.0771 6.527
53.1271 6.54653
53.1769 6.43968
53.2269 6.45417
53.2767 6.39799
53.3267 6.40502
53.3765 6.35772
53.4266 6.3632
53.4766 6.33105
53.5265 6.2732
53.5765 6.25845
53.6264 6.23385
53.6765 6.20168
53.7264 6.17596
53.7765 6.11899
53.8265 6.08333
53.8766 6.06848
53.9266 6.07709
53.9767 6.01683
54.0267 6.00704
54.0769 5.97848
54.1269 5.99136
54.1771 5.93432
54.2271 5.9035
54.2773 5.86021
54.3274 5.84
54.3776 5.80521
54.4277 5.82929
54.478 5.71082
54.528 5.69651
54.5783 5.72617
54.6285 5.60702
54.6788 5.59955
54.7289 5.53617
54.7792 5.47623
54.8296 5.46013
54.8798 5.41582
54.9301 5.38768
54.9803 5.32379
55.0307 5.36161
55.0809 5.29165
55.1314 5.23903
55.1816 5.21776
55.232 5.16535
55.2823 5.11506
55.3328 5.04349
55.383 4.9997
55.4335 4.95469
55.4838 4.8993
55.5344 4.8505
55.5847 4.88243
55.6352 4.79095
55.6856 4.7293
55.7361 4.75875